{"condition": 0, "counterbalance": 0, "assignmentId": "a11863614", "workerId": "w80795260", "hitId": "h35179705", "currenttrial": 957, "bonus": 0, "data": [{"uniqueid": "w80795260:a11863614", "current_trial": 0, "dateTime": 1664555300046, "trialdata": {"success": true, "trial_type": "fullscreen", "trial_index": 0, "time_elapsed": 8789, "internal_node_id": "0.0-0.0"}}, {"uniqueid": "w80795260:a11863614", "current_trial": 1, "dateTime": 1664555324487, "trialdata": {"view_history": [{"page_index": 0, "viewing_time": 24435}], "rt": 24436, "trial_id": "exp_instructions_distractor", "trial_type": "instructions", "trial_index": 1, "time_elapsed": 33230, "internal_node_id": "0.0-1.0"}}, {"uniqueid": "w80795260:a11863614", "current_trial": 2, "dateTime": 1664555367837, "trialdata": {"view_history": [{"page_index": 0, "viewing_time": 43348}], "rt": 43348, "trial_id": "color_game_instructions", "trial_type": "instructions", "trial_index": 2, "time_elapsed": 76580, "internal_node_id": "0.0-2.0"}}, {"uniqueid": "w80795260:a11863614", "current_trial": 3, "dateTime": 1664555377447, "trialdata": {"rt": 9609, "stimulus": "<h1> Get ready to start the game! </h1>\n\nThank you for reading the instructions. Get ready start with the first of 5 block(s) of this game.\n<br><br>\nIn this first block, you will complete 90 rounds of this game before moving on.\n<br><br>\nRemember, the better you perform, the bigger your bonus will be!\n<br><br>\n<div style='text-align: center;'>Press <code>space</code> to begin.</div>", "response": " ", "trial_id": "stroop_1_ready_1", "trial_type": "html-keyboard-response", "trial_index": 3, "time_elapsed": 86190, "internal_node_id": "0.0-3.0"}}, {"uniqueid": "w80795260:a11863614", "current_trial": 4, "dateTime": 1664555378854, "trialdata": {"rt": 1402, "stimulus": "<p id='stroop-text' class='stroop-blue'>RED</p>", "response": "b", "stimulus-type": "incongruent", "word": "red", "color": "blue", "correct_response": "b", "trial_id": "stroop-trial-1-incongruent-11", "trial_type": "html-keyboard-response", "trial_index": 4, "time_elapsed": 87596, "internal_node_id": "0.0-4.0-0.0"}}, {"uniqueid": "w80795260:a11863614", "current_trial": 5, "dateTime": 1664555380645, "trialdata": {"rt": 1290, "stimulus": "<p id='stroop-text' class='stroop-yellow'>YELLOW</p>", "response": "y", "stimulus-type": "congruent", "word": "yellow", "color": "yellow", "correct_response": "y", "trial_id": "stroop-trial-1-congruent-8", "trial_type": "html-keyboard-response", "trial_index": 5, "time_elapsed": 89388, "internal_node_id": "0.0-4.0-1.0"}}, {"uniqueid": "w80795260:a11863614", "current_trial": 6, "dateTime": 1664555382413, "trialdata": {"rt": 1266, "stimulus": "<p id='stroop-text' class='stroop-green'>YELLOW</p>", "response": "g", "stimulus-type": "incongruent", "word": "yellow", "color": "green", "correct_response": "g", "trial_id": "stroop-trial-1-incongruent-10", "trial_type": "html-keyboard-response", "trial_index": 6, "time_elapsed": 91156, "internal_node_id": "0.0-4.0-2.0"}}, {"uniqueid": "w80795260:a11863614", "current_trial": 7, "dateTime": 1664555383781, "trialdata": {"rt": 867, "stimulus": "<p id='stroop-text' class='stroop-blue'>YELLOW</p>", "response": "b", "stimulus-type": "incongruent", "word": "yellow", "color": "blue", "correct_response": "b", "trial_id": "stroop-trial-1-incongruent-22", "trial_type": "html-keyboard-response", "trial_index": 7, "time_elapsed": 92524, "internal_node_id": "0.0-4.0-3.0"}}, {"uniqueid": "w80795260:a11863614", "current_trial": 8, "dateTime": 1664555385301, "trialdata": {"rt": 1018, "stimulus": "<p id='stroop-text' class='stroop-yellow'>FORK</p>", "response": "y", "stimulus-type": "unrelated", "word": "FORK", "color": "yellow", "correct_response": "y", "trial_id": "stroop-trial-1-unrelated-16", "trial_type": "html-keyboard-response", "trial_index": 8, "time_elapsed": 94044, "internal_node_id": "0.0-4.0-4.0"}}, {"uniqueid": "w80795260:a11863614", "current_trial": 9, "dateTime": 1664555386829, "trialdata": {"rt": 1027, "stimulus": "<p id='stroop-text' class='stroop-blue'>BOTTLE</p>", "response": "b", "stimulus-type": "unrelated", "word": "BOTTLE", "color": "blue", "correct_response": "b", "trial_id": "stroop-trial-1-unrelated-17", "trial_type": "html-keyboard-response", "trial_index": 9, "time_elapsed": 95572, "internal_node_id": "0.0-4.0-5.0"}}, {"uniqueid": "w80795260:a11863614", "current_trial": 10, "dateTime": 1664555388332, "trialdata": {"rt": 1002, "stimulus": "<p id='stroop-text' class='stroop-green'>GREEN</p>", "response": "g", "stimulus-type": "congruent", "word": "green", "color": "green", "correct_response": "g", "trial_id": "stroop-trial-1-congruent-6", "trial_type": "html-keyboard-response", "trial_index": 10, "time_elapsed": 97075, "internal_node_id": "0.0-4.0-6.0"}}, {"uniqueid": "w80795260:a11863614", "current_trial": 11, "dateTime": 1664555389733, "trialdata": {"rt": 898, "stimulus": "<p id='stroop-text' class='stroop-blue'>GREEN</p>", "response": "b", "stimulus-type": "incongruent", "word": "green", "color": "blue", "correct_response": "b", "trial_id": "stroop-trial-1-incongruent-23", "trial_type": "html-keyboard-response", "trial_index": 11, "time_elapsed": 98476, "internal_node_id": "0.0-4.0-7.0"}}, {"uniqueid": "w80795260:a11863614", "current_trial": 12, "dateTime": 1664555391021, "trialdata": {"rt": 785, "stimulus": "<p id='stroop-text' class='stroop-blue'>YELLOW</p>", "response": "b", "stimulus-type": "incongruent", "word": "yellow", "color": "blue", "correct_response": "b", "trial_id": "stroop-trial-1-incongruent-19", "trial_type": "html-keyboard-response", "trial_index": 12, "time_elapsed": 99764, "internal_node_id": "0.0-4.0-8.0"}}, {"uniqueid": "w80795260:a11863614", "current_trial": 13, "dateTime": 1664555392541, "trialdata": {"rt": 1018, "stimulus": "<p id='stroop-text' class='stroop-red'>DOG</p>", "response": "r", "stimulus-type": "unrelated", "word": "DOG", "color": "red", "correct_response": "r", "trial_id": "stroop-trial-1-unrelated-18", "trial_type": "html-keyboard-response", "trial_index": 13, "time_elapsed": 101283, "internal_node_id": "0.0-4.0-9.0"}}, {"uniqueid": "w80795260:a11863614", "current_trial": 14, "dateTime": 1664555393821, "trialdata": {"rt": 777, "stimulus": "<p id='stroop-text' class='stroop-red'>GREEN</p>", "response": "r", "stimulus-type": "incongruent", "word": "green", "color": "red", "correct_response": "r", "trial_id": "stroop-trial-1-incongruent-4", "trial_type": "html-keyboard-response", "trial_index": 14, "time_elapsed": 102563, "internal_node_id": "0.0-4.0-10.0"}}, {"uniqueid": "w80795260:a11863614", "current_trial": 15, "dateTime": 1664555395821, "trialdata": {"rt": 1498, "stimulus": "<p id='stroop-text' class='stroop-green'>STONE</p>", "response": "g", "stimulus-type": "unrelated", "word": "STONE", "color": "green", "correct_response": "g", "trial_id": "stroop-trial-1-unrelated-19", "trial_type": "html-keyboard-response", "trial_index": 15, "time_elapsed": 104563, "internal_node_id": "0.0-4.0-11.0"}}, {"uniqueid": "w80795260:a11863614", "current_trial": 16, "dateTime": 1664555397077, "trialdata": {"rt": 755, "stimulus": "<p id='stroop-text' class='stroop-yellow'>YELLOW</p>", "response": "y", "stimulus-type": "congruent", "word": "yellow", "color": "yellow", "correct_response": "y", "trial_id": "stroop-trial-1-congruent-22", "trial_type": "html-keyboard-response", "trial_index": 16, "time_elapsed": 105820, "internal_node_id": "0.0-4.0-12.0"}}, {"uniqueid": "w80795260:a11863614", "current_trial": 17, "dateTime": 1664555398652, "trialdata": {"rt": 1074, "stimulus": "<p id='stroop-text' class='stroop-green'>BRAIN</p>", "response": "g", "stimulus-type": "unrelated", "word": "BRAIN", "color": "green", "correct_response": "g", "trial_id": "stroop-trial-1-unrelated-27", "trial_type": "html-keyboard-response", "trial_index": 17, "time_elapsed": 107395, "internal_node_id": "0.0-4.0-13.0"}}, {"uniqueid": "w80795260:a11863614", "current_trial": 18, "dateTime": 1664555399948, "trialdata": {"rt": 794, "stimulus": "<p id='stroop-text' class='stroop-red'>YELLOW</p>", "response": "r", "stimulus-type": "incongruent", "word": "yellow", "color": "red", "correct_response": "r", "trial_id": "stroop-trial-1-incongruent-27", "trial_type": "html-keyboard-response", "trial_index": 18, "time_elapsed": 108691, "internal_node_id": "0.0-4.0-14.0"}}, {"uniqueid": "w80795260:a11863614", "current_trial": 19, "dateTime": 1664555401141, "trialdata": {"rt": 690, "stimulus": "<p id='stroop-text' class='stroop-red'>YELLOW</p>", "response": "r", "stimulus-type": "incongruent", "word": "yellow", "color": "red", "correct_response": "r", "trial_id": "stroop-trial-1-incongruent-3", "trial_type": "html-keyboard-response", "trial_index": 19, "time_elapsed": 109884, "internal_node_id": "0.0-4.0-15.0"}}, {"uniqueid": "w80795260:a11863614", "current_trial": 20, "dateTime": 1664555402308, "trialdata": {"rt": 667, "stimulus": "<p id='stroop-text' class='stroop-red'>RED</p>", "response": "r", "stimulus-type": "congruent", "word": "red", "color": "red", "correct_response": "r", "trial_id": "stroop-trial-1-congruent-4", "trial_type": "html-keyboard-response", "trial_index": 20, "time_elapsed": 111051, "internal_node_id": "0.0-4.0-16.0"}}, {"uniqueid": "w80795260:a11863614", "current_trial": 21, "dateTime": 1664555403541, "trialdata": {"rt": 731, "stimulus": "<p id='stroop-text' class='stroop-yellow'>STONE</p>", "response": "y", "stimulus-type": "unrelated", "word": "STONE", "color": "yellow", "correct_response": "y", "trial_id": "stroop-trial-1-unrelated-20", "trial_type": "html-keyboard-response", "trial_index": 21, "time_elapsed": 112283, "internal_node_id": "0.0-4.0-17.0"}}, {"uniqueid": "w80795260:a11863614", "current_trial": 22, "dateTime": 1664555405693, "trialdata": {"rt": 1651, "stimulus": "<p id='stroop-text' class='stroop-blue'>BLUE</p>", "response": "b", "stimulus-type": "congruent", "word": "blue", "color": "blue", "correct_response": "b", "trial_id": "stroop-trial-1-congruent-17", "trial_type": "html-keyboard-response", "trial_index": 22, "time_elapsed": 114435, "internal_node_id": "0.0-4.0-18.0"}}, {"uniqueid": "w80795260:a11863614", "current_trial": 23, "dateTime": 1664555406941, "trialdata": {"rt": 746, "stimulus": "<p id='stroop-text' class='stroop-yellow'>YELLOW</p>", "response": "y", "stimulus-type": "congruent", "word": "yellow", "color": "yellow", "correct_response": "y", "trial_id": "stroop-trial-1-congruent-2", "trial_type": "html-keyboard-response", "trial_index": 23, "time_elapsed": 115683, "internal_node_id": "0.0-4.0-19.0"}}, {"uniqueid": "w80795260:a11863614", "current_trial": 24, "dateTime": 1664555408621, "trialdata": {"rt": 1178, "stimulus": "<p id='stroop-text' class='stroop-yellow'>BOAT</p>", "response": "y", "stimulus-type": "unrelated", "word": "BOAT", "color": "yellow", "correct_response": "y", "trial_id": "stroop-trial-1-unrelated-7", "trial_type": "html-keyboard-response", "trial_index": 24, "time_elapsed": 117364, "internal_node_id": "0.0-4.0-20.0"}}, {"uniqueid": "w80795260:a11863614", "current_trial": 25, "dateTime": 1664555410021, "trialdata": {"rt": 899, "stimulus": "<p id='stroop-text' class='stroop-green'>YELLOW</p>", "response": "g", "stimulus-type": "incongruent", "word": "yellow", "color": "green", "correct_response": "g", "trial_id": "stroop-trial-1-incongruent-28", "trial_type": "html-keyboard-response", "trial_index": 25, "time_elapsed": 118764, "internal_node_id": "0.0-4.0-21.0"}}, {"uniqueid": "w80795260:a11863614", "current_trial": 26, "dateTime": 1664555411228, "trialdata": {"rt": 705, "stimulus": "<p id='stroop-text' class='stroop-green'>GREEN</p>", "response": "g", "stimulus-type": "congruent", "word": "green", "color": "green", "correct_response": "g", "trial_id": "stroop-trial-1-congruent-19", "trial_type": "html-keyboard-response", "trial_index": 26, "time_elapsed": 119971, "internal_node_id": "0.0-4.0-22.0"}}, {"uniqueid": "w80795260:a11863614", "current_trial": 27, "dateTime": 1664555412661, "trialdata": {"rt": 931, "stimulus": "<p id='stroop-text' class='stroop-yellow'>SHIP</p>", "response": "y", "stimulus-type": "unrelated", "word": "SHIP", "color": "yellow", "correct_response": "y", "trial_id": "stroop-trial-1-unrelated-14", "trial_type": "html-keyboard-response", "trial_index": 27, "time_elapsed": 121403, "internal_node_id": "0.0-4.0-23.0"}}, {"uniqueid": "w80795260:a11863614", "current_trial": 28, "dateTime": 1664555413893, "trialdata": {"rt": 731, "stimulus": "<p id='stroop-text' class='stroop-blue'>BRAIN</p>", "response": "b", "stimulus-type": "unrelated", "word": "BRAIN", "color": "blue", "correct_response": "b", "trial_id": "stroop-trial-1-unrelated-22", "trial_type": "html-keyboard-response", "trial_index": 28, "time_elapsed": 122635, "internal_node_id": "0.0-4.0-24.0"}}, {"uniqueid": "w80795260:a11863614", "current_trial": 29, "dateTime": 1664555415140, "trialdata": {"rt": 746, "stimulus": "<p id='stroop-text' class='stroop-green'>GREEN</p>", "response": "g", "stimulus-type": "congruent", "word": "green", "color": "green", "correct_response": "g", "trial_id": "stroop-trial-1-congruent-12", "trial_type": "html-keyboard-response", "trial_index": 29, "time_elapsed": 123883, "internal_node_id": "0.0-4.0-25.0"}}, {"uniqueid": "w80795260:a11863614", "current_trial": 30, "dateTime": 1664555416605, "trialdata": {"rt": 963, "stimulus": "<p id='stroop-text' class='stroop-red'>STONE</p>", "response": "r", "stimulus-type": "unrelated", "word": "STONE", "color": "red", "correct_response": "r", "trial_id": "stroop-trial-1-unrelated-4", "trial_type": "html-keyboard-response", "trial_index": 30, "time_elapsed": 125347, "internal_node_id": "0.0-4.0-26.0"}}, {"uniqueid": "w80795260:a11863614", "current_trial": 31, "dateTime": 1664555418029, "trialdata": {"rt": 922, "stimulus": "<p id='stroop-text' class='stroop-yellow'>GREEN</p>", "response": "y", "stimulus-type": "incongruent", "word": "green", "color": "yellow", "correct_response": "y", "trial_id": "stroop-trial-1-incongruent-18", "trial_type": "html-keyboard-response", "trial_index": 31, "time_elapsed": 126771, "internal_node_id": "0.0-4.0-27.0"}}, {"uniqueid": "w80795260:a11863614", "current_trial": 32, "dateTime": 1664555419525, "trialdata": {"rt": 994, "stimulus": "<p id='stroop-text' class='stroop-red'>RED</p>", "response": "r", "stimulus-type": "congruent", "word": "red", "color": "red", "correct_response": "r", "trial_id": "stroop-trial-1-congruent-14", "trial_type": "html-keyboard-response", "trial_index": 32, "time_elapsed": 128267, "internal_node_id": "0.0-4.0-28.0"}}, {"uniqueid": "w80795260:a11863614", "current_trial": 33, "dateTime": 1664555420724, "trialdata": {"rt": 698, "stimulus": "<p id='stroop-text' class='stroop-blue'>BLUE</p>", "response": "b", "stimulus-type": "congruent", "word": "blue", "color": "blue", "correct_response": "b", "trial_id": "stroop-trial-1-congruent-1", "trial_type": "html-keyboard-response", "trial_index": 33, "time_elapsed": 129467, "internal_node_id": "0.0-4.0-29.0"}}, {"uniqueid": "w80795260:a11863614", "current_trial": 34, "dateTime": 1664555422077, "trialdata": {"rt": 851, "stimulus": "<p id='stroop-text' class='stroop-green'>MONKEY</p>", "response": "g", "stimulus-type": "unrelated", "word": "MONKEY", "color": "green", "correct_response": "g", "trial_id": "stroop-trial-1-unrelated-21", "trial_type": "html-keyboard-response", "trial_index": 34, "time_elapsed": 130819, "internal_node_id": "0.0-4.0-30.0"}}, {"uniqueid": "w80795260:a11863614", "current_trial": 35, "dateTime": 1664555423453, "trialdata": {"rt": 875, "stimulus": "<p id='stroop-text' class='stroop-blue'>GREEN</p>", "response": "b", "stimulus-type": "incongruent", "word": "green", "color": "blue", "correct_response": "b", "trial_id": "stroop-trial-1-incongruent-2", "trial_type": "html-keyboard-response", "trial_index": 35, "time_elapsed": 132196, "internal_node_id": "0.0-4.0-31.0"}}, {"uniqueid": "w80795260:a11863614", "current_trial": 36, "dateTime": 1664555425508, "trialdata": {"rt": 1555, "stimulus": "<p id='stroop-text' class='stroop-red'>YELLOW</p>", "response": "r", "stimulus-type": "incongruent", "word": "yellow", "color": "red", "correct_response": "r", "trial_id": "stroop-trial-1-incongruent-8", "trial_type": "html-keyboard-response", "trial_index": 36, "time_elapsed": 134251, "internal_node_id": "0.0-4.0-32.0"}}, {"uniqueid": "w80795260:a11863614", "current_trial": 37, "dateTime": 1664555426861, "trialdata": {"rt": 850, "stimulus": "<p id='stroop-text' class='stroop-yellow'>BOTTLE</p>", "response": "y", "stimulus-type": "unrelated", "word": "BOTTLE", "color": "yellow", "correct_response": "y", "trial_id": "stroop-trial-1-unrelated-2", "trial_type": "html-keyboard-response", "trial_index": 37, "time_elapsed": 135603, "internal_node_id": "0.0-4.0-33.0"}}, {"uniqueid": "w80795260:a11863614", "current_trial": 38, "dateTime": 1664555428221, "trialdata": {"rt": 858, "stimulus": "<p id='stroop-text' class='stroop-green'>GREEN</p>", "response": "g", "stimulus-type": "congruent", "word": "green", "color": "green", "correct_response": "g", "trial_id": "stroop-trial-1-congruent-9", "trial_type": "html-keyboard-response", "trial_index": 38, "time_elapsed": 136963, "internal_node_id": "0.0-4.0-34.0"}}, {"uniqueid": "w80795260:a11863614", "current_trial": 39, "dateTime": 1664555429588, "trialdata": {"rt": 866, "stimulus": "<p id='stroop-text' class='stroop-blue'>BOTTLE</p>", "response": "b", "stimulus-type": "unrelated", "word": "BOTTLE", "color": "blue", "correct_response": "b", "trial_id": "stroop-trial-1-unrelated-9", "trial_type": "html-keyboard-response", "trial_index": 39, "time_elapsed": 138331, "internal_node_id": "0.0-4.0-35.0"}}, {"uniqueid": "w80795260:a11863614", "current_trial": 40, "dateTime": 1664555431053, "trialdata": {"rt": 962, "stimulus": "<p id='stroop-text' class='stroop-yellow'>BLUE</p>", "response": "y", "stimulus-type": "incongruent", "word": "blue", "color": "yellow", "correct_response": "y", "trial_id": "stroop-trial-1-incongruent-16", "trial_type": "html-keyboard-response", "trial_index": 40, "time_elapsed": 139796, "internal_node_id": "0.0-4.0-36.0"}}, {"uniqueid": "w80795260:a11863614", "current_trial": 41, "dateTime": 1664555432605, "trialdata": {"rt": 1049, "stimulus": "<p id='stroop-text' class='stroop-green'>BRAIN</p>", "response": "g", "stimulus-type": "unrelated", "word": "BRAIN", "color": "green", "correct_response": "g", "trial_id": "stroop-trial-1-unrelated-5", "trial_type": "html-keyboard-response", "trial_index": 41, "time_elapsed": 141348, "internal_node_id": "0.0-4.0-37.0"}}, {"uniqueid": "w80795260:a11863614", "current_trial": 42, "dateTime": 1664555433925, "trialdata": {"rt": 818, "stimulus": "<p id='stroop-text' class='stroop-yellow'>BLUE</p>", "response": "y", "stimulus-type": "incongruent", "word": "blue", "color": "yellow", "correct_response": "y", "trial_id": "stroop-trial-1-incongruent-21", "trial_type": "html-keyboard-response", "trial_index": 42, "time_elapsed": 142667, "internal_node_id": "0.0-4.0-38.0"}}, {"uniqueid": "w80795260:a11863614", "current_trial": 43, "dateTime": 1664555435421, "trialdata": {"rt": 995, "stimulus": "<p id='stroop-text' class='stroop-blue'>GREEN</p>", "response": "b", "stimulus-type": "incongruent", "word": "green", "color": "blue", "correct_response": "b", "trial_id": "stroop-trial-1-incongruent-12", "trial_type": "html-keyboard-response", "trial_index": 43, "time_elapsed": 144163, "internal_node_id": "0.0-4.0-39.0"}}, {"uniqueid": "w80795260:a11863614", "current_trial": 44, "dateTime": 1664555437245, "trialdata": {"rt": 1322, "stimulus": "<p id='stroop-text' class='stroop-green'>YELLOW</p>", "response": "g", "stimulus-type": "incongruent", "word": "yellow", "color": "green", "correct_response": "g", "trial_id": "stroop-trial-1-incongruent-25", "trial_type": "html-keyboard-response", "trial_index": 44, "time_elapsed": 145987, "internal_node_id": "0.0-4.0-40.0"}}, {"uniqueid": "w80795260:a11863614", "current_trial": 45, "dateTime": 1664555439556, "trialdata": {"rt": 1810, "stimulus": "<p id='stroop-text' class='stroop-blue'>RED</p>", "response": "b", "stimulus-type": "incongruent", "word": "red", "color": "blue", "correct_response": "b", "trial_id": "stroop-trial-1-incongruent-24", "trial_type": "html-keyboard-response", "trial_index": 45, "time_elapsed": 148299, "internal_node_id": "0.0-4.0-41.0"}}, {"uniqueid": "w80795260:a11863614", "current_trial": 46, "dateTime": 1664555440741, "trialdata": {"rt": 683, "stimulus": "<p id='stroop-text' class='stroop-blue'>RED</p>", "response": "b", "stimulus-type": "incongruent", "word": "red", "color": "blue", "correct_response": "b", "trial_id": "stroop-trial-1-incongruent-1", "trial_type": "html-keyboard-response", "trial_index": 46, "time_elapsed": 149484, "internal_node_id": "0.0-4.0-42.0"}}, {"uniqueid": "w80795260:a11863614", "current_trial": 47, "dateTime": 1664555442517, "trialdata": {"rt": 1275, "stimulus": "<p id='stroop-text' class='stroop-red'>MONKEY</p>", "response": "r", "stimulus-type": "unrelated", "word": "MONKEY", "color": "red", "correct_response": "r", "trial_id": "stroop-trial-1-unrelated-12", "trial_type": "html-keyboard-response", "trial_index": 47, "time_elapsed": 151260, "internal_node_id": "0.0-4.0-43.0"}}, {"uniqueid": "w80795260:a11863614", "current_trial": 48, "dateTime": 1664555443901, "trialdata": {"rt": 881, "stimulus": "<p id='stroop-text' class='stroop-blue'>FORK</p>", "response": "b", "stimulus-type": "unrelated", "word": "FORK", "color": "blue", "correct_response": "b", "trial_id": "stroop-trial-1-unrelated-25", "trial_type": "html-keyboard-response", "trial_index": 48, "time_elapsed": 152643, "internal_node_id": "0.0-4.0-44.0"}}, {"uniqueid": "w80795260:a11863614", "current_trial": 49, "dateTime": 1664555445268, "trialdata": {"rt": 866, "stimulus": "<p id='stroop-text' class='stroop-green'>BOAT</p>", "response": "g", "stimulus-type": "unrelated", "word": "BOAT", "color": "green", "correct_response": "g", "trial_id": "stroop-trial-1-unrelated-13", "trial_type": "html-keyboard-response", "trial_index": 49, "time_elapsed": 154011, "internal_node_id": "0.0-4.0-45.0"}}, {"uniqueid": "w80795260:a11863614", "current_trial": 50, "dateTime": 1664555446948, "trialdata": {"rt": 1179, "stimulus": "<p id='stroop-text' class='stroop-red'>RED</p>", "response": "r", "stimulus-type": "congruent", "word": "red", "color": "red", "correct_response": "r", "trial_id": "stroop-trial-1-congruent-3", "trial_type": "html-keyboard-response", "trial_index": 50, "time_elapsed": 155691, "internal_node_id": "0.0-4.0-46.0"}}, {"uniqueid": "w80795260:a11863614", "current_trial": 51, "dateTime": 1664555448437, "trialdata": {"rt": 987, "stimulus": "<p id='stroop-text' class='stroop-blue'>BLUE</p>", "response": "b", "stimulus-type": "congruent", "word": "blue", "color": "blue", "correct_response": "b", "trial_id": "stroop-trial-1-congruent-5", "trial_type": "html-keyboard-response", "trial_index": 51, "time_elapsed": 157180, "internal_node_id": "0.0-4.0-47.0"}}, {"uniqueid": "w80795260:a11863614", "current_trial": 52, "dateTime": 1664555449773, "trialdata": {"rt": 822, "stimulus": "<p id='stroop-text' class='stroop-yellow'>YELLOW</p>", "response": "y", "stimulus-type": "congruent", "word": "yellow", "color": "yellow", "correct_response": "y", "trial_id": "stroop-trial-1-congruent-29", "trial_type": "html-keyboard-response", "trial_index": 52, "time_elapsed": 158516, "internal_node_id": "0.0-4.0-48.0"}}, {"uniqueid": "w80795260:a11863614", "current_trial": 53, "dateTime": 1664555451069, "trialdata": {"rt": 794, "stimulus": "<p id='stroop-text' class='stroop-blue'>SHIP</p>", "response": "b", "stimulus-type": "unrelated", "word": "SHIP", "color": "blue", "correct_response": "b", "trial_id": "stroop-trial-1-unrelated-10", "trial_type": "html-keyboard-response", "trial_index": 53, "time_elapsed": 159812, "internal_node_id": "0.0-4.0-49.0"}}, {"uniqueid": "w80795260:a11863614", "current_trial": 54, "dateTime": 1664555452325, "trialdata": {"rt": 754, "stimulus": "<p id='stroop-text' class='stroop-blue'>BLUE</p>", "response": "b", "stimulus-type": "congruent", "word": "blue", "color": "blue", "correct_response": "b", "trial_id": "stroop-trial-1-congruent-13", "trial_type": "html-keyboard-response", "trial_index": 54, "time_elapsed": 161068, "internal_node_id": "0.0-4.0-50.0"}}, {"uniqueid": "w80795260:a11863614", "current_trial": 55, "dateTime": 1664555453821, "trialdata": {"rt": 995, "stimulus": "<p id='stroop-text' class='stroop-red'>RED</p>", "response": "r", "stimulus-type": "congruent", "word": "red", "color": "red", "correct_response": "r", "trial_id": "stroop-trial-1-congruent-11", "trial_type": "html-keyboard-response", "trial_index": 55, "time_elapsed": 162564, "internal_node_id": "0.0-4.0-51.0"}}, {"uniqueid": "w80795260:a11863614", "current_trial": 56, "dateTime": 1664555455245, "trialdata": {"rt": 921, "stimulus": "<p id='stroop-text' class='stroop-blue'>BLUE</p>", "response": "b", "stimulus-type": "congruent", "word": "blue", "color": "blue", "correct_response": "b", "trial_id": "stroop-trial-1-congruent-24", "trial_type": "html-keyboard-response", "trial_index": 56, "time_elapsed": 163988, "internal_node_id": "0.0-4.0-52.0"}}, {"uniqueid": "w80795260:a11863614", "current_trial": 57, "dateTime": 1664555456597, "trialdata": {"rt": 851, "stimulus": "<p id='stroop-text' class='stroop-blue'>BLUE</p>", "response": "b", "stimulus-type": "congruent", "word": "blue", "color": "blue", "correct_response": "b", "trial_id": "stroop-trial-1-congruent-30", "trial_type": "html-keyboard-response", "trial_index": 57, "time_elapsed": 165340, "internal_node_id": "0.0-4.0-53.0"}}, {"uniqueid": "w80795260:a11863614", "current_trial": 58, "dateTime": 1664555457829, "trialdata": {"rt": 728, "stimulus": "<p id='stroop-text' class='stroop-blue'>BLUE</p>", "response": "b", "stimulus-type": "congruent", "word": "blue", "color": "blue", "correct_response": "b", "trial_id": "stroop-trial-1-congruent-10", "trial_type": "html-keyboard-response", "trial_index": 58, "time_elapsed": 166572, "internal_node_id": "0.0-4.0-54.0"}}, {"uniqueid": "w80795260:a11863614", "current_trial": 59, "dateTime": 1664555459357, "trialdata": {"rt": 1026, "stimulus": "<p id='stroop-text' class='stroop-yellow'>YELLOW</p>", "response": "y", "stimulus-type": "congruent", "word": "yellow", "color": "yellow", "correct_response": "y", "trial_id": "stroop-trial-1-congruent-21", "trial_type": "html-keyboard-response", "trial_index": 59, "time_elapsed": 168100, "internal_node_id": "0.0-4.0-55.0"}}, {"uniqueid": "w80795260:a11863614", "current_trial": 60, "dateTime": 1664555460901, "trialdata": {"rt": 1034, "stimulus": "<p id='stroop-text' class='stroop-green'>GREEN</p>", "response": "g", "stimulus-type": "congruent", "word": "green", "color": "green", "correct_response": "g", "trial_id": "stroop-trial-1-congruent-26", "trial_type": "html-keyboard-response", "trial_index": 60, "time_elapsed": 169644, "internal_node_id": "0.0-4.0-56.0"}}, {"uniqueid": "w80795260:a11863614", "current_trial": 61, "dateTime": 1664555462005, "trialdata": {"rt": 603, "stimulus": "<p id='stroop-text' class='stroop-red'>RED</p>", "response": "r", "stimulus-type": "congruent", "word": "red", "color": "red", "correct_response": "r", "trial_id": "stroop-trial-1-congruent-28", "trial_type": "html-keyboard-response", "trial_index": 61, "time_elapsed": 170748, "internal_node_id": "0.0-4.0-57.0"}}, {"uniqueid": "w80795260:a11863614", "current_trial": 62, "dateTime": 1664555463861, "trialdata": {"rt": 1354, "stimulus": "<p id='stroop-text' class='stroop-red'>BLUE</p>", "response": "r", "stimulus-type": "incongruent", "word": "blue", "color": "red", "correct_response": "r", "trial_id": "stroop-trial-1-incongruent-20", "trial_type": "html-keyboard-response", "trial_index": 62, "time_elapsed": 172604, "internal_node_id": "0.0-4.0-58.0"}}, {"uniqueid": "w80795260:a11863614", "current_trial": 63, "dateTime": 1664555465141, "trialdata": {"rt": 778, "stimulus": "<p id='stroop-text' class='stroop-yellow'>YELLOW</p>", "response": "y", "stimulus-type": "congruent", "word": "yellow", "color": "yellow", "correct_response": "y", "trial_id": "stroop-trial-1-congruent-23", "trial_type": "html-keyboard-response", "trial_index": 63, "time_elapsed": 173884, "internal_node_id": "0.0-4.0-59.0"}}, {"uniqueid": "w80795260:a11863614", "current_trial": 64, "dateTime": 1664555466829, "trialdata": {"rt": 1186, "stimulus": "<p id='stroop-text' class='stroop-red'>BLUE</p>", "response": "r", "stimulus-type": "incongruent", "word": "blue", "color": "red", "correct_response": "r", "trial_id": "stroop-trial-1-incongruent-13", "trial_type": "html-keyboard-response", "trial_index": 64, "time_elapsed": 175572, "internal_node_id": "0.0-4.0-60.0"}}, {"uniqueid": "w80795260:a11863614", "current_trial": 65, "dateTime": 1664555468237, "trialdata": {"rt": 905, "stimulus": "<p id='stroop-text' class='stroop-green'>GREEN</p>", "response": "g", "stimulus-type": "congruent", "word": "green", "color": "green", "correct_response": "g", "trial_id": "stroop-trial-1-congruent-16", "trial_type": "html-keyboard-response", "trial_index": 65, "time_elapsed": 176980, "internal_node_id": "0.0-4.0-61.0"}}, {"uniqueid": "w80795260:a11863614", "current_trial": 66, "dateTime": 1664555469653, "trialdata": {"rt": 915, "stimulus": "<p id='stroop-text' class='stroop-yellow'>SHIP</p>", "response": "y", "stimulus-type": "unrelated", "word": "SHIP", "color": "yellow", "correct_response": "y", "trial_id": "stroop-trial-1-unrelated-15", "trial_type": "html-keyboard-response", "trial_index": 66, "time_elapsed": 178396, "internal_node_id": "0.0-4.0-62.0"}}, {"uniqueid": "w80795260:a11863614", "current_trial": 67, "dateTime": 1664555471405, "trialdata": {"rt": 1250, "stimulus": "<p id='stroop-text' class='stroop-green'>RED</p>", "response": "g", "stimulus-type": "incongruent", "word": "red", "color": "green", "correct_response": "g", "trial_id": "stroop-trial-1-incongruent-15", "trial_type": "html-keyboard-response", "trial_index": 67, "time_elapsed": 180148, "internal_node_id": "0.0-4.0-63.0"}}, {"uniqueid": "w80795260:a11863614", "current_trial": 68, "dateTime": 1664555472781, "trialdata": {"rt": 874, "stimulus": "<p id='stroop-text' class='stroop-blue'>WINDOW</p>", "response": "b", "stimulus-type": "unrelated", "word": "WINDOW", "color": "blue", "correct_response": "b", "trial_id": "stroop-trial-1-unrelated-26", "trial_type": "html-keyboard-response", "trial_index": 68, "time_elapsed": 181524, "internal_node_id": "0.0-4.0-64.0"}}, {"uniqueid": "w80795260:a11863614", "current_trial": 69, "dateTime": 1664555474293, "trialdata": {"rt": 1010, "stimulus": "<p id='stroop-text' class='stroop-red'>BOAT</p>", "response": "r", "stimulus-type": "unrelated", "word": "BOAT", "color": "red", "correct_response": "r", "trial_id": "stroop-trial-1-unrelated-1", "trial_type": "html-keyboard-response", "trial_index": 69, "time_elapsed": 183036, "internal_node_id": "0.0-4.0-65.0"}}, {"uniqueid": "w80795260:a11863614", "current_trial": 70, "dateTime": 1664555475749, "trialdata": {"rt": 954, "stimulus": "<p id='stroop-text' class='stroop-blue'>WINDOW</p>", "response": "b", "stimulus-type": "unrelated", "word": "WINDOW", "color": "blue", "correct_response": "b", "trial_id": "stroop-trial-1-unrelated-30", "trial_type": "html-keyboard-response", "trial_index": 70, "time_elapsed": 184492, "internal_node_id": "0.0-4.0-66.0"}}, {"uniqueid": "w80795260:a11863614", "current_trial": 71, "dateTime": 1664555477069, "trialdata": {"rt": 817, "stimulus": "<p id='stroop-text' class='stroop-green'>WINDOW</p>", "response": "g", "stimulus-type": "unrelated", "word": "WINDOW", "color": "green", "correct_response": "g", "trial_id": "stroop-trial-1-unrelated-8", "trial_type": "html-keyboard-response", "trial_index": 71, "time_elapsed": 185812, "internal_node_id": "0.0-4.0-67.0"}}, {"uniqueid": "w80795260:a11863614", "current_trial": 72, "dateTime": 1664555478421, "trialdata": {"rt": 851, "stimulus": "<p id='stroop-text' class='stroop-yellow'>DOG</p>", "response": "y", "stimulus-type": "unrelated", "word": "DOG", "color": "yellow", "correct_response": "y", "trial_id": "stroop-trial-1-unrelated-11", "trial_type": "html-keyboard-response", "trial_index": 72, "time_elapsed": 187164, "internal_node_id": "0.0-4.0-68.0"}}, {"uniqueid": "w80795260:a11863614", "current_trial": 73, "dateTime": 1664555479901, "trialdata": {"rt": 977, "stimulus": "<p id='stroop-text' class='stroop-red'>RED</p>", "response": "r", "stimulus-type": "congruent", "word": "red", "color": "red", "correct_response": "r", "trial_id": "stroop-trial-1-congruent-7", "trial_type": "html-keyboard-response", "trial_index": 73, "time_elapsed": 188644, "internal_node_id": "0.0-4.0-69.0"}}, {"uniqueid": "w80795260:a11863614", "current_trial": 74, "dateTime": 1664555481157, "trialdata": {"rt": 755, "stimulus": "<p id='stroop-text' class='stroop-blue'>BLUE</p>", "response": "b", "stimulus-type": "congruent", "word": "blue", "color": "blue", "correct_response": "b", "trial_id": "stroop-trial-1-congruent-20", "trial_type": "html-keyboard-response", "trial_index": 74, "time_elapsed": 189900, "internal_node_id": "0.0-4.0-70.0"}}, {"uniqueid": "w80795260:a11863614", "current_trial": 75, "dateTime": 1664555482645, "trialdata": {"rt": 987, "stimulus": "<p id='stroop-text' class='stroop-yellow'>RED</p>", "response": "y", "stimulus-type": "incongruent", "word": "red", "color": "yellow", "correct_response": "y", "trial_id": "stroop-trial-1-incongruent-5", "trial_type": "html-keyboard-response", "trial_index": 75, "time_elapsed": 191388, "internal_node_id": "0.0-4.0-71.0"}}, {"uniqueid": "w80795260:a11863614", "current_trial": 76, "dateTime": 1664555484245, "trialdata": {"rt": 1098, "stimulus": "<p id='stroop-text' class='stroop-yellow'>RED</p>", "response": "y", "stimulus-type": "incongruent", "word": "red", "color": "yellow", "correct_response": "y", "trial_id": "stroop-trial-1-incongruent-30", "trial_type": "html-keyboard-response", "trial_index": 76, "time_elapsed": 192988, "internal_node_id": "0.0-4.0-72.0"}}, {"uniqueid": "w80795260:a11863614", "current_trial": 77, "dateTime": 1664555485629, "trialdata": {"rt": 882, "stimulus": "<p id='stroop-text' class='stroop-blue'>BLUE</p>", "response": "b", "stimulus-type": "congruent", "word": "blue", "color": "blue", "correct_response": "b", "trial_id": "stroop-trial-1-congruent-25", "trial_type": "html-keyboard-response", "trial_index": 77, "time_elapsed": 194372, "internal_node_id": "0.0-4.0-73.0"}}, {"uniqueid": "w80795260:a11863614", "current_trial": 78, "dateTime": 1664555486949, "trialdata": {"rt": 817, "stimulus": "<p id='stroop-text' class='stroop-red'>YELLOW</p>", "response": "r", "stimulus-type": "incongruent", "word": "yellow", "color": "red", "correct_response": "r", "trial_id": "stroop-trial-1-incongruent-6", "trial_type": "html-keyboard-response", "trial_index": 78, "time_elapsed": 195692, "internal_node_id": "0.0-4.0-74.0"}}, {"uniqueid": "w80795260:a11863614", "current_trial": 79, "dateTime": 1664555488253, "trialdata": {"rt": 801, "stimulus": "<p id='stroop-text' class='stroop-green'>WINDOW</p>", "response": "g", "stimulus-type": "unrelated", "word": "WINDOW", "color": "green", "correct_response": "g", "trial_id": "stroop-trial-1-unrelated-23", "trial_type": "html-keyboard-response", "trial_index": 79, "time_elapsed": 196996, "internal_node_id": "0.0-4.0-75.0"}}, {"uniqueid": "w80795260:a11863614", "current_trial": 80, "dateTime": 1664555489565, "trialdata": {"rt": 811, "stimulus": "<p id='stroop-text' class='stroop-green'>FORK</p>", "response": "g", "stimulus-type": "unrelated", "word": "FORK", "color": "green", "correct_response": "g", "trial_id": "stroop-trial-1-unrelated-6", "trial_type": "html-keyboard-response", "trial_index": 80, "time_elapsed": 198308, "internal_node_id": "0.0-4.0-76.0"}}, {"uniqueid": "w80795260:a11863614", "current_trial": 81, "dateTime": 1664555490789, "trialdata": {"rt": 718, "stimulus": "<p id='stroop-text' class='stroop-green'>GREEN</p>", "response": "g", "stimulus-type": "congruent", "word": "green", "color": "green", "correct_response": "g", "trial_id": "stroop-trial-1-congruent-27", "trial_type": "html-keyboard-response", "trial_index": 81, "time_elapsed": 199532, "internal_node_id": "0.0-4.0-77.0"}}, {"uniqueid": "w80795260:a11863614", "current_trial": 82, "dateTime": 1664555491837, "trialdata": {"rt": 547, "stimulus": "<p id='stroop-text' class='stroop-green'>BLUE</p>", "response": "g", "stimulus-type": "incongruent", "word": "blue", "color": "green", "correct_response": "g", "trial_id": "stroop-trial-1-incongruent-29", "trial_type": "html-keyboard-response", "trial_index": 82, "time_elapsed": 200580, "internal_node_id": "0.0-4.0-78.0"}}, {"uniqueid": "w80795260:a11863614", "current_trial": 83, "dateTime": 1664555493373, "trialdata": {"rt": 1006, "stimulus": "<p id='stroop-text' class='stroop-red'>SHIP</p>", "response": "r", "stimulus-type": "unrelated", "word": "SHIP", "color": "red", "correct_response": "r", "trial_id": "stroop-trial-1-unrelated-3", "trial_type": "html-keyboard-response", "trial_index": 83, "time_elapsed": 202116, "internal_node_id": "0.0-4.0-79.0"}}, {"uniqueid": "w80795260:a11863614", "current_trial": 84, "dateTime": 1664555494725, "trialdata": {"rt": 849, "stimulus": "<p id='stroop-text' class='stroop-blue'>MONKEY</p>", "response": "b", "stimulus-type": "unrelated", "word": "MONKEY", "color": "blue", "correct_response": "b", "trial_id": "stroop-trial-1-unrelated-29", "trial_type": "html-keyboard-response", "trial_index": 84, "time_elapsed": 203468, "internal_node_id": "0.0-4.0-80.0"}}, {"uniqueid": "w80795260:a11863614", "current_trial": 85, "dateTime": 1664555496149, "trialdata": {"rt": 921, "stimulus": "<p id='stroop-text' class='stroop-red'>RED</p>", "response": "r", "stimulus-type": "congruent", "word": "red", "color": "red", "correct_response": "r", "trial_id": "stroop-trial-1-congruent-18", "trial_type": "html-keyboard-response", "trial_index": 85, "time_elapsed": 204892, "internal_node_id": "0.0-4.0-81.0"}}, {"uniqueid": "w80795260:a11863614", "current_trial": 86, "dateTime": 1664555497421, "trialdata": {"rt": 769, "stimulus": "<p id='stroop-text' class='stroop-green'>YELLOW</p>", "response": "g", "stimulus-type": "incongruent", "word": "yellow", "color": "green", "correct_response": "g", "trial_id": "stroop-trial-1-incongruent-17", "trial_type": "html-keyboard-response", "trial_index": 86, "time_elapsed": 206164, "internal_node_id": "0.0-4.0-82.0"}}, {"uniqueid": "w80795260:a11863614", "current_trial": 87, "dateTime": 1664555498893, "trialdata": {"rt": 971, "stimulus": "<p id='stroop-text' class='stroop-blue'>YELLOW</p>", "response": "b", "stimulus-type": "incongruent", "word": "yellow", "color": "blue", "correct_response": "b", "trial_id": "stroop-trial-1-incongruent-9", "trial_type": "html-keyboard-response", "trial_index": 87, "time_elapsed": 207636, "internal_node_id": "0.0-4.0-83.0"}}, {"uniqueid": "w80795260:a11863614", "current_trial": 88, "dateTime": 1664555500253, "trialdata": {"rt": 859, "stimulus": "<p id='stroop-text' class='stroop-blue'>BLUE</p>", "response": "b", "stimulus-type": "congruent", "word": "blue", "color": "blue", "correct_response": "b", "trial_id": "stroop-trial-1-congruent-15", "trial_type": "html-keyboard-response", "trial_index": 88, "time_elapsed": 208996, "internal_node_id": "0.0-4.0-84.0"}}, {"uniqueid": "w80795260:a11863614", "current_trial": 89, "dateTime": 1664555501637, "trialdata": {"rt": 882, "stimulus": "<p id='stroop-text' class='stroop-red'>BRIDGE</p>", "response": "r", "stimulus-type": "unrelated", "word": "BRIDGE", "color": "red", "correct_response": "r", "trial_id": "stroop-trial-1-unrelated-28", "trial_type": "html-keyboard-response", "trial_index": 89, "time_elapsed": 210380, "internal_node_id": "0.0-4.0-85.0"}}, {"uniqueid": "w80795260:a11863614", "current_trial": 90, "dateTime": 1664555502869, "trialdata": {"rt": 730, "stimulus": "<p id='stroop-text' class='stroop-green'>BLUE</p>", "response": "g", "stimulus-type": "incongruent", "word": "blue", "color": "green", "correct_response": "g", "trial_id": "stroop-trial-1-incongruent-7", "trial_type": "html-keyboard-response", "trial_index": 90, "time_elapsed": 211612, "internal_node_id": "0.0-4.0-86.0"}}, {"uniqueid": "w80795260:a11863614", "current_trial": 91, "dateTime": 1664555505109, "trialdata": {"rt": 1734, "stimulus": "<p id='stroop-text' class='stroop-blue'>RED</p>", "response": "b", "stimulus-type": "incongruent", "word": "red", "color": "blue", "correct_response": "b", "trial_id": "stroop-trial-1-incongruent-14", "trial_type": "html-keyboard-response", "trial_index": 91, "time_elapsed": 213852, "internal_node_id": "0.0-4.0-87.0"}}, {"uniqueid": "w80795260:a11863614", "current_trial": 92, "dateTime": 1664555507701, "trialdata": {"rt": 2090, "stimulus": "<p id='stroop-text' class='stroop-green'>BOTTLE</p>", "response": "g", "stimulus-type": "unrelated", "word": "BOTTLE", "color": "green", "correct_response": "g", "trial_id": "stroop-trial-1-unrelated-24", "trial_type": "html-keyboard-response", "trial_index": 92, "time_elapsed": 216444, "internal_node_id": "0.0-4.0-88.0"}}, {"uniqueid": "w80795260:a11863614", "current_trial": 93, "dateTime": 1664555509140, "trialdata": {"rt": 938, "stimulus": "<p id='stroop-text' class='stroop-blue'>RED</p>", "response": "b", "stimulus-type": "incongruent", "word": "red", "color": "blue", "correct_response": "b", "trial_id": "stroop-trial-1-incongruent-26", "trial_type": "html-keyboard-response", "trial_index": 93, "time_elapsed": 217883, "internal_node_id": "0.0-4.0-89.0"}}, {"uniqueid": "w80795260:a11863614", "current_trial": 94, "dateTime": 1664555518292, "trialdata": {"rt": 8650, "stimulus": "  <h1> End of block! </h1>\n\n  You have reached the end of the block 1/5. If you need a short break, feel free to take one now before moving on.\n\n  <br><br>\n  In the next block, you will complete another 90 rounds of this game.\n\n  <br><br>\n  <div style='text-align: center;'>Press <code>space</code> to begin.</div>\n  <br><br>\n<div style='text-align: center;'>(If the experiment doesn't continue, try clicking on the text and then pressing <code>space</code>.)</div>", "response": " ", "trial_id": "stroop_1_ready_2", "trial_type": "html-keyboard-response", "trial_index": 94, "time_elapsed": 227035, "internal_node_id": "0.0-5.0"}}, {"uniqueid": "w80795260:a11863614", "current_trial": 95, "dateTime": 1664555519317, "trialdata": {"rt": 1023, "stimulus": "<p id='stroop-text' class='stroop-yellow'>BRIDGE</p>", "response": "y", "stimulus-type": "unrelated", "word": "BRIDGE", "color": "yellow", "correct_response": "y", "trial_id": "stroop-trial-1-unrelated-8", "trial_type": "html-keyboard-response", "trial_index": 95, "time_elapsed": 228059, "internal_node_id": "0.0-6.0-0.0"}}, {"uniqueid": "w80795260:a11863614", "current_trial": 96, "dateTime": 1664555520252, "trialdata": {"rt": 435, "stimulus": "<p id='stroop-text' class='stroop-red'>BRIDGE</p>", "response": "r", "stimulus-type": "unrelated", "word": "BRIDGE", "color": "red", "correct_response": "r", "trial_id": "stroop-trial-1-unrelated-2", "trial_type": "html-keyboard-response", "trial_index": 96, "time_elapsed": 228995, "internal_node_id": "0.0-6.0-1.0"}}, {"uniqueid": "w80795260:a11863614", "current_trial": 97, "dateTime": 1664555521348, "trialdata": {"rt": 595, "stimulus": "<p id='stroop-text' class='stroop-blue'>BRAIN</p>", "response": "g", "stimulus-type": "unrelated", "word": "BRAIN", "color": "blue", "correct_response": "b", "trial_id": "stroop-trial-1-unrelated-13", "trial_type": "html-keyboard-response", "trial_index": 97, "time_elapsed": 230091, "internal_node_id": "0.0-6.0-2.0"}}, {"uniqueid": "w80795260:a11863614", "current_trial": 98, "dateTime": 1664555522788, "trialdata": {"rt": 937, "stimulus": "<p id='stroop-text' class='stroop-green'>BRAIN</p>", "response": "g", "stimulus-type": "unrelated", "word": "BRAIN", "color": "green", "correct_response": "g", "trial_id": "stroop-trial-1-unrelated-30", "trial_type": "html-keyboard-response", "trial_index": 98, "time_elapsed": 231531, "internal_node_id": "0.0-6.0-3.0"}}, {"uniqueid": "w80795260:a11863614", "current_trial": 99, "dateTime": 1664555524005, "trialdata": {"rt": 714, "stimulus": "<p id='stroop-text' class='stroop-red'>BLUE</p>", "response": "r", "stimulus-type": "incongruent", "word": "blue", "color": "red", "correct_response": "r", "trial_id": "stroop-trial-1-incongruent-22", "trial_type": "html-keyboard-response", "trial_index": 99, "time_elapsed": 232748, "internal_node_id": "0.0-6.0-4.0"}}, {"uniqueid": "w80795260:a11863614", "current_trial": 100, "dateTime": 1664555525469, "trialdata": {"rt": 962, "stimulus": "<p id='stroop-text' class='stroop-green'>DOG</p>", "response": "g", "stimulus-type": "unrelated", "word": "DOG", "color": "green", "correct_response": "g", "trial_id": "stroop-trial-1-unrelated-20", "trial_type": "html-keyboard-response", "trial_index": 100, "time_elapsed": 234212, "internal_node_id": "0.0-6.0-5.0"}}, {"uniqueid": "w80795260:a11863614", "current_trial": 101, "dateTime": 1664555526852, "trialdata": {"rt": 881, "stimulus": "<p id='stroop-text' class='stroop-red'>GREEN</p>", "response": "r", "stimulus-type": "incongruent", "word": "green", "color": "red", "correct_response": "r", "trial_id": "stroop-trial-1-incongruent-6", "trial_type": "html-keyboard-response", "trial_index": 101, "time_elapsed": 235595, "internal_node_id": "0.0-6.0-6.0"}}, {"uniqueid": "w80795260:a11863614", "current_trial": 102, "dateTime": 1664555527956, "trialdata": {"rt": 601, "stimulus": "<p id='stroop-text' class='stroop-blue'>BLUE</p>", "response": "b", "stimulus-type": "congruent", "word": "blue", "color": "blue", "correct_response": "b", "trial_id": "stroop-trial-1-congruent-4", "trial_type": "html-keyboard-response", "trial_index": 102, "time_elapsed": 236699, "internal_node_id": "0.0-6.0-7.0"}}, {"uniqueid": "w80795260:a11863614", "current_trial": 103, "dateTime": 1664555528972, "trialdata": {"rt": 503, "stimulus": "<p id='stroop-text' class='stroop-yellow'>DOG</p>", "response": "y", "stimulus-type": "unrelated", "word": "DOG", "color": "yellow", "correct_response": "y", "trial_id": "stroop-trial-1-unrelated-25", "trial_type": "html-keyboard-response", "trial_index": 103, "time_elapsed": 237715, "internal_node_id": "0.0-6.0-8.0"}}, {"uniqueid": "w80795260:a11863614", "current_trial": 104, "dateTime": 1664555530268, "trialdata": {"rt": 794, "stimulus": "<p id='stroop-text' class='stroop-green'>RED</p>", "response": "r", "stimulus-type": "incongruent", "word": "red", "color": "green", "correct_response": "g", "trial_id": "stroop-trial-1-incongruent-18", "trial_type": "html-keyboard-response", "trial_index": 104, "time_elapsed": 239011, "internal_node_id": "0.0-6.0-9.0"}}, {"uniqueid": "w80795260:a11863614", "current_trial": 105, "dateTime": 1664555531716, "trialdata": {"rt": 946, "stimulus": "<p id='stroop-text' class='stroop-green'>YELLOW</p>", "response": "g", "stimulus-type": "incongruent", "word": "yellow", "color": "green", "correct_response": "g", "trial_id": "stroop-trial-1-incongruent-1", "trial_type": "html-keyboard-response", "trial_index": 105, "time_elapsed": 240459, "internal_node_id": "0.0-6.0-10.0"}}, {"uniqueid": "w80795260:a11863614", "current_trial": 106, "dateTime": 1664555532804, "trialdata": {"rt": 585, "stimulus": "<p id='stroop-text' class='stroop-green'>GREEN</p>", "response": "g", "stimulus-type": "congruent", "word": "green", "color": "green", "correct_response": "g", "trial_id": "stroop-trial-1-congruent-13", "trial_type": "html-keyboard-response", "trial_index": 106, "time_elapsed": 241547, "internal_node_id": "0.0-6.0-11.0"}}, {"uniqueid": "w80795260:a11863614", "current_trial": 107, "dateTime": 1664555533740, "trialdata": {"rt": 432, "stimulus": "<p id='stroop-text' class='stroop-green'>BRIDGE</p>", "response": "g", "stimulus-type": "unrelated", "word": "BRIDGE", "color": "green", "correct_response": "g", "trial_id": "stroop-trial-1-unrelated-9", "trial_type": "html-keyboard-response", "trial_index": 107, "time_elapsed": 242483, "internal_node_id": "0.0-6.0-12.0"}}, {"uniqueid": "w80795260:a11863614", "current_trial": 108, "dateTime": 1664555534909, "trialdata": {"rt": 667, "stimulus": "<p id='stroop-text' class='stroop-blue'>WINDOW</p>", "response": "b", "stimulus-type": "unrelated", "word": "WINDOW", "color": "blue", "correct_response": "b", "trial_id": "stroop-trial-1-unrelated-23", "trial_type": "html-keyboard-response", "trial_index": 108, "time_elapsed": 243651, "internal_node_id": "0.0-6.0-13.0"}}, {"uniqueid": "w80795260:a11863614", "current_trial": 109, "dateTime": 1664555536316, "trialdata": {"rt": 906, "stimulus": "<p id='stroop-text' class='stroop-blue'>BLUE</p>", "response": "b", "stimulus-type": "congruent", "word": "blue", "color": "blue", "correct_response": "b", "trial_id": "stroop-trial-1-congruent-16", "trial_type": "html-keyboard-response", "trial_index": 109, "time_elapsed": 245059, "internal_node_id": "0.0-6.0-14.0"}}, {"uniqueid": "w80795260:a11863614", "current_trial": 110, "dateTime": 1664555537476, "trialdata": {"rt": 658, "stimulus": "<p id='stroop-text' class='stroop-red'>RED</p>", "response": "r", "stimulus-type": "congruent", "word": "red", "color": "red", "correct_response": "r", "trial_id": "stroop-trial-1-congruent-10", "trial_type": "html-keyboard-response", "trial_index": 110, "time_elapsed": 246219, "internal_node_id": "0.0-6.0-15.0"}}, {"uniqueid": "w80795260:a11863614", "current_trial": 111, "dateTime": 1664555538988, "trialdata": {"rt": 1003, "stimulus": "<p id='stroop-text' class='stroop-blue'>RED</p>", "response": "b", "stimulus-type": "incongruent", "word": "red", "color": "blue", "correct_response": "b", "trial_id": "stroop-trial-1-incongruent-12", "trial_type": "html-keyboard-response", "trial_index": 111, "time_elapsed": 247731, "internal_node_id": "0.0-6.0-16.0"}}, {"uniqueid": "w80795260:a11863614", "current_trial": 112, "dateTime": 1664555540148, "trialdata": {"rt": 645, "stimulus": "<p id='stroop-text' class='stroop-yellow'>YELLOW</p>", "response": "y", "stimulus-type": "congruent", "word": "yellow", "color": "yellow", "correct_response": "y", "trial_id": "stroop-trial-1-congruent-3", "trial_type": "html-keyboard-response", "trial_index": 112, "time_elapsed": 248891, "internal_node_id": "0.0-6.0-17.0"}}, {"uniqueid": "w80795260:a11863614", "current_trial": 113, "dateTime": 1664555541476, "trialdata": {"rt": 827, "stimulus": "<p id='stroop-text' class='stroop-blue'>RED</p>", "response": "b", "stimulus-type": "incongruent", "word": "red", "color": "blue", "correct_response": "b", "trial_id": "stroop-trial-1-incongruent-16", "trial_type": "html-keyboard-response", "trial_index": 113, "time_elapsed": 250219, "internal_node_id": "0.0-6.0-18.0"}}, {"uniqueid": "w80795260:a11863614", "current_trial": 114, "dateTime": 1664555542692, "trialdata": {"rt": 710, "stimulus": "<p id='stroop-text' class='stroop-yellow'>BOTTLE</p>", "response": "y", "stimulus-type": "unrelated", "word": "BOTTLE", "color": "yellow", "correct_response": "y", "trial_id": "stroop-trial-1-unrelated-14", "trial_type": "html-keyboard-response", "trial_index": 114, "time_elapsed": 251435, "internal_node_id": "0.0-6.0-19.0"}}, {"uniqueid": "w80795260:a11863614", "current_trial": 115, "dateTime": 1664555543973, "trialdata": {"rt": 777, "stimulus": "<p id='stroop-text' class='stroop-blue'>GREEN</p>", "response": "b", "stimulus-type": "incongruent", "word": "green", "color": "blue", "correct_response": "b", "trial_id": "stroop-trial-1-incongruent-21", "trial_type": "html-keyboard-response", "trial_index": 115, "time_elapsed": 252715, "internal_node_id": "0.0-6.0-20.0"}}, {"uniqueid": "w80795260:a11863614", "current_trial": 116, "dateTime": 1664555544973, "trialdata": {"rt": 498, "stimulus": "<p id='stroop-text' class='stroop-blue'>BLUE</p>", "response": "b", "stimulus-type": "congruent", "word": "blue", "color": "blue", "correct_response": "b", "trial_id": "stroop-trial-1-congruent-7", "trial_type": "html-keyboard-response", "trial_index": 116, "time_elapsed": 253715, "internal_node_id": "0.0-6.0-21.0"}}, {"uniqueid": "w80795260:a11863614", "current_trial": 117, "dateTime": 1664555546180, "trialdata": {"rt": 706, "stimulus": "<p id='stroop-text' class='stroop-red'>GREEN</p>", "response": "r", "stimulus-type": "incongruent", "word": "green", "color": "red", "correct_response": "r", "trial_id": "stroop-trial-1-incongruent-5", "trial_type": "html-keyboard-response", "trial_index": 117, "time_elapsed": 254923, "internal_node_id": "0.0-6.0-22.0"}}, {"uniqueid": "w80795260:a11863614", "current_trial": 118, "dateTime": 1664555547229, "trialdata": {"rt": 545, "stimulus": "<p id='stroop-text' class='stroop-red'>BOAT</p>", "response": "r", "stimulus-type": "unrelated", "word": "BOAT", "color": "red", "correct_response": "r", "trial_id": "stroop-trial-1-unrelated-6", "trial_type": "html-keyboard-response", "trial_index": 118, "time_elapsed": 255972, "internal_node_id": "0.0-6.0-23.0"}}, {"uniqueid": "w80795260:a11863614", "current_trial": 119, "dateTime": 1664555548205, "trialdata": {"rt": 474, "stimulus": "<p id='stroop-text' class='stroop-red'>BRAIN</p>", "response": "r", "stimulus-type": "unrelated", "word": "BRAIN", "color": "red", "correct_response": "r", "trial_id": "stroop-trial-1-unrelated-17", "trial_type": "html-keyboard-response", "trial_index": 119, "time_elapsed": 256947, "internal_node_id": "0.0-6.0-24.0"}}, {"uniqueid": "w80795260:a11863614", "current_trial": 120, "dateTime": 1664555549405, "trialdata": {"rt": 698, "stimulus": "<p id='stroop-text' class='stroop-green'>BOTTLE</p>", "response": "g", "stimulus-type": "unrelated", "word": "BOTTLE", "color": "green", "correct_response": "g", "trial_id": "stroop-trial-1-unrelated-24", "trial_type": "html-keyboard-response", "trial_index": 120, "time_elapsed": 258148, "internal_node_id": "0.0-6.0-25.0"}}, {"uniqueid": "w80795260:a11863614", "current_trial": 121, "dateTime": 1664555550380, "trialdata": {"rt": 474, "stimulus": "<p id='stroop-text' class='stroop-green'>BLUE</p>", "response": "g", "stimulus-type": "incongruent", "word": "blue", "color": "green", "correct_response": "g", "trial_id": "stroop-trial-1-incongruent-15", "trial_type": "html-keyboard-response", "trial_index": 121, "time_elapsed": 259123, "internal_node_id": "0.0-6.0-26.0"}}, {"uniqueid": "w80795260:a11863614", "current_trial": 122, "dateTime": 1664555551444, "trialdata": {"rt": 561, "stimulus": "<p id='stroop-text' class='stroop-blue'>BOTTLE</p>", "response": "b", "stimulus-type": "unrelated", "word": "BOTTLE", "color": "blue", "correct_response": "b", "trial_id": "stroop-trial-1-unrelated-11", "trial_type": "html-keyboard-response", "trial_index": 122, "time_elapsed": 260187, "internal_node_id": "0.0-6.0-27.0"}}, {"uniqueid": "w80795260:a11863614", "current_trial": 123, "dateTime": 1664555552693, "trialdata": {"rt": 746, "stimulus": "<p id='stroop-text' class='stroop-green'>RED</p>", "response": "b", "stimulus-type": "incongruent", "word": "red", "color": "green", "correct_response": "g", "trial_id": "stroop-trial-1-incongruent-9", "trial_type": "html-keyboard-response", "trial_index": 123, "time_elapsed": 261435, "internal_node_id": "0.0-6.0-28.0"}}, {"uniqueid": "w80795260:a11863614", "current_trial": 124, "dateTime": 1664555553733, "trialdata": {"rt": 537, "stimulus": "<p id='stroop-text' class='stroop-green'>BRIDGE</p>", "response": "g", "stimulus-type": "unrelated", "word": "BRIDGE", "color": "green", "correct_response": "g", "trial_id": "stroop-trial-1-unrelated-1", "trial_type": "html-keyboard-response", "trial_index": 124, "time_elapsed": 262475, "internal_node_id": "0.0-6.0-29.0"}}, {"uniqueid": "w80795260:a11863614", "current_trial": 125, "dateTime": 1664555554852, "trialdata": {"rt": 617, "stimulus": "<p id='stroop-text' class='stroop-green'>RED</p>", "response": "g", "stimulus-type": "incongruent", "word": "red", "color": "green", "correct_response": "g", "trial_id": "stroop-trial-1-incongruent-13", "trial_type": "html-keyboard-response", "trial_index": 125, "time_elapsed": 263595, "internal_node_id": "0.0-6.0-30.0"}}, {"uniqueid": "w80795260:a11863614", "current_trial": 126, "dateTime": 1664555556188, "trialdata": {"rt": 835, "stimulus": "<p id='stroop-text' class='stroop-red'>BLUE</p>", "response": "r", "stimulus-type": "incongruent", "word": "blue", "color": "red", "correct_response": "r", "trial_id": "stroop-trial-1-incongruent-23", "trial_type": "html-keyboard-response", "trial_index": 126, "time_elapsed": 264931, "internal_node_id": "0.0-6.0-31.0"}}, {"uniqueid": "w80795260:a11863614", "current_trial": 127, "dateTime": 1664555557277, "trialdata": {"rt": 586, "stimulus": "<p id='stroop-text' class='stroop-blue'>RED</p>", "response": "b", "stimulus-type": "incongruent", "word": "red", "color": "blue", "correct_response": "b", "trial_id": "stroop-trial-1-incongruent-11", "trial_type": "html-keyboard-response", "trial_index": 127, "time_elapsed": 266020, "internal_node_id": "0.0-6.0-32.0"}}, {"uniqueid": "w80795260:a11863614", "current_trial": 128, "dateTime": 1664555558308, "trialdata": {"rt": 529, "stimulus": "<p id='stroop-text' class='stroop-blue'>BLUE</p>", "response": "b", "stimulus-type": "congruent", "word": "blue", "color": "blue", "correct_response": "b", "trial_id": "stroop-trial-1-congruent-21", "trial_type": "html-keyboard-response", "trial_index": 128, "time_elapsed": 267051, "internal_node_id": "0.0-6.0-33.0"}}, {"uniqueid": "w80795260:a11863614", "current_trial": 129, "dateTime": 1664555559293, "trialdata": {"rt": 483, "stimulus": "<p id='stroop-text' class='stroop-yellow'>WINDOW</p>", "response": "y", "stimulus-type": "unrelated", "word": "WINDOW", "color": "yellow", "correct_response": "y", "trial_id": "stroop-trial-1-unrelated-7", "trial_type": "html-keyboard-response", "trial_index": 129, "time_elapsed": 268036, "internal_node_id": "0.0-6.0-34.0"}}, {"uniqueid": "w80795260:a11863614", "current_trial": 130, "dateTime": 1664555560564, "trialdata": {"rt": 769, "stimulus": "<p id='stroop-text' class='stroop-red'>RED</p>", "response": "r", "stimulus-type": "congruent", "word": "red", "color": "red", "correct_response": "r", "trial_id": "stroop-trial-1-congruent-29", "trial_type": "html-keyboard-response", "trial_index": 130, "time_elapsed": 269307, "internal_node_id": "0.0-6.0-35.0"}}, {"uniqueid": "w80795260:a11863614", "current_trial": 131, "dateTime": 1664555562244, "trialdata": {"rt": 1178, "stimulus": "<p id='stroop-text' class='stroop-blue'>YELLOW</p>", "response": "b", "stimulus-type": "incongruent", "word": "yellow", "color": "blue", "correct_response": "b", "trial_id": "stroop-trial-1-incongruent-2", "trial_type": "html-keyboard-response", "trial_index": 131, "time_elapsed": 270987, "internal_node_id": "0.0-6.0-36.0"}}, {"uniqueid": "w80795260:a11863614", "current_trial": 132, "dateTime": 1664555563636, "trialdata": {"rt": 890, "stimulus": "<p id='stroop-text' class='stroop-green'>YELLOW</p>", "response": "g", "stimulus-type": "incongruent", "word": "yellow", "color": "green", "correct_response": "g", "trial_id": "stroop-trial-1-incongruent-19", "trial_type": "html-keyboard-response", "trial_index": 132, "time_elapsed": 272379, "internal_node_id": "0.0-6.0-37.0"}}, {"uniqueid": "w80795260:a11863614", "current_trial": 133, "dateTime": 1664555564837, "trialdata": {"rt": 699, "stimulus": "<p id='stroop-text' class='stroop-red'>YELLOW</p>", "response": "r", "stimulus-type": "incongruent", "word": "yellow", "color": "red", "correct_response": "r", "trial_id": "stroop-trial-1-incongruent-3", "trial_type": "html-keyboard-response", "trial_index": 133, "time_elapsed": 273579, "internal_node_id": "0.0-6.0-38.0"}}, {"uniqueid": "w80795260:a11863614", "current_trial": 134, "dateTime": 1664555565956, "trialdata": {"rt": 610, "stimulus": "<p id='stroop-text' class='stroop-yellow'>YELLOW</p>", "response": "y", "stimulus-type": "congruent", "word": "yellow", "color": "yellow", "correct_response": "y", "trial_id": "stroop-trial-1-congruent-17", "trial_type": "html-keyboard-response", "trial_index": 134, "time_elapsed": 274699, "internal_node_id": "0.0-6.0-39.0"}}, {"uniqueid": "w80795260:a11863614", "current_trial": 135, "dateTime": 1664555567196, "trialdata": {"rt": 738, "stimulus": "<p id='stroop-text' class='stroop-green'>YELLOW</p>", "response": "g", "stimulus-type": "incongruent", "word": "yellow", "color": "green", "correct_response": "g", "trial_id": "stroop-trial-1-incongruent-8", "trial_type": "html-keyboard-response", "trial_index": 135, "time_elapsed": 275939, "internal_node_id": "0.0-6.0-40.0"}}, {"uniqueid": "w80795260:a11863614", "current_trial": 136, "dateTime": 1664555568445, "trialdata": {"rt": 747, "stimulus": "<p id='stroop-text' class='stroop-blue'>GREEN</p>", "response": "b", "stimulus-type": "incongruent", "word": "green", "color": "blue", "correct_response": "b", "trial_id": "stroop-trial-1-incongruent-24", "trial_type": "html-keyboard-response", "trial_index": 136, "time_elapsed": 277188, "internal_node_id": "0.0-6.0-41.0"}}, {"uniqueid": "w80795260:a11863614", "current_trial": 137, "dateTime": 1664555569661, "trialdata": {"rt": 714, "stimulus": "<p id='stroop-text' class='stroop-green'>GREEN</p>", "response": "g", "stimulus-type": "congruent", "word": "green", "color": "green", "correct_response": "g", "trial_id": "stroop-trial-1-congruent-1", "trial_type": "html-keyboard-response", "trial_index": 137, "time_elapsed": 278404, "internal_node_id": "0.0-6.0-42.0"}}, {"uniqueid": "w80795260:a11863614", "current_trial": 138, "dateTime": 1664555570725, "trialdata": {"rt": 562, "stimulus": "<p id='stroop-text' class='stroop-blue'>BRAIN</p>", "response": "b", "stimulus-type": "unrelated", "word": "BRAIN", "color": "blue", "correct_response": "b", "trial_id": "stroop-trial-1-unrelated-4", "trial_type": "html-keyboard-response", "trial_index": 138, "time_elapsed": 279468, "internal_node_id": "0.0-6.0-43.0"}}, {"uniqueid": "w80795260:a11863614", "current_trial": 139, "dateTime": 1664555571901, "trialdata": {"rt": 673, "stimulus": "<p id='stroop-text' class='stroop-green'>GREEN</p>", "response": "g", "stimulus-type": "congruent", "word": "green", "color": "green", "correct_response": "g", "trial_id": "stroop-trial-1-congruent-12", "trial_type": "html-keyboard-response", "trial_index": 139, "time_elapsed": 280644, "internal_node_id": "0.0-6.0-44.0"}}, {"uniqueid": "w80795260:a11863614", "current_trial": 140, "dateTime": 1664555573213, "trialdata": {"rt": 810, "stimulus": "<p id='stroop-text' class='stroop-green'>BOAT</p>", "response": "g", "stimulus-type": "unrelated", "word": "BOAT", "color": "green", "correct_response": "g", "trial_id": "stroop-trial-1-unrelated-27", "trial_type": "html-keyboard-response", "trial_index": 140, "time_elapsed": 281956, "internal_node_id": "0.0-6.0-45.0"}}, {"uniqueid": "w80795260:a11863614", "current_trial": 141, "dateTime": 1664555574269, "trialdata": {"rt": 554, "stimulus": "<p id='stroop-text' class='stroop-red'>RED</p>", "response": "r", "stimulus-type": "congruent", "word": "red", "color": "red", "correct_response": "r", "trial_id": "stroop-trial-1-congruent-24", "trial_type": "html-keyboard-response", "trial_index": 141, "time_elapsed": 283012, "internal_node_id": "0.0-6.0-46.0"}}, {"uniqueid": "w80795260:a11863614", "current_trial": 142, "dateTime": 1664555575397, "trialdata": {"rt": 622, "stimulus": "<p id='stroop-text' class='stroop-yellow'>YELLOW</p>", "response": "y", "stimulus-type": "congruent", "word": "yellow", "color": "yellow", "correct_response": "y", "trial_id": "stroop-trial-1-congruent-27", "trial_type": "html-keyboard-response", "trial_index": 142, "time_elapsed": 284140, "internal_node_id": "0.0-6.0-47.0"}}, {"uniqueid": "w80795260:a11863614", "current_trial": 143, "dateTime": 1664555576517, "trialdata": {"rt": 617, "stimulus": "<p id='stroop-text' class='stroop-blue'>BOAT</p>", "response": "b", "stimulus-type": "unrelated", "word": "BOAT", "color": "blue", "correct_response": "b", "trial_id": "stroop-trial-1-unrelated-15", "trial_type": "html-keyboard-response", "trial_index": 143, "time_elapsed": 285260, "internal_node_id": "0.0-6.0-48.0"}}, {"uniqueid": "w80795260:a11863614", "current_trial": 144, "dateTime": 1664555578501, "trialdata": {"rt": 1481, "stimulus": "<p id='stroop-text' class='stroop-red'>RED</p>", "response": "r", "stimulus-type": "congruent", "word": "red", "color": "red", "correct_response": "r", "trial_id": "stroop-trial-1-congruent-5", "trial_type": "html-keyboard-response", "trial_index": 144, "time_elapsed": 287244, "internal_node_id": "0.0-6.0-49.0"}}, {"uniqueid": "w80795260:a11863614", "current_trial": 145, "dateTime": 1664555579653, "trialdata": {"rt": 650, "stimulus": "<p id='stroop-text' class='stroop-green'>GREEN</p>", "response": "g", "stimulus-type": "congruent", "word": "green", "color": "green", "correct_response": "g", "trial_id": "stroop-trial-1-congruent-8", "trial_type": "html-keyboard-response", "trial_index": 145, "time_elapsed": 288396, "internal_node_id": "0.0-6.0-50.0"}}, {"uniqueid": "w80795260:a11863614", "current_trial": 146, "dateTime": 1664555580629, "trialdata": {"rt": 473, "stimulus": "<p id='stroop-text' class='stroop-green'>GREEN</p>", "response": "g", "stimulus-type": "congruent", "word": "green", "color": "green", "correct_response": "g", "trial_id": "stroop-trial-1-congruent-15", "trial_type": "html-keyboard-response", "trial_index": 146, "time_elapsed": 289371, "internal_node_id": "0.0-6.0-51.0"}}, {"uniqueid": "w80795260:a11863614", "current_trial": 147, "dateTime": 1664555581621, "trialdata": {"rt": 489, "stimulus": "<p id='stroop-text' class='stroop-yellow'>YELLOW</p>", "response": "y", "stimulus-type": "congruent", "word": "yellow", "color": "yellow", "correct_response": "y", "trial_id": "stroop-trial-1-congruent-14", "trial_type": "html-keyboard-response", "trial_index": 147, "time_elapsed": 290364, "internal_node_id": "0.0-6.0-52.0"}}, {"uniqueid": "w80795260:a11863614", "current_trial": 148, "dateTime": 1664555582965, "trialdata": {"rt": 841, "stimulus": "<p id='stroop-text' class='stroop-green'>BLUE</p>", "response": "b", "stimulus-type": "incongruent", "word": "blue", "color": "green", "correct_response": "g", "trial_id": "stroop-trial-1-incongruent-30", "trial_type": "html-keyboard-response", "trial_index": 148, "time_elapsed": 291708, "internal_node_id": "0.0-6.0-53.0"}}, {"uniqueid": "w80795260:a11863614", "current_trial": 149, "dateTime": 1664555584701, "trialdata": {"rt": 1234, "stimulus": "<p id='stroop-text' class='stroop-green'>STONE</p>", "response": "g", "stimulus-type": "unrelated", "word": "STONE", "color": "green", "correct_response": "g", "trial_id": "stroop-trial-1-unrelated-22", "trial_type": "html-keyboard-response", "trial_index": 149, "time_elapsed": 293444, "internal_node_id": "0.0-6.0-54.0"}}, {"uniqueid": "w80795260:a11863614", "current_trial": 150, "dateTime": 1664555585613, "trialdata": {"rt": 410, "stimulus": "<p id='stroop-text' class='stroop-green'>GREEN</p>", "response": "g", "stimulus-type": "congruent", "word": "green", "color": "green", "correct_response": "g", "trial_id": "stroop-trial-1-congruent-23", "trial_type": "html-keyboard-response", "trial_index": 150, "time_elapsed": 294356, "internal_node_id": "0.0-6.0-55.0"}}, {"uniqueid": "w80795260:a11863614", "current_trial": 151, "dateTime": 1664555586617, "trialdata": {"rt": 502, "stimulus": "<p id='stroop-text' class='stroop-blue'>BLUE</p>", "response": "b", "stimulus-type": "congruent", "word": "blue", "color": "blue", "correct_response": "b", "trial_id": "stroop-trial-1-congruent-25", "trial_type": "html-keyboard-response", "trial_index": 151, "time_elapsed": 295360, "internal_node_id": "0.0-6.0-56.0"}}, {"uniqueid": "w80795260:a11863614", "current_trial": 152, "dateTime": 1664555587661, "trialdata": {"rt": 533, "stimulus": "<p id='stroop-text' class='stroop-blue'>BLUE</p>", "response": "b", "stimulus-type": "congruent", "word": "blue", "color": "blue", "correct_response": "b", "trial_id": "stroop-trial-1-congruent-30", "trial_type": "html-keyboard-response", "trial_index": 152, "time_elapsed": 296404, "internal_node_id": "0.0-6.0-57.0"}}, {"uniqueid": "w80795260:a11863614", "current_trial": 153, "dateTime": 1664555589181, "trialdata": {"rt": 1016, "stimulus": "<p id='stroop-text' class='stroop-blue'>RED</p>", "response": "b", "stimulus-type": "incongruent", "word": "red", "color": "blue", "correct_response": "b", "trial_id": "stroop-trial-1-incongruent-27", "trial_type": "html-keyboard-response", "trial_index": 153, "time_elapsed": 297924, "internal_node_id": "0.0-6.0-58.0"}}, {"uniqueid": "w80795260:a11863614", "current_trial": 154, "dateTime": 1664555590541, "trialdata": {"rt": 858, "stimulus": "<p id='stroop-text' class='stroop-yellow'>BLUE</p>", "response": "y", "stimulus-type": "incongruent", "word": "blue", "color": "yellow", "correct_response": "y", "trial_id": "stroop-trial-1-incongruent-17", "trial_type": "html-keyboard-response", "trial_index": 154, "time_elapsed": 299284, "internal_node_id": "0.0-6.0-59.0"}}, {"uniqueid": "w80795260:a11863614", "current_trial": 155, "dateTime": 1664555591701, "trialdata": {"rt": 657, "stimulus": "<p id='stroop-text' class='stroop-red'>GREEN</p>", "response": "r", "stimulus-type": "incongruent", "word": "green", "color": "red", "correct_response": "r", "trial_id": "stroop-trial-1-incongruent-4", "trial_type": "html-keyboard-response", "trial_index": 155, "time_elapsed": 300444, "internal_node_id": "0.0-6.0-60.0"}}, {"uniqueid": "w80795260:a11863614", "current_trial": 156, "dateTime": 1664555593341, "trialdata": {"rt": 1139, "stimulus": "<p id='stroop-text' class='stroop-yellow'>YELLOW</p>", "response": "y", "stimulus-type": "congruent", "word": "yellow", "color": "yellow", "correct_response": "y", "trial_id": "stroop-trial-1-congruent-28", "trial_type": "html-keyboard-response", "trial_index": 156, "time_elapsed": 302084, "internal_node_id": "0.0-6.0-61.0"}}, {"uniqueid": "w80795260:a11863614", "current_trial": 157, "dateTime": 1664555595005, "trialdata": {"rt": 1163, "stimulus": "<p id='stroop-text' class='stroop-blue'>FORK</p>", "response": "b", "stimulus-type": "unrelated", "word": "FORK", "color": "blue", "correct_response": "b", "trial_id": "stroop-trial-1-unrelated-16", "trial_type": "html-keyboard-response", "trial_index": 157, "time_elapsed": 303748, "internal_node_id": "0.0-6.0-62.0"}}, {"uniqueid": "w80795260:a11863614", "current_trial": 158, "dateTime": 1664555596181, "trialdata": {"rt": 674, "stimulus": "<p id='stroop-text' class='stroop-yellow'>WINDOW</p>", "response": "y", "stimulus-type": "unrelated", "word": "WINDOW", "color": "yellow", "correct_response": "y", "trial_id": "stroop-trial-1-unrelated-10", "trial_type": "html-keyboard-response", "trial_index": 158, "time_elapsed": 304924, "internal_node_id": "0.0-6.0-63.0"}}, {"uniqueid": "w80795260:a11863614", "current_trial": 159, "dateTime": 1664555598077, "trialdata": {"rt": 1393, "stimulus": "<p id='stroop-text' class='stroop-blue'>WINDOW</p>", "response": "b", "stimulus-type": "unrelated", "word": "WINDOW", "color": "blue", "correct_response": "b", "trial_id": "stroop-trial-1-unrelated-3", "trial_type": "html-keyboard-response", "trial_index": 159, "time_elapsed": 306820, "internal_node_id": "0.0-6.0-64.0"}}, {"uniqueid": "w80795260:a11863614", "current_trial": 160, "dateTime": 1664555599221, "trialdata": {"rt": 643, "stimulus": "<p id='stroop-text' class='stroop-red'>BRIDGE</p>", "response": "r", "stimulus-type": "unrelated", "word": "BRIDGE", "color": "red", "correct_response": "r", "trial_id": "stroop-trial-1-unrelated-12", "trial_type": "html-keyboard-response", "trial_index": 160, "time_elapsed": 307964, "internal_node_id": "0.0-6.0-65.0"}}, {"uniqueid": "w80795260:a11863614", "current_trial": 161, "dateTime": 1664555600365, "trialdata": {"rt": 641, "stimulus": "<p id='stroop-text' class='stroop-yellow'>YELLOW</p>", "response": "y", "stimulus-type": "congruent", "word": "yellow", "color": "yellow", "correct_response": "y", "trial_id": "stroop-trial-1-congruent-19", "trial_type": "html-keyboard-response", "trial_index": 161, "time_elapsed": 309108, "internal_node_id": "0.0-6.0-66.0"}}, {"uniqueid": "w80795260:a11863614", "current_trial": 162, "dateTime": 1664555601533, "trialdata": {"rt": 665, "stimulus": "<p id='stroop-text' class='stroop-yellow'>BRIDGE</p>", "response": "y", "stimulus-type": "unrelated", "word": "BRIDGE", "color": "yellow", "correct_response": "y", "trial_id": "stroop-trial-1-unrelated-5", "trial_type": "html-keyboard-response", "trial_index": 162, "time_elapsed": 310276, "internal_node_id": "0.0-6.0-67.0"}}, {"uniqueid": "w80795260:a11863614", "current_trial": 163, "dateTime": 1664555602765, "trialdata": {"rt": 730, "stimulus": "<p id='stroop-text' class='stroop-green'>YELLOW</p>", "response": "g", "stimulus-type": "incongruent", "word": "yellow", "color": "green", "correct_response": "g", "trial_id": "stroop-trial-1-incongruent-10", "trial_type": "html-keyboard-response", "trial_index": 163, "time_elapsed": 311508, "internal_node_id": "0.0-6.0-68.0"}}, {"uniqueid": "w80795260:a11863614", "current_trial": 164, "dateTime": 1664555604045, "trialdata": {"rt": 778, "stimulus": "<p id='stroop-text' class='stroop-green'>RED</p>", "response": "g", "stimulus-type": "incongruent", "word": "red", "color": "green", "correct_response": "g", "trial_id": "stroop-trial-1-incongruent-28", "trial_type": "html-keyboard-response", "trial_index": 164, "time_elapsed": 312788, "internal_node_id": "0.0-6.0-69.0"}}, {"uniqueid": "w80795260:a11863614", "current_trial": 165, "dateTime": 1664555605045, "trialdata": {"rt": 497, "stimulus": "<p id='stroop-text' class='stroop-red'>RED</p>", "response": "r", "stimulus-type": "congruent", "word": "red", "color": "red", "correct_response": "r", "trial_id": "stroop-trial-1-congruent-2", "trial_type": "html-keyboard-response", "trial_index": 165, "time_elapsed": 313788, "internal_node_id": "0.0-6.0-70.0"}}, {"uniqueid": "w80795260:a11863614", "current_trial": 166, "dateTime": 1664555606261, "trialdata": {"rt": 704, "stimulus": "<p id='stroop-text' class='stroop-yellow'>BLUE</p>", "response": "y", "stimulus-type": "incongruent", "word": "blue", "color": "yellow", "correct_response": "y", "trial_id": "stroop-trial-1-incongruent-26", "trial_type": "html-keyboard-response", "trial_index": 166, "time_elapsed": 315004, "internal_node_id": "0.0-6.0-71.0"}}, {"uniqueid": "w80795260:a11863614", "current_trial": 167, "dateTime": 1664555607501, "trialdata": {"rt": 739, "stimulus": "<p id='stroop-text' class='stroop-red'>GREEN</p>", "response": "r", "stimulus-type": "incongruent", "word": "green", "color": "red", "correct_response": "r", "trial_id": "stroop-trial-1-incongruent-14", "trial_type": "html-keyboard-response", "trial_index": 167, "time_elapsed": 316244, "internal_node_id": "0.0-6.0-72.0"}}, {"uniqueid": "w80795260:a11863614", "current_trial": 168, "dateTime": 1664555609173, "trialdata": {"rt": 1171, "stimulus": "<p id='stroop-text' class='stroop-red'>RED</p>", "response": "r", "stimulus-type": "congruent", "word": "red", "color": "red", "correct_response": "r", "trial_id": "stroop-trial-1-congruent-20", "trial_type": "html-keyboard-response", "trial_index": 168, "time_elapsed": 317916, "internal_node_id": "0.0-6.0-73.0"}}, {"uniqueid": "w80795260:a11863614", "current_trial": 169, "dateTime": 1664555610261, "trialdata": {"rt": 584, "stimulus": "<p id='stroop-text' class='stroop-yellow'>BLUE</p>", "response": "y", "stimulus-type": "incongruent", "word": "blue", "color": "yellow", "correct_response": "y", "trial_id": "stroop-trial-1-incongruent-25", "trial_type": "html-keyboard-response", "trial_index": 169, "time_elapsed": 319004, "internal_node_id": "0.0-6.0-74.0"}}, {"uniqueid": "w80795260:a11863614", "current_trial": 170, "dateTime": 1664555611397, "trialdata": {"rt": 633, "stimulus": "<p id='stroop-text' class='stroop-red'>RED</p>", "response": "r", "stimulus-type": "congruent", "word": "red", "color": "red", "correct_response": "r", "trial_id": "stroop-trial-1-congruent-22", "trial_type": "html-keyboard-response", "trial_index": 170, "time_elapsed": 320140, "internal_node_id": "0.0-6.0-75.0"}}, {"uniqueid": "w80795260:a11863614", "current_trial": 171, "dateTime": 1664555612493, "trialdata": {"rt": 593, "stimulus": "<p id='stroop-text' class='stroop-blue'>DOG</p>", "response": "b", "stimulus-type": "unrelated", "word": "DOG", "color": "blue", "correct_response": "b", "trial_id": "stroop-trial-1-unrelated-29", "trial_type": "html-keyboard-response", "trial_index": 171, "time_elapsed": 321235, "internal_node_id": "0.0-6.0-76.0"}}, {"uniqueid": "w80795260:a11863614", "current_trial": 172, "dateTime": 1664555613509, "trialdata": {"rt": 509, "stimulus": "<p id='stroop-text' class='stroop-green'>GREEN</p>", "response": "g", "stimulus-type": "congruent", "word": "green", "color": "green", "correct_response": "g", "trial_id": "stroop-trial-1-congruent-11", "trial_type": "html-keyboard-response", "trial_index": 172, "time_elapsed": 322252, "internal_node_id": "0.0-6.0-77.0"}}, {"uniqueid": "w80795260:a11863614", "current_trial": 173, "dateTime": 1664555614525, "trialdata": {"rt": 513, "stimulus": "<p id='stroop-text' class='stroop-green'>BLUE</p>", "response": "g", "stimulus-type": "incongruent", "word": "blue", "color": "green", "correct_response": "g", "trial_id": "stroop-trial-1-incongruent-20", "trial_type": "html-keyboard-response", "trial_index": 173, "time_elapsed": 323268, "internal_node_id": "0.0-6.0-78.0"}}, {"uniqueid": "w80795260:a11863614", "current_trial": 174, "dateTime": 1664555615597, "trialdata": {"rt": 568, "stimulus": "<p id='stroop-text' class='stroop-red'>BOTTLE</p>", "response": "r", "stimulus-type": "unrelated", "word": "BOTTLE", "color": "red", "correct_response": "r", "trial_id": "stroop-trial-1-unrelated-19", "trial_type": "html-keyboard-response", "trial_index": 174, "time_elapsed": 324340, "internal_node_id": "0.0-6.0-79.0"}}, {"uniqueid": "w80795260:a11863614", "current_trial": 175, "dateTime": 1664555616885, "trialdata": {"rt": 786, "stimulus": "<p id='stroop-text' class='stroop-green'>YELLOW</p>", "response": "g", "stimulus-type": "incongruent", "word": "yellow", "color": "green", "correct_response": "g", "trial_id": "stroop-trial-1-incongruent-29", "trial_type": "html-keyboard-response", "trial_index": 175, "time_elapsed": 325628, "internal_node_id": "0.0-6.0-80.0"}}, {"uniqueid": "w80795260:a11863614", "current_trial": 176, "dateTime": 1664555617893, "trialdata": {"rt": 506, "stimulus": "<p id='stroop-text' class='stroop-green'>GREEN</p>", "response": "g", "stimulus-type": "congruent", "word": "green", "color": "green", "correct_response": "g", "trial_id": "stroop-trial-1-congruent-6", "trial_type": "html-keyboard-response", "trial_index": 176, "time_elapsed": 326636, "internal_node_id": "0.0-6.0-81.0"}}, {"uniqueid": "w80795260:a11863614", "current_trial": 177, "dateTime": 1664555618821, "trialdata": {"rt": 424, "stimulus": "<p id='stroop-text' class='stroop-green'>GREEN</p>", "response": "g", "stimulus-type": "congruent", "word": "green", "color": "green", "correct_response": "g", "trial_id": "stroop-trial-1-congruent-9", "trial_type": "html-keyboard-response", "trial_index": 177, "time_elapsed": 327564, "internal_node_id": "0.0-6.0-82.0"}}, {"uniqueid": "w80795260:a11863614", "current_trial": 178, "dateTime": 1664555620029, "trialdata": {"rt": 705, "stimulus": "<p id='stroop-text' class='stroop-blue'>FORK</p>", "response": "b", "stimulus-type": "unrelated", "word": "FORK", "color": "blue", "correct_response": "b", "trial_id": "stroop-trial-1-unrelated-28", "trial_type": "html-keyboard-response", "trial_index": 178, "time_elapsed": 328771, "internal_node_id": "0.0-6.0-83.0"}}, {"uniqueid": "w80795260:a11863614", "current_trial": 179, "dateTime": 1664555621021, "trialdata": {"rt": 490, "stimulus": "<p id='stroop-text' class='stroop-blue'>BLUE</p>", "response": "b", "stimulus-type": "congruent", "word": "blue", "color": "blue", "correct_response": "b", "trial_id": "stroop-trial-1-congruent-26", "trial_type": "html-keyboard-response", "trial_index": 179, "time_elapsed": 329764, "internal_node_id": "0.0-6.0-84.0"}}, {"uniqueid": "w80795260:a11863614", "current_trial": 180, "dateTime": 1664555622117, "trialdata": {"rt": 593, "stimulus": "<p id='stroop-text' class='stroop-red'>BRAIN</p>", "response": "r", "stimulus-type": "unrelated", "word": "BRAIN", "color": "red", "correct_response": "r", "trial_id": "stroop-trial-1-unrelated-21", "trial_type": "html-keyboard-response", "trial_index": 180, "time_elapsed": 330860, "internal_node_id": "0.0-6.0-85.0"}}, {"uniqueid": "w80795260:a11863614", "current_trial": 181, "dateTime": 1664555623309, "trialdata": {"rt": 683, "stimulus": "<p id='stroop-text' class='stroop-yellow'>BRAIN</p>", "response": "y", "stimulus-type": "unrelated", "word": "BRAIN", "color": "yellow", "correct_response": "y", "trial_id": "stroop-trial-1-unrelated-18", "trial_type": "html-keyboard-response", "trial_index": 181, "time_elapsed": 332051, "internal_node_id": "0.0-6.0-86.0"}}, {"uniqueid": "w80795260:a11863614", "current_trial": 182, "dateTime": 1664555624293, "trialdata": {"rt": 482, "stimulus": "<p id='stroop-text' class='stroop-yellow'>BRIDGE</p>", "response": "y", "stimulus-type": "unrelated", "word": "BRIDGE", "color": "yellow", "correct_response": "y", "trial_id": "stroop-trial-1-unrelated-26", "trial_type": "html-keyboard-response", "trial_index": 182, "time_elapsed": 333036, "internal_node_id": "0.0-6.0-87.0"}}, {"uniqueid": "w80795260:a11863614", "current_trial": 183, "dateTime": 1664555625365, "trialdata": {"rt": 570, "stimulus": "<p id='stroop-text' class='stroop-red'>RED</p>", "response": "r", "stimulus-type": "congruent", "word": "red", "color": "red", "correct_response": "r", "trial_id": "stroop-trial-1-congruent-18", "trial_type": "html-keyboard-response", "trial_index": 183, "time_elapsed": 334108, "internal_node_id": "0.0-6.0-88.0"}}, {"uniqueid": "w80795260:a11863614", "current_trial": 184, "dateTime": 1664555627213, "trialdata": {"rt": 1346, "stimulus": "<p id='stroop-text' class='stroop-green'>YELLOW</p>", "response": "g", "stimulus-type": "incongruent", "word": "yellow", "color": "green", "correct_response": "g", "trial_id": "stroop-trial-1-incongruent-7", "trial_type": "html-keyboard-response", "trial_index": 184, "time_elapsed": 335956, "internal_node_id": "0.0-6.0-89.0"}}, {"uniqueid": "w80795260:a11863614", "current_trial": 185, "dateTime": 1664555633309, "trialdata": {"rt": 5592, "stimulus": "  <h1> End of block! </h1>\n\n  You have reached the end of the block 2/5. If you need a short break, feel free to take one now before moving on.\n\n  <br><br>\n  In the next block, you will complete another 90 rounds of this game.\n\n  <br><br>\n  <div style='text-align: center;'>Press <code>space</code> to begin.</div>\n  <br><br>\n<div style='text-align: center;'>(If the experiment doesn't continue, try clicking on the text and then pressing <code>space</code>.)</div>", "response": " ", "trial_id": "stroop_1_ready_3", "trial_type": "html-keyboard-response", "trial_index": 185, "time_elapsed": 342051, "internal_node_id": "0.0-7.0"}}, {"uniqueid": "w80795260:a11863614", "current_trial": 186, "dateTime": 1664555634029, "trialdata": {"rt": 718, "stimulus": "<p id='stroop-text' class='stroop-red'>DOG</p>", "response": "r", "stimulus-type": "unrelated", "word": "DOG", "color": "red", "correct_response": "r", "trial_id": "stroop-trial-1-unrelated-17", "trial_type": "html-keyboard-response", "trial_index": 186, "time_elapsed": 342771, "internal_node_id": "0.0-8.0-0.0"}}, {"uniqueid": "w80795260:a11863614", "current_trial": 187, "dateTime": 1664555635149, "trialdata": {"rt": 618, "stimulus": "<p id='stroop-text' class='stroop-red'>SHIP</p>", "response": "r", "stimulus-type": "unrelated", "word": "SHIP", "color": "red", "correct_response": "r", "trial_id": "stroop-trial-1-unrelated-8", "trial_type": "html-keyboard-response", "trial_index": 187, "time_elapsed": 343891, "internal_node_id": "0.0-8.0-1.0"}}, {"uniqueid": "w80795260:a11863614", "current_trial": 188, "dateTime": 1664555636213, "trialdata": {"rt": 561, "stimulus": "<p id='stroop-text' class='stroop-blue'>WINDOW</p>", "response": "b", "stimulus-type": "unrelated", "word": "WINDOW", "color": "blue", "correct_response": "b", "trial_id": "stroop-trial-1-unrelated-20", "trial_type": "html-keyboard-response", "trial_index": 188, "time_elapsed": 344956, "internal_node_id": "0.0-8.0-2.0"}}, {"uniqueid": "w80795260:a11863614", "current_trial": 189, "dateTime": 1664555638461, "trialdata": {"rt": 1746, "stimulus": "<p id='stroop-text' class='stroop-blue'>GREEN</p>", "response": "g", "stimulus-type": "incongruent", "word": "green", "color": "blue", "correct_response": "b", "trial_id": "stroop-trial-1-incongruent-26", "trial_type": "html-keyboard-response", "trial_index": 189, "time_elapsed": 347203, "internal_node_id": "0.0-8.0-3.0"}}, {"uniqueid": "w80795260:a11863614", "current_trial": 190, "dateTime": 1664555639621, "trialdata": {"rt": 657, "stimulus": "<p id='stroop-text' class='stroop-green'>BLUE</p>", "response": "g", "stimulus-type": "incongruent", "word": "blue", "color": "green", "correct_response": "g", "trial_id": "stroop-trial-1-incongruent-25", "trial_type": "html-keyboard-response", "trial_index": 190, "time_elapsed": 348364, "internal_node_id": "0.0-8.0-4.0"}}, {"uniqueid": "w80795260:a11863614", "current_trial": 191, "dateTime": 1664555640693, "trialdata": {"rt": 569, "stimulus": "<p id='stroop-text' class='stroop-red'>MONKEY</p>", "response": "r", "stimulus-type": "unrelated", "word": "MONKEY", "color": "red", "correct_response": "r", "trial_id": "stroop-trial-1-unrelated-12", "trial_type": "html-keyboard-response", "trial_index": 191, "time_elapsed": 349436, "internal_node_id": "0.0-8.0-5.0"}}, {"uniqueid": "w80795260:a11863614", "current_trial": 192, "dateTime": 1664555642077, "trialdata": {"rt": 881, "stimulus": "<p id='stroop-text' class='stroop-green'>BLUE</p>", "response": "g", "stimulus-type": "incongruent", "word": "blue", "color": "green", "correct_response": "g", "trial_id": "stroop-trial-1-incongruent-7", "trial_type": "html-keyboard-response", "trial_index": 192, "time_elapsed": 350820, "internal_node_id": "0.0-8.0-6.0"}}, {"uniqueid": "w80795260:a11863614", "current_trial": 193, "dateTime": 1664555643428, "trialdata": {"rt": 848, "stimulus": "<p id='stroop-text' class='stroop-green'>RED</p>", "response": "g", "stimulus-type": "incongruent", "word": "red", "color": "green", "correct_response": "g", "trial_id": "stroop-trial-1-incongruent-3", "trial_type": "html-keyboard-response", "trial_index": 193, "time_elapsed": 352171, "internal_node_id": "0.0-8.0-7.0"}}, {"uniqueid": "w80795260:a11863614", "current_trial": 194, "dateTime": 1664555644613, "trialdata": {"rt": 682, "stimulus": "<p id='stroop-text' class='stroop-green'>MONKEY</p>", "response": "g", "stimulus-type": "unrelated", "word": "MONKEY", "color": "green", "correct_response": "g", "trial_id": "stroop-trial-1-unrelated-13", "trial_type": "html-keyboard-response", "trial_index": 194, "time_elapsed": 353356, "internal_node_id": "0.0-8.0-8.0"}}, {"uniqueid": "w80795260:a11863614", "current_trial": 195, "dateTime": 1664555645845, "trialdata": {"rt": 729, "stimulus": "<p id='stroop-text' class='stroop-yellow'>BLUE</p>", "response": "y", "stimulus-type": "incongruent", "word": "blue", "color": "yellow", "correct_response": "y", "trial_id": "stroop-trial-1-incongruent-21", "trial_type": "html-keyboard-response", "trial_index": 195, "time_elapsed": 354587, "internal_node_id": "0.0-8.0-9.0"}}, {"uniqueid": "w80795260:a11863614", "current_trial": 196, "dateTime": 1664555647669, "trialdata": {"rt": 1322, "stimulus": "<p id='stroop-text' class='stroop-blue'>RED</p>", "response": "b", "stimulus-type": "incongruent", "word": "red", "color": "blue", "correct_response": "b", "trial_id": "stroop-trial-1-incongruent-14", "trial_type": "html-keyboard-response", "trial_index": 196, "time_elapsed": 356411, "internal_node_id": "0.0-8.0-10.0"}}, {"uniqueid": "w80795260:a11863614", "current_trial": 197, "dateTime": 1664555648717, "trialdata": {"rt": 545, "stimulus": "<p id='stroop-text' class='stroop-yellow'>CHAIR</p>", "response": "y", "stimulus-type": "unrelated", "word": "CHAIR", "color": "yellow", "correct_response": "y", "trial_id": "stroop-trial-1-unrelated-23", "trial_type": "html-keyboard-response", "trial_index": 197, "time_elapsed": 357459, "internal_node_id": "0.0-8.0-11.0"}}, {"uniqueid": "w80795260:a11863614", "current_trial": 198, "dateTime": 1664555650021, "trialdata": {"rt": 802, "stimulus": "<p id='stroop-text' class='stroop-green'>YELLOW</p>", "response": "g", "stimulus-type": "incongruent", "word": "yellow", "color": "green", "correct_response": "g", "trial_id": "stroop-trial-1-incongruent-8", "trial_type": "html-keyboard-response", "trial_index": 198, "time_elapsed": 358763, "internal_node_id": "0.0-8.0-12.0"}}, {"uniqueid": "w80795260:a11863614", "current_trial": 199, "dateTime": 1664555651181, "trialdata": {"rt": 657, "stimulus": "<p id='stroop-text' class='stroop-blue'>BLUE</p>", "response": "b", "stimulus-type": "congruent", "word": "blue", "color": "blue", "correct_response": "b", "trial_id": "stroop-trial-1-congruent-15", "trial_type": "html-keyboard-response", "trial_index": 199, "time_elapsed": 359923, "internal_node_id": "0.0-8.0-13.0"}}, {"uniqueid": "w80795260:a11863614", "current_trial": 200, "dateTime": 1664555652285, "trialdata": {"rt": 602, "stimulus": "<p id='stroop-text' class='stroop-yellow'>FORK</p>", "response": "r", "stimulus-type": "unrelated", "word": "FORK", "color": "yellow", "correct_response": "y", "trial_id": "stroop-trial-1-unrelated-22", "trial_type": "html-keyboard-response", "trial_index": 200, "time_elapsed": 361027, "internal_node_id": "0.0-8.0-14.0"}}, {"uniqueid": "w80795260:a11863614", "current_trial": 201, "dateTime": 1664555653493, "trialdata": {"rt": 704, "stimulus": "<p id='stroop-text' class='stroop-red'>RED</p>", "response": "r", "stimulus-type": "congruent", "word": "red", "color": "red", "correct_response": "r", "trial_id": "stroop-trial-1-congruent-24", "trial_type": "html-keyboard-response", "trial_index": 201, "time_elapsed": 362236, "internal_node_id": "0.0-8.0-15.0"}}, {"uniqueid": "w80795260:a11863614", "current_trial": 202, "dateTime": 1664555654581, "trialdata": {"rt": 586, "stimulus": "<p id='stroop-text' class='stroop-red'>BOAT</p>", "response": "r", "stimulus-type": "unrelated", "word": "BOAT", "color": "red", "correct_response": "r", "trial_id": "stroop-trial-1-unrelated-21", "trial_type": "html-keyboard-response", "trial_index": 202, "time_elapsed": 363323, "internal_node_id": "0.0-8.0-16.0"}}, {"uniqueid": "w80795260:a11863614", "current_trial": 203, "dateTime": 1664555655741, "trialdata": {"rt": 657, "stimulus": "<p id='stroop-text' class='stroop-green'>GREEN</p>", "response": "g", "stimulus-type": "congruent", "word": "green", "color": "green", "correct_response": "g", "trial_id": "stroop-trial-1-congruent-21", "trial_type": "html-keyboard-response", "trial_index": 203, "time_elapsed": 364484, "internal_node_id": "0.0-8.0-17.0"}}, {"uniqueid": "w80795260:a11863614", "current_trial": 204, "dateTime": 1664555657061, "trialdata": {"rt": 817, "stimulus": "<p id='stroop-text' class='stroop-blue'>BLUE</p>", "response": "b", "stimulus-type": "congruent", "word": "blue", "color": "blue", "correct_response": "b", "trial_id": "stroop-trial-1-congruent-19", "trial_type": "html-keyboard-response", "trial_index": 204, "time_elapsed": 365804, "internal_node_id": "0.0-8.0-18.0"}}, {"uniqueid": "w80795260:a11863614", "current_trial": 205, "dateTime": 1664555658108, "trialdata": {"rt": 544, "stimulus": "<p id='stroop-text' class='stroop-blue'>BLUE</p>", "response": "b", "stimulus-type": "congruent", "word": "blue", "color": "blue", "correct_response": "b", "trial_id": "stroop-trial-1-congruent-20", "trial_type": "html-keyboard-response", "trial_index": 205, "time_elapsed": 366851, "internal_node_id": "0.0-8.0-19.0"}}, {"uniqueid": "w80795260:a11863614", "current_trial": 206, "dateTime": 1664555659333, "trialdata": {"rt": 722, "stimulus": "<p id='stroop-text' class='stroop-green'>DOG</p>", "response": "g", "stimulus-type": "unrelated", "word": "DOG", "color": "green", "correct_response": "g", "trial_id": "stroop-trial-1-unrelated-2", "trial_type": "html-keyboard-response", "trial_index": 206, "time_elapsed": 368075, "internal_node_id": "0.0-8.0-20.0"}}, {"uniqueid": "w80795260:a11863614", "current_trial": 207, "dateTime": 1664555660477, "trialdata": {"rt": 643, "stimulus": "<p id='stroop-text' class='stroop-green'>FORK</p>", "response": "g", "stimulus-type": "unrelated", "word": "FORK", "color": "green", "correct_response": "g", "trial_id": "stroop-trial-1-unrelated-28", "trial_type": "html-keyboard-response", "trial_index": 207, "time_elapsed": 369220, "internal_node_id": "0.0-8.0-21.0"}}, {"uniqueid": "w80795260:a11863614", "current_trial": 208, "dateTime": 1664555661485, "trialdata": {"rt": 505, "stimulus": "<p id='stroop-text' class='stroop-yellow'>STONE</p>", "response": "y", "stimulus-type": "unrelated", "word": "STONE", "color": "yellow", "correct_response": "y", "trial_id": "stroop-trial-1-unrelated-29", "trial_type": "html-keyboard-response", "trial_index": 208, "time_elapsed": 370228, "internal_node_id": "0.0-8.0-22.0"}}, {"uniqueid": "w80795260:a11863614", "current_trial": 209, "dateTime": 1664555662629, "trialdata": {"rt": 642, "stimulus": "<p id='stroop-text' class='stroop-red'>SHIP</p>", "response": "r", "stimulus-type": "unrelated", "word": "SHIP", "color": "red", "correct_response": "r", "trial_id": "stroop-trial-1-unrelated-15", "trial_type": "html-keyboard-response", "trial_index": 209, "time_elapsed": 371372, "internal_node_id": "0.0-8.0-23.0"}}, {"uniqueid": "w80795260:a11863614", "current_trial": 210, "dateTime": 1664555663677, "trialdata": {"rt": 544, "stimulus": "<p id='stroop-text' class='stroop-blue'>BOAT</p>", "response": "b", "stimulus-type": "unrelated", "word": "BOAT", "color": "blue", "correct_response": "b", "trial_id": "stroop-trial-1-unrelated-3", "trial_type": "html-keyboard-response", "trial_index": 210, "time_elapsed": 372419, "internal_node_id": "0.0-8.0-24.0"}}, {"uniqueid": "w80795260:a11863614", "current_trial": 211, "dateTime": 1664555664996, "trialdata": {"rt": 813, "stimulus": "<p id='stroop-text' class='stroop-green'>MONKEY</p>", "response": "g", "stimulus-type": "unrelated", "word": "MONKEY", "color": "green", "correct_response": "g", "trial_id": "stroop-trial-1-unrelated-16", "trial_type": "html-keyboard-response", "trial_index": 211, "time_elapsed": 373739, "internal_node_id": "0.0-8.0-25.0"}}, {"uniqueid": "w80795260:a11863614", "current_trial": 212, "dateTime": 1664555666069, "trialdata": {"rt": 564, "stimulus": "<p id='stroop-text' class='stroop-yellow'>BLUE</p>", "response": "y", "stimulus-type": "incongruent", "word": "blue", "color": "yellow", "correct_response": "y", "trial_id": "stroop-trial-1-incongruent-6", "trial_type": "html-keyboard-response", "trial_index": 212, "time_elapsed": 374812, "internal_node_id": "0.0-8.0-26.0"}}, {"uniqueid": "w80795260:a11863614", "current_trial": 213, "dateTime": 1664555667149, "trialdata": {"rt": 576, "stimulus": "<p id='stroop-text' class='stroop-blue'>BLUE</p>", "response": "b", "stimulus-type": "congruent", "word": "blue", "color": "blue", "correct_response": "b", "trial_id": "stroop-trial-1-congruent-26", "trial_type": "html-keyboard-response", "trial_index": 213, "time_elapsed": 375892, "internal_node_id": "0.0-8.0-27.0"}}, {"uniqueid": "w80795260:a11863614", "current_trial": 214, "dateTime": 1664555668277, "trialdata": {"rt": 625, "stimulus": "<p id='stroop-text' class='stroop-red'>GREEN</p>", "response": "r", "stimulus-type": "incongruent", "word": "green", "color": "red", "correct_response": "r", "trial_id": "stroop-trial-1-incongruent-22", "trial_type": "html-keyboard-response", "trial_index": 214, "time_elapsed": 377019, "internal_node_id": "0.0-8.0-28.0"}}, {"uniqueid": "w80795260:a11863614", "current_trial": 215, "dateTime": 1664555669565, "trialdata": {"rt": 786, "stimulus": "<p id='stroop-text' class='stroop-yellow'>RED</p>", "response": "y", "stimulus-type": "incongruent", "word": "red", "color": "yellow", "correct_response": "y", "trial_id": "stroop-trial-1-incongruent-18", "trial_type": "html-keyboard-response", "trial_index": 215, "time_elapsed": 378308, "internal_node_id": "0.0-8.0-29.0"}}, {"uniqueid": "w80795260:a11863614", "current_trial": 216, "dateTime": 1664555670573, "trialdata": {"rt": 505, "stimulus": "<p id='stroop-text' class='stroop-blue'>BRIDGE</p>", "response": "b", "stimulus-type": "unrelated", "word": "BRIDGE", "color": "blue", "correct_response": "b", "trial_id": "stroop-trial-1-unrelated-10", "trial_type": "html-keyboard-response", "trial_index": 216, "time_elapsed": 379316, "internal_node_id": "0.0-8.0-30.0"}}, {"uniqueid": "w80795260:a11863614", "current_trial": 217, "dateTime": 1664555671652, "trialdata": {"rt": 578, "stimulus": "<p id='stroop-text' class='stroop-blue'>BLUE</p>", "response": "b", "stimulus-type": "congruent", "word": "blue", "color": "blue", "correct_response": "b", "trial_id": "stroop-trial-1-congruent-1", "trial_type": "html-keyboard-response", "trial_index": 217, "time_elapsed": 380395, "internal_node_id": "0.0-8.0-31.0"}}, {"uniqueid": "w80795260:a11863614", "current_trial": 218, "dateTime": 1664555672693, "trialdata": {"rt": 537, "stimulus": "<p id='stroop-text' class='stroop-red'>BLUE</p>", "response": "r", "stimulus-type": "incongruent", "word": "blue", "color": "red", "correct_response": "r", "trial_id": "stroop-trial-1-incongruent-16", "trial_type": "html-keyboard-response", "trial_index": 218, "time_elapsed": 381435, "internal_node_id": "0.0-8.0-32.0"}}, {"uniqueid": "w80795260:a11863614", "current_trial": 219, "dateTime": 1664555673941, "trialdata": {"rt": 745, "stimulus": "<p id='stroop-text' class='stroop-blue'>YELLOW</p>", "response": "b", "stimulus-type": "incongruent", "word": "yellow", "color": "blue", "correct_response": "b", "trial_id": "stroop-trial-1-incongruent-4", "trial_type": "html-keyboard-response", "trial_index": 219, "time_elapsed": 382683, "internal_node_id": "0.0-8.0-33.0"}}, {"uniqueid": "w80795260:a11863614", "current_trial": 220, "dateTime": 1664555675037, "trialdata": {"rt": 593, "stimulus": "<p id='stroop-text' class='stroop-yellow'>YELLOW</p>", "response": "y", "stimulus-type": "congruent", "word": "yellow", "color": "yellow", "correct_response": "y", "trial_id": "stroop-trial-1-congruent-12", "trial_type": "html-keyboard-response", "trial_index": 220, "time_elapsed": 383780, "internal_node_id": "0.0-8.0-34.0"}}, {"uniqueid": "w80795260:a11863614", "current_trial": 221, "dateTime": 1664555676109, "trialdata": {"rt": 569, "stimulus": "<p id='stroop-text' class='stroop-green'>FORK</p>", "response": "g", "stimulus-type": "unrelated", "word": "FORK", "color": "green", "correct_response": "g", "trial_id": "stroop-trial-1-unrelated-4", "trial_type": "html-keyboard-response", "trial_index": 221, "time_elapsed": 384852, "internal_node_id": "0.0-8.0-35.0"}}, {"uniqueid": "w80795260:a11863614", "current_trial": 222, "dateTime": 1664555677245, "trialdata": {"rt": 633, "stimulus": "<p id='stroop-text' class='stroop-blue'>BRAIN</p>", "response": "b", "stimulus-type": "unrelated", "word": "BRAIN", "color": "blue", "correct_response": "b", "trial_id": "stroop-trial-1-unrelated-14", "trial_type": "html-keyboard-response", "trial_index": 222, "time_ela