{"condition": 0, "counterbalance": 0, "assignmentId": "a37297681", "workerId": "w77444242", "hitId": "h13918596", "currenttrial": 976, "bonus": 0, "data": [{"uniqueid": "w77444242:a37297681", "current_trial": 0, "dateTime": 1664554991363, "trialdata": {"success": true, "trial_type": "fullscreen", "trial_index": 0, "time_elapsed": 2780, "internal_node_id": "0.0-0.0"}}, {"uniqueid": "w77444242:a37297681", "current_trial": 1, "dateTime": 1664555028540, "trialdata": {"view_history": [{"page_index": 0, "viewing_time": 37151}], "rt": 37154, "trial_id": "exp_instructions_distractor", "trial_type": "instructions", "trial_index": 1, "time_elapsed": 39959, "internal_node_id": "0.0-1.0"}}, {"uniqueid": "w77444242:a37297681", "current_trial": 2, "dateTime": 1664555083480, "trialdata": {"view_history": [{"page_index": 0, "viewing_time": 54935}], "rt": 54936, "trial_id": "color_game_instructions", "trial_type": "instructions", "trial_index": 2, "time_elapsed": 94899, "internal_node_id": "0.0-2.0"}}, {"uniqueid": "w77444242:a37297681", "current_trial": 3, "dateTime": 1664555086374, "trialdata": {"rt": 2884, "stimulus": "<h1> Get ready to start the game! </h1>\n\nThank you for reading the instructions. Get ready start with the first of 5 block(s) of this game.\n<br><br>\nIn this first block, you will complete 90 rounds of this game before moving on.\n<br><br>\nRemember, the better you perform, the bigger your bonus will be!\n<br><br>\n<div style='text-align: center;'>Press <code>space</code> to begin.</div>", "response": " ", "trial_id": "stroop_1_ready_1", "trial_type": "html-keyboard-response", "trial_index": 3, "time_elapsed": 97793, "internal_node_id": "0.0-3.0"}}, {"uniqueid": "w77444242:a37297681", "current_trial": 4, "dateTime": 1664555087826, "trialdata": {"rt": 1425, "stimulus": "<p id='stroop-text' class='stroop-red'>CHAIR</p>", "response": "r", "stimulus-type": "unrelated", "word": "CHAIR", "color": "red", "correct_response": "r", "trial_id": "stroop-trial-1-unrelated-30", "trial_type": "html-keyboard-response", "trial_index": 4, "time_elapsed": 99244, "internal_node_id": "0.0-4.0-0.0"}}, {"uniqueid": "w77444242:a37297681", "current_trial": 5, "dateTime": 1664555089511, "trialdata": {"rt": 1173, "stimulus": "<p id='stroop-text' class='stroop-red'>GREEN</p>", "response": "r", "stimulus-type": "incongruent", "word": "green", "color": "red", "correct_response": "r", "trial_id": "stroop-trial-1-incongruent-3", "trial_type": "html-keyboard-response", "trial_index": 5, "time_elapsed": 100929, "internal_node_id": "0.0-4.0-1.0"}}, {"uniqueid": "w77444242:a37297681", "current_trial": 6, "dateTime": 1664555090911, "trialdata": {"rt": 892, "stimulus": "<p id='stroop-text' class='stroop-blue'>MONKEY</p>", "response": "b", "stimulus-type": "unrelated", "word": "MONKEY", "color": "blue", "correct_response": "b", "trial_id": "stroop-trial-1-unrelated-17", "trial_type": "html-keyboard-response", "trial_index": 6, "time_elapsed": 102329, "internal_node_id": "0.0-4.0-2.0"}}, {"uniqueid": "w77444242:a37297681", "current_trial": 7, "dateTime": 1664555092299, "trialdata": {"rt": 875, "stimulus": "<p id='stroop-text' class='stroop-green'>DOG</p>", "response": "g", "stimulus-type": "unrelated", "word": "DOG", "color": "green", "correct_response": "g", "trial_id": "stroop-trial-1-unrelated-2", "trial_type": "html-keyboard-response", "trial_index": 7, "time_elapsed": 103716, "internal_node_id": "0.0-4.0-3.0"}}, {"uniqueid": "w77444242:a37297681", "current_trial": 8, "dateTime": 1664555093501, "trialdata": {"rt": 687, "stimulus": "<p id='stroop-text' class='stroop-green'>BLUE</p>", "response": "g", "stimulus-type": "incongruent", "word": "blue", "color": "green", "correct_response": "g", "trial_id": "stroop-trial-1-incongruent-4", "trial_type": "html-keyboard-response", "trial_index": 8, "time_elapsed": 104919, "internal_node_id": "0.0-4.0-4.0"}}, {"uniqueid": "w77444242:a37297681", "current_trial": 9, "dateTime": 1664555095333, "trialdata": {"rt": 1309, "stimulus": "<p id='stroop-text' class='stroop-yellow'>YELLOW</p>", "response": "y", "stimulus-type": "congruent", "word": "yellow", "color": "yellow", "correct_response": "y", "trial_id": "stroop-trial-1-congruent-18", "trial_type": "html-keyboard-response", "trial_index": 9, "time_elapsed": 106750, "internal_node_id": "0.0-4.0-5.0"}}, {"uniqueid": "w77444242:a37297681", "current_trial": 10, "dateTime": 1664555097263, "trialdata": {"rt": 1422, "stimulus": "<p id='stroop-text' class='stroop-blue'>DOG</p>", "response": "b", "stimulus-type": "unrelated", "word": "DOG", "color": "blue", "correct_response": "b", "trial_id": "stroop-trial-1-unrelated-26", "trial_type": "html-keyboard-response", "trial_index": 10, "time_elapsed": 108681, "internal_node_id": "0.0-4.0-6.0"}}, {"uniqueid": "w77444242:a37297681", "current_trial": 11, "dateTime": 1664555099017, "trialdata": {"rt": 1244, "stimulus": "<p id='stroop-text' class='stroop-yellow'>BLUE</p>", "response": "y", "stimulus-type": "incongruent", "word": "blue", "color": "yellow", "correct_response": "y", "trial_id": "stroop-trial-1-incongruent-17", "trial_type": "html-keyboard-response", "trial_index": 11, "time_elapsed": 110435, "internal_node_id": "0.0-4.0-7.0"}}, {"uniqueid": "w77444242:a37297681", "current_trial": 12, "dateTime": 1664555100128, "trialdata": {"rt": 601, "stimulus": "<p id='stroop-text' class='stroop-yellow'>YELLOW</p>", "response": "y", "stimulus-type": "congruent", "word": "yellow", "color": "yellow", "correct_response": "y", "trial_id": "stroop-trial-1-congruent-14", "trial_type": "html-keyboard-response", "trial_index": 12, "time_elapsed": 111546, "internal_node_id": "0.0-4.0-8.0"}}, {"uniqueid": "w77444242:a37297681", "current_trial": 13, "dateTime": 1664555101488, "trialdata": {"rt": 853, "stimulus": "<p id='stroop-text' class='stroop-green'>GREEN</p>", "response": "g", "stimulus-type": "congruent", "word": "green", "color": "green", "correct_response": "g", "trial_id": "stroop-trial-1-congruent-24", "trial_type": "html-keyboard-response", "trial_index": 13, "time_elapsed": 112906, "internal_node_id": "0.0-4.0-9.0"}}, {"uniqueid": "w77444242:a37297681", "current_trial": 14, "dateTime": 1664555102834, "trialdata": {"rt": 834, "stimulus": "<p id='stroop-text' class='stroop-blue'>WINDOW</p>", "response": "b", "stimulus-type": "unrelated", "word": "WINDOW", "color": "blue", "correct_response": "b", "trial_id": "stroop-trial-1-unrelated-20", "trial_type": "html-keyboard-response", "trial_index": 14, "time_elapsed": 114252, "internal_node_id": "0.0-4.0-10.0"}}, {"uniqueid": "w77444242:a37297681", "current_trial": 15, "dateTime": 1664555104039, "trialdata": {"rt": 691, "stimulus": "<p id='stroop-text' class='stroop-red'>RED</p>", "response": "r", "stimulus-type": "congruent", "word": "red", "color": "red", "correct_response": "r", "trial_id": "stroop-trial-1-congruent-29", "trial_type": "html-keyboard-response", "trial_index": 15, "time_elapsed": 115457, "internal_node_id": "0.0-4.0-11.0"}}, {"uniqueid": "w77444242:a37297681", "current_trial": 16, "dateTime": 1664555105653, "trialdata": {"rt": 1103, "stimulus": "<p id='stroop-text' class='stroop-blue'>YELLOW</p>", "response": "b", "stimulus-type": "incongruent", "word": "yellow", "color": "blue", "correct_response": "b", "trial_id": "stroop-trial-1-incongruent-20", "trial_type": "html-keyboard-response", "trial_index": 16, "time_elapsed": 117071, "internal_node_id": "0.0-4.0-12.0"}}, {"uniqueid": "w77444242:a37297681", "current_trial": 17, "dateTime": 1664555106915, "trialdata": {"rt": 752, "stimulus": "<p id='stroop-text' class='stroop-green'>SHIP</p>", "response": "g", "stimulus-type": "unrelated", "word": "SHIP", "color": "green", "correct_response": "g", "trial_id": "stroop-trial-1-unrelated-7", "trial_type": "html-keyboard-response", "trial_index": 17, "time_elapsed": 118333, "internal_node_id": "0.0-4.0-13.0"}}, {"uniqueid": "w77444242:a37297681", "current_trial": 18, "dateTime": 1664555108489, "trialdata": {"rt": 1066, "stimulus": "<p id='stroop-text' class='stroop-yellow'>GREEN</p>", "response": "y", "stimulus-type": "incongruent", "word": "green", "color": "yellow", "correct_response": "y", "trial_id": "stroop-trial-1-incongruent-9", "trial_type": "html-keyboard-response", "trial_index": 18, "time_elapsed": 119907, "internal_node_id": "0.0-4.0-14.0"}}, {"uniqueid": "w77444242:a37297681", "current_trial": 19, "dateTime": 1664555109529, "trialdata": {"rt": 530, "stimulus": "<p id='stroop-text' class='stroop-yellow'>WINDOW</p>", "response": "y", "stimulus-type": "unrelated", "word": "WINDOW", "color": "yellow", "correct_response": "y", "trial_id": "stroop-trial-1-unrelated-6", "trial_type": "html-keyboard-response", "trial_index": 19, "time_elapsed": 120947, "internal_node_id": "0.0-4.0-15.0"}}, {"uniqueid": "w77444242:a37297681", "current_trial": 20, "dateTime": 1664555110645, "trialdata": {"rt": 602, "stimulus": "<p id='stroop-text' class='stroop-blue'>FORK</p>", "response": "b", "stimulus-type": "unrelated", "word": "FORK", "color": "blue", "correct_response": "b", "trial_id": "stroop-trial-1-unrelated-4", "trial_type": "html-keyboard-response", "trial_index": 20, "time_elapsed": 122062, "internal_node_id": "0.0-4.0-16.0"}}, {"uniqueid": "w77444242:a37297681", "current_trial": 21, "dateTime": 1664555111669, "trialdata": {"rt": 510, "stimulus": "<p id='stroop-text' class='stroop-green'>BOAT</p>", "response": "g", "stimulus-type": "unrelated", "word": "BOAT", "color": "green", "correct_response": "g", "trial_id": "stroop-trial-1-unrelated-16", "trial_type": "html-keyboard-response", "trial_index": 21, "time_elapsed": 123087, "internal_node_id": "0.0-4.0-17.0"}}, {"uniqueid": "w77444242:a37297681", "current_trial": 22, "dateTime": 1664555112740, "trialdata": {"rt": 561, "stimulus": "<p id='stroop-text' class='stroop-green'>GREEN</p>", "response": "g", "stimulus-type": "congruent", "word": "green", "color": "green", "correct_response": "g", "trial_id": "stroop-trial-1-congruent-8", "trial_type": "html-keyboard-response", "trial_index": 22, "time_elapsed": 124158, "internal_node_id": "0.0-4.0-18.0"}}, {"uniqueid": "w77444242:a37297681", "current_trial": 23, "dateTime": 1664555113745, "trialdata": {"rt": 497, "stimulus": "<p id='stroop-text' class='stroop-blue'>BLUE</p>", "response": "b", "stimulus-type": "congruent", "word": "blue", "color": "blue", "correct_response": "b", "trial_id": "stroop-trial-1-congruent-28", "trial_type": "html-keyboard-response", "trial_index": 23, "time_elapsed": 125163, "internal_node_id": "0.0-4.0-19.0"}}, {"uniqueid": "w77444242:a37297681", "current_trial": 24, "dateTime": 1664555114905, "trialdata": {"rt": 632, "stimulus": "<p id='stroop-text' class='stroop-blue'>YELLOW</p>", "response": "b", "stimulus-type": "incongruent", "word": "yellow", "color": "blue", "correct_response": "b", "trial_id": "stroop-trial-1-incongruent-11", "trial_type": "html-keyboard-response", "trial_index": 24, "time_elapsed": 126323, "internal_node_id": "0.0-4.0-20.0"}}, {"uniqueid": "w77444242:a37297681", "current_trial": 25, "dateTime": 1664555115961, "trialdata": {"rt": 541, "stimulus": "<p id='stroop-text' class='stroop-green'>SHIP</p>", "response": "g", "stimulus-type": "unrelated", "word": "SHIP", "color": "green", "correct_response": "g", "trial_id": "stroop-trial-1-unrelated-15", "trial_type": "html-keyboard-response", "trial_index": 25, "time_elapsed": 127378, "internal_node_id": "0.0-4.0-21.0"}}, {"uniqueid": "w77444242:a37297681", "current_trial": 26, "dateTime": 1664555117354, "trialdata": {"rt": 884, "stimulus": "<p id='stroop-text' class='stroop-green'>YELLOW</p>", "response": "g", "stimulus-type": "incongruent", "word": "yellow", "color": "green", "correct_response": "g", "trial_id": "stroop-trial-1-incongruent-12", "trial_type": "html-keyboard-response", "trial_index": 26, "time_elapsed": 128772, "internal_node_id": "0.0-4.0-22.0"}}, {"uniqueid": "w77444242:a37297681", "current_trial": 27, "dateTime": 1664555118361, "trialdata": {"rt": 493, "stimulus": "<p id='stroop-text' class='stroop-blue'>GREEN</p>", "response": "b", "stimulus-type": "incongruent", "word": "green", "color": "blue", "correct_response": "b", "trial_id": "stroop-trial-1-incongruent-29", "trial_type": "html-keyboard-response", "trial_index": 27, "time_elapsed": 129779, "internal_node_id": "0.0-4.0-23.0"}}, {"uniqueid": "w77444242:a37297681", "current_trial": 28, "dateTime": 1664555119271, "trialdata": {"rt": 396, "stimulus": "<p id='stroop-text' class='stroop-blue'>BLUE</p>", "response": "b", "stimulus-type": "congruent", "word": "blue", "color": "blue", "correct_response": "b", "trial_id": "stroop-trial-1-congruent-10", "trial_type": "html-keyboard-response", "trial_index": 28, "time_elapsed": 130688, "internal_node_id": "0.0-4.0-24.0"}}, {"uniqueid": "w77444242:a37297681", "current_trial": 29, "dateTime": 1664555120160, "trialdata": {"rt": 377, "stimulus": "<p id='stroop-text' class='stroop-blue'>BLUE</p>", "response": "b", "stimulus-type": "congruent", "word": "blue", "color": "blue", "correct_response": "b", "trial_id": "stroop-trial-1-congruent-26", "trial_type": "html-keyboard-response", "trial_index": 29, "time_elapsed": 131578, "internal_node_id": "0.0-4.0-25.0"}}, {"uniqueid": "w77444242:a37297681", "current_trial": 30, "dateTime": 1664555121256, "trialdata": {"rt": 580, "stimulus": "<p id='stroop-text' class='stroop-green'>MONKEY</p>", "response": "g", "stimulus-type": "unrelated", "word": "MONKEY", "color": "green", "correct_response": "g", "trial_id": "stroop-trial-1-unrelated-9", "trial_type": "html-keyboard-response", "trial_index": 30, "time_elapsed": 132674, "internal_node_id": "0.0-4.0-26.0"}}, {"uniqueid": "w77444242:a37297681", "current_trial": 31, "dateTime": 1664555122245, "trialdata": {"rt": 477, "stimulus": "<p id='stroop-text' class='stroop-green'>GREEN</p>", "response": "g", "stimulus-type": "congruent", "word": "green", "color": "green", "correct_response": "g", "trial_id": "stroop-trial-1-congruent-9", "trial_type": "html-keyboard-response", "trial_index": 31, "time_elapsed": 133663, "internal_node_id": "0.0-4.0-27.0"}}, {"uniqueid": "w77444242:a37297681", "current_trial": 32, "dateTime": 1664555123266, "trialdata": {"rt": 508, "stimulus": "<p id='stroop-text' class='stroop-blue'>STONE</p>", "response": "b", "stimulus-type": "unrelated", "word": "STONE", "color": "blue", "correct_response": "b", "trial_id": "stroop-trial-1-unrelated-13", "trial_type": "html-keyboard-response", "trial_index": 32, "time_elapsed": 134684, "internal_node_id": "0.0-4.0-28.0"}}, {"uniqueid": "w77444242:a37297681", "current_trial": 33, "dateTime": 1664555124208, "trialdata": {"rt": 428, "stimulus": "<p id='stroop-text' class='stroop-yellow'>RED</p>", "response": "g", "stimulus-type": "incongruent", "word": "red", "color": "yellow", "correct_response": "y", "trial_id": "stroop-trial-1-incongruent-24", "trial_type": "html-keyboard-response", "trial_index": 33, "time_elapsed": 135624, "internal_node_id": "0.0-4.0-29.0"}}, {"uniqueid": "w77444242:a37297681", "current_trial": 34, "dateTime": 1664555125582, "trialdata": {"rt": 858, "stimulus": "<p id='stroop-text' class='stroop-red'>RED</p>", "response": "r", "stimulus-type": "congruent", "word": "red", "color": "red", "correct_response": "r", "trial_id": "stroop-trial-1-congruent-6", "trial_type": "html-keyboard-response", "trial_index": 34, "time_elapsed": 137000, "internal_node_id": "0.0-4.0-30.0"}}, {"uniqueid": "w77444242:a37297681", "current_trial": 35, "dateTime": 1664555126597, "trialdata": {"rt": 505, "stimulus": "<p id='stroop-text' class='stroop-red'>BOAT</p>", "response": "r", "stimulus-type": "unrelated", "word": "BOAT", "color": "red", "correct_response": "r", "trial_id": "stroop-trial-1-unrelated-21", "trial_type": "html-keyboard-response", "trial_index": 35, "time_elapsed": 138014, "internal_node_id": "0.0-4.0-31.0"}}, {"uniqueid": "w77444242:a37297681", "current_trial": 36, "dateTime": 1664555127607, "trialdata": {"rt": 495, "stimulus": "<p id='stroop-text' class='stroop-red'>RED</p>", "response": "r", "stimulus-type": "congruent", "word": "red", "color": "red", "correct_response": "r", "trial_id": "stroop-trial-1-congruent-3", "trial_type": "html-keyboard-response", "trial_index": 36, "time_elapsed": 139025, "internal_node_id": "0.0-4.0-32.0"}}, {"uniqueid": "w77444242:a37297681", "current_trial": 37, "dateTime": 1664555128471, "trialdata": {"rt": 351, "stimulus": "<p id='stroop-text' class='stroop-red'>DOG</p>", "response": "r", "stimulus-type": "unrelated", "word": "DOG", "color": "red", "correct_response": "r", "trial_id": "stroop-trial-1-unrelated-14", "trial_type": "html-keyboard-response", "trial_index": 37, "time_elapsed": 139890, "internal_node_id": "0.0-4.0-33.0"}}, {"uniqueid": "w77444242:a37297681", "current_trial": 38, "dateTime": 1664555130343, "trialdata": {"rt": 1362, "stimulus": "<p id='stroop-text' class='stroop-blue'>YELLOW</p>", "response": "b", "stimulus-type": "incongruent", "word": "yellow", "color": "blue", "correct_response": "b", "trial_id": "stroop-trial-1-incongruent-5", "trial_type": "html-keyboard-response", "trial_index": 38, "time_elapsed": 141761, "internal_node_id": "0.0-4.0-34.0"}}, {"uniqueid": "w77444242:a37297681", "current_trial": 39, "dateTime": 1664555131700, "trialdata": {"rt": 843, "stimulus": "<p id='stroop-text' class='stroop-yellow'>GREEN</p>", "response": "y", "stimulus-type": "incongruent", "word": "green", "color": "yellow", "correct_response": "y", "trial_id": "stroop-trial-1-incongruent-19", "trial_type": "html-keyboard-response", "trial_index": 39, "time_elapsed": 143117, "internal_node_id": "0.0-4.0-35.0"}}, {"uniqueid": "w77444242:a37297681", "current_trial": 40, "dateTime": 1664555133149, "trialdata": {"rt": 936, "stimulus": "<p id='stroop-text' class='stroop-red'>YELLOW</p>", "response": "r", "stimulus-type": "incongruent", "word": "yellow", "color": "red", "correct_response": "r", "trial_id": "stroop-trial-1-incongruent-28", "trial_type": "html-keyboard-response", "trial_index": 40, "time_elapsed": 144565, "internal_node_id": "0.0-4.0-36.0"}}, {"uniqueid": "w77444242:a37297681", "current_trial": 41, "dateTime": 1664555134294, "trialdata": {"rt": 625, "stimulus": "<p id='stroop-text' class='stroop-yellow'>YELLOW</p>", "response": "y", "stimulus-type": "congruent", "word": "yellow", "color": "yellow", "correct_response": "y", "trial_id": "stroop-trial-1-congruent-1", "trial_type": "html-keyboard-response", "trial_index": 41, "time_elapsed": 145711, "internal_node_id": "0.0-4.0-37.0"}}, {"uniqueid": "w77444242:a37297681", "current_trial": 42, "dateTime": 1664555135177, "trialdata": {"rt": 368, "stimulus": "<p id='stroop-text' class='stroop-yellow'>YELLOW</p>", "response": "y", "stimulus-type": "congruent", "word": "yellow", "color": "yellow", "correct_response": "y", "trial_id": "stroop-trial-1-congruent-17", "trial_type": "html-keyboard-response", "trial_index": 42, "time_elapsed": 146595, "internal_node_id": "0.0-4.0-38.0"}}, {"uniqueid": "w77444242:a37297681", "current_trial": 43, "dateTime": 1664555136589, "trialdata": {"rt": 898, "stimulus": "<p id='stroop-text' class='stroop-red'>FORK</p>", "response": "r", "stimulus-type": "unrelated", "word": "FORK", "color": "red", "correct_response": "r", "trial_id": "stroop-trial-1-unrelated-12", "trial_type": "html-keyboard-response", "trial_index": 43, "time_elapsed": 148005, "internal_node_id": "0.0-4.0-39.0"}}, {"uniqueid": "w77444242:a37297681", "current_trial": 44, "dateTime": 1664555137858, "trialdata": {"rt": 754, "stimulus": "<p id='stroop-text' class='stroop-blue'>SHIP</p>", "response": "b", "stimulus-type": "unrelated", "word": "SHIP", "color": "blue", "correct_response": "b", "trial_id": "stroop-trial-1-unrelated-19", "trial_type": "html-keyboard-response", "trial_index": 44, "time_elapsed": 149276, "internal_node_id": "0.0-4.0-40.0"}}, {"uniqueid": "w77444242:a37297681", "current_trial": 45, "dateTime": 1664555138771, "trialdata": {"rt": 396, "stimulus": "<p id='stroop-text' class='stroop-blue'>BLUE</p>", "response": "b", "stimulus-type": "congruent", "word": "blue", "color": "blue", "correct_response": "b", "trial_id": "stroop-trial-1-congruent-23", "trial_type": "html-keyboard-response", "trial_index": 45, "time_elapsed": 150186, "internal_node_id": "0.0-4.0-41.0"}}, {"uniqueid": "w77444242:a37297681", "current_trial": 46, "dateTime": 1664555139968, "trialdata": {"rt": 688, "stimulus": "<p id='stroop-text' class='stroop-green'>BOTTLE</p>", "response": "g", "stimulus-type": "unrelated", "word": "BOTTLE", "color": "green", "correct_response": "g", "trial_id": "stroop-trial-1-unrelated-25", "trial_type": "html-keyboard-response", "trial_index": 46, "time_elapsed": 151386, "internal_node_id": "0.0-4.0-42.0"}}, {"uniqueid": "w77444242:a37297681", "current_trial": 47, "dateTime": 1664555140903, "trialdata": {"rt": 428, "stimulus": "<p id='stroop-text' class='stroop-green'>GREEN</p>", "response": "g", "stimulus-type": "congruent", "word": "green", "color": "green", "correct_response": "g", "trial_id": "stroop-trial-1-congruent-20", "trial_type": "html-keyboard-response", "trial_index": 47, "time_elapsed": 152321, "internal_node_id": "0.0-4.0-43.0"}}, {"uniqueid": "w77444242:a37297681", "current_trial": 48, "dateTime": 1664555141969, "trialdata": {"rt": 552, "stimulus": "<p id='stroop-text' class='stroop-yellow'>YELLOW</p>", "response": "y", "stimulus-type": "congruent", "word": "yellow", "color": "yellow", "correct_response": "y", "trial_id": "stroop-trial-1-congruent-25", "trial_type": "html-keyboard-response", "trial_index": 48, "time_elapsed": 153387, "internal_node_id": "0.0-4.0-44.0"}}, {"uniqueid": "w77444242:a37297681", "current_trial": 49, "dateTime": 1664555143263, "trialdata": {"rt": 782, "stimulus": "<p id='stroop-text' class='stroop-red'>BLUE</p>", "response": "r", "stimulus-type": "incongruent", "word": "blue", "color": "red", "correct_response": "r", "trial_id": "stroop-trial-1-incongruent-8", "trial_type": "html-keyboard-response", "trial_index": 49, "time_elapsed": 154678, "internal_node_id": "0.0-4.0-45.0"}}, {"uniqueid": "w77444242:a37297681", "current_trial": 50, "dateTime": 1664555145135, "trialdata": {"rt": 1356, "stimulus": "<p id='stroop-text' class='stroop-green'>YELLOW</p>", "response": "g", "stimulus-type": "incongruent", "word": "yellow", "color": "green", "correct_response": "g", "trial_id": "stroop-trial-1-incongruent-27", "trial_type": "html-keyboard-response", "trial_index": 50, "time_elapsed": 156552, "internal_node_id": "0.0-4.0-46.0"}}, {"uniqueid": "w77444242:a37297681", "current_trial": 51, "dateTime": 1664555146204, "trialdata": {"rt": 552, "stimulus": "<p id='stroop-text' class='stroop-blue'>BOTTLE</p>", "response": "b", "stimulus-type": "unrelated", "word": "BOTTLE", "color": "blue", "correct_response": "b", "trial_id": "stroop-trial-1-unrelated-22", "trial_type": "html-keyboard-response", "trial_index": 51, "time_elapsed": 157622, "internal_node_id": "0.0-4.0-47.0"}}, {"uniqueid": "w77444242:a37297681", "current_trial": 52, "dateTime": 1664555147339, "trialdata": {"rt": 625, "stimulus": "<p id='stroop-text' class='stroop-red'>RED</p>", "response": "r", "stimulus-type": "congruent", "word": "red", "color": "red", "correct_response": "r", "trial_id": "stroop-trial-1-congruent-12", "trial_type": "html-keyboard-response", "trial_index": 52, "time_elapsed": 158757, "internal_node_id": "0.0-4.0-48.0"}}, {"uniqueid": "w77444242:a37297681", "current_trial": 53, "dateTime": 1664555148589, "trialdata": {"rt": 736, "stimulus": "<p id='stroop-text' class='stroop-blue'>RED</p>", "response": "b", "stimulus-type": "incongruent", "word": "red", "color": "blue", "correct_response": "b", "trial_id": "stroop-trial-1-incongruent-22", "trial_type": "html-keyboard-response", "trial_index": 53, "time_elapsed": 160007, "internal_node_id": "0.0-4.0-49.0"}}, {"uniqueid": "w77444242:a37297681", "current_trial": 54, "dateTime": 1664555149670, "trialdata": {"rt": 566, "stimulus": "<p id='stroop-text' class='stroop-red'>RED</p>", "response": "r", "stimulus-type": "congruent", "word": "red", "color": "red", "correct_response": "r", "trial_id": "stroop-trial-1-congruent-30", "trial_type": "html-keyboard-response", "trial_index": 54, "time_elapsed": 161087, "internal_node_id": "0.0-4.0-50.0"}}, {"uniqueid": "w77444242:a37297681", "current_trial": 55, "dateTime": 1664555150834, "trialdata": {"rt": 648, "stimulus": "<p id='stroop-text' class='stroop-red'>GREEN</p>", "response": "g", "stimulus-type": "incongruent", "word": "green", "color": "red", "correct_response": "r", "trial_id": "stroop-trial-1-incongruent-30", "trial_type": "html-keyboard-response", "trial_index": 55, "time_elapsed": 162252, "internal_node_id": "0.0-4.0-51.0"}}, {"uniqueid": "w77444242:a37297681", "current_trial": 56, "dateTime": 1664555152025, "trialdata": {"rt": 686, "stimulus": "<p id='stroop-text' class='stroop-yellow'>DOG</p>", "response": "y", "stimulus-type": "unrelated", "word": "DOG", "color": "yellow", "correct_response": "y", "trial_id": "stroop-trial-1-unrelated-28", "trial_type": "html-keyboard-response", "trial_index": 56, "time_elapsed": 163443, "internal_node_id": "0.0-4.0-52.0"}}, {"uniqueid": "w77444242:a37297681", "current_trial": 57, "dateTime": 1664555153155, "trialdata": {"rt": 620, "stimulus": "<p id='stroop-text' class='stroop-blue'>BLUE</p>", "response": "b", "stimulus-type": "congruent", "word": "blue", "color": "blue", "correct_response": "b", "trial_id": "stroop-trial-1-congruent-19", "trial_type": "html-keyboard-response", "trial_index": 57, "time_elapsed": 164573, "internal_node_id": "0.0-4.0-53.0"}}, {"uniqueid": "w77444242:a37297681", "current_trial": 58, "dateTime": 1664555154310, "trialdata": {"rt": 645, "stimulus": "<p id='stroop-text' class='stroop-red'>SHIP</p>", "response": "r", "stimulus-type": "unrelated", "word": "SHIP", "color": "red", "correct_response": "r", "trial_id": "stroop-trial-1-unrelated-18", "trial_type": "html-keyboard-response", "trial_index": 58, "time_elapsed": 165728, "internal_node_id": "0.0-4.0-54.0"}}, {"uniqueid": "w77444242:a37297681", "current_trial": 59, "dateTime": 1664555155256, "trialdata": {"rt": 431, "stimulus": "<p id='stroop-text' class='stroop-red'>RED</p>", "response": "r", "stimulus-type": "congruent", "word": "red", "color": "red", "correct_response": "r", "trial_id": "stroop-trial-1-congruent-21", "trial_type": "html-keyboard-response", "trial_index": 59, "time_elapsed": 166674, "internal_node_id": "0.0-4.0-55.0"}}, {"uniqueid": "w77444242:a37297681", "current_trial": 60, "dateTime": 1664555156341, "trialdata": {"rt": 570, "stimulus": "<p id='stroop-text' class='stroop-yellow'>BLUE</p>", "response": "y", "stimulus-type": "incongruent", "word": "blue", "color": "yellow", "correct_response": "y", "trial_id": "stroop-trial-1-incongruent-18", "trial_type": "html-keyboard-response", "trial_index": 60, "time_elapsed": 167758, "internal_node_id": "0.0-4.0-56.0"}}, {"uniqueid": "w77444242:a37297681", "current_trial": 61, "dateTime": 1664555157506, "trialdata": {"rt": 643, "stimulus": "<p id='stroop-text' class='stroop-yellow'>BRAIN</p>", "response": "y", "stimulus-type": "unrelated", "word": "BRAIN", "color": "yellow", "correct_response": "y", "trial_id": "stroop-trial-1-unrelated-5", "trial_type": "html-keyboard-response", "trial_index": 61, "time_elapsed": 168924, "internal_node_id": "0.0-4.0-57.0"}}, {"uniqueid": "w77444242:a37297681", "current_trial": 62, "dateTime": 1664555158744, "trialdata": {"rt": 719, "stimulus": "<p id='stroop-text' class='stroop-green'>YELLOW</p>", "response": "g", "stimulus-type": "incongruent", "word": "yellow", "color": "green", "correct_response": "g", "trial_id": "stroop-trial-1-incongruent-26", "trial_type": "html-keyboard-response", "trial_index": 62, "time_elapsed": 170163, "internal_node_id": "0.0-4.0-58.0"}}, {"uniqueid": "w77444242:a37297681", "current_trial": 63, "dateTime": 1664555159746, "trialdata": {"rt": 490, "stimulus": "<p id='stroop-text' class='stroop-blue'>WINDOW</p>", "response": "b", "stimulus-type": "unrelated", "word": "WINDOW", "color": "blue", "correct_response": "b", "trial_id": "stroop-trial-1-unrelated-24", "trial_type": "html-keyboard-response", "trial_index": 63, "time_elapsed": 171163, "internal_node_id": "0.0-4.0-59.0"}}, {"uniqueid": "w77444242:a37297681", "current_trial": 64, "dateTime": 1664555160861, "trialdata": {"rt": 602, "stimulus": "<p id='stroop-text' class='stroop-green'>GREEN</p>", "response": "g", "stimulus-type": "congruent", "word": "green", "color": "green", "correct_response": "g", "trial_id": "stroop-trial-1-congruent-22", "trial_type": "html-keyboard-response", "trial_index": 64, "time_elapsed": 172279, "internal_node_id": "0.0-4.0-60.0"}}, {"uniqueid": "w77444242:a37297681", "current_trial": 65, "dateTime": 1664555162100, "trialdata": {"rt": 730, "stimulus": "<p id='stroop-text' class='stroop-blue'>BRAIN</p>", "response": "b", "stimulus-type": "unrelated", "word": "BRAIN", "color": "blue", "correct_response": "b", "trial_id": "stroop-trial-1-unrelated-23", "trial_type": "html-keyboard-response", "trial_index": 65, "time_elapsed": 173518, "internal_node_id": "0.0-4.0-61.0"}}, {"uniqueid": "w77444242:a37297681", "current_trial": 66, "dateTime": 1664555163655, "trialdata": {"rt": 1045, "stimulus": "<p id='stroop-text' class='stroop-green'>YELLOW</p>", "response": "g", "stimulus-type": "incongruent", "word": "yellow", "color": "green", "correct_response": "g", "trial_id": "stroop-trial-1-incongruent-7", "trial_type": "html-keyboard-response", "trial_index": 66, "time_elapsed": 175074, "internal_node_id": "0.0-4.0-62.0"}}, {"uniqueid": "w77444242:a37297681", "current_trial": 67, "dateTime": 1664555164551, "trialdata": {"rt": 384, "stimulus": "<p id='stroop-text' class='stroop-blue'>YELLOW</p>", "response": "b", "stimulus-type": "incongruent", "word": "yellow", "color": "blue", "correct_response": "b", "trial_id": "stroop-trial-1-incongruent-25", "trial_type": "html-keyboard-response", "trial_index": 67, "time_elapsed": 175969, "internal_node_id": "0.0-4.0-63.0"}}, {"uniqueid": "w77444242:a37297681", "current_trial": 68, "dateTime": 1664555165588, "trialdata": {"rt": 520, "stimulus": "<p id='stroop-text' class='stroop-red'>RED</p>", "response": "r", "stimulus-type": "congruent", "word": "red", "color": "red", "correct_response": "r", "trial_id": "stroop-trial-1-congruent-27", "trial_type": "html-keyboard-response", "trial_index": 68, "time_elapsed": 177006, "internal_node_id": "0.0-4.0-64.0"}}, {"uniqueid": "w77444242:a37297681", "current_trial": 69, "dateTime": 1664555166771, "trialdata": {"rt": 664, "stimulus": "<p id='stroop-text' class='stroop-green'>GREEN</p>", "response": "g", "stimulus-type": "congruent", "word": "green", "color": "green", "correct_response": "g", "trial_id": "stroop-trial-1-congruent-4", "trial_type": "html-keyboard-response", "trial_index": 69, "time_elapsed": 178188, "internal_node_id": "0.0-4.0-65.0"}}, {"uniqueid": "w77444242:a37297681", "current_trial": 70, "dateTime": 1664555168059, "trialdata": {"rt": 764, "stimulus": "<p id='stroop-text' class='stroop-yellow'>GREEN</p>", "response": "g", "stimulus-type": "incongruent", "word": "green", "color": "yellow", "correct_response": "y", "trial_id": "stroop-trial-1-incongruent-14", "trial_type": "html-keyboard-response", "trial_index": 70, "time_elapsed": 179476, "internal_node_id": "0.0-4.0-66.0"}}, {"uniqueid": "w77444242:a37297681", "current_trial": 71, "dateTime": 1664555171596, "trialdata": {"rt": 3016, "stimulus": "<p id='stroop-text' class='stroop-blue'>BLUE</p>", "response": "b", "stimulus-type": "congruent", "word": "blue", "color": "blue", "correct_response": "b", "trial_id": "stroop-trial-1-congruent-16", "trial_type": "html-keyboard-response", "trial_index": 71, "time_elapsed": 183015, "internal_node_id": "0.0-4.0-67.0"}}, {"uniqueid": "w77444242:a37297681", "current_trial": 72, "dateTime": 1664555173071, "trialdata": {"rt": 963, "stimulus": "<p id='stroop-text' class='stroop-red'>RED</p>", "response": "r", "stimulus-type": "congruent", "word": "red", "color": "red", "correct_response": "r", "trial_id": "stroop-trial-1-congruent-13", "trial_type": "html-keyboard-response", "trial_index": 72, "time_elapsed": 184490, "internal_node_id": "0.0-4.0-68.0"}}, {"uniqueid": "w77444242:a37297681", "current_trial": 73, "dateTime": 1664555174672, "trialdata": {"rt": 1091, "stimulus": "<p id='stroop-text' class='stroop-red'>GREEN</p>", "response": "r", "stimulus-type": "incongruent", "word": "green", "color": "red", "correct_response": "r", "trial_id": "stroop-trial-1-incongruent-16", "trial_type": "html-keyboard-response", "trial_index": 73, "time_elapsed": 186090, "internal_node_id": "0.0-4.0-69.0"}}, {"uniqueid": "w77444242:a37297681", "current_trial": 74, "dateTime": 1664555176876, "trialdata": {"rt": 1690, "stimulus": "<p id='stroop-text' class='stroop-blue'>GREEN</p>", "response": "b", "stimulus-type": "incongruent", "word": "green", "color": "blue", "correct_response": "b", "trial_id": "stroop-trial-1-incongruent-13", "trial_type": "html-keyboard-response", "trial_index": 74, "time_elapsed": 188294, "internal_node_id": "0.0-4.0-70.0"}}, {"uniqueid": "w77444242:a37297681", "current_trial": 75, "dateTime": 1664555178018, "trialdata": {"rt": 629, "stimulus": "<p id='stroop-text' class='stroop-green'>STONE</p>", "response": "g", "stimulus-type": "unrelated", "word": "STONE", "color": "green", "correct_response": "g", "trial_id": "stroop-trial-1-unrelated-27", "trial_type": "html-keyboard-response", "trial_index": 75, "time_elapsed": 189435, "internal_node_id": "0.0-4.0-71.0"}}, {"uniqueid": "w77444242:a37297681", "current_trial": 76, "dateTime": 1664555179197, "trialdata": {"rt": 663, "stimulus": "<p id='stroop-text' class='stroop-green'>GREEN</p>", "response": "g", "stimulus-type": "congruent", "word": "green", "color": "green", "correct_response": "g", "trial_id": "stroop-trial-1-congruent-5", "trial_type": "html-keyboard-response", "trial_index": 76, "time_elapsed": 190615, "internal_node_id": "0.0-4.0-72.0"}}, {"uniqueid": "w77444242:a37297681", "current_trial": 77, "dateTime": 1664555180326, "trialdata": {"rt": 612, "stimulus": "<p id='stroop-text' class='stroop-red'>RED</p>", "response": "r", "stimulus-type": "congruent", "word": "red", "color": "red", "correct_response": "r", "trial_id": "stroop-trial-1-congruent-2", "trial_type": "html-keyboard-response", "trial_index": 77, "time_elapsed": 191744, "internal_node_id": "0.0-4.0-73.0"}}, {"uniqueid": "w77444242:a37297681", "current_trial": 78, "dateTime": 1664555181178, "trialdata": {"rt": 344, "stimulus": "<p id='stroop-text' class='stroop-red'>RED</p>", "response": "r", "stimulus-type": "congruent", "word": "red", "color": "red", "correct_response": "r", "trial_id": "stroop-trial-1-congruent-11", "trial_type": "html-keyboard-response", "trial_index": 78, "time_elapsed": 192596, "internal_node_id": "0.0-4.0-74.0"}}, {"uniqueid": "w77444242:a37297681", "current_trial": 79, "dateTime": 1664555182217, "trialdata": {"rt": 525, "stimulus": "<p id='stroop-text' class='stroop-green'>YELLOW</p>", "response": "y", "stimulus-type": "incongruent", "word": "yellow", "color": "green", "correct_response": "g", "trial_id": "stroop-trial-1-incongruent-15", "trial_type": "html-keyboard-response", "trial_index": 79, "time_elapsed": 193635, "internal_node_id": "0.0-4.0-75.0"}}, {"uniqueid": "w77444242:a37297681", "current_trial": 80, "dateTime": 1664555184468, "trialdata": {"rt": 1744, "stimulus": "<p id='stroop-text' class='stroop-blue'>BLUE</p>", "response": "b", "stimulus-type": "congruent", "word": "blue", "color": "blue", "correct_response": "b", "trial_id": "stroop-trial-1-congruent-7", "trial_type": "html-keyboard-response", "trial_index": 80, "time_elapsed": 195886, "internal_node_id": "0.0-4.0-76.0"}}, {"uniqueid": "w77444242:a37297681", "current_trial": 81, "dateTime": 1664555186014, "trialdata": {"rt": 1034, "stimulus": "<p id='stroop-text' class='stroop-green'>YELLOW</p>", "response": "g", "stimulus-type": "incongruent", "word": "yellow", "color": "green", "correct_response": "g", "trial_id": "stroop-trial-1-incongruent-21", "trial_type": "html-keyboard-response", "trial_index": 81, "time_elapsed": 197432, "internal_node_id": "0.0-4.0-77.0"}}, {"uniqueid": "w77444242:a37297681", "current_trial": 82, "dateTime": 1664555187212, "trialdata": {"rt": 678, "stimulus": "<p id='stroop-text' class='stroop-red'>BOTTLE</p>", "response": "r", "stimulus-type": "unrelated", "word": "BOTTLE", "color": "red", "correct_response": "r", "trial_id": "stroop-trial-1-unrelated-3", "trial_type": "html-keyboard-response", "trial_index": 82, "time_elapsed": 198631, "internal_node_id": "0.0-4.0-78.0"}}, {"uniqueid": "w77444242:a37297681", "current_trial": 83, "dateTime": 1664555188557, "trialdata": {"rt": 833, "stimulus": "<p id='stroop-text' class='stroop-green'>FORK</p>", "response": "g", "stimulus-type": "unrelated", "word": "FORK", "color": "green", "correct_response": "g", "trial_id": "stroop-trial-1-unrelated-29", "trial_type": "html-keyboard-response", "trial_index": 83, "time_elapsed": 199975, "internal_node_id": "0.0-4.0-79.0"}}, {"uniqueid": "w77444242:a37297681", "current_trial": 84, "dateTime": 1664555190073, "trialdata": {"rt": 1009, "stimulus": "<p id='stroop-text' class='stroop-blue'>DOG</p>", "response": "b", "stimulus-type": "unrelated", "word": "DOG", "color": "blue", "correct_response": "b", "trial_id": "stroop-trial-1-unrelated-10", "trial_type": "html-keyboard-response", "trial_index": 84, "time_elapsed": 201492, "internal_node_id": "0.0-4.0-80.0"}}, {"uniqueid": "w77444242:a37297681", "current_trial": 85, "dateTime": 1664555191263, "trialdata": {"rt": 674, "stimulus": "<p id='stroop-text' class='stroop-green'>STONE</p>", "response": "g", "stimulus-type": "unrelated", "word": "STONE", "color": "green", "correct_response": "g", "trial_id": "stroop-trial-1-unrelated-1", "trial_type": "html-keyboard-response", "trial_index": 85, "time_elapsed": 202682, "internal_node_id": "0.0-4.0-81.0"}}, {"uniqueid": "w77444242:a37297681", "current_trial": 86, "dateTime": 1664555192438, "trialdata": {"rt": 664, "stimulus": "<p id='stroop-text' class='stroop-red'>MONKEY</p>", "response": "r", "stimulus-type": "unrelated", "word": "MONKEY", "color": "red", "correct_response": "r", "trial_id": "stroop-trial-1-unrelated-8", "trial_type": "html-keyboard-response", "trial_index": 86, "time_elapsed": 203856, "internal_node_id": "0.0-4.0-82.0"}}, {"uniqueid": "w77444242:a37297681", "current_trial": 87, "dateTime": 1664555193333, "trialdata": {"rt": 382, "stimulus": "<p id='stroop-text' class='stroop-red'>RED</p>", "response": "r", "stimulus-type": "congruent", "word": "red", "color": "red", "correct_response": "r", "trial_id": "stroop-trial-1-congruent-15", "trial_type": "html-keyboard-response", "trial_index": 87, "time_elapsed": 204751, "internal_node_id": "0.0-4.0-83.0"}}, {"uniqueid": "w77444242:a37297681", "current_trial": 88, "dateTime": 1664555194404, "trialdata": {"rt": 563, "stimulus": "<p id='stroop-text' class='stroop-blue'>YELLOW</p>", "response": "y", "stimulus-type": "incongruent", "word": "yellow", "color": "blue", "correct_response": "b", "trial_id": "stroop-trial-1-incongruent-10", "trial_type": "html-keyboard-response", "trial_index": 88, "time_elapsed": 205821, "internal_node_id": "0.0-4.0-84.0"}}, {"uniqueid": "w77444242:a37297681", "current_trial": 89, "dateTime": 1664555196198, "trialdata": {"rt": 1285, "stimulus": "<p id='stroop-text' class='stroop-yellow'>MONKEY</p>", "response": "y", "stimulus-type": "unrelated", "word": "MONKEY", "color": "yellow", "correct_response": "y", "trial_id": "stroop-trial-1-unrelated-11", "trial_type": "html-keyboard-response", "trial_index": 89, "time_elapsed": 207616, "internal_node_id": "0.0-4.0-85.0"}}, {"uniqueid": "w77444242:a37297681", "current_trial": 90, "dateTime": 1664555197423, "trialdata": {"rt": 710, "stimulus": "<p id='stroop-text' class='stroop-red'>YELLOW</p>", "response": "r", "stimulus-type": "incongruent", "word": "yellow", "color": "red", "correct_response": "r", "trial_id": "stroop-trial-1-incongruent-1", "trial_type": "html-keyboard-response", "trial_index": 90, "time_elapsed": 208841, "internal_node_id": "0.0-4.0-86.0"}}, {"uniqueid": "w77444242:a37297681", "current_trial": 91, "dateTime": 1664555198580, "trialdata": {"rt": 649, "stimulus": "<p id='stroop-text' class='stroop-yellow'>GREEN</p>", "response": "y", "stimulus-type": "incongruent", "word": "green", "color": "yellow", "correct_response": "y", "trial_id": "stroop-trial-1-incongruent-2", "trial_type": "html-keyboard-response", "trial_index": 91, "time_elapsed": 209998, "internal_node_id": "0.0-4.0-87.0"}}, {"uniqueid": "w77444242:a37297681", "current_trial": 92, "dateTime": 1664555200044, "trialdata": {"rt": 956, "stimulus": "<p id='stroop-text' class='stroop-green'>YELLOW</p>", "response": "g", "stimulus-type": "incongruent", "word": "yellow", "color": "green", "correct_response": "g", "trial_id": "stroop-trial-1-incongruent-23", "trial_type": "html-keyboard-response", "trial_index": 92, "time_elapsed": 211462, "internal_node_id": "0.0-4.0-88.0"}}, {"uniqueid": "w77444242:a37297681", "current_trial": 93, "dateTime": 1664555200950, "trialdata": {"rt": 392, "stimulus": "<p id='stroop-text' class='stroop-blue'>RED</p>", "response": "b", "stimulus-type": "incongruent", "word": "red", "color": "blue", "correct_response": "b", "trial_id": "stroop-trial-1-incongruent-6", "trial_type": "html-keyboard-response", "trial_index": 93, "time_elapsed": 212368, "internal_node_id": "0.0-4.0-89.0"}}, {"uniqueid": "w77444242:a37297681", "current_trial": 94, "dateTime": 1664555211875, "trialdata": {"rt": 10413, "stimulus": "  <h1> End of block! </h1>\n\n  You have reached the end of the block 1/5. If you need a short break, feel free to take one now before moving on.\n\n  <br><br>\n  In the next block, you will complete another 90 rounds of this game.\n\n  <br><br>\n  <div style='text-align: center;'>Press <code>space</code> to begin.</div>\n  <br><br>\n<div style='text-align: center;'>(If the experiment doesn't continue, try clicking on the text and then pressing <code>space</code>.)</div>", "response": " ", "trial_id": "stroop_1_ready_2", "trial_type": "html-keyboard-response", "trial_index": 94, "time_elapsed": 223294, "internal_node_id": "0.0-5.0"}}, {"uniqueid": "w77444242:a37297681", "current_trial": 95, "dateTime": 1664555212786, "trialdata": {"rt": 899, "stimulus": "<p id='stroop-text' class='stroop-yellow'>YELLOW</p>", "response": "y", "stimulus-type": "congruent", "word": "yellow", "color": "yellow", "correct_response": "y", "trial_id": "stroop-trial-1-congruent-26", "trial_type": "html-keyboard-response", "trial_index": 95, "time_elapsed": 224204, "internal_node_id": "0.0-6.0-0.0"}}, {"uniqueid": "w77444242:a37297681", "current_trial": 96, "dateTime": 1664555213941, "trialdata": {"rt": 646, "stimulus": "<p id='stroop-text' class='stroop-green'>BOAT</p>", "response": "g", "stimulus-type": "unrelated", "word": "BOAT", "color": "green", "correct_response": "g", "trial_id": "stroop-trial-1-unrelated-26", "trial_type": "html-keyboard-response", "trial_index": 96, "time_elapsed": 225359, "internal_node_id": "0.0-6.0-1.0"}}, {"uniqueid": "w77444242:a37297681", "current_trial": 97, "dateTime": 1664555215006, "trialdata": {"rt": 547, "stimulus": "<p id='stroop-text' class='stroop-green'>BOTTLE</p>", "response": "g", "stimulus-type": "unrelated", "word": "BOTTLE", "color": "green", "correct_response": "g", "trial_id": "stroop-trial-1-unrelated-8", "trial_type": "html-keyboard-response", "trial_index": 97, "time_elapsed": 226425, "internal_node_id": "0.0-6.0-2.0"}}, {"uniqueid": "w77444242:a37297681", "current_trial": 98, "dateTime": 1664555215976, "trialdata": {"rt": 455, "stimulus": "<p id='stroop-text' class='stroop-green'>YELLOW</p>", "response": "g", "stimulus-type": "incongruent", "word": "yellow", "color": "green", "correct_response": "g", "trial_id": "stroop-trial-1-incongruent-18", "trial_type": "html-keyboard-response", "trial_index": 98, "time_elapsed": 227395, "internal_node_id": "0.0-6.0-3.0"}}, {"uniqueid": "w77444242:a37297681", "current_trial": 99, "dateTime": 1664555216926, "trialdata": {"rt": 440, "stimulus": "<p id='stroop-text' class='stroop-red'>RED</p>", "response": "r", "stimulus-type": "congruent", "word": "red", "color": "red", "correct_response": "r", "trial_id": "stroop-trial-1-congruent-25", "trial_type": "html-keyboard-response", "trial_index": 99, "time_elapsed": 228344, "internal_node_id": "0.0-6.0-4.0"}}, {"uniqueid": "w77444242:a37297681", "current_trial": 100, "dateTime": 1664555218066, "trialdata": {"rt": 629, "stimulus": "<p id='stroop-text' class='stroop-yellow'>YELLOW</p>", "response": "y", "stimulus-type": "congruent", "word": "yellow", "color": "yellow", "correct_response": "y", "trial_id": "stroop-trial-1-congruent-14", "trial_type": "html-keyboard-response", "trial_index": 100, "time_elapsed": 229484, "internal_node_id": "0.0-6.0-5.0"}}, {"uniqueid": "w77444242:a37297681", "current_trial": 101, "dateTime": 1664555219293, "trialdata": {"rt": 715, "stimulus": "<p id='stroop-text' class='stroop-red'>RED</p>", "response": "r", "stimulus-type": "congruent", "word": "red", "color": "red", "correct_response": "r", "trial_id": "stroop-trial-1-congruent-9", "trial_type": "html-keyboard-response", "trial_index": 101, "time_elapsed": 230711, "internal_node_id": "0.0-6.0-6.0"}}, {"uniqueid": "w77444242:a37297681", "current_trial": 102, "dateTime": 1664555220219, "trialdata": {"rt": 415, "stimulus": "<p id='stroop-text' class='stroop-red'>RED</p>", "response": "r", "stimulus-type": "congruent", "word": "red", "color": "red", "correct_response": "r", "trial_id": "stroop-trial-1-congruent-12", "trial_type": "html-keyboard-response", "trial_index": 102, "time_elapsed": 231636, "internal_node_id": "0.0-6.0-7.0"}}, {"uniqueid": "w77444242:a37297681", "current_trial": 103, "dateTime": 1664555221423, "trialdata": {"rt": 684, "stimulus": "<p id='stroop-text' class='stroop-green'>BOAT</p>", "response": "g", "stimulus-type": "unrelated", "word": "BOAT", "color": "green", "correct_response": "g", "trial_id": "stroop-trial-1-unrelated-12", "trial_type": "html-keyboard-response", "trial_index": 103, "time_elapsed": 232841, "internal_node_id": "0.0-6.0-8.0"}}, {"uniqueid": "w77444242:a37297681", "current_trial": 104, "dateTime": 1664555222340, "trialdata": {"rt": 404, "stimulus": "<p id='stroop-text' class='stroop-green'>YELLOW</p>", "response": "g", "stimulus-type": "incongruent", "word": "yellow", "color": "green", "correct_response": "g", "trial_id": "stroop-trial-1-incongruent-15", "trial_type": "html-keyboard-response", "trial_index": 104, "time_elapsed": 233758, "internal_node_id": "0.0-6.0-9.0"}}, {"uniqueid": "w77444242:a37297681", "current_trial": 105, "dateTime": 1664555223587, "trialdata": {"rt": 734, "stimulus": "<p id='stroop-text' class='stroop-red'>GREEN</p>", "response": "r", "stimulus-type": "incongruent", "word": "green", "color": "red", "correct_response": "r", "trial_id": "stroop-trial-1-incongruent-7", "trial_type": "html-keyboard-response", "trial_index": 105, "time_elapsed": 235006, "internal_node_id": "0.0-6.0-10.0"}}, {"uniqueid": "w77444242:a37297681", "current_trial": 106, "dateTime": 1664555224727, "trialdata": {"rt": 625, "stimulus": "<p id='stroop-text' class='stroop-green'>GREEN</p>", "response": "g", "stimulus-type": "congruent", "word": "green", "color": "green", "correct_response": "g", "trial_id": "stroop-trial-1-congruent-3", "trial_type": "html-keyboard-response", "trial_index": 106, "time_elapsed": 236145, "internal_node_id": "0.0-6.0-11.0"}}, {"uniqueid": "w77444242:a37297681", "current_trial": 107, "dateTime": 1664555225758, "trialdata": {"rt": 520, "stimulus": "<p id='stroop-text' class='stroop-red'>BOTTLE</p>", "response": "r", "stimulus-type": "unrelated", "word": "BOTTLE", "color": "red", "correct_response": "r", "trial_id": "stroop-trial-1-unrelated-6", "trial_type": "html-keyboard-response", "trial_index": 107, "time_elapsed": 237177, "internal_node_id": "0.0-6.0-12.0"}}, {"uniqueid": "w77444242:a37297681", "current_trial": 108, "dateTime": 1664555226854, "trialdata": {"rt": 576, "stimulus": "<p id='stroop-text' class='stroop-yellow'>BLUE</p>", "response": "y", "stimulus-type": "incongruent", "word": "blue", "color": "yellow", "correct_response": "y", "trial_id": "stroop-trial-1-incongruent-23", "trial_type": "html-keyboard-response", "trial_index": 108, "time_elapsed": 238272, "internal_node_id": "0.0-6.0-13.0"}}, {"uniqueid": "w77444242:a37297681", "current_trial": 109, "dateTime": 1664555227729, "trialdata": {"rt": 362, "stimulus": "<p id='stroop-text' class='stroop-blue'>CHAIR</p>", "response": "b", "stimulus-type": "unrelated", "word": "CHAIR", "color": "blue", "correct_response": "b", "trial_id": "stroop-trial-1-unrelated-17", "trial_type": "html-keyboard-response", "trial_index": 109, "time_elapsed": 239148, "internal_node_id": "0.0-6.0-14.0"}}, {"uniqueid": "w77444242:a37297681", "current_trial": 110, "dateTime": 1664555228579, "trialdata": {"rt": 335, "stimulus": "<p id='stroop-text' class='stroop-blue'>BLUE</p>", "response": "b", "stimulus-type": "congruent", "word": "blue", "color": "blue", "correct_response": "b", "trial_id": "stroop-trial-1-congruent-15", "trial_type": "html-keyboard-response", "trial_index": 110, "time_elapsed": 239998, "internal_node_id": "0.0-6.0-15.0"}}, {"uniqueid": "w77444242:a37297681", "current_trial": 111, "dateTime": 1664555229568, "trialdata": {"rt": 478, "stimulus": "<p id='stroop-text' class='stroop-yellow'>YELLOW</p>", "response": "y", "stimulus-type": "congruent", "word": "yellow", "color": "yellow", "correct_response": "y", "trial_id": "stroop-trial-1-congruent-22", "trial_type": "html-keyboard-response", "trial_index": 111, "time_elapsed": 240987, "internal_node_id": "0.0-6.0-16.0"}}, {"uniqueid": "w77444242:a37297681", "current_trial": 112, "dateTime": 1664555230715, "trialdata": {"rt": 634, "stimulus": "<p id='stroop-text' class='stroop-blue'>GREEN</p>", "response": "b", "stimulus-type": "incongruent", "word": "green", "color": "blue", "correct_response": "b", "trial_id": "stroop-trial-1-incongruent-14", "trial_type": "html-keyboard-response", "trial_index": 112, "time_elapsed": 242133, "internal_node_id": "0.0-6.0-17.0"}}, {"uniqueid": "w77444242:a37297681", "current_trial": 113, "dateTime": 1664555231719, "trialdata": {"rt": 497, "stimulus": "<p id='stroop-text' class='stroop-yellow'>GREEN</p>", "response": "y", "stimulus-type": "incongruent", "word": "green", "color": "yellow", "correct_response": "y", "trial_id": "stroop-trial-1-incongruent-21", "trial_type": "html-keyboard-response", "trial_index": 113, "time_elapsed": 243137, "internal_node_id": "0.0-6.0-18.0"}}, {"uniqueid": "w77444242:a37297681", "current_trial": 114, "dateTime": 1664555232845, "trialdata": {"rt": 611, "stimulus": "<p id='stroop-text' class='stroop-yellow'>FORK</p>", "response": "y", "stimulus-type": "unrelated", "word": "FORK", "color": "yellow", "correct_response": "y", "trial_id": "stroop-trial-1-unrelated-24", "trial_type": "html-keyboard-response", "trial_index": 114, "time_elapsed": 244263, "internal_node_id": "0.0-6.0-19.0"}}, {"uniqueid": "w77444242:a37297681", "current_trial": 115, "dateTime": 1664555233755, "trialdata": {"rt": 394, "stimulus": "<p id='stroop-text' class='stroop-blue'>BOTTLE</p>", "response": "b", "stimulus-type": "unrelated", "word": "BOTTLE", "color": "blue", "correct_response": "b", "trial_id": "stroop-trial-1-unrelated-23", "trial_type": "html-keyboard-response", "trial_index": 115, "time_elapsed": 245173, "internal_node_id": "0.0-6.0-20.0"}}, {"uniqueid": "w77444242:a37297681", "current_trial": 116, "dateTime": 1664555234755, "trialdata": {"rt": 483, "stimulus": "<p id='stroop-text' class='stroop-yellow'>YELLOW</p>", "response": "y", "stimulus-type": "congruent", "word": "yellow", "color": "yellow", "correct_response": "y", "trial_id": "stroop-trial-1-congruent-1", "trial_type": "html-keyboard-response", "trial_index": 116, "time_elapsed": 246173, "internal_node_id": "0.0-6.0-21.0"}}, {"uniqueid": "w77444242:a37297681", "current_trial": 117, "dateTime": 1664555235840, "trialdata": {"rt": 572, "stimulus": "<p id='stroop-text' class='stroop-red'>GREEN</p>", "response": "r", "stimulus-type": "incongruent", "word": "green", "color": "red", "correct_response": "r", "trial_id": "stroop-trial-1-incongruent-19", "trial_type": "html-keyboard-response", "trial_index": 117, "time_elapsed": 247258, "internal_node_id": "0.0-6.0-22.0"}}, {"uniqueid": "w77444242:a37297681", "current_trial": 118, "dateTime": 1664555237252, "trialdata": {"rt": 893, "stimulus": "<p id='stroop-text' class='stroop-blue'>SHIP</p>", "response": "b", "stimulus-type": "unrelated", "word": "SHIP", "color": "blue", "correct_response": "b", "trial_id": "stroop-trial-1-unrelated-3", "trial_type": "html-keyboard-response", "trial_index": 118, "time_elapsed": 248669, "internal_node_id": "0.0-6.0-23.0"}}, {"uniqueid": "w77444242:a37297681", "current_trial": 119, "dateTime": 1664555238331, "trialdata": {"rt": 560, "stimulus": "<p id='stroop-text' class='stroop-green'>SHIP</p>", "response": "g", "stimulus-type": "unrelated", "word": "SHIP", "color": "green", "correct_response": "g", "trial_id": "stroop-trial-1-unrelated-18", "trial_type": "html-keyboard-response", "trial_index": 119, "time_elapsed": 249749, "internal_node_id": "0.0-6.0-24.0"}}, {"uniqueid": "w77444242:a37297681", "current_trial": 120, "dateTime": 1664555239476, "trialdata": {"rt": 628, "stimulus": "<p id='stroop-text' class='stroop-green'>DOG</p>", "response": "g", "stimulus-type": "unrelated", "word": "DOG", "color": "green", "correct_response": "g", "trial_id": "stroop-trial-1-unrelated-10", "trial_type": "html-keyboard-response", "trial_index": 120, "time_elapsed": 250895, "internal_node_id": "0.0-6.0-25.0"}}, {"uniqueid": "w77444242:a37297681", "current_trial": 121, "dateTime": 1664555240387, "trialdata": {"rt": 395, "stimulus": "<p id='stroop-text' class='stroop-green'>RED</p>", "response": "g", "stimulus-type": "incongruent", "word": "red", "color": "green", "correct_response": "g", "trial_id": "stroop-trial-1-incongruent-8", "trial_type": "html-keyboard-response", "trial_index": 121, "time_elapsed": 251805, "internal_node_id": "0.0-6.0-26.0"}}, {"uniqueid": "w77444242:a37297681", "current_trial": 122, "dateTime": 1664555241404, "trialdata": {"rt": 506, "stimulus": "<p id='stroop-text' class='stroop-red'>RED</p>", "response": "r", "stimulus-type": "congruent", "word": "red", "color": "red", "correct_response": "r", "trial_id": "stroop-trial-1-congruent-7", "trial_type": "html-keyboard-response", "trial_index": 122, "time_elapsed": 252821, "internal_node_id": "0.0-6.0-27.0"}}, {"uniqueid": "w77444242:a37297681", "current_trial": 123, "dateTime": 1664555242472, "trialdata": {"rt": 546, "stimulus": "<p id='stroop-text' class='stroop-green'>BLUE</p>", "response": "g", "stimulus-type": "incongruent", "word": "blue", "color": "green", "correct_response": "g", "trial_id": "stroop-trial-1-incongruent-27", "trial_type": "html-keyboard-response", "trial_index": 123, "time_elapsed": 253890, "internal_node_id": "0.0-6.0-28.0"}}, {"uniqueid": "w77444242:a37297681", "current_trial": 124, "dateTime": 1664555243374, "trialdata": {"rt": 392, "stimulus": "<p id='stroop-text' class='stroop-green'>GREEN</p>", "response": "g", "stimulus-type": "congruent", "word": "green", "color": "green", "correct_response": "g", "trial_id": "stroop-trial-1-congruent-11", "trial_type": "html-keyboard-response", "trial_index": 124, "time_elapsed": 254791, "internal_node_id": "0.0-6.0-29.0"}}, {"uniqueid": "w77444242:a37297681", "current_trial": 125, "dateTime": 1664555244229, "trialdata": {"rt": 340, "stimulus": "<p id='stroop-text' class='stroop-green'>GREEN</p>", "response": "g", "stimulus-type": "congruent", "word": "green", "color": "green", "correct_response": "g", "trial_id": "stroop-trial-1-congruent-8", "trial_type": "html-keyboard-response", "trial_index": 125, "time_elapsed": 255647, "internal_node_id": "0.0-6.0-30.0"}}, {"uniqueid": "w77444242:a37297681", "current_trial": 126, "dateTime": 1664555245037, "trialdata": {"rt": 292, "stimulus": "<p id='stroop-text' class='stroop-green'>GREEN</p>", "response": "g", "stimulus-type": "congruent", "word": "green", "color": "green", "correct_response": "g", "trial_id": "stroop-trial-1-congruent-29", "trial_type": "html-keyboard-response", "trial_index": 126, "time_elapsed": 256456, "internal_node_id": "0.0-6.0-31.0"}}, {"uniqueid": "w77444242:a37297681", "current_trial": 127, "dateTime": 1664555246082, "trialdata": {"rt": 528, "stimulus": "<p id='stroop-text' class='stroop-green'>RED</p>", "response": "g", "stimulus-type": "incongruent", "word": "red", "color": "green", "correct_response": "g", "trial_id": "stroop-trial-1-incongruent-22", "trial_type": "html-keyboard-response", "trial_index": 127, "time_elapsed": 257500, "internal_node_id": "0.0-6.0-32.0"}}, {"uniqueid": "w77444242:a37297681", "current_trial": 128, "dateTime": 1664555247188, "trialdata": {"rt": 589, "stimulus": "<p id='stroop-text' class='stroop-red'>GREEN</p>", "response": "r", "stimulus-type": "incongruent", "word": "green", "color": "red", "correct_response": "r", "trial_id": "stroop-trial-1-incongruent-20", "trial_type": "html-keyboard-response", "trial_index": 128, "time_elapsed": 258605, "internal_node_id": "0.0-6.0-33.0"}}, {"uniqueid": "w77444242:a37297681", "current_trial": 129, "dateTime": 1664555248250, "trialdata": {"rt": 540, "stimulus": "<p id='stroop-text' class='stroop-yellow'>YELLOW</p>", "response": "y", "stimulus-type": "congruent", "word": "yellow", "color": "yellow", "correct_response": "y", "trial_id": "stroop-trial-1-congruent-24", "trial_type": "html-keyboard-response", "trial_index": 129, "time_elapsed": 259667, "internal_node_id": "0.0-6.0-34.0"}}, {"uniqueid": "w77444242:a37297681", "current_trial": 130, "dateTime": 1664555249880, "trialdata": {"rt": 1107, "stimulus": "<p id='stroop-text' class='stroop-green'>RED</p>", "response": "g", "stimulus-type": "incongruent", "word": "red", "color": "green", "correct_response": "g", "trial_id": "stroop-trial-1-incongruent-29", "trial_type": "html-keyboard-response", "trial_index": 130, "time_elapsed": 261297, "internal_node_id": "0.0-6.0-35.0"}}, {"uniqueid": "w77444242:a37297681", "current_trial": 131, "dateTime": 1664555250819, "trialdata": {"rt": 431, "stimulus": "<p id='stroop-text' class='stroop-yellow'>YELLOW</p>", "response": "y", "stimulus-type": "congruent", "word": "yellow", "color": "yellow", "correct_response": "y", "trial_id": "stroop-trial-1-congruent-16", "trial_type": "html-keyboard-response", "trial_index": 131, "time_elapsed": 262237, "internal_node_id": "0.0-6.0-36.0"}}, {"uniqueid": "w77444242:a37297681", "current_trial": 132, "dateTime": 1664555251826, "trialdata": {"rt": 490, "stimulus": "<p id='stroop-text' class='stroop-red'>RED</p>", "response": "r", "stimulus-type": "congruent", "word": "red", "color": "red", "correct_response": "r", "trial_id": "stroop-trial-1-congruent-21", "trial_type": "html-keyboard-response", "trial_index": 132, "time_elapsed": 263243, "internal_node_id": "0.0-6.0-37.0"}}, {"uniqueid": "w77444242:a37297681", "current_trial": 133, "dateTime": 1664555253024, "trialdata": {"rt": 680, "stimulus": "<p id='stroop-text' class='stroop-green'>BLUE</p>", "response": "g", "stimulus-type": "incongruent", "word": "blue", "color": "green", "correct_response": "g", "trial_id": "stroop-trial-1-incongruent-12", "trial_type": "html-keyboard-response", "trial_index": 133, "time_elapsed": 264442, "internal_node_id": "0.0-6.0-38.0"}}, {"uniqueid": "w77444242:a37297681", "current_trial": 134, "dateTime": 1664555253934, "trialdata": {"rt": 391, "stimulus": "<p id='stroop-text' class='stroop-green'>BRAIN</p>", "response": "g", "stimulus-type": "unrelated", "word": "BRAIN", "color": "green", "correct_response": "g", "trial_id": "stroop-trial-1-unrelated-29", "trial_type": "html-keyboard-response", "trial_index": 134, "time_elapsed": 265353, "internal_node_id": "0.0-6.0-39.0"}}, {"uniqueid": "w77444242:a37297681", "current_trial": 135, "dateTime": 1664555254948, "trialdata": {"rt": 500, "stimulus": "<p id='stroop-text' class='stroop-blue'>STONE</p>", "response": "b", "stimulus-type": "unrelated", "word": "STONE", "color": "blue", "correct_response": "b", "trial_id": "stroop-trial-1-unrelated-22", "trial_type": "html-keyboard-response", "trial_index": 135, "time_elapsed": 266367, "internal_node_id": "0.0-6.0-40.0"}}, {"uniqueid": "w77444242:a37297681", "current_trial": 136, "dateTime": 1664555255780, "trialdata": {"rt": 320, "stimulus": "<p id='stroop-text' class='stroop-blue'>RED</p>", "response": "b", "stimulus-type": "incongruent", "word": "red", "color": "blue", "correct_response": "b", "trial_id": "stroop-trial-1-incongruent-28", "trial_type": "html-keyboard-response", "trial_index": 136, "time_elapsed": 267198, "internal_node_id": "0.0-6.0-41.0"}}, {"uniqueid": "w77444242:a37297681", "current_trial": 137, "dateTime": 1664555256940, "trialdata": {"rt": 646, "stimulus": "<p id='stroop-text' class='stroop-green'>BLUE</p>", "response": "g", "stimulus-type": "incongruent", "word": "blue", "color": "green", "correct_response": "g", "trial_id": "stroop-trial-1-incongruent-9", "trial_type": "html-keyboard-response", "trial_index": 137, "time_elapsed": 268358, "internal_node_id": "0.0-6.0-42.0"}}, {"uniqueid": "w77444242:a37297681", "current_trial": 138, "dateTime": 1664555257845, "trialdata": {"rt": 383, "stimulus": "<p id='stroop-text' class='stroop-blue'>GREEN</p>", "response": "b", "stimulus-type": "incongruent", "word": "green", "color": "blue", "correct_response": "b", "trial_id": "stroop-trial-1-incongruent-2", "trial_type": "html-keyboard-response", "trial_index": 138, "time_elapsed": 269264, "internal_node_id": "0.0-6.0-43.0"}}, {"uniqueid": "w77444242:a37297681", "current_trial": 139, "dateTime": 1664555258845, "trialdata": {"rt": 484, "stimulus": "<p id='stroop-text' class='stroop-green'>GREEN</p>", "response": "g", "stimulus-type": "congruent", "word": "green", "color": "green", "correct_response": "g", "trial_id": "stroop-trial-1-congruent-4", "trial_type": "html-keyboard-response", "trial_index": 139, "time_elapsed": 270263, "internal_node_id": "0.0-6.0-44.0"}}, {"uniqueid": "w77444242:a37297681", "current_trial": 140, "dateTime": 1664555259880, "trialdata": {"rt": 520, "stimulus": "<p id='stroop-text' class='stroop-blue'>BLUE</p>", "response": "b", "stimulus-type": "congruent", "word": "blue", "color": "blue", "correct_response": "b", "trial_id": "stroop-trial-1-congruent-18", "trial_type": "html-keyboard-response", "trial_index": 140, "time_elapsed": 271298, "internal_node_id": "0.0-6.0-45.0"}}, {"uniqueid": "w77444242:a37297681", "current_trial": 141, "dateTime": 1664555260960, "trialdata": {"rt": 564, "stimulus": "<p id='stroop-text' class='stroop-yellow'>BRAIN</p>", "response": "y", "stimulus-type": "unrelated", "word": "BRAIN", "color": "yellow", "correct_response": "y", "trial_id": "stroop-trial-1-unrelated-27", "trial_type": "html-keyboard-response", "trial_index": 141, "time_elapsed": 272378, "internal_node_id": "0.0-6.0-46.0"}}, {"uniqueid": "w77444242:a37297681", "current_trial": 142, "dateTime": 1664555262155, "trialdata": {"rt": 683, "stimulus": "<p id='stroop-text' class='stroop-green'>YELLOW</p>", "response": "g", "stimulus-type": "incongruent", "word": "yellow", "color": "green", "correct_response": "g", "trial_id": "stroop-trial-1-incongruent-6", "trial_type": "html-keyboard-response", "trial_index": 142, "time_elapsed": 273574, "internal_node_id": "0.0-6.0-47.0"}}, {"uniqueid": "w77444242:a37297681", "current_trial": 143, "dateTime": 1664555263267, "trialdata": {"rt": 597, "stimulus": "<p id='stroop-text' class='stroop-yellow'>RED</p>", "response": "r", "stimulus-type": "incongruent", "word": "red", "color": "yellow", "correct_response": "y", "trial_id": "stroop-trial-1-incongruent-17", "trial_type": "html-keyboard-response", "trial_index": 143, "time_elapsed": 274685, "internal_node_id": "0.0-6.0-48.0"}}, {"uniqueid": "w77444242:a37297681", "current_trial": 144, "dateTime": 1664555264391, "trialdata": {"rt": 616, "stimulus": "<p id='stroop-text' class='stroop-red'>STONE</p>", "response": "r", "stimulus-type": "unrelated", "word": "STONE", "color": "red", "correct_response": "r", "trial_id": "stroop-trial-1-unrelated-11", "trial_type": "html-keyboard-response", "trial_index": 144, "time_elapsed": 275809, "internal_node_id": "0.0-6.0-49.0"}}, {"uniqueid": "w77444242:a37297681", "current_trial": 145, "dateTime": 1664555265376, "trialdata": {"rt": 471, "stimulus": "<p id='stroop-text' class='stroop-blue'>BLUE</p>", "response": "b", "stimulus-type": "congruent", "word": "blue", "color": "blue", "correct_response": "b", "trial_id": "stroop-trial-1-congruent-2", "trial_type": "html-keyboard-response", "trial_index": 145, "time_elapsed": 276794, "internal_node_id": "0.0-6.0-50.0"}}, {"uniqueid": "w77444242:a37297681", "current_trial": 146, "dateTime": 1664555266271, "trialdata": {"rt": 367, "stimulus": "<p id='stroop-text' class='stroop-blue'>RED</p>", "response": "b", "stimulus-type": "incongruent", "word": "red", "color": "blue", "correct_response": "b", "trial_id": "stroop-trial-1-incongruent-24", "trial_type": "html-keyboard-response", "trial_index": 146, "time_elapsed": 277689, "internal_node_id": "0.0-6.0-51.0"}}, {"uniqueid": "w77444242:a37297681", "current_trial": 147, "dateTime": 1664555267081, "trialdata": {"rt": 301, "stimulus": "<p id='stroop-text' class='stroop-blue'>MONKEY</p>", "response": "b", "stimulus-type": "unrelated", "word": "MONKEY", "color": "blue", "correct_response": "b", "trial_id": "stroop-trial-1-unrelated-9", "trial_type": "html-keyboard-response", "trial_index": 147, "time_elapsed": 278499, "internal_node_id": "0.0-6.0-52.0"}}, {"uniqueid": "w77444242:a37297681", "current_trial": 148, "dateTime": 1664555268111, "trialdata": {"rt": 521, "stimulus": "<p id='stroop-text' class='stroop-red'>BOAT</p>", "response": "r", "stimulus-type": "unrelated", "word": "BOAT", "color": "red", "correct_response": "r", "trial_id": "stroop-trial-1-unrelated-15", "trial_type": "html-keyboard-response", "trial_index": 148, "time_elapsed": 279529, "internal_node_id": "0.0-6.0-53.0"}}, {"uniqueid": "w77444242:a37297681", "current_trial": 149, "dateTime": 1664555269247, "trialdata": {"rt": 621, "stimulus": "<p id='stroop-text' class='stroop-yellow'>RED</p>", "response": "y", "stimulus-type": "incongruent", "word": "red", "color": "yellow", "correct_response": "y", "trial_id": "stroop-trial-1-incongruent-10", "trial_type": "html-keyboard-response", "trial_index": 149, "time_elapsed": 280665, "internal_node_id": "0.0-6.0-54.0"}}, {"uniqueid": "w77444242:a37297681", "current_trial": 150, "dateTime": 1664555270451, "trialdata": {"rt": 693, "stimulus": "<p id='stroop-text' class='stroop-red'>MONKEY</p>", "response": "r", "stimulus-type": "unrelated", "word": "MONKEY", "color": "red", "correct_response": "r", "trial_id": "stroop-trial-1-unrelated-1", "trial_type": "html-keyboard-response", "trial_index": 150, "time_elapsed": 281870, "internal_node_id": "0.0-6.0-55.0"}}, {"uniqueid": "w77444242:a37297681", "current_trial": 151, "dateTime": 1664555271332, "trialdata": {"rt": 370, "stimulus": "<p id='stroop-text' class='stroop-yellow'>MONKEY</p>", "response": "y", "stimulus-type": "unrelated", "word": "MONKEY", "color": "yellow", "correct_response": "y", "trial_id": "stroop-trial-1-unrelated-4", "trial_type": "html-keyboard-response", "trial_index": 151, "time_elapsed": 282750, "internal_node_id": "0.0-6.0-56.0"}}, {"uniqueid": "w77444242:a37297681", "current_trial": 152, "dateTime": 1664555272565, "trialdata": {"rt": 722, "stimulus": "<p id='stroop-text' class='stroop-red'>BLUE</p>", "response": "r", "stimulus-type": "incongruent", "word": "blue", "color": "red", "correct_response": "r", "trial_id": "stroop-trial-1-incongruent-26", "trial_type": "html-keyboard-response", "trial_index": 152, "time_elapsed": 283984, "internal_node_id": "0.0-6.0-57.0"}}, {"uniqueid": "w77444242:a37297681", "current_trial": 153, "dateTime": 1664555273691, "trialdata": {"rt": 611, "stimulus": "<p id='stroop-text' class='stroop-green'>GREEN</p>", "response": "g", "stimulus-type": "congruent", "word": "green", "color": "green", "correct_response": "g", "trial_id": "stroop-trial-1-congruent-28", "trial_type": "html-keyboard-response", "trial_index": 153, "time_elapsed": 285109, "internal_node_id": "0.0-6.0-58.0"}}, {"uniqueid": "w77444242:a37297681", "current_trial": 154, "dateTime": 1664555274797, "trialdata": {"rt": 596, "stimulus": "<p id='stroop-text' class='stroop-yellow'>BRIDGE</p>", "response": "y", "stimulus-type": "unrelated", "word": "BRIDGE", "color": "yellow", "correct_response": "y", "trial_id": "stroop-trial-1-unrelated-28", "trial_type": "html-keyboard-response", "trial_index": 154, "time_elapsed": 286215, "internal_node_id": "0.0-6.0-59.0"}}, {"uniqueid": "w77444242:a37297681", "current_trial": 155, "dateTime": 1664555275947, "trialdata": {"rt": 635, "stimulus": "<p id='stroop-text' class='stroop-red'>RED</p>", "response": "r", "stimulus-type": "congruent", "word": "red", "color": "red", "correct_response": "r", "trial_id": "stroop-trial-1-congruent-5", "trial_type": "html-keyboard-response", "trial_index": 155, "time_elapsed": 287365, "internal_node_id": "0.0-6.0-60.0"}}, {"uniqueid": "w77444242:a37297681", "current_trial": 156, "dateTime": 1664555276832, "trialdata": {"rt": 374, "stimulus": "<p id='stroop-text' class='stroop-yellow'>BOAT</p>", "response": "y", "stimulus-type": "unrelated", "word": "BOAT", "color": "yellow", "correct_response": "y", "trial_id": "stroop-trial-1-unrelated-2", "trial_type": "html-keyboard-response", "trial_index": 156, "time_elapsed": 288250, "internal_node_id": "0.0-6.0-61.0"}}, {"uniqueid": "w77444242:a37297681", "current_trial": 157, "dateTime": 1664555277773, "trialdata": {"rt": 425, "stimulus": "<p id='stroop-text' class='stroop-yellow'>BOAT</p>", "response": "y", "stimulus-type": "unrelated", "word": "BOAT", "color": "yellow", "correct_response": "y", "trial_id": "stroop-trial-1-unrelated-13", "trial_type": "html-keyboard-response", "trial_index": 157, "time_elapsed": 289191, "internal_node_id": "0.0-6.0-62.0"}}, {"uniqueid": "w77444242:a37297681", "current_trial": 158, "dateTime": 1664555278697, "trialdata": {"rt": 408, "stimulus": "<p id='stroop-text' class='stroop-yellow'>YELLOW</p>", "response": "y", "stimulus-type": "congruent", "word": "yellow", "color": "yellow", "correct_response": "y", "trial_id": "stroop-trial-1-congruent-6", "trial_type": "html-keyboard-response", "trial_index": 158, "time_elapsed": 290115, "internal_node_id": "0.0-6.0-63.0"}}, {"uniqueid": "w77444242:a37297681", "current_trial": 159, "dateTime": 1664555279817, "trialdata": {"rt": 596, "stimulus": "<p id='stroop-text' class='stroop-red'>GREEN</p>", "response": "r", "stimulus-type": "incongruent", "word": "green", "color": "red", "correct_response": "r", "trial_id": "stroop-trial-1-incongruent-16", "trial_type": "html-keyboard-response", "trial_index": 159, "time_elapsed": 291235, "internal_node_id": "0.0-6.0-64.0"}}, {"uniqueid": "w77444242:a37297681", "current_trial": 160, "dateTime": 1664555281167, "trialdata": {"rt": 838, "stimulus": "<p id='stroop-text' class='stroop-green'>RED</p>", "response": "g", "stimulus-type": "incongruent", "word": "red", "color": "green", "correct_response": "g", "trial_id": "stroop-trial-1-incongruent-4", "trial_type": "html-keyboard-response", "trial_index": 160, "time_elapsed": 292586, "internal_node_id": "0.0-6.0-65.0"}}, {"uniqueid": "w77444242:a37297681", "current_trial": 161, "dateTime": 1664555282103, "trialdata": {"rt": 413, "stimulus": "<p id='stroop-text' class='stroop-blue'>SHIP</p>", "response": "b", "stimulus-type": "unrelated", "word": "SHIP", "color": "blue", "correct_response": "b", "trial_id": "stroop-trial-1-unrelated-21", "trial_type": "html-keyboard-response", "trial_index": 161, "time_elapsed": 293521, "internal_node_id": "0.0-6.0-66.0"}}, {"uniqueid": "w77444242:a37297681", "current_trial": 162, "dateTime": 1664555283149, "trialdata": {"rt": 535, "stimulus": "<p id='stroop-text' class='stroop-red'>BLUE</p>", "response": "r", "stimulus-type": "incongruent", "word": "blue", "color": "red", "correct_response": "r", "trial_id": "stroop-trial-1-incongruent-5", "trial_type": "html-keyboard-response", "trial_index": 162, "time_elapsed": 294567, "internal_node_id": "0.0-6.0-67.0"}}, {"uniqueid": "w77444242:a37297681", "current_trial": 163, "dateTime": 1664555284133, "trialdata": {"rt": 465, "stimulus": "<p id='stroop-text' class='stroop-blue'>BLUE</p>", "response": "b", "stimulus-type": "congruent", "word": "blue", "color": "blue", "correct_response": "b", "trial_id": "stroop-trial-1-congruent-17", "trial_type": "html-keyboard-response", "trial_index": 163, "time_elapsed": 295551, "internal_node_id": "0.0-6.0-68.0"}}, {"uniqueid": "w77444242:a37297681", "current_trial": 164, "dateTime": 1664555285109, "trialdata": {"rt": 460, "stimulus": "<p id='stroop-text' class='stroop-yellow'>DOG</p>", "response": "y", "stimulus-type": "unrelated", "word": "DOG", "color": "yellow", "correct_response": "y", "trial_id": "stroop-trial-1-unrelated-25", "trial_type": "html-keyboard-response", "trial_index": 164, "time_elapsed": 296526, "internal_node_id": "0.0-6.0-69.0"}}, {"uniqueid": "w77444242:a37297681", "current_trial": 165, "dateTime": 1664555286089, "trialdata": {"rt": 459, "stimulus": "<p id='stroop-text' class='stroop-red'>BRIDGE</p>", "response": "r", "stimulus-type": "unrelated", "word": "BRIDGE", "color": "red", "correct_response": "r", "trial_id": "stroop-trial-1-unrelated-30", "trial_type": "html-keyboard-response", "trial_index": 165, "time_elapsed": 297506, "internal_node_id": "0.0-6.0-70.0"}}, {"uniqueid": "w77444242:a37297681", "current_trial": 166, "dateTime": 1664555287137, "trialdata": {"rt": 529, "stimulus": "<p id='stroop-text' class='stroop-blue'>BLUE</p>", "response": "b", "stimulus-type": "congruent", "word": "blue", "color": "blue", "correct_response": "b", "trial_id": "stroop-trial-1-congruent-20", "trial_type": "html-keyboard-response", "trial_index": 166, "time_elapsed": 298556, "internal_node_id": "0.0-6.0-71.0"}}, {"uniqueid": "w77444242:a37297681", "current_trial": 167, "dateTime": 1664555288120, "trialdata": {"rt": 471, "stimulus": "<p id='stroop-text' class='stroop-blue'>BRAIN</p>", "response": "b", "stimulus-type": "unrelated", "word": "BRAIN", "color": "blue", "correct_response": "b", "trial_id": "stroop-trial-1-unrelated-7", "trial_type": "html-keyboard-response", "trial_index": 167, "time_elapsed": 299538, "internal_node_id": "0.0-6.0-72.0"}}, {"uniqueid": "w77444242:a37297681", "current_trial": 168, "dateTime": 1664555288994, "trialdata": {"rt": 358, "stimulus": "<p id='stroop-text' class='stroop-blue'>BLUE</p>", "response": "b", "stimulus-type": "congruent", "word": "blue", "color": "blue", "correct_response": "b", "trial_id": "stroop-trial-1-congruent-13", "trial_type": "html-keyboard-response", "trial_index": 168, "time_elapsed": 300411, "internal_node_id": "0.0-6.0-73.0"}}, {"uniqueid": "w77444242:a37297681", "current_trial": 169, "dateTime": 1664555289908, "trialdata": {"rt": 392, "stimulus": "<p id='stroop-text' class='stroop-yellow'>GREEN</p>", "response": "y", "stimulus-type": "incongruent", "word": "green", "color": "yellow", "correct_response": "y", "trial_id": "stroop-trial-1-incongruent-13", "trial_type": "html-keyboard-response", "trial_index": 169, "time_elapsed": 301326, "internal_node_id": "0.0-6.0-74.0"}}, {"uniqueid": "w77444242:a37297681", "current_trial": 170, "dateTime": 1664555291339, "trialdata": {"rt": 916, "stimulus": "<p id='stroop-text' class='stroop-green'>RED</p>", "response": "g", "stimulus-type": "incongruent", "word": "red", "color": "green", "correct_response": "g", "trial_id": "stroop-trial-1-incongruent-30", "trial_type": "html-keyboard-response", "trial_index": 170, "time_elapsed": 302757, "internal_node_id": "0.0-6.0-75.0"}}, {"uniqueid": "w77444242:a37297681", "current_trial": 171, "dateTime": 1664555292379, "trialdata": {"rt": 531, "stimulus": "<p id='stroop-text' class='stroop-red'>RED</p>", "response": "r", "stimulus-type": "congruent", "word": "red", "color": "red", "correct_response": "r", "trial_id": "stroop-trial-1-congruent-10", "trial_type": "html-keyboard-response", "trial_index": 171, "time_elapsed": 303797, "internal_node_id": "0.0-6.0-76.0"}}, {"uniqueid": "w77444242:a37297681", "current_trial": 172, "dateTime": 1664555293355, "trialdata": {"rt": 466, "stimulus": "<p id='stroop-text' class='stroop-yellow'>RED</p>", "response": "b", "stimulus-type": "incongruent", "word": "red", "color": "yellow", "correct_response": "y", "trial_id": "stroop-trial-1-incongruent-25", "trial_type": "html-keyboard-response", "trial_index": 172, "time_elapsed": 304773, "internal_node_id": "0.0-6.0-77.0"}}, {"uniqueid": "w77444242:a37297681", "current_trial": 173, "dateTime": 1664555294405, "trialdata": {"rt": 536, "stimulus": "<p id='stroop-text' class='stroop-yellow'>YELLOW</p>", "response": "y", "stimulus-type": "congruent", "word": "yellow", "color": "yellow", "correct_response": "y", "trial_id": "stroop-trial-1-congruent-23", "trial_type": "html-keyboard-response", "trial_index": 173, "time_elapsed": 305823, "internal_node_id": "0.0-6.0-78.0"}}, {"uniqueid": "w77444242:a37297681", "current_trial": 174, "dateTime": 1664555295326, "trialdata": {"rt": 403, "stimulus": "<p id='stroop-text' class='stroop-yellow'>BRIDGE</p>", "response": "y", "stimulus-type": "unrelated", "word": "BRIDGE", "color": "yellow", "correct_response": "y", "trial_id": "stroop-trial-1-unrelated-5", "trial_type": "html-keyboard-response", "trial_index": 174, "time_elapsed": 306743, "internal_node_id": "0.0-6.0-79.0"}}, {"uniqueid": "w77444242:a37297681", "current_trial": 175, "dateTime": 1664555296569, "trialdata": {"rt": 720, "stimulus": "<p id='stroop-text' class='stroop-green'>GREEN</p>", "response": "g", "stimulus-type": "congruent", "word": "green", "color": "green", "correct_response": "g", "trial_id": "stroop-trial-1-congruent-30", "trial_type": "html-keyboard-response", "trial_index": 175, "time_elapsed": 307987, "internal_node_id": "0.0-6.0-80.0"}}, {"uniqueid": "w77444242:a37297681", "current_trial": 176, "dateTime": 1664555297569, "trialdata": {"rt": 487, "stimulus": "<p id='stroop-text' class='stroop-yellow'>SHIP</p>", "response": "y", "stimulus-type": "unrelated", "word": "SHIP", "color": "yellow", "correct_response": "y", "trial_id": "stroop-trial-1-unrelated-20", "trial_type": "html-keyboard-response", "trial_index": 176, "time_elapsed": 308987, "internal_node_id": "0.0-6.0-81.0"}}, {"uniqueid": "w77444242:a37297681", "current_trial": 177, "dateTime": 1664555298655, "trialdata": {"rt": 573, "stimulus": "<p id='stroop-text' class='stroop-yellow'>RED</p>", "response": "y", "stimulus-type": "incongruent", "word": "red", "color": "yellow", "correct_response": "y", "trial_id": "stroop-trial-1-incongruent-3", "trial_type": "html-keyboard-response", "trial_index": 177, "time_elapsed": 310073, "internal_node_id": "0.0-6.0-82.0"}}, {"uniqueid": "w77444242:a37297681", "current_trial": 178, "dateTime": 1664555299799, "trialdata": {"rt": 618, "stimulus": "<p id='stroop-text' class='stroop-green'>GREEN</p>", "response": "g", "stimulus-type": "congruent", "word": "green", "color": "green", "correct_response": "g", "trial_id": "stroop-trial-1-congruent-19", "trial_type": "html-keyboard-response", "trial_index": 178, "time_elapsed": 311216, "internal_node_id": "0.0-6.0-83.0"}}, {"uniqueid": "w77444242:a37297681", "current_trial": 179, "dateTime": 1664555300764, "trialdata": {"rt": 450, "stimulus": "<p id='stroop-text' class='stroop-red'>SHIP</p>", "response": "r", "stimulus-type": "unrelated", "word": "SHIP", "color": "red", "correct_response": "r", "trial_id": "stroop-trial-1-unrelated-16", "trial_type": "html-keyboard-response", "trial_index": 179, "time_elapsed": 312182, "internal_node_id": "0.0-6.0-84.0"}}, {"uniqueid": "w77444242:a37297681", "current_trial": 180, "dateTime": 1664555301894, "trialdata": {"rt": 615, "stimulus": "<p id='stroop-text' class='stroop-blue'>GREEN</p>", "response": "b", "stimulus-type": "incongruent", "word": "green", "color": "blue", "correct_response": "b", "trial_id": "stroop-trial-1-incongruent-11", "trial_type": "html-keyboard-response", "trial_index": 180, "time_elapsed": 313312, "internal_node_id": "0.0-6.0-85.0"}}, {"uniqueid": "w77444242:a37297681", "current_trial": 181, "dateTime": 1664555302799, "trialdata": {"rt": 381, "stimulus": "<p id='stroop-text' class='stroop-blue'>BOTTLE</p>", "response": "b", "stimulus-type": "unrelated", "word": "BOTTLE", "color": "blue", "correct_response": "b", "trial_id": "stroop-trial-1-unrelated-14", "trial_type": "html-keyboard-response", "trial_index": 181, "time_elapsed": 314218, "internal_node_id": "0.0-6.0-86.0"}}, {"uniqueid": "w77444242:a37297681", "current_trial": 182, "dateTime": 1664555303904, "trialdata": {"rt": 587, "stimulus": "<p id='stroop-text' class='stroop-green'>CHAIR</p>", "response": "g", "stimulus-type": "unrelated", "word": "CHAIR", "color": "green", "correct_response": "g", "trial_id": "stroop-trial-1-unrelated-19", "trial_type": "html-keyboard-response", "trial_index": 182, "time_elapsed": 315322, "internal_node_id": "0.0-6.0-87.0"}}, {"uniqueid": "w77444242:a37297681", "current_trial": 183, "dateTime": 1664555304938, "trialdata": {"rt": 520, "stimulus": "<p id='stroop-text' class='stroop-blue'>BLUE</p>", "response": "b", "stimulus-type": "congruent", "word": "blue", "color": "blue", "correct_response": "b", "trial_id": "stroop-trial-1-congruent-27", "trial_type": "html-keyboard-response", "trial_index": 183, "time_elapsed": 316356, "internal_node_id": "0.0-6.0-88.0"}}, {"uniqueid": "w77444242:a37297681", "current_trial": 184, "dateTime": 1664555305794, "trialdata": {"rt": 344, "stimulus": "<p id='stroop-text' class='stroop-blue'>GREEN</p>", "response": "b", "stimulus-type": "incongruent", "word": "green", "color": "blue", "correct_response": "b", "trial_id": "stroop-trial-1-incongruent-1", "trial_type": "html-keyboard-response", "trial_index": 184, "time_elapsed": 317212, "internal_node_id": "0.0-6.0-89.0"}}, {"uniqueid": "w77444242:a37297681", "current_trial": 185, "dateTime": 1664555308303, "trialdata": {"rt": 1994, "stimulus": "  <h1> End of block! </h1>\n\n  You have reached the end of the block 2/5. If you need a short break, feel free to take one now before moving on.\n\n  <br><br>\n  In the next block, you will complete another 90 rounds of this game.\n\n  <br><br>\n  <div style='text-align: center;'>Press <code>space</code> to begin.</div>\n  <br><br>\n<div style='text-align: center;'>(If the experiment doesn't continue, try clicking on the text and then pressing <code>space</code>.)</div>", "response": " ", "trial_id": "stroop_1_ready_3", "trial_type": "html-keyboard-response", "trial_index": 185, "time_elapsed": 319722, "internal_node_id": "0.0-7.0"}}, {"uniqueid": "w77444242:a37297681", "current_trial": 186, "dateTime": 1664555309144, "trialdata": {"rt": 830, "stimulus": "<p id='stroop-text' class='stroop-red'>RED</p>", "response": "r", "stimulus-type": "congruent", "word": "red", "color": "red", "correct_response": "r", "trial_id": "stroop-trial-1-congruent-4", "trial_type": "html-keyboard-response", "trial_index": 186, "time_elapsed": 320562, "internal_node_id": "0.0-8.0-0.0"}}, {"uniqueid": "w77444242:a37297681", "current_trial": 187, "dateTime": 1664555310219, "trialdata": {"rt": 564, "stimulus": "<p id='stroop-text' class='stroop-yellow'>BLUE</p>", "response": "y", "stimulus-type": "incongruent", "word": "blue", "color": "yellow", "correct_response": "y", "trial_id": "stroop-trial-1-incongruent-2", "trial_type": "html-keyboard-response", "trial_index": 187, "time_elapsed": 321637, "internal_node_id": "0.0-8.0-1.0"}}, {"uniqueid": "w77444242:a37297681", "current_trial": 188, "dateTime": 1664555311264, "trialdata": {"rt": 534, "stimulus": "<p id='stroop-text' class='stroop-green'>CHAIR</p>", "response": "g", "stimulus-type": "unrelated", "word": "CHAIR", "color": "green", "correct_response": "g", "trial_id": "stroop-trial-1-unrelated-14", "trial_type": "html-keyboard-response", "trial_index": 188, "time_elapsed": 322682, "internal_node_id": "0.0-8.0-2.0"}}, {"uniqueid": "w77444242:a37297681", "current_trial": 189, "dateTime": 1664555312234, "trialdata": {"rt": 445, "stimulus": "<p id='stroop-text' class='stroop-yellow'>DOG</p>", "response": "y", "stimulus-type": "unrelated", "word": "DOG", "color": "yellow", "correct_response": "y", "trial_id": "stroop-trial-1-unrelated-28", "trial_type": "html-keyboard-response", "trial_index": 189, "time_elapsed": 323652, "internal_node_id": "0.0-8.0-3.0"}}, {"uniqueid": "w77444242:a37297681", "current_trial": 190, "dateTime": 1664555313825, "trialdata": {"rt": 1077, "stimulus": "<p id='stroop-text' class='stroop-blue'>RED</p>", "response": "b", "stimulus-type": "incongruent", "word": "red", "color": "blue", "correct_response": "b", "trial_id": "stroop-trial-1-incongruent-7", "trial_type": "html-keyboard-response", "trial_index": 190, "time_elapsed": 325243, "internal_node_id": "0.0-8.0-4.0"}}, {"uniqueid": "w77444242:a37297681", "current_trial": 191, "dateTime": 1664555314962, "trialdata": {"rt": 609, "stimulus": "<p id='stroop-text' class='stroop-yellow'>BLUE</p>", "response": "y", "stimulus-type": "incongruent", "word": "blue", "color": "yellow", "correct_response": "y", "trial_id": "stroop-trial-1-incongruent-10", "trial_type": "html-keyboard-response", "trial_index": 191, "time_elapsed": 326380, "internal_node_id": "0.0-8.0-5.0"}}, {"uniqueid": "w77444242:a37297681", "current_trial": 192, "dateTime": 1664555315989, "trialdata": {"rt": 511, "stimulus": "<p id='stroop-text' class='stroop-green'>GREEN</p>", "response": "g", "stimulus-type": "congruent", "word": "green", "color": "green", "correct_response": "g", "trial_id": "stroop-trial-1-congruent-9", "trial_type": "html-keyboard-response", "trial_index": 192, "time_elapsed": 327407, "internal_node_id": "0.0-8.0-6.0"}}, {"uniqueid": "w77444242:a37297681", "current_trial": 193, "dateTime": 1664555317055, "trialdata": {"rt": 552, "stimulus": "<p id='stroop-text' class='stroop-red'>RED</p>", "response": "r", "stimulus-type": "congruent", "word": "red", "color": "red", "correct_response": "r", "trial_id": "stroop-trial-1-congruent-25", "trial_type": "html-keyboard-response", "trial_index": 193, "time_elapsed": 328473, "internal_node_id": "0.0-8.0-7.0"}}, {"uniqueid": "w77444242:a37297681", "current_trial": 194, "dateTime": 1664555318497, "trialdata": {"rt": 925, "stimulus": "<p id='stroop-text' class='stroop-green'>BRIDGE</p>", "response": "g", "stimulus-type": "unrelated", "word": "BRIDGE", "color": "green", "correct_response": "g", "trial_id": "stroop-trial-1-unrelated-3", "trial_type": "html-keyboard-response", "trial_index": 194, "time_elapsed": 329914, "internal_node_id": "0.0-8.0-8.0"}}, {"uniqueid": "w77444242:a37297681", "current_trial": 195, "dateTime": 1664555319566, "trialdata": {"rt": 551, "stimulus": "<p id='stroop-text' class='stroop-red'>BOAT</p>", "response": "r", "stimulus-type": "unrelated", "word": "BOAT", "color": "red", "correct_response": "r", "trial_id": "stroop-trial-1-unrelated-30", "trial_type": "html-keyboard-response", "trial_index": 195, "time_elapsed": 330984, "internal_node_id": "0.0-8.0-9.0"}}, {"uniqueid": "w77444242:a37297681", "current_trial": 196, "dateTime": 1664555320654, "trialdata": {"rt": 573, "stimulus": "<p id='stroop-text' class='stroop-red'>RED</p>", "response": "r", "stimulus-type": "congruent", "word": "red", "color": "red", "correct_response": "r", "trial_id": "stroop-trial-1-congruent-12", "trial_type": "html-keyboard-response", "trial_index": 196, "time_elapsed": 332072, "internal_node_id": "0.0-8.0-10.0"}}, {"uniqueid": "w77444242:a37297681", "current_trial": 197, "dateTime": 1664555321631, "trialdata": {"rt": 461, "stimulus": "<p id='stroop-text' class='stroop-blue'>WINDOW</p>", "response": "b", "stimulus-type": "unrelated", "word": "WINDOW", "color": "blue", "correct_response": "b", "trial_id": "stroop-trial-1-unrelated-16", "trial_type": "html-keyboard-response", "trial_index": 197, "time_elapsed": 333048, "internal_node_id": "0.0-8.0-11.0"}}, {"uniqueid": "w77444242:a37297681", "current_trial": 198, "dateTime": 1664555322724, "trialdata": {"rt": 581, "stimulus": "<p id='stroop-text' class='stroop-red'>SHIP</p>", "response": "r", "stimulus-type": "unrelated", "word": "SHIP", "color": "red", "correct_response": "r", "trial_id": "stroop-trial-1-unrelated-22", "trial_type": "html-keyboard-response", "trial_index": 198, "time_elapsed": 334142, "internal_node_id": "0.0-8.0-12.0"}}, {"uniqueid": "w77444242:a37297681", "current_trial": 199, "dateTime": 1664555323685, "trialdata": {"rt": 444, "stimulus": "<p id='stroop-text' class='stroop-yellow'>BOAT</p>", "response": "y", "stimulus-type": "unrelated", "word": "BOAT", "color": "yellow", "correct_response": "y", "trial_id": "stroop-trial-1-unrelated-29", "trial_type": "html-keyboard-response", "trial_index": 199, "time_elapsed": 335103, "internal_node_id": "0.0-8.0-13.0"}}, {"uniqueid": "w77444242:a37297681", "current_trial": 200, "dateTime": 1664555324696, "trialdata": {"rt": 488, "stimulus": "<p id='stroop-text' class='stroop-green'>GREEN</p>", "response": "g", "stimulus-type": "congruent", "word": "green", "color": "green", "correct_response": "g", "trial_id": "stroop-trial-1-congruent-10", "trial_type": "html-keyboard-response", "trial_index": 200, "time_elapsed": 336113, "internal_node_id": "0.0-8.0-14.0"}}, {"uniqueid": "w77444242:a37297681", "current_trial": 201, "dateTime": 1664555325579, "trialdata": {"rt": 361, "stimulus": "<p id='stroop-text' class='stroop-blue'>BLUE</p>", "response": "b", "stimulus-type": "congruent", "word": "blue", "color": "blue", "correct_response": "b", "trial_id": "stroop-trial-1-congruent-6", "trial_type": "html-keyboard-response", "trial_index": 201, "time_elapsed": 336997, "internal_node_id": "0.0-8.0-15.0"}}, {"uniqueid": "w77444242:a37297681", "current_trial": 202, "dateTime": 1664555326621, "trialdata": {"rt": 519, "stimulus": "<p id='stroop-text' class='stroop-red'>BLUE</p>", "response": "r", "stimulus-type": "incongruent", "word": "blue", "color": "red", "correct_response": "r", "trial_id": "stroop-trial-1-incongruent-8", "trial_type": "html-keyboard-response", "trial_index": 202, "time_elapsed": 338038, "internal_node_id": "0.0-8.0-16.0"}}, {"uniqueid": "w77444242:a37297681", "current_trial": 203, "dateTime": 1664555328801, "trialdata": {"rt": 1663, "stimulus": "<p id='stroop-text' class='stroop-green'>BLUE</p>", "response": "g", "stimulus-type": "incongruent", "word": "blue", "color": "green", "correct_response": "g", "trial_id": "stroop-trial-1-incongruent-5", "trial_type": "html-keyboard-response", "trial_index": 203, "time_elapsed": 340218, "internal_node_id": "0.0-8.0-17.0"}}, {"uniqueid": "w77444242:a37297681", "current_trial": 204, "dateTime": 1664555329809, "trialdata": {"rt": 490, "stimulus": "<p id='stroop-text' class='stroop-yellow'>WINDOW</p>", "response": "y", "stimulus-type": "unrelated", "word": "WINDOW", "color": "yellow", "correct_response": "y", "trial_id": "stroop-trial-1-unrelated-2", "trial_type": "html-keyboard-response", "trial_index": 204, "time_elapsed": 341227, "internal_node_id": "0.0-8.0-18.0"}}, {"uniqueid": "w77444242:a37297681", "current_trial": 205, "dateTime": 1664555330924, "trialdata": {"rt": 601, "stimulus": "<p id='stroop-text' class='stroop-yellow'>GREEN</p>", "response": "y", "stimulus-type": "incongruent", "word": "green", "color": "yellow", "correct_response": "y", "trial_id": "stroop-trial-1-incongruent-25", "trial_type": "html-keyboard-response", "trial_index": 205, "time_elapsed": 342342, "internal_node_id": "0.0-8.0-19.0"}}, {"uniqueid": "w77444242:a37297681", "current_trial": 206, "dateTime": 1664555332169, "trialdata": {"rt": 731, "stimulus": "<p id='stroop-text' class='stroop-blue'>GREEN</p>", "response": "b", "stimulus-type": "incongruent", "word": "green", "color": "blue", "correct_response": "b", "trial_id": "stroop-trial-1-incongruent-30", "trial_type": "html-keyboard-response", "trial_index": 206, "time_elapsed": 343587, "internal_node_id": "0.0-8.0-20.0"}}, {"uniqueid": "w77444242:a37297681", "current_trial": 207, "dateTime": 1664555333212, "trialdata": {"rt": 533, "stimulus": "<p id='stroop-text' class='stroop-green'>CHAIR</p>", "response": "g", "stimulus-type": "unrelated", "word": "CHAIR", "color": "green", "correct_response": "g", "trial_id": "stroop-trial-1-unrelated-6", "trial_type": "html-keyboard-response", "trial_index": 207, "time_elapsed": 344630, "internal_node_id": "0.0-8.0-21.0"}}, {"uniqueid": "w77444242:a37297681", "current_trial": 208, "dateTime": 1664555334273, "trialdata": {"rt": 547, "stimulus": "<p id='stroop-text' class='stroop-blue'>BLUE</p>", "response": "b", "stimulus-type": "congruent", "word": "blue", "color": "blue", "correct_response": "b", "trial_id": "stroop-trial-1-congruent-24", "trial_type": "html-keyboard-response", "trial_index": 208, "time_elapsed": 345691, "internal_node_id": "0.0-8.0-22.0"}}, {"uniqueid": "w77444242:a37297681", "current_trial": 209, "dateTime": 1664555335312, "trialdata": {"rt": 528, "stimulus": "<p id='stroop-text' class='stroop-green'>GREEN</p>", "response": "g", "stimulus-type": "congruent", "word": "green", "color": "green", "correct_response": "g", "trial_id": "stroop-trial-1-congruent-16", "trial_type": "html-keyboard-response", "trial_index": 209, "time_elapsed": 346730, "internal_node_id": "0.0-8.0-23.0"}}, {"uniqueid": "w77444242:a37297681", "current_trial": 210, "dateTime": 1664555336358, "trialdata": {"rt": 530, "stimulus": "<p id='stroop-text' class='stroop-red'>BRAIN</p>", "response": "r", "stimulus-type": "unrelated", "word": "BRAIN", "color": "red", "correct_response": "r", "trial_id": "stroop-trial-1-unrelated-18", "trial_type": "html-keyboard-response", "trial_index": 210, "time_elapsed": 347776, "internal_node_id": "0.0-8.0-24.0"}}, {"uniqueid": "w77444242:a37297681", "current_trial": 211, "dateTime": 1664555338308, "trialdata": {"rt": 1433, "stimulus": "<p id='stroop-text' class='stroop-yellow'>RED</p>", "response": "y", "stimulus-type": "incongruent", "word": "red", "color": "yellow", "correct_response": "y", "trial_id": "stroop-trial-1-incongruent-24", "trial_type": "html-keyboard-response", "trial_index": 211, "time_elapsed": 349726, "internal_node_id": "0.0-8.0-25.0"}}, {"uniqueid": "w77444242:a37297681", "current_trial": 212, "dateTime": 1664555339549, "trialdata": {"rt": 728, "stimulus": "<p id='stroop-text' class='stroop-blue'>RED</p>", "response": "b", "stimulus-type": "incongruent", "word": "red", "color": "blue", "correct_response": "b", "trial_id": "stroop-trial-1-incongruent-28", "trial_type": "html-keyboard-response", "trial_index": 212, "time_elapsed": 350967, "internal_node_id": "0.0-8.0-26.0"}}, {"uniqueid": "w77444242:a37297681", "current_trial": 213, "dateTime": 1664555340549, "trialdata": {"rt": 483, "stimulus": "<p id='stroop-text' class='stroop-green'>BRIDGE</p>", "response": "g", "stimulus-type": "unrelated", "word": "BRIDGE", "color": "green", "correct_response": "g", "trial_id": "stroop-trial-1-unrelated-21", "trial_type": "html-keyboard-response", "trial_index": 213, "time_elapsed": 351967, "internal_node_id": "0.0-8.0-27.0"}}, {"uniqueid": "w77444242:a37297681", "current_trial": 214, "dateTime": 1664555341469, "trialdata": {"rt": 401, "stimulus": "<p id='stroop-text' class='stroop-green'>YELLOW</p>", "response": "g", "stimulus-type": "incongruent", "word": "yellow", "color": "green", "correct_response": "g", "trial_id": "stroop-trial-1-incongruent-22", "trial_type": "html-keyboard-response", "trial_index": 214, "time_elapsed": 352886, "internal_node_id": "0.0-8.0-28.0"}}, {"uniqueid": "w77444242:a37297681", "current_trial": 215, "dateTime": 1664555342353, "trialdata": {"rt": 367, "stimulus": "<p id='stroop-text' class='stroop-red'>BRAIN</p>", "response": "r", "stimulus-type": "unrelated", "word": "BRAIN", "color": "red", "correct_response": "r", "trial_id": "stroop-trial-1-unrelated-24", "trial_type": "html-keyboard-response", "trial_index": 215, "time_elapsed": 353771, "internal_node_id": "0.0-8.0-29.0"}}, {"uniqueid": "w77444242:a37297681", "current_trial": 216, "dateTime": 1664555343169, "trialdata": {"rt": 296, "stimulus": "<p id='stroop-text' class='stroop-red'>STONE</p>", "response": "r", "stimulus-type": "unrelated", "word": "STONE", "color": "red", "correct_response": "r", "trial_id": "stroop-trial-1-unrelated-23", "trial_type": "html-keyboard-response", "trial_index": 216, "time_elapsed": 354586, "internal_node_id": "0.0-8.0-30.0"}}, {"uniqueid": "w77444242:a37297681", "current_trial": 217, "dateTime": 1664555344039, "trialdata": {"rt": 341, "stimulus": "<p id='stroop-text' class='stroop-blue'>BLUE</p>", "response": "b", "stimulus-type": "congruent", "word": "blue", "color": "blue", "correct_response": "b", "trial_id": "stroop-trial-1-congruent-8", "trial_type": "html-keyboard-response", "trial_index": 217, "time_elapsed": 355457, "internal_node_id": "0.0-8.0-31.0"}}, {"uniqueid": "w77444242:a37297681", "current_trial": 218, "dateTime": 1664555344908, "trialdata": {"rt": 352, "stimulus": "<p id='stroop-text' class='stroop-yellow'>YELLOW</p>", "response": "y", "stimulus-type": "congruent", "word": "yellow", "color": "yellow", "correct_response": "y", "trial_id": "stroop-trial-1-congruent-1", "trial_type": "html-keyboard-response", "trial_index": 218, "time_elapsed": 356326, "internal_node_id": "0.0-8.0-32.0"}}, {"uniqueid": "w77444242:a37297681", "current_trial": 219, "dateTime": 1664555345782, "trialdata": {"rt": 363, "stimulus": "<p id='stroop-text' class='stroop-blue'>YELLOW</p>", "response": "y", "stimulus-type": "incongruent", "word": "yellow", "color": "blue", "correct_response": "b", "trial_id": "stroop-trial-1-incongruent-16", "trial_type": "html-keyboard-response", "trial_index": 219, "time_elapsed": 357201, "internal_node_id": "0.0-8.0-33.0"}}, {"uniqueid": "w77444242:a37297681", "current_trial": 220, "dateTime": 1664555347478, "trialdata": {"rt": 1177, "stimulus": "<p id='stroop-text' class='stroop-green'>GREEN</p>", "response": "g", "stimulus-type": "congruent", "word": "green", "color": "green", "correct_response": "g", "trial_id": "stroop-trial-1-congruent-2", "trial_type": "html-keyboard-response", "trial_index": 220, "time_elapsed": 358896, "internal_node_id": "0.0-8.0-34.0"}}, {"uniqueid": "w77444242:a37297681", "current_trial": 221, "dateTime": 1664555348538, "trialdata": {"rt": 544, "stimulus": "<p id='stroop-text' class='stroop-blue'>BLUE</p>", "response": "b", "stimulus-type": "congruent", "word": "blue", "color": "blue", "correct_response": "b", "trial_id": "stroop-trial-1-congruent-23", "trial_type": "html-keyboard-response", "trial_index": 221, "time_elapsed": 359956, "internal_node_id": "0.0-8.0-35.0"}}, {"uniqueid": "w77444242:a37297681", "current_trial": 222, "dateTime": 1664555349928, "trialdata": {"rt": 878, "stimulus": "<p id='stroop-text' class='stroop-green'>YELLOW</p>", "response": "g", "stimulus-type": "incongruent", "word": "yellow", "color": "green", "correct_response": "g", "trial_id": "stroop-trial-1-incongruent-27", "trial_type": "html-keyboard-response", "trial_index": 222, "time_elapsed": 36134