{"condition": 1, "counterbalance": 0, "assignmentId": "a41144932", "workerId": "w74988108", "hitId": "h66335327", "currenttrial": 137, "bonus": 0, "data": [{"uniqueid": "w74988108:a41144932", "current_trial": 0, "dateTime": 1664464108679, "trialdata": {"success": true, "trial_type": "fullscreen", "trial_index": 0, "time_elapsed": 9332, "internal_node_id": "0.0-0.0"}}, {"uniqueid": "w74988108:a41144932", "current_trial": 1, "dateTime": 1664464148890, "trialdata": {"view_history": [{"page_index": 0, "viewing_time": 40189}], "rt": 40190, "trial_id": "exp_instructions_no_distractor", "trial_type": "instructions", "trial_index": 1, "time_elapsed": 49542, "internal_node_id": "0.0-1.0"}}, {"uniqueid": "w74988108:a41144932", "current_trial": 2, "dateTime": 1664464154977, "trialdata": {"success": true, "trial_type": "fullscreen", "trial_index": 2, "time_elapsed": 55629, "internal_node_id": "0.0-2.0-0.0"}}, {"uniqueid": "w74988108:a41144932", "current_trial": 3, "dateTime": 1664464459471, "trialdata": {"view_history": [{"page_index": 0, "viewing_time": 130737}, {"page_index": 1, "viewing_time": 78829}, {"page_index": 2, "viewing_time": 26149}, {"page_index": 3, "viewing_time": 15983}, {"page_index": 4, "viewing_time": 52778}], "rt": 304476, "trial_id": "mouselab_instructions_1", "trial_type": "instructions", "trial_index": 3, "time_elapsed": 360123, "internal_node_id": "0.0-2.0-1.0"}}, {"uniqueid": "w74988108:a41144932", "current_trial": 4, "dateTime": 1664464485500, "trialdata": {"revealed_states": [], "num_clicks_accrued": [0, 0, 0, 0, 0, 0, 0, 0, 0, 0, 0, 0, 0], "stateRewards": ["", 10, 10, 10, 10, -10, -10, -10, -10, -10, 10, -10, -10], "withholdReward": false, "trial_id": "practice_1", "block": "test", "trialIndex": 0, "score": -28, "costs": 0, "simulationMode": [null, null, null], "rewards": [-10, -10, -10], "path": ["0", "0", "5", "6", "7"], "rt": [1150, 3008, 847], "actions": ["right", "right", "up"], "actionTimes": [3945, 7479, 8848], "queries": {"click": {"state": {"target": [], "time": []}, "edge": {"target": [], "time": []}}, "mouseover": {"state": {"target": [], "time": []}, "edge": {"target": [], "time": []}}, "mouseout": {"state": {"target": ["5"], "time": [1109]}, "edge": {"target": [], "time": []}}}, "displayed_time": "9.37", "trialTime": 19119, "trial_type": "mouselab-mdp", "trial_index": 4, "time_elapsed": 386153, "internal_node_id": "0.0-2.0-2.0-0.0"}}, {"uniqueid": "w74988108:a41144932", "current_trial": 5, "dateTime": 1664464503138, "trialdata": {"revealed_states": [], "num_clicks_accrued": [0, 0, 0, 0, 0, 0, 0, 0, 0, 0, 0, 0, 0], "stateRewards": ["", -10, -10, -10, 10, -10, 10, 10, 10, 10, 10, -10, -10], "withholdReward": false, "trial_id": "practice_2", "block": "test", "trialIndex": 1, "score": -28, "costs": 0, "simulationMode": [null, null, null], "rewards": [-10, -10, -10], "path": ["0", "0", "1", "2", "3"], "rt": [4467, 973, 1604], "actions": ["up", "up", "right"], "actionTimes": [8954, 10464, 12595], "queries": {"click": {"state": {"target": [], "time": []}, "edge": {"target": [], "time": []}}, "mouseover": {"state": {"target": [], "time": []}, "edge": {"target": [], "time": []}}, "mouseout": {"state": {"target": ["0"], "time": [4383]}, "edge": {"target": [], "time": []}}}, "displayed_time": "13.11", "trialTime": 17430, "trial_type": "mouselab-mdp", "trial_index": 5, "time_elapsed": 403791, "internal_node_id": "0.0-2.0-2.0-1.0"}}, {"uniqueid": "w74988108:a41144932", "current_trial": 6, "dateTime": 1664464638094, "trialdata": {"view_history": [{"page_index": 0, "viewing_time": 60969}, {"page_index": 1, "viewing_time": 47903}, {"page_index": 2, "viewing_time": 26075}], "rt": 134948, "trial_id": "mouselab_instructions_2_scarce", "trial_type": "instructions", "trial_index": 6, "time_elapsed": 538747, "internal_node_id": "0.0-2.0-3.0"}}, {"uniqueid": "w74988108:a41144932", "current_trial": 7, "dateTime": 1664464713065, "trialdata": {"rt": 74935, "response": {"Q0": "$-48 to $48", "Q1": "The cost is always $0.25.", "Q2": "The better I perform the higher my bonus will be.", "Q3": "No, the amount of cash at each node of the web may be different each time.", "Q4": "The values of the nodes walked through from start to finish.", "Q5": "No, the spider might forget to count the money on some rounds."}, "question_order": [0, 1, 2, 3, 4, 5], "correct": {"Q0": "$-48 to $48", "Q1": "The cost is always $0.25.", "Q2": "The better I perform the higher my bonus will be.", "Q3": "No, the amount of cash at each node of the web may be different each time.", "Q4": "The values of the nodes walked through from start to finish.", "Q5": "No, the spider might forget to count the money on some rounds."}, "trial_id": "mouselab_quiz_scarce", "trial_type": "survey-multi-choice", "trial_index": 7, "time_elapsed": 613718, "internal_node_id": "0.0-2.0-4.0"}}, {"uniqueid": "w74988108:a41144932", "current_trial": 8, "dateTime": 1664464748748, "trialdata": {"rt": 35663, "stimulus": "\n<h1> Get ready to start the game! </h1>\n\nThank you for reading the instructions. Get ready start with the first of 4 block(s) of this game.\n<br><br>\nIn this first block, you will complete 30 rounds of this game before moving on.\n<br><br>\nRemember, the more money the spider gets, the bigger your bonus will be!\n<br><br>\n<div style='text-align: center;'>Press <code>space</code> to begin.</div>\n\n<br><br>\n(If, at any point, the <code>space</code> key does not take you to the next page, click once on the text and try again.)", "response": " ", "trial_id": "mdp_ready_1", "trial_type": "html-keyboard-response", "trial_index": 8, "time_elapsed": 649401, "internal_node_id": "0.0-4.0-0.0"}}, {"uniqueid": "w74988108:a41144932", "current_trial": 9, "dateTime": 1664464771277, "trialdata": {"revealed_states": [], "num_clicks_accrued": [0, 0, 0, 0, 0, 0, 0, 0, 0, 0, 0, 0, 0], "stateRewards": ["", -2, 8, -48, 48, -4, 8, -24, 24, 4, -4, 24, -48], "withholdReward": false, "trial_id": "mdp_904238083902", "block": "test1", "trialIndex": 2, "score": -15, "costs": 0, "simulationMode": [null, null, null], "rewards": [-4, 8, -24], "path": ["0", "0", "5", "6", "7"], "rt": [4731, 889, 1027], "actions": ["right", "right", "up"], "actionTimes": [12342, 13749, 15306], "queries": {"click": {"state": {"target": [], "time": []}, "edge": {"target": [], "time": []}}, "mouseover": {"state": {"target": [], "time": []}, "edge": {"target": [], "time": []}}, "mouseout": {"state": {"target": [], "time": []}, "edge": {"target": [], "time": []}}}, "displayed_time": "16.74", "trialTime": 22269, "trial_type": "mouselab-mdp", "trial_index": 9, "time_elapsed": 671929, "internal_node_id": "0.0-4.0-1.0-0.0"}}, {"uniqueid": "w74988108:a41144932", "current_trial": 10, "dateTime": 1664464789581, "trialdata": {"revealed_states": [], "num_clicks_accrued": [0, 0, 0, 0, 0, 0, 0, 0, 0, 0, 0, 0, 0], "stateRewards": ["", 4, -8, 24, 48, -2, -4, -48, 24, 2, 4, -48, -24], "withholdReward": true, "trial_id": "mdp_749974461966", "block": "test1", "trialIndex": 3, "score": 49, "costs": 0, "simulationMode": [null, null, null], "rewards": [4, -8, 48], "path": ["0", "0", "1", "2", "4"], "rt": [1986, 887, 2061], "actions": ["up", "up", "left"], "actionTimes": [5920, 7318, 9901], "queries": {"click": {"state": {"target": [], "time": []}, "edge": {"target": [], "time": []}}, "mouseover": {"state": {"target": [], "time": []}, "edge": {"target": [], "time": []}}, "mouseout": {"state": {"target": [], "time": []}, "edge": {"target": [], "time": []}}}, "displayed_time": "13.13", "trialTime": 18146, "trial_type": "mouselab-mdp", "trial_index": 10, "time_elapsed": 690233, "internal_node_id": "0.0-4.0-1.0-1.0"}}, {"uniqueid": "w74988108:a41144932", "current_trial": 11, "dateTime": 1664464804655, "trialdata": {"revealed_states": [], "num_clicks_accrued": [0, 0, 0, 0, 0, 0, 0, 0, 0, 0, 0, 0, 0], "stateRewards": ["", 2, 8, 48, 24, -4, 4, -48, 24, 2, 8, 48, 48], "withholdReward": true, "trial_id": "mdp_367344599162", "block": "test1", "trialIndex": 4, "score": 63, "costs": 0, "simulationMode": [null, null, null], "rewards": [2, 8, 48], "path": ["0", "0", "1", "2", "3"], "rt": [1772, 392, 490], "actions": ["up", "up", "right"], "actionTimes": [4116, 5032, 6061], "queries": {"click": {"state": {"target": [], "time": []}, "edge": {"target": [], "time": []}}, "mouseover": {"state": {"target": [], "time": []}, "edge": {"target": [], "time": []}}, "mouseout": {"state": {"target": [], "time": []}, "edge": {"target": [], "time": []}}}, "displayed_time": "12.49", "trialTime": 14925, "trial_type": "mouselab-mdp", "trial_index": 11, "time_elapsed": 705308, "internal_node_id": "0.0-4.0-1.0-2.0"}}, {"uniqueid": "w74988108:a41144932", "current_trial": 12, "dateTime": 1664464818275, "trialdata": {"revealed_states": [], "num_clicks_accrued": [0, 0, 0, 0, 0, 0, 0, 0, 0, 0, 0, 0, 0], "stateRewards": ["", 4, 4, 48, -24, -4, -8, 24, -24, 2, -8, -24, 24], "withholdReward": true, "trial_id": "mdp_933201675789", "block": "test1", "trialIndex": 5, "score": -25, "costs": 0, "simulationMode": [null, null, null], "rewards": [2, -8, -24], "path": ["0", "0", "9", "10", "11"], "rt": [2546, 2125, 1277], "actions": ["left", "left", "up"], "actionTimes": [4265, 6927, 8722], "queries": {"click": {"state": {"target": [], "time": []}, "edge": {"target": [], "time": []}}, "mouseover": {"state": {"target": [], "time": []}, "edge": {"target": [], "time": []}}, "mouseout": {"state": {"target": [], "time": []}, "edge": {"target": [], "time": []}}}, "displayed_time": "10.84", "trialTime": 13458, "trial_type": "mouselab-mdp", "trial_index": 12, "time_elapsed": 718927, "internal_node_id": "0.0-4.0-1.0-3.0"}}, {"uniqueid": "w74988108:a41144932", "current_trial": 13, "dateTime": 1664464830321, "trialdata": {"revealed_states": [], "num_clicks_accrued": [0, 0, 0, 0, 0, 0, 0, 0, 0, 0, 0, 0, 0], "stateRewards": ["", -4, 4, -24, 24, -2, -4, 48, 24, 2, 8, -48, 24], "withholdReward": true, "trial_id": "mdp_150340189492", "block": "test1", "trialIndex": 6, "score": 23, "costs": 0, "simulationMode": [null, null, null], "rewards": [-2, -4, 24], "path": ["0", "0", "5", "6", "8"], "rt": [3038, 956, 832], "actions": ["right", "right", "down"], "actionTimes": [4653, 6126, 7481], "queries": {"click": {"state": {"target": [], "time": []}, "edge": {"target": [], "time": []}}, "mouseover": {"state": {"target": [], "time": []}, "edge": {"target": [], "time": []}}, "mouseout": {"state": {"target": [], "time": []}, "edge": {"target": [], "time": []}}}, "displayed_time": "9.72", "trialTime": 11869, "trial_type": "mouselab-mdp", "trial_index": 13, "time_elapsed": 730974, "internal_node_id": "0.0-4.0-1.0-4.0"}}, {"uniqueid": "w74988108:a41144932", "current_trial": 14, "dateTime": 1664464842366, "trialdata": {"revealed_states": [], "num_clicks_accrued": [0, 0, 0, 0, 0, 0, 0, 0, 0, 0, 0, 0, 0], "stateRewards": ["", -2, -8, 48, -24, 2, -4, -48, -24, -2, -4, -48, 48], "withholdReward": true, "trial_id": "mdp_143798438087", "block": "test1", "trialIndex": 7, "score": -45, "costs": 0, "simulationMode": [null, null, null], "rewards": [2, -4, -48], "path": ["0", "0", "5", "6", "7"], "rt": [2669, 847, 733], "actions": ["right", "right", "up"], "actionTimes": [4485, 5873, 7126], "queries": {"click": {"state": {"target": [], "time": []}, "edge": {"target": [], "time": []}}, "mouseover": {"state": {"target": [], "time": []}, "edge": {"target": [], "time": []}}, "mouseout": {"state": {"target": [], "time": []}, "edge": {"target": [], "time": []}}}, "displayed_time": "9.88", "trialTime": 11839, "trial_type": "mouselab-mdp", "trial_index": 14, "time_elapsed": 743018, "internal_node_id": "0.0-4.0-1.0-5.0"}}, {"uniqueid": "w74988108:a41144932", "current_trial": 15, "dateTime": 1664464853116, "trialdata": {"revealed_states": [], "num_clicks_accrued": [0, 0, 0, 0, 0, 0, 0, 0, 0, 0, 0, 0, 0], "stateRewards": ["", -4, -8, -48, 48, -2, 8, 48, 48, -2, -4, -48, -48], "withholdReward": true, "trial_id": "mdp_752833580638", "block": "test1", "trialIndex": 8, "score": -49, "costs": 0, "simulationMode": [null, null, null], "rewards": [-2, -4, -48], "path": ["0", "0", "9", "10", "12"], "rt": [4037, 547, 846], "actions": ["left", "left", "down"], "actionTimes": [5648, 6717, 8098], "queries": {"click": {"state": {"target": [], "time": []}, "edge": {"target": [], "time": []}}, "mouseover": {"state": {"target": [], "time": []}, "edge": {"target": [], "time": []}}, "mouseout": {"state": {"target": [], "time": []}, "edge": {"target": [], "time": []}}}, "displayed_time": "8.65", "trialTime": 10350, "trial_type": "mouselab-mdp", "trial_index": 15, "time_elapsed": 753768, "internal_node_id": "0.0-4.0-1.0-6.0"}}, {"uniqueid": "w74988108:a41144932", "current_trial": 16, "dateTime": 1664464864435, "trialdata": {"revealed_states": [], "num_clicks_accrued": [0, 0, 0, 0, 0, 0, 0, 0, 0, 0, 0, 0, 0], "stateRewards": ["", 2, 4, 48, 24, -2, -8, 24, 24, -2, 4, -48, 24], "withholdReward": true, "trial_id": "mdp_130849500124", "block": "test1", "trialIndex": 9, "score": 59, "costs": 0, "simulationMode": [null, null, null], "rewards": [2, 4, 48], "path": ["0", "0", "1", "2", "3"], "rt": [1394, 221, 546], "actions": ["up", "up", "right"], "actionTimes": [3045, 3788, 4850], "queries": {"click": {"state": {"target": [], "time": []}, "edge": {"target": [], "time": []}}, "mouseover": {"state": {"target": [], "time": []}, "edge": {"target": [], "time": []}}, "mouseout": {"state": {"target": [], "time": []}, "edge": {"target": [], "time": []}}}, "displayed_time": "8.72", "trialTime": 11150, "trial_type": "mouselab-mdp", "trial_index": 16, "time_elapsed": 765088, "internal_node_id": "0.0-4.0-1.0-7.0"}}, {"uniqueid": "w74988108:a41144932", "current_trial": 17, "dateTime": 1664464881122, "trialdata": {"revealed_states": [], "num_clicks_accrued": [0, 0, 0, 0, 0, 0, 0, 0, 0, 0, 0, 0, 0], "stateRewards": ["", -2, -4, -24, 48, -4, 8, 48, 48, 2, 8, -48, -24], "withholdReward": true, "trial_id": "mdp_136376573354", "block": "test1", "trialIndex": 10, "score": -33, "costs": 0, "simulationMode": [null, null, null], "rewards": [2, 8, -48], "path": ["0", "0", "9", "10", "11"], "rt": [3009, 2542, 2502], "actions": ["left", "left", "up"], "actionTimes": [7579, 10640, 13657], "queries": {"click": {"state": {"target": [], "time": []}, "edge": {"target": [], "time": []}}, "mouseover": {"state": {"target": [], "time": []}, "edge": {"target": [], "time": []}}, "mouseout": {"state": {"target": [], "time": []}, "edge": {"target": [], "time": []}}}, "displayed_time": "14.77", "trialTime": 16526, "trial_type": "mouselab-mdp", "trial_index": 17, "time_elapsed": 781775, "internal_node_id": "0.0-4.0-1.0-8.0"}}, {"uniqueid": "w74988108:a41144932", "current_trial": 18, "dateTime": 1664464895222, "trialdata": {"revealed_states": [], "num_clicks_accrued": [0, 0, 0, 0, 0, 0, 0, 0, 0, 0, 0, 0, 0], "stateRewards": ["", -4, -4, -24, -24, -2, 4, 48, -24, -2, -4, -24, 48], "withholdReward": false, "trial_id": "mdp_855903341564", "block": "test1", "trialIndex": 11, "score": 55, "costs": 0, "simulationMode": [null, null, null], "rewards": [-2, 4, 48], "path": ["0", "0", "5", "6", "7"], "rt": [4451, 1343, 1306], "actions": ["right", "right", "up"], "actionTimes": [5728, 7599, 9420], "queries": {"click": {"state": {"target": [], "time": []}, "edge": {"target": [], "time": []}}, "mouseover": {"state": {"target": [], "time": []}, "edge": {"target": [], "time": []}}, "mouseout": {"state": {"target": [], "time": []}, "edge": {"target": [], "time": []}}}, "displayed_time": "9.93", "trialTime": 13934, "trial_type": "mouselab-mdp", "trial_index": 18, "time_elapsed": 795872, "internal_node_id": "0.0-4.0-1.0-9.0"}}, {"uniqueid": "w74988108:a41144932", "current_trial": 19, "dateTime": 1664464907911, "trialdata": {"revealed_states": [], "num_clicks_accrued": [0, 0, 0, 0, 0, 0, 0, 0, 0, 0, 0, 0, 0], "stateRewards": ["", -2, -4, -48, -48, 4, -4, 48, 24, 4, 4, 48, 48], "withholdReward": true, "trial_id": "mdp_950960813932", "block": "test1", "trialIndex": 12, "score": -49, "costs": 0, "simulationMode": [null, null, null], "rewards": [-2, -4, -48], "path": ["0", "0", "1", "2", "4"], "rt": [1822, 1921, 1214], "actions": ["up", "up", "left"], "actionTimes": [3890, 6344, 8085], "queries": {"click": {"state": {"target": [], "time": []}, "edge": {"target": [], "time": []}}, "mouseover": {"state": {"target": [], "time": []}, "edge": {"target": [], "time": []}}, "mouseout": {"state": {"target": [], "time": []}, "edge": {"target": [], "time": []}}}, "displayed_time": "11.19", "trialTime": 12513, "trial_type": "mouselab-mdp", "trial_index": 19, "time_elapsed": 808563, "internal_node_id": "0.0-4.0-1.0-10.0"}}, {"uniqueid": "w74988108:a41144932", "current_trial": 20, "dateTime": 1664464924443, "trialdata": {"revealed_states": [], "num_clicks_accrued": [0, 0, 0, 0, 0, 0, 0, 0, 0, 0, 0, 0, 0], "stateRewards": ["", 4, 4, 48, -48, 4, 4, -48, 24, 2, 8, 24, -48], "withholdReward": true, "trial_id": "mdp_291674656283", "block": "test1", "trialIndex": 13, "score": -35, "costs": 0, "simulationMode": [null, null, null], "rewards": [4, 4, -48], "path": ["0", "0", "1", "2", "4"], "rt": [5312, 2505, 3295], "actions": ["up", "up", "left"], "actionTimes": [6906, 9935, 13751], "queries": {"click": {"state": {"target": [], "time": []}, "edge": {"target": [], "time": []}}, "mouseover": {"state": {"target": [], "time": []}, "edge": {"target": [], "time": []}}, "mouseout": {"state": {"target": [], "time": []}, "edge": {"target": [], "time": []}}}, "displayed_time": "14.29", "trialTime": 16378, "trial_type": "mouselab-mdp", "trial_index": 20, "time_elapsed": 825095, "internal_node_id": "0.0-4.0-1.0-11.0"}}, {"uniqueid": "w74988108:a41144932", "current_trial": 21, "dateTime": 1664464936694, "trialdata": {"revealed_states": [], "num_clicks_accrued": [0, 0, 0, 0, 0, 0, 0, 0, 0, 0, 0, 0, 0], "stateRewards": ["", -4, -8, -48, 24, -4, -4, -24, -48, 2, -8, -24, -48], "withholdReward": false, "trial_id": "mdp_628181832088", "block": "test1", "trialIndex": 14, "score": -55, "costs": 0, "simulationMode": [null, null, null], "rewards": [-4, -8, -48], "path": ["0", "0", "1", "2", "3"], "rt": [4168, 1073, 1051], "actions": ["up", "up", "right"], "actionTimes": [5901, 7505, 9069], "queries": {"click": {"state": {"target": [], "time": []}, "edge": {"target": [], "time": []}}, "mouseover": {"state": {"target": [], "time": []}, "edge": {"target": [], "time": []}}, "mouseout": {"state": {"target": [], "time": []}, "edge": {"target": [], "time": []}}}, "displayed_time": "9.84", "trialTime": 12089, "trial_type": "mouselab-mdp", "trial_index": 21, "time_elapsed": 837345, "internal_node_id": "0.0-4.0-1.0-12.0"}}, {"uniqueid": "w74988108:a41144932", "current_trial": 22, "dateTime": 1664464948710, "trialdata": {"revealed_states": [], "num_clicks_accrued": [0, 0, 0, 0, 0, 0, 0, 0, 0, 0, 0, 0, 0], "stateRewards": ["", 2, -4, 24, 24, 4, -4, -24, 24, -4, -4, 48, 48], "withholdReward": true, "trial_id": "mdp_566306223773", "block": "test1", "trialIndex": 15, "score": 27, "costs": 0, "simulationMode": [null, null, null], "rewards": [2, -4, 24], "path": ["0", "0", "1", "2", "4"], "rt": [1919, 2110, 2304], "actions": ["up", "up", "left"], "actionTimes": [3535, 6186, 9011], "queries": {"click": {"state": {"target": [], "time": []}, "edge": {"target": [], "time": []}}, "mouseover": {"state": {"target": [], "time": []}, "edge": {"target": [], "time": []}}, "mouseout": {"state": {"target": [], "time": []}, "edge": {"target": [], "time": []}}}, "displayed_time": "10.73", "trialTime": 11831, "trial_type": "mouselab-mdp", "trial_index": 22, "time_elapsed": 849363, "internal_node_id": "0.0-4.0-1.0-13.0"}}, {"uniqueid": "w74988108:a41144932", "current_trial": 23, "dateTime": 1664464959519, "trialdata": {"revealed_states": [], "num_clicks_accrued": [0, 0, 0, 0, 0, 0, 0, 0, 0, 0, 0, 0, 0], "stateRewards": ["", -2, -4, -24, -48, -4, -8, -48, 24, -4, -8, -24, -48], "withholdReward": true, "trial_id": "mdp_475782454549", "block": "test1", "trialIndex": 16, "score": -31, "costs": 0, "simulationMode": [null, null, null], "rewards": [-4, -8, -24], "path": ["0", "0", "9", "10", "11"], "rt": [1339, 789, 3175], "actions": ["left", "left", "up"], "actionTimes": [2808, 4122, 7823], "queries": {"click": {"state": {"target": [], "time": []}, "edge": {"target": [], "time": []}}, "mouseover": {"state": {"target": [], "time": []}, "edge": {"target": [], "time": []}}, "mouseout": {"state": {"target": [], "time": []}, "edge": {"target": [], "time": []}}}, "displayed_time": "9.57", "trialTime": 10626, "trial_type": "mouselab-mdp", "trial_index": 23, "time_elapsed": 860171, "internal_node_id": "0.0-4.0-1.0-14.0"}}, {"uniqueid": "w74988108:a41144932", "current_trial": 24, "dateTime": 1664464969266, "trialdata": {"revealed_states": [], "num_clicks_accrued": [0, 0, 0, 0, 0, 0, 0, 0, 0, 0, 0, 0, 0], "stateRewards": ["", 4, 8, 48, -48, -4, 8, -24, -24, -4, 8, 48, 48], "withholdReward": true, "trial_id": "mdp_377640328420", "block": "test1", "trialIndex": 17, "score": -15, "costs": 0, "simulationMode": [null, null, null], "rewards": [-4, 8, -24], "path": ["0", "0", "5", "6", "8"], "rt": [1229, 722, 3163], "actions": ["right", "right", "down"], "actionTimes": [2302, 3538, 7231], "queries": {"click": {"state": {"target": [], "time": []}, "edge": {"target": [], "time": []}}, "mouseover": {"state": {"target": [], "time": []}, "edge": {"target": [], "time": []}}, "mouseout": {"state": {"target": [], "time": []}, "edge": {"target": [], "time": []}}}, "displayed_time": "8.12", "trialTime": 9598, "trial_type": "mouselab-mdp", "trial_index": 24, "time_elapsed": 869919, "internal_node_id": "0.0-4.0-1.0-15.0"}}, {"uniqueid": "w74988108:a41144932", "current_trial": 25, "dateTime": 1664464980859, "trialdata": {"revealed_states": [], "num_clicks_accrued": [0, 0, 0, 0, 0, 0, 0, 0, 0, 0, 0, 0, 0], "stateRewards": ["", -4, -8, -24, 24, 4, 4, -48, -48, -4, -4, 24, -48], "withholdReward": true, "trial_id": "mdp_431592223624", "block": "test1", "trialIndex": 18, "score": -35, "costs": 0, "simulationMode": [null, null, null], "rewards": [4, 4, -48], "path": ["0", "0", "5", "6", "8"], "rt": [1554, 363, 659], "actions": ["right", "right", "down"], "actionTimes": [2820, 3696, 4877], "queries": {"click": {"state": {"target": [], "time": []}, "edge": {"target": [], "time": []}}, "mouseover": {"state": {"target": [], "time": []}, "edge": {"target": [], "time": []}}, "mouseout": {"state": {"target": [], "time": []}, "edge": {"target": [], "time": []}}}, "displayed_time": "10.39", "trialTime": 11438, "trial_type": "mouselab-mdp", "trial_index": 25, "time_elapsed": 881510, "internal_node_id": "0.0-4.0-1.0-16.0"}}, {"uniqueid": "w74988108:a41144932", "current_trial": 26, "dateTime": 1664464993783, "trialdata": {"revealed_states": [], "num_clicks_accrued": [0, 0, 0, 0, 0, 0, 0, 0, 0, 0, 0, 0, 0], "stateRewards": ["", 2, 4, -24, -48, 4, -4, 24, 48, -4, -4, -24, 48], "withholdReward": true, "trial_id": "mdp_181958792175", "block": "test1", "trialIndex": 19, "score": 29, "costs": 0, "simulationMode": [null, null, null], "rewards": [4, -4, 24], "path": ["0", "0", "5", "6", "7"], "rt": [995, 4048, 3336], "actions": ["right", "right", "up"], "actionTimes": [2390, 6966, 10821], "queries": {"click": {"state": {"target": [], "time": []}, "edge": {"target": [], "time": []}}, "mouseover": {"state": {"target": [], "time": []}, "edge": {"target": [], "time": []}}, "mouseout": {"state": {"target": [], "time": []}, "edge": {"target": [], "time": []}}}, "displayed_time": "11.35", "trialTime": 12782, "trial_type": "mouselab-mdp", "trial_index": 26, "time_elapsed": 894435, "internal_node_id": "0.0-4.0-1.0-17.0"}}, {"uniqueid": "w74988108:a41144932", "current_trial": 27, "dateTime": 1664465009069, "trialdata": {"revealed_states": [], "num_clicks_accrued": [0, 0, 0, 0, 0, 0, 0, 0, 0, 0, 0, 0, 0], "stateRewards": ["", -2, 4, -24, 48, 4, -8, 48, -48, 2, -8, 48, 24], "withholdReward": false, "trial_id": "mdp_501111216502", "block": "test1", "trialIndex": 20, "score": 55, "costs": 0, "simulationMode": [null, null, null], "rewards": [-2, 4, 48], "path": ["0", "0", "1", "2", "4"], "rt": [3658, 2805, 2516], "actions": ["up", "up", "left"], "actionTimes": [5143, 8466, 11493], "queries": {"click": {"state": {"target": [], "time": []}, "edge": {"target": [], "time": []}}, "mouseover": {"state": {"target": [], "time": []}, "edge": {"target": [], "time": []}}, "mouseout": {"state": {"target": [], "time": []}, "edge": {"target": [], "time": []}}}, "displayed_time": "12.01", "trialTime": 15110, "trial_type": "mouselab-mdp", "trial_index": 27, "time_elapsed": 909722, "internal_node_id": "0.0-4.0-1.0-18.0"}}, {"uniqueid": "w74988108:a41144932", "current_trial": 28, "dateTime": 1664465020481, "trialdata": {"revealed_states": [], "num_clicks_accrued": [0, 0, 0, 0, 0, 0, 0, 0, 0, 0, 0, 0, 0], "stateRewards": ["", -2, -8, 48, 24, 2, 4, 24, -24, -2, -4, 48, -48], "withholdReward": true, "trial_id": "mdp_411152402386", "block": "test1", "trialIndex": 21, "score": 43, "costs": 0, "simulationMode": [null, null, null], "rewards": [-2, -8, 48], "path": ["0", "0", "1", "2", "3"], "rt": [1492, 3249, 2161], "actions": ["up", "up", "right"], "actionTimes": [3090, 6853, 9548], "queries": {"click": {"state": {"target": [], "time": []}, "edge": {"target": [], "time": []}}, "mouseover": {"state": {"target": [], "time": []}, "edge": {"target": [], "time": []}}, "mouseout": {"state": {"target": [], "time": []}, "edge": {"target": [], "time": []}}}, "displayed_time": "10.07", "trialTime": 11213, "trial_type": "mouselab-mdp", "trial_index": 28, "time_elapsed": 921133, "internal_node_id": "0.0-4.0-1.0-19.0"}}, {"uniqueid": "w74988108:a41144932", "current_trial": 29, "dateTime": 1664465033582, "trialdata": {"revealed_states": [], "num_clicks_accrued": [0, 0, 0, 0, 0, 0, 0, 0, 0, 0, 0, 0, 0], "stateRewards": ["", -4, -4, -48, -24, 2, 8, 24, -48, 4, 4, 48, 48], "withholdReward": false, "trial_id": "mdp_693501840209", "block": "test1", "trialIndex": 22, "score": 61, "costs": 0, "simulationMode": [null, null, null], "rewards": [4, 4, 48], "path": ["0", "0", "9", "10", "11"], "rt": [1590, 2268, 3183], "actions": ["left", "left", "up"], "actionTimes": [2806, 5584, 9298], "queries": {"click": {"state": {"target": [], "time": []}, "edge": {"target": [], "time": []}}, "mouseover": {"state": {"target": [], "time": []}, "edge": {"target": [], "time": []}}, "mouseout": {"state": {"target": [], "time": []}, "edge": {"target": [], "time": []}}}, "displayed_time": "9.83", "trialTime": 12943, "trial_type": "mouselab-mdp", "trial_index": 29, "time_elapsed": 934234, "internal_node_id": "0.0-4.0-1.0-20.0"}}, {"uniqueid": "w74988108:a41144932", "current_trial": 30, "dateTime": 1664465048387, "trialdata": {"revealed_states": [], "num_clicks_accrued": [0, 0, 0, 0, 0, 0, 0, 0, 0, 0, 0, 0, 0], "stateRewards": ["", 4, 4, -24, -48, 2, 4, 24, -48, 2, 4, 24, 24], "withholdReward": true, "trial_id": "mdp_223558518218", "block": "test1", "trialIndex": 23, "score": -35, "costs": 0, "simulationMode": [null, null, null], "rewards": [4, 4, -48], "path": ["0", "0", "1", "2", "4"], "rt": [3055, 1954, 1841], "actions": ["up", "up", "left"], "actionTimes": [7729, 10212, 12643], "queries": {"click": {"state": {"target": [], "time": []}, "edge": {"target": [], "time": []}}, "mouseover": {"state": {"target": [], "time": []}, "edge": {"target": [], "time": []}}, "mouseout": {"state": {"target": [], "time": []}, "edge": {"target": [], "time": []}}}, "displayed_time": "13.18", "trialTime": 14649, "trial_type": "mouselab-mdp", "trial_index": 30, "time_elapsed": 949039, "internal_node_id": "0.0-4.0-1.0-21.0"}}, {"uniqueid": "w74988108:a41144932", "current_trial": 31, "dateTime": 1664465061375, "trialdata": {"revealed_states": [], "num_clicks_accrued": [0, 0, 0, 0, 0, 0, 0, 0, 0, 0, 0, 0, 0], "stateRewards": ["", -2, -8, -24, 24, -2, -8, -48, 24, -2, -8, 24, 24], "withholdReward": false, "trial_id": "mdp_336617436097", "block": "test1", "trialIndex": 24, "score": 19, "costs": 0, "simulationMode": [null, null, null], "rewards": [-2, -8, 24], "path": ["0", "0", "1", "2", "4"], "rt": [1435, 1089, 4533], "actions": ["up", "up", "left"], "actionTimes": [3158, 4774, 9830], "queries": {"click": {"state": {"target": [], "time": []}, "edge": {"target": [], "time": []}}, "mouseover": {"state": {"target": [], "time": []}, "edge": {"target": [], "time": []}}, "mouseout": {"state": {"target": [], "time": []}, "edge": {"target": [], "time": []}}}, "displayed_time": "10.35", "trialTime": 12835, "trial_type": "mouselab-mdp", "trial_index": 31, "time_elapsed": 962026, "internal_node_id": "0.0-4.0-1.0-22.0"}}, {"uniqueid": "w74988108:a41144932", "current_trial": 32, "dateTime": 1664465074397, "trialdata": {"revealed_states": [], "num_clicks_accrued": [0, 0, 0, 0, 0, 0, 0, 0, 0, 0, 0, 0, 0], "stateRewards": ["", 2, 4, -24, -24, 4, 8, -48, 48, 2, 4, -24, -48], "withholdReward": true, "trial_id": "mdp_565165082781", "block": "test1", "trialIndex": 25, "score": -13, "costs": 0, "simulationMode": [null, null, null], "rewards": [2, 4, -24], "path": ["0", "0", "1", "2", "3"], "rt": [1749, 2951, 2519], "actions": ["up", "up", "right"], "actionTimes": [4195, 7661, 10712], "queries": {"click": {"state": {"target": [], "time": []}, "edge": {"target": [], "time": []}}, "mouseover": {"state": {"target": [], "time": []}, "edge": {"target": [], "time": []}}, "mouseout": {"state": {"target": [], "time": []}, "edge": {"target": [], "time": []}}}, "displayed_time": "11.24", "trialTime": 12819, "trial_type": "mouselab-mdp", "trial_index": 32, "time_elapsed": 975050, "internal_node_id": "0.0-4.0-1.0-23.0"}}, {"uniqueid": "w74988108:a41144932", "current_trial": 33, "dateTime": 1664465085120, "trialdata": {"revealed_states": [], "num_clicks_accrued": [0, 0, 0, 0, 0, 0, 0, 0, 0, 0, 0, 0, 0], "stateRewards": ["", 2, -8, 24, -48, 2, 4, 48, -48, -2, -8, -48, 48], "withholdReward": true, "trial_id": "mdp_629420544881", "block": "test1", "trialIndex": 26, "score": 59, "costs": 0, "simulationMode": [null, null, null], "rewards": [2, 4, 48], "path": ["0", "0", "5", "6", "7"], "rt": [1305, 1886, 1072], "actions": ["right", "right", "up"], "actionTimes": [2588, 4984, 6573], "queries": {"click": {"state": {"target": [], "time": []}, "edge": {"target": [], "time": []}}, "mouseover": {"state": {"target": [], "time": []}, "edge": {"target": [], "time": []}}, "mouseout": {"state": {"target": [], "time": []}, "edge": {"target": [], "time": []}}}, "displayed_time": "9.38", "trialTime": 10382, "trial_type": "mouselab-mdp", "trial_index": 33, "time_elapsed": 985773, "internal_node_id": "0.0-4.0-1.0-24.0"}}, {"uniqueid": "w74988108:a41144932", "current_trial": 34, "dateTime": 1664465100630, "trialdata": {"revealed_states": [], "num_clicks_accrued": [0, 0, 0, 0, 0, 0, 0, 0, 0, 0, 0, 0, 0], "stateRewards": ["", -2, -4, -24, -24, 4, 8, 24, 24, -2, 8, 48, 48], "withholdReward": false, "trial_id": "mdp_620787912291", "block": "test1", "trialIndex": 27, "score": 59, "costs": 0, "simulationMode": [null, null, null], "rewards": [-2, 8, 48], "path": ["0", "0", "9", "10", "11"], "rt": [2679, 1197, 902], "actions": ["left", "left", "up"], "actionTimes": [3919, 5638, 7076], "queries": {"click": {"state": {"target": [], "time": []}, "edge": {"target": [], "time": []}}, "mouseover": {"state": {"target": [], "time": []}, "edge": {"target": [], "time": []}}, "mouseout": {"state": {"target": [], "time": []}, "edge": {"target": [], "time": []}}}, "displayed_time": "10.33", "trialTime": 15285, "trial_type": "mouselab-mdp", "trial_index": 34, "time_elapsed": 1001282, "internal_node_id": "0.0-4.0-1.0-25.0"}}, {"uniqueid": "w74988108:a41144932", "current_trial": 35, "dateTime": 1664465115724, "trialdata": {"revealed_states": [], "num_clicks_accrued": [0, 0, 0, 0, 0, 0, 0, 0, 0, 0, 0, 0, 0], "stateRewards": ["", -2, -8, 48, 24, -2, 8, -48, -24, -2, 4, -48, 48], "withholdReward": true, "trial_id": "mdp_295220852217", "block": "test1", "trialIndex": 28, "score": 43, "costs": 0, "simulationMode": [null, null, null], "rewards": [-2, -8, 48], "path": ["0", "0", "1", "2", "3"], "rt": [1796, 1058, 4958], "actions": ["up", "up", "right"], "actionTimes": [5723, 7311, 12792], "queries": {"click": {"state": {"target": [], "time": []}, "edge": {"target": [], "time": []}}, "mouseover": {"state": {"target": [], "time": []}, "edge": {"target": [], "time": []}}, "mouseout": {"state": {"target": [], "time": []}, "edge": {"target": [], "time": []}}}, "displayed_time": "13.31", "trialTime": 14925, "trial_type": "mouselab-mdp", "trial_index": 35, "time_elapsed": 1016376, "internal_node_id": "0.0-4.0-1.0-26.0"}}, {"uniqueid": "w74988108:a41144932", "current_trial": 36, "dateTime": 1664465128617, "trialdata": {"revealed_states": [], "num_clicks_accrued": [0, 0, 0, 0, 0, 0, 0, 0, 0, 0, 0, 0, 0], "stateRewards": ["", 2, 8, 48, -48, -2, -4, -24, 24, 4, -4, 48, -48], "withholdReward": false, "trial_id": "mdp_105734044587", "block": "test1", "trialIndex": 29, "score": 63, "costs": 0, "simulationMode": [null, null, null], "rewards": [2, 8, 48], "path": ["0", "0", "1", "2", "3"], "rt": [5475, 1155, 795], "actions": ["up", "up", "right"], "actionTimes": [7053, 8735, 10061], "queries": {"click": {"state": {"target": [], "time": []}, "edge": {"target": [], "time": []}}, "mouseover": {"state": {"target": [], "time": []}, "edge": {"target": [], "time": []}}, "mouseout": {"state": {"target": [], "time": []}, "edge": {"target": [], "time": []}}}, "displayed_time": "10.59", "trialTime": 12706, "trial_type": "mouselab-mdp", "trial_index": 36, "time_elapsed": 1029269, "internal_node_id": "0.0-4.0-1.0-27.0"}}, {"uniqueid": "w74988108:a41144932", "current_trial": 37, "dateTime": 1664465141431, "trialdata": {"revealed_states": [], "num_clicks_accrued": [0, 0, 0, 0, 0, 0, 0, 0, 0, 0, 0, 0, 0], "stateRewards": ["", -4, -4, 48, 24, -4, -4, -24, -48, -4, 4, 48, -24], "withholdReward": true, "trial_id": "mdp_896503755738", "block": "test1", "trialIndex": 30, "score": 21, "costs": 0, "simulationMode": [null, null, null], "rewards": [-4, -4, 24], "path": ["0", "0", "1", "2", "4"], "rt": [2779, 1278, 1087], "actions": ["up", "up", "left"], "actionTimes": [4951, 6746, 8369], "queries": {"click": {"state": {"target": [], "time": []}, "edge": {"target": [], "time": []}}, "mouseover": {"state": {"target": [], "time": []}, "edge": {"target": [], "time": []}}, "mouseout": {"state": {"target": [], "time": []}, "edge": {"target": [], "time": []}}}, "displayed_time": "11.32", "trialTime": 12644, "trial_type": "mouselab-mdp", "trial_index": 37, "time_elapsed": 1042084, "internal_node_id": "0.0-4.0-1.0-28.0"}}, {"uniqueid": "w74988108:a41144932", "current_trial": 38, "dateTime": 1664465153223, "trialdata": {"revealed_states": [], "num_clicks_accrued": [0, 0, 0, 0, 0, 0, 0, 0, 0, 0, 0, 0, 0], "stateRewards": ["", 4, 8, -24, 48, 4, -8, -48, 48, -4, 8, -24, -48], "withholdReward": true, "trial_id": "mdp_376126356841", "block": "test1", "trialIndex": 31, "score": -39, "costs": 0, "simulationMode": [null, null, null], "rewards": [-4, 8, -48], "path": ["0", "0", "9", "10", "12"], "rt": [4405, 861, 818], "actions": ["left", "left", "down"], "actionTimes": [6573, 7977, 9318], "queries": {"click": {"state": {"target": [], "time": []}, "edge": {"target": [], "time": []}}, "mouseover": {"state": {"target": [], "time": []}, "edge": {"target": [], "time": []}}, "mouseout": {"state": {"target": [], "time": []}, "edge": {"target": [], "time": []}}}, "displayed_time": "10.30", "trialTime": 11635, "trial_type": "mouselab-mdp", "trial_index": 38, "time_elapsed": 1053875, "internal_node_id": "0.0-4.0-1.0-29.0"}}, {"uniqueid": "w74988108:a41144932", "current_trial": 39, "dateTime": 1664465170112, "trialdata": {"rt": 16876, "stimulus": "<h1> End of block! </h1>\n\nYou have reached the end of the block 1/4. If you need a short break, feel free to take one now before moving on.\n\n<br><br>\nIn the next block, you will complete another 30 rounds of this game.\n\n<br><br>\n<div style='text-align: center;'>Press <code>space</code> to begin.</div>\n<br><br>\n<div style='text-align: center;'>(If the experiment doesn't continue, try clicking on the text and then pressing <code>space</code>.)</div>", "response": " ", "trial_id": "mdp_ready_2", "trial_type": "html-keyboard-response", "trial_index": 39, "time_elapsed": 1070765, "internal_node_id": "0.0-4.0-2.0"}}, {"uniqueid": "w74988108:a41144932", "current_trial": 40, "dateTime": 1664465182915, "trialdata": {"revealed_states": [], "num_clicks_accrued": [0, 0, 0, 0, 0, 0, 0, 0, 0, 0, 0, 0, 0], "stateRewards": ["", 2, -4, -48, -48, -2, -4, -24, -48, -2, 8, 24, 24], "withholdReward": true, "trial_id": "mdp_656069446729", "block": "test2", "trialIndex": 32, "score": 35, "costs": 0, "simulationMode": [null, null, null], "rewards": [-2, 8, 24], "path": ["0", "0", "9", "10", "11"], "rt": [1002, 328, 955], "actions": ["left", "left", "up"], "actionTimes": [3224, 4073, 5566], "queries": {"click": {"state": {"target": [], "time": []}, "edge": {"target": [], "time": []}}, "mouseover": {"state": {"target": [], "time": []}, "edge": {"target": [], "time": []}}, "mouseout": {"state": {"target": [], "time": []}, "edge": {"target": [], "time": []}}}, "displayed_time": "11.49", "trialTime": 12601, "trial_type": "mouselab-mdp", "trial_index": 40, "time_elapsed": 1083567, "internal_node_id": "0.0-4.0-3.0-0.0"}}, {"uniqueid": "w74988108:a41144932", "current_trial": 41, "dateTime": 1664465194841, "trialdata": {"revealed_states": [], "num_clicks_accrued": [0, 0, 0, 0, 0, 0, 0, 0, 0, 0, 0, 0, 0], "stateRewards": ["", -2, -8, 24, -48, -4, 8, -48, -24, 4, 8, -24, 24], "withholdReward": true, "trial_id": "mdp_940444641142", "block": "test2", "trialIndex": 33, "score": -7, "costs": 0, "simulationMode": [null, null, null], "rewards": [4, 8, -24], "path": ["0", "0", "9", "10", "11"], "rt": [1712, 1498, 1158], "actions": ["left", "left", "up"], "actionTimes": [3167, 5181, 6855], "queries": {"click": {"state": {"target": [], "time": []}, "edge": {"target": [], "time": []}}, "mouseover": {"state": {"target": [], "time": []}, "edge": {"target": [], "time": []}}, "mouseout": {"state": {"target": [], "time": []}, "edge": {"target": [], "time": []}}}, "displayed_time": "10.57", "trialTime": 11735, "trial_type": "mouselab-mdp", "trial_index": 41, "time_elapsed": 1095494, "internal_node_id": "0.0-4.0-3.0-1.0"}}, {"uniqueid": "w74988108:a41144932", "current_trial": 42, "dateTime": 1664465206415, "trialdata": {"revealed_states": [], "num_clicks_accrued": [0, 0, 0, 0, 0, 0, 0, 0, 0, 0, 0, 0, 0], "stateRewards": ["", 2, 8, 24, -48, 4, 8, 24, 48, 2, -8, -24, 24], "withholdReward": false, "trial_id": "mdp_939899431582", "block": "test2", "trialIndex": 34, "score": 23, "costs": 0, "simulationMode": [null, null, null], "rewards": [2, -8, 24], "path": ["0", "0", "9", "10", "12"], "rt": [1342, 3784, 1024], "actions": ["left", "left", "down"], "actionTimes": [2587, 6904, 8458], "queries": {"click": {"state": {"target": [], "time": []}, "edge": {"target": [], "time": []}}, "mouseover": {"state": {"target": [], "time": []}, "edge": {"target": [], "time": []}}, "mouseout": {"state": {"target": [], "time": []}, "edge": {"target": [], "time": []}}}, "displayed_time": "9.37", "trialTime": 11430, "trial_type": "mouselab-mdp", "trial_index": 42, "time_elapsed": 1107068, "internal_node_id": "0.0-4.0-3.0-2.0"}}, {"uniqueid": "w74988108:a41144932", "current_trial": 43, "dateTime": 1664465218612, "trialdata": {"revealed_states": [], "num_clicks_accrued": [0, 0, 0, 0, 0, 0, 0, 0, 0, 0, 0, 0, 0], "stateRewards": ["", 2, -8, 48, -24, 2, 8, 24, -24, 4, -4, -48, -48], "withholdReward": true, "trial_id": "mdp_130946197263", "block": "test2", "trialIndex": 35, "score": 39, "costs": 0, "simulationMode": [null, null, null], "rewards": [2, 8, 24], "path": ["0", "0", "5", "6", "7"], "rt": [1786, 297, 1211], "actions": ["right", "right", "up"], "actionTimes": [3768, 4624, 6353], "queries": {"click": {"state": {"target": [], "time": []}, "edge": {"target": [], "time": []}}, "mouseover": {"state": {"target": [], "time": []}, "edge": {"target": [], "time": []}}, "mouseout": {"state": {"target": [], "time": []}, "edge": {"target": [], "time": []}}}, "displayed_time": "11.18", "trialTime": 11999, "trial_type": "mouselab-mdp", "trial_index": 43, "time_elapsed": 1119263, "internal_node_id": "0.0-4.0-3.0-3.0"}}, {"uniqueid": "w74988108:a41144932", "current_trial": 44, "dateTime": 1664465229426, "trialdata": {"revealed_states": [], "num_clicks_accrued": [0, 0, 0, 0, 0, 0, 0, 0, 0, 0, 0, 0, 0], "stateRewards": ["", -2, 4, -24, 24, -4, -8, 24, -48, -4, -4, -48, -24], "withholdReward": true, "trial_id": "mdp_753137520419", "block": "test2", "trialIndex": 36, "score": 17, "costs": 0, "simulationMode": [null, null, null], "rewards": [-4, -8, 24], "path": ["0", "0", "5", "6", "7"], "rt": [2478, 2545, 1131], "actions": ["right", "right", "up"], "actionTimes": [3755, 6824, 8491], "queries": {"click": {"state": {"target": [], "time": []}, "edge": {"target": [], "time": []}}, "mouseover": {"state": {"target": [], "time": []}, "edge": {"target": [], "time": []}}, "mouseout": {"state": {"target": [], "time": []}, "edge": {"target": [], "time": []}}}, "displayed_time": "9.34", "trialTime": 10550, "trial_type": "mouselab-mdp", "trial_index": 44, "time_elapsed": 1130078, "internal_node_id": "0.0-4.0-3.0-4.0"}}, {"uniqueid": "w74988108:a41144932", "current_trial": 45, "dateTime": 1664465240084, "trialdata": {"revealed_states": [], "num_clicks_accrued": [0, 0, 0, 0, 0, 0, 0, 0, 0, 0, 0, 0, 0], "stateRewards": ["", 2, -8, -24, 48, -4, -8, 24, -48, 4, -8, -24, -24], "withholdReward": true, "trial_id": "mdp_928911266656", "block": "test2", "trialIndex": 37, "score": -55, "costs": 0, "simulationMode": [null, null, null], "rewards": [-4, -8, -48], "path": ["0", "0", "5", "6", "8"], "rt": [1699, 2216, 1595], "actions": ["right", "right", "down"], "actionTimes": [2960, 5688, 7799], "queries": {"click": {"state": {"target": [], "time": []}, "edge": {"target": [], "time": []}}, "mouseover": {"state": {"target": [], "time": []}, "edge": {"target": [], "time": []}}, "mouseout": {"state": {"target": [], "time": []}, "edge": {"target": [], "time": []}}}, "displayed_time": "9.38", "trialTime": 10468, "trial_type": "mouselab-mdp", "trial_index": 45, "time_elapsed": 1140737, "internal_node_id": "0.0-4.0-3.0-5.0"}}, {"uniqueid": "w74988108:a41144932", "current_trial": 46, "dateTime": 1664465251343, "trialdata": {"revealed_states": [], "num_clicks_accrued": [0, 0, 0, 0, 0, 0, 0, 0, 0, 0, 0, 0, 0], "stateRewards": ["", 2, 4, -48, -48, 2, 4, 48, -24, -2, 8, 48, -48], "withholdReward": false, "trial_id": "mdp_258528916140", "block": "test2", "trialIndex": 38, "score": -37, "costs": 0, "simulationMode": [null, null, null], "rewards": [2, 4, -48], "path": ["0", "0", "1", "2", "4"], "rt": [826, 1931, 2382], "actions": ["up", "up", "left"], "actionTimes": [2237, 4691, 7607], "queries": {"click": {"state": {"target": [], "time": []}, "edge": {"target": [], "time": []}}, "mouseover": {"state": {"target": [], "time": []}, "edge": {"target": [], "time": []}}, "mouseout": {"state": {"target": [], "time": []}, "edge": {"target": [], "time": []}}}, "displayed_time": "9.53", "trialTime": 11096, "trial_type": "mouselab-mdp", "trial_index": 46, "time_elapsed": 1151992, "internal_node_id": "0.0-4.0-3.0-6.0"}}, {"uniqueid": "w74988108:a41144932", "current_trial": 47, "dateTime": 1664465265486, "trialdata": {"revealed_states": [], "num_clicks_accrued": [0, 0, 0, 0, 0, 0, 0, 0, 0, 0, 0, 0, 0], "stateRewards": ["", 2, 4, -48, -24, 2, 8, 24, 48, -2, 4, 48, -48], "withholdReward": true, "trial_id": "mdp_551894842204", "block": "test2", "trialIndex": 39, "score": -37, "costs": 0, "simulationMode": [null, null, null], "rewards": [2, 4, -48], "path": ["0", "0", "1", "2", "3"], "rt": [5368, 3586, 980], "actions": ["up", "up", "right"], "actionTimes": [6692, 10795, 12289], "queries": {"click": {"state": {"target": [], "time": []}, "edge": {"target": [], "time": []}}, "mouseover": {"state": {"target": [], "time": []}, "edge": {"target": [], "time": []}}, "mouseout": {"state": {"target": [], "time": []}, "edge": {"target": [], "time": []}}}, "displayed_time": "12.82", "trialTime": 13956, "trial_type": "mouselab-mdp", "trial_index": 47, "time_elapsed": 1166139, "internal_node_id": "0.0-4.0-3.0-7.0"}}, {"uniqueid": "w74988108:a41144932", "current_trial": 48, "dateTime": 1664465278061, "trialdata": {"revealed_states": [], "num_clicks_accrued": [0, 0, 0, 0, 0, 0, 0, 0, 0, 0, 0, 0, 0], "stateRewards": ["", -4, 4, -24, 48, 2, 4, -48, 24, 4, -8, -24, 24], "withholdReward": false, "trial_id": "mdp_740130150937", "block": "test2", "trialIndex": 40, "score": -19, "costs": 0, "simulationMode": [null, null, null], "rewards": [-4, 4, -24], "path": ["0", "0", "1", "2", "3"], "rt": [943, 1538, 964], "actions": ["up", "up", "right"], "actionTimes": [2174, 4232, 5722], "queries": {"click": {"state": {"target": [], "time": []}, "edge": {"target": [], "time": []}}, "mouseover": {"state": {"target": [], "time": []}, "edge": {"target": [], "time": []}}, "mouseout": {"state": {"target": [], "time": []}, "edge": {"target": [], "time": []}}}, "displayed_time": "10.38", "trialTime": 12400, "trial_type": "mouselab-mdp", "trial_index": 48, "time_elapsed": 1178714, "internal_node_id": "0.0-4.0-3.0-8.0"}}, {"uniqueid": "w74988108:a41144932", "current_trial": 49, "dateTime": 1664465287814, "trialdata": {"revealed_states": [], "num_clicks_accrued": [0, 0, 0, 0, 0, 0, 0, 0, 0, 0, 0, 0, 0], "stateRewards": ["", 2, 4, 48, 24, -2, -8, 24, 24, -2, 4, -48, 24], "withholdReward": true, "trial_id": "mdp_130849500124", "block": "test2", "trialIndex": 41, "score": 35, "costs": 0, "simulationMode": [null, null, null], "rewards": [2, 4, 24], "path": ["0", "0", "1", "2", "4"], "rt": [2061, 567, 1444], "actions": ["up", "up", "left"], "actionTimes": [3526, 4631, 6593], "queries": {"click": {"state": {"target": [], "time": []}, "edge": {"target": [], "time": []}}, "mouseover": {"state": {"target": [], "time": []}, "edge": {"target": [], "time": []}}, "mouseout": {"state": {"target": [], "time": []}, "edge": {"target": [], "time": []}}}, "displayed_time": "8.55", "trialTime": 9575, "trial_type": "mouselab-mdp", "trial_index": 49, "time_elapsed": 1188467, "internal_node_id": "0.0-4.0-3.0-9.0"}}, {"uniqueid": "w74988108:a41144932", "current_trial": 50, "dateTime": 1664465298965, "trialdata": {"revealed_states": [], "num_clicks_accrued": [0, 0, 0, 0, 0, 0, 0, 0, 0, 0, 0, 0, 0], "stateRewards": ["", 2, 8, -48, 24, -4, 8, 48, -24, 2, 8, 24, 24], "withholdReward": true, "trial_id": "mdp_175372499314", "block": "test2", "trialIndex": 42, "score": -15, "costs": 0, "simulationMode": [null, null, null], "rewards": [-4, 8, -24], "path": ["0", "0", "5", "6", "8"], "rt": [1095, 1799, 3782], "actions": ["right", "right", "down"], "actionTimes": [2526, 4870, 9170], "queries": {"click": {"state": {"target": [], "time": []}, "edge": {"target": [], "time": []}}, "mouseover": {"state": {"target": [], "time": []}, "edge": {"target": [], "time": []}}, "mouseout": {"state": {"target": [], "time": []}, "edge": {"target": [], "time": []}}}, "displayed_time": "9.69", "trialTime": 10958, "trial_type": "mouselab-mdp", "trial_index": 50, "time_elapsed": 1199616, "internal_node_id": "0.0-4.0-3.0-10.0"}}, {"uniqueid": "w74988108:a41144932", "current_trial": 51, "dateTime": 1664465309985, "trialdata": {"revealed_states": [], "num_clicks_accrued": [0, 0, 0, 0, 0, 0, 0, 0, 0, 0, 0, 0, 0], "stateRewards": ["", 2, -8, -48, 24, 4, 8, 48, -48, 2, -4, 24, 24], "withholdReward": true, "trial_id": "mdp_130475327289", "block": "test2", "trialIndex": 43, "score": -31, "costs": 0, "simulationMode": [null, null, null], "rewards": [4, 8, -48], "path": ["0", "0", "5", "6", "8"], "rt": [1243, 162, 1719], "actions": ["right", "right", "down"], "actionTimes": [2717, 3418, 5677], "queries": {"click": {"state": {"target": [], "time": []}, "edge": {"target": [], "time": []}}, "mouseover": {"state": {"target": [], "time": []}, "edge": {"target": [], "time": []}}, "mouseout": {"state": {"target": [], "time": []}, "edge": {"target": [], "time": []}}}, "displayed_time": "9.56", "trialTime": 10586, "trial_type": "mouselab-mdp", "trial_index": 51, "time_elapsed": 1210637, "internal_node_id": "0.0-4.0-3.0-11.0"}}, {"uniqueid": "w74988108:a41144932", "current_trial": 52, "dateTime": 1664465320738, "trialdata": {"revealed_states": [], "num_clicks_accrued": [0, 0, 0, 0, 0, 0, 0, 0, 0, 0, 0, 0, 0], "stateRewards": ["", -2, 4, 48, -24, 2, 8, 24, 48, 2, 4, -24, -48], "withholdReward": false, "trial_id": "mdp_892412058587", "block": "test2", "trialIndex": 44, "score": 39, "costs": 0, "simulationMode": [null, null, null], "rewards": [2, 8, 24], "path": ["0", "0", "5", "6", "7"], "rt": [1088, 431, 3488], "actions": ["right", "right", "up"], "actionTimes": [2301, 3245, 7267], "queries": {"click": {"state": {"target": [], "time": []}, "edge": {"target": [], "time": []}}, "mouseover": {"state": {"target": [], "time": []}, "edge": {"target": [], "time": []}}, "mouseout": {"state": {"target": [], "time": []}, "edge": {"target": [], "time": []}}}, "displayed_time": "9.37", "trialTime": 10546, "trial_type": "mouselab-mdp", "trial_index": 52, "time_elapsed": 1221390, "internal_node_id": "0.0-4.0-3.0-12.0"}}, {"uniqueid": "w74988108:a41144932", "current_trial": 53, "dateTime": 1664465332540, "trialdata": {"revealed_states": [], "num_clicks_accrued": [0, 0, 0, 0, 0, 0, 0, 0, 0, 0, 0, 0, 0], "stateRewards": ["", -2, 4, -24, 48, 4, -8, 48, -48, 2, -8, 48, 24], "withholdReward": true, "trial_id": "mdp_501111216502", "block": "test2", "trialIndex": 45, "score": -47, "costs": 0, "simulationMode": [null, null, null], "rewards": [4, -8, -48], "path": ["0", "0", "5", "6", "8"], "rt": [1061, 2107, 781], "actions": ["right", "right", "down"], "actionTimes": [2425, 5056, 6344], "queries": {"click": {"state": {"target": [], "time": []}, "edge": {"target": [], "time": []}}, "mouseover": {"state": {"target": [], "time": []}, "edge": {"target": [], "time": []}}, "mouseout": {"state": {"target": [], "time": []}, "edge": {"target": [], "time": []}}}, "displayed_time": "10.50", "trialTime": 11602, "trial_type": "mouselab-mdp", "trial_index": 53, "time_elapsed": 1233193, "internal_node_id": "0.0-4.0-3.0-13.0"}}, {"uniqueid": "w74988108:a41144932", "current_trial": 54, "dateTime": 1664465342155, "trialdata": {"revealed_states": [], "num_clicks_accrued": [0, 0, 0, 0, 0, 0, 0, 0, 0, 0, 0, 0, 0], "stateRewards": ["", -2, -4, -24, -48, 2, -8, -24, -24, 4, -8, 48, 48], "withholdReward": true, "trial_id": "mdp_950599994674", "block": "test2", "trialIndex": 46, "score": -25, "costs": 0, "simulationMode": [null, null, null], "rewards": [2, -8, -24], "path": ["0", "0", "5", "6", "8"], "rt": [1338, 283, 674], "actions": ["right", "right", "down"], "actionTimes": [2695, 3515, 4721], "queries": {"click": {"state": {"target": [], "time": []}, "edge": {"target": [], "time": []}}, "mouseover": {"state": {"target": [], "time": []}, "edge": {"target": [], "time": []}}, "mouseout": {"state": {"target": [], "time": []}, "edge": {"target": [], "time": []}}}, "displayed_time": "8.39", "trialTime": 9465, "trial_type": "mouselab-mdp", "trial_index": 54, "time_elapsed": 1242807, "internal_node_id": "0.0-4.0-3.0-14.0"}}, {"uniqueid": "w74988108:a41144932", "current_trial": 55, "dateTime": 1664465353940, "trialdata": {"revealed_states": [], "num_clicks_accrued": [0, 0, 0, 0, 0, 0, 0, 0, 0, 0, 0, 0, 0], "stateRewards": ["", -4, 4, -24, -24, -4, -8, 24, 48, 4, -4, 24, 48], "withholdReward": false, "trial_id": "mdp_175395325183", "block": "test2", "trialIndex": 47, "score": -19, "costs": 0, "simulationMode": [null, null, null], "rewards": [-4, 4, -24], "path": ["0", "0", "1", "2", "4"], "rt": [907, 1428, 2167], "actions": ["up", "up", "left"], "actionTimes": [2112, 4061, 6767], "queries": {"click": {"state": {"target": [], "time": []}, "edge": {"target": [], "time": []}}, "mouseover": {"state": {"target": [], "time": []}, "edge": {"target": [], "time": []}}, "mouseout": {"state": {"target": [], "time": []}, "edge": {"target": [], "time": []}}}, "displayed_time": "10.34", "trialTime": 11618, "trial_type": "mouselab-mdp", "trial_index": 55, "time_elapsed": 1254593, "internal_node_id": "0.0-4.0-3.0-15.0"}}, {"uniqueid": "w74988108:a41144932", "current_trial": 56, "dateTime": 1664465365932, "trialdata": {"revealed_states": [], "num_clicks_accrued": [0, 0, 0, 0, 0, 0, 0, 0, 0, 0, 0, 0, 0], "stateRewards": ["", -4, 8, -24, 24, -2, -8, 24, -24, 4, -4, -48, 48], "withholdReward": true, "trial_id": "mdp_297684722007", "block": "test2", "trialIndex": 48, "score": 53, "costs": 0, "simulationMode": [null, null, null], "rewards": [4, -4, 48], "path": ["0", "0", "9", "10", "12"], "rt": [800, 897, 1184], "actions": ["left", "left", "down"], "actionTimes": [2127, 3548, 5268], "queries": {"click": {"state": {"target": [], "time": []}, "edge": {"target": [], "time": []}}, "mouseover": {"state": {"target": [], "time": []}, "edge": {"target": [], "time": []}}, "mouseout": {"state": {"target": [], "time": []}, "edge": {"target": [], "time": []}}}, "displayed_time": "10.48", "trialTime": 11827, "trial_type": "mouselab-mdp", "trial_index": 56, "time_elapsed": 1266584, "internal_node_id": "0.0-4.0-3.0-16.0"}}, {"uniqueid": "w74988108:a41144932", "current_trial": 57, "dateTime": 1664465376391, "trialdata": {"revealed_states": [], "num_clicks_accrued": [0, 0, 0, 0, 0, 0, 0, 0, 0, 0, 0, 0, 0], "stateRewards": ["", -4, 8, -48, -48, -4, 4, -24, -48, 2, -4, -24, 24], "withholdReward": false, "trial_id": "mdp_183773275291", "block": "test2", "trialIndex": 49, "score": 27, "costs": 0, "simulationMode": [null, null, null], "rewards": [2, -4, 24], "path": ["0", "0", "9", "10", "12"], "rt": [1100, 3927, 1144], "actions": ["left", "left", "down"], "actionTimes": [2348, 6787, 8452], "queries": {"click": {"state": {"target": [], "time": []}, "edge": {"target": [], "time": []}}, "mouseover": {"state": {"target": [], "time": []}, "edge": {"target": [], "time": []}}, "mouseout": {"state": {"target": [], "time": []}, "edge": {"target": [], "time": []}}}, "displayed_time": "8.98", "trialTime": 10268, "trial_type": "mouselab-mdp", "trial_index": 57, "time_elapsed": 1277033, "internal_node_id": "0.0-4.0-3.0-17.0"}}, {"uniqueid": "w74988108:a41144932", "current_trial": 58, "dateTime": 1664465386482, "trialdata": {"revealed_states": [], "num_clicks_accrued": [0, 0, 0, 0, 0, 0, 0, 0, 0, 0, 0, 0, 0], "stateRewards": ["", -4, 8, -24, -24, 4, -8, 48, -24, -4, -8, -24, -48], "withholdReward": true, "trial_id": "mdp_391766721791", "block": "test2", "trialIndex": 50, "score": -31, "costs": 0, "simulationMode": [null, null, null], "rewards": [-4, -8, -24], "path": ["0", "0", "9", "10", "11"], "rt": [1176, 1767, 2252], "actions": ["left", "left", "up"], "actionTimes": [2882, 5188, 7972], "queries": {"click": {"state": {"target": [], "time": []}, "edge": {"target": [], "time": []}}, "mouseover": {"state": {"target": [], "time": []}, "edge": {"target": [], "time": []}}, "mouseout": {"state": {"target": [], "time": []}, "edge": {"target": [], "time": []}}}, "displayed_time": "8.77", "trialTime": 9950, "trial_type": "mouselab-mdp", "trial_index": 58, "time_elapsed": 1287135, "internal_node_id": "0.0-4.0-3.0-18.0"}}, {"uniqueid": "w74988108:a41144932", "current_trial": 59, "dateTime": 1664465397142, "trialdata": {"revealed_states": [], "num_clicks_accrued": [0, 0, 0, 0, 0, 0, 0, 0, 0, 0, 0, 0, 0], "stateRewards": ["", 4, 4, -48, -24, -2, -4, 48, 24, -4, 4, 24, -48], "withholdReward": true, "trial_id": "mdp_617383046444", "block": "test2", "trialIndex": 51, "score": -43, "costs": 0, "simulationMode": [null, null, null], "rewards": [-4, 4, -48], "path": ["0", "0", "9", "10", "12"], "rt": [2430, 604, 745], "actions": ["left", "left", "down"], "actionTimes": [3709, 4831, 6108], "queries": {"click": {"state": {"target": [], "time": []}, "edge": {"target": [], "time": []}}, "mouseover": {"state": {"target": [], "time": []}, "edge": {"target": [], "time": []}}, "mouseout": {"state": {"target": [], "time": []}, "edge": {"target": [], "time": []}}}, "displayed_time": "9.45", "trialTime": 10532, "trial_type": "mouselab-mdp", "trial_index": 59, "time_elapsed": 1297795, "internal_node_id": "0.0-4.0-3.0-19.0"}}, {"uniqueid": "w74988108:a41144932", "current_trial": 60, "dateTime": 1664465407912, "trialdata": {"revealed_states": [], "num_clicks_accrued": [0, 0, 0, 0, 0, 0, 0, 0, 0, 0, 0, 0, 0], "stateRewards": ["", -2, -8, 24, -48, 4, 4, -24, -48, -2, -8, -48, 24], "withholdReward": true, "trial_id": "mdp_556006673466", "block": "test2", "trialIndex": 52, "score": 19, "costs": 0, "simulationMode": [null, null, null], "rewards": [-2, -8, 24], "path": ["0", "0", "1", "2", "3"], "rt": [1240, 1062, 1181], "actions": ["up", "up", "right"], "actionTimes": [2768, 4358, 6061], "queries": {"click": {"state": {"target": [], "time": []}, "edge": {"target": [], "time": []}}, "mouseover": {"state": {"target": [], "time": []}, "edge": {"target": [], "time": []}}, "mouseout": {"state": {"target": [], "time": []}, "edge": {"target": [], "time": []}}}, "displayed_time": "9.63", "trialTime": 10597, "trial_type": "mouselab-mdp", "trial_index": 60, "time_elapsed": 1308565, "internal_node_id": "0.0-4.0-3.0-20.0"}}, {"uniqueid": "w74988108:a41144932", "current_trial": 61, "dateTime": 1664465418519, "trialdata": {"revealed_states": [], "num_clicks_accrued": [0, 0, 0, 0, 0, 0, 0, 0, 0, 0, 0, 0, 0], "stateRewards": ["", 4, 4, 24, -48, 2, -8, -24, -48, 4, 8, 48, 48], "withholdReward": true, "trial_id": "mdp_592471239511", "block": "test2", "trialIndex": 53, "score": 37, "costs": 0, "simulationMode": [null, null, null], "rewards": [4, 4, 24], "path": ["0", "0", "1", "2", "3"], "rt": [1425, 881, 952], "actions": ["up", "up", "right"], "actionTimes": [2826, 4228, 5698], "queries": {"click": {"state": {"target": [], "time": []}, "edge": {"target": [], "time": []}}, "mouseover": {"state": {"target": [], "time": []}, "edge": {"target": [], "time": []}}, "mouseout": {"state": {"target": [], "time": []}, "edge": {"target": [], "time": []}}}, "displayed_time": "9.49", "trialTime": 10461, "trial_type": "mouselab-mdp", "trial_index": 61, "time_elapsed": 1319172, "internal_node_id": "0.0-4.0-3.0-21.0"}}, {"uniqueid": "w74988108:a41144932", "current_trial": 62, "dateTime": 1664465429330, "trialdata": {"revealed_states": [], "num_clicks_accrued": [0, 0, 0, 0, 0, 0, 0, 0, 0, 0, 0, 0, 0], "stateRewards": ["", 4, -4, 24, 48, 4, 8, -24, -24, -2, 4, 48, 48], "withholdReward": true, "trial_id": "mdp_624998450453", "block": "test2", "trialIndex": 54, "score": 53, "costs": 0, "simulationMode": [null, null, null], "rewards": [4, -4, 48], "path": ["0", "0", "1", "2", "4"], "rt": [1042, 2228, 1879], "actions": ["up", "up", "left"], "actionTimes": [2599, 5339, 7740], "queries": {"click": {"state": {"target": [], "time": []}, "edge": {"target": [], "time": []}}, "mouseover": {"state": {"target": [], "time": []}, "edge": {"target": [], "time": []}}, "mouseout": {"state": {"target": [], "time": []}, "edge": {"target": [], "time": []}}}, "displayed_time": "9.66", "trialTime": 10636, "trial_type": "mouselab-mdp", "trial_index": 62, "time_elapsed": 1329983, "internal_node_id": "0.0-4.0-3.0-22.0"}}, {"uniqueid": "w74988108:a41144932", "current_trial": 63, "dateTime": 1664465442543, "trialdata": {"revealed_states": [], "num_clicks_accrued": [0, 0, 0, 0, 0, 0, 0, 0, 0, 0, 0, 0, 0], "stateRewards": ["", -2, 8, -24, 48, -4, 4, -48, 24, 4, -8, 48, -24], "withholdReward": false, "trial_id": "mdp_425320427962", "block": "test2", "trialIndex": 55, "score": 29, "costs": 0, "simulationMode": [null, null, null], "rewards": [-4, 4, 24], "path": ["0", "0", "5", "6", "8"], "rt": [938, 556, 4532], "actions": ["right", "right", "down"], "actionTimes": [2204, 3269, 8317], "queries": {"click": {"state": {"target": [], "time": []}, "edge": {"target": [], "time": []}}, "mouseover": {"state": {"target": [], "time": []}, "edge": {"target": [], "time": []}}, "mouseout": {"state": {"target": [], "time": []}, "edge": {"target": [], "time": []}}}, "displayed_time": "11.46", "trialTime": 13035, "trial_type": "mouselab-mdp", "trial_index": 63, "time_elapsed": 1343195, "internal_node_id": "0.0-4.0-3.0-23.0"}}, {"uniqueid": "w74988108:a41144932", "current_trial": 64, "dateTime": 1664465453906, "trialdata": {"revealed_states": [], "num_clicks_accrued": [0, 0, 0, 0, 0, 0, 0, 0, 0, 0, 0, 0, 0], "stateRewards": ["", 2, 4, 48, -48, 2, -4, 48, 24, -2, -8, -24, 48], "withholdReward": true, "trial_id": "mdp_962424406744", "block": "test2", "trialIndex": 56, "score": 59, "costs": 0, "simulationMode": [null, null, null], "rewards": [2, 4, 48], "path": ["0", "0", "1", "2", "3"], "rt": [978, 1007, 4016], "actions": ["up", "up", "right"], "actionTimes": [2072, 3592, 8121], "queries": {"click": {"state": {"target": [], "time": []}, "edge": {"target": [], "time": []}}, "mouseover": {"state": {"target": [], "time": []}, "edge": {"target": [], "time": []}}, "mouseout": {"state": {"target": [], "time": []}, "edge": {"target": [], "time": []}}}, "displayed_time": "10.28", "trialTime": 11204, "trial_type": "mouselab-mdp", "trial_index": 64, "time_elapsed": 1354558, "internal_node_id": "0.0-4.0-3.0-24.0"}}, {"uniqueid": "w74988108:a41144932", "current_trial": 65, "dateTime": 1664465464934, "trialdata": {"revealed_states": [], "num_clicks_accrued": [0, 0, 0, 0, 0, 0, 0, 0, 0, 0, 0, 0, 0], "stateRewards": ["", -2, -8, -24, 24, -2, -8, -48, 24, -2, -8, 24, 24], "withholdReward": false, "trial_id": "mdp_336617436097", "block": "test2", "trialIndex": 57, "score": 19, "costs": 0, "simulationMode": [null, null, null], "rewards": [-2, -8, 24], "path": ["0", "0", "1", "2", "4"], "rt": [1101, 1324, 831], "actions": ["up", "up", "left"], "actionTimes": [2289, 4121, 5477], "queries": {"click": {"state": {"target": [], "time": []}, "edge": {"target": [], "time": []}}, "mouseover": {"state": {"target": [], "time": []}, "edge": {"target": [], "time": []}}, "mouseout": {"state": {"target": [], "time": []}, "edge": {"target": [], "time": []}}}, "displayed_time": "9.27", "trialTime": 10610, "trial_type": "mouselab-mdp", "trial_index": 65, "time_elapsed": 1365586, "internal_node_id": "0.0-4.0-3.0-25.0"}}, {"uniqueid": "w74988108:a41144932", "current_trial": 66, "dateTime": 1664465477698, "trialdata": {"revealed_states": [], "num_clicks_accrued": [0, 0, 0, 0, 0, 0, 0, 0, 0, 0, 0, 0, 0], "stateRewards": ["", -2, 8, -48, 48, 4, -8, -48, 48, 4, -4, -24, 48], "withholdReward": true, "trial_id": "mdp_144739116828", "block": "test2", "trialIndex": 58, "score": 49, "costs": 0, "simulationMode": [null, null, null], "rewards": [4, -8, 48], "path": ["0", "0", "5", "6", "8"], "rt": [912, 1354, 962], "actions": ["right", "right", "down"], "actionTimes": [2381, 4268, 5765], "queries": {"click": {"state": {"target": [], "time": []}, "edge": {"target": [], "time": []}}, "mouseover": {"state": {"target": [], "time": []}, "edge": {"target": [], "time": []}}, "mouseout": {"state": {"target": [], "time": []}, "edge": {"target": [], "time": []}}}, "displayed_time": "10.61", "trialTime": 12573, "trial_type": "mouselab-mdp", "trial_index": 66, "time_elapsed": 1378347, "internal_node_id": "0.0-4.0-3.0-26.0"}}, {"uniqueid": "w74988108:a41144932", "current_trial": 67, "dateTime": 1664465489980, "trialdata": {"revealed_states": [], "num_clicks_accrued": [0, 0, 0, 0, 0, 0, 0, 0, 0, 0, 0, 0, 0], "stateRewards": ["", 2, -4, 24, 24, 4, -4, -24, 24, -4, -4, 48, 48], "withholdReward": true, "trial_id": "mdp_566306223773", "block": "test2", "trialIndex": 59, "score": 29, "costs": 0, "simulationMode": [null, null, null], "rewards": [4, -4, 24], "path": ["0", "0", "5", "6", "8"], "rt": [1316, 5630, 958], "actions": ["right", "right", "down"], "actionTimes": [2711, 8854, 10333], "queries": {"click": {"state": {"target": [], "time": []}, "edge": {"target": [], "time": []}}, "mouseover": {"state": {"target": [], "time": []}, "edge": {"target": [], "time": []}}, "mouseout": {"state": {"target": [], "time": []}, "edge": {"target": [], "time": []}}}, "displayed_time": "10.86", "trialTime": 12048, "trial_type": "mouselab-mdp", "trial_index": 67, "time_elapsed": 1390633, "internal_node_id": "0.0-4.0-3.0-27.0"}}, {"uniqueid": "w74988108:a41144932", "current_trial": 68, "dateTime": 1664465499713, "trialdata": {"revealed_states": [], "num_clicks_accrued": [0, 0, 0, 0, 0, 0, 0, 0, 0, 0, 0, 0, 0], "stateRewards": ["", 4, -8, 24, 48, -2, -4, -48, 24, 2, 4, -48, -24], "withholdReward": true, "trial_id": "mdp_749974461966", "block": "test2", "trialIndex": 60, "score": -49, "costs": 0, "simulationMode": [null, null, null], "rewards": [-2, -4, -48], "path": ["0", "0", "5", "6", "7"], "rt": [1077, 509, 606], "actions": ["right", "right", "up"], "actionTimes": [2594, 3623, 4858], "queries": {"click": {"state": {"target": [], "time": []}, "edge": {"target": [], "time": []}}, "mouseover": {"state": {"target": [], "time": []}, "edge": {"target": [], "time": []}}, "mouseout": {"state": {"target": [], "time": []}, "edge": {"target": [], "time": []}}}, "displayed_time": "8.57", "trialTime": 9571, "trial_type": "mouselab-mdp", "trial_index": 68, "time_elapsed": 1400366, "internal_node_id": "0.0-4.0-3.0-28.0"}}, {"uniqueid": "w74988108:a41144932", "current_trial": 69, "dateTime": 1664465513313, "trialdata": {"revealed_states": [], "num_clicks_accrued": [0, 0, 0, 0, 0, 0, 0, 0, 0, 0, 0, 0, 0], "stateRewards": ["", -2, 8, -24, 24, 2, -8, 48, -24, 2, 8, -24, -24], "withholdReward": true, "trial_id": "mdp_674708270444", "block": "test2", "trialIndex": 61, "score": 47, "costs": 0, "simulationMode": [null, null, null], "rewards": [2, -8, 48], "path": ["0", "0", "5", "6", "7"], "rt": [1473, 633, 502], "actions": ["right", "right", "up"], "actionTimes": [2623, 3782, 4802], "queries": {"click": {"state": {"target": [], "time": []}, "edge": {"target": [], "time": []}}, "mouseover": {"state": {"target": [], "time": []}, "edge": {"target": [], "time": []}}, "mouseout": {"state": {"target": [], "time": []}, "edge": {"target": [], "time": []}}}, "displayed_time": "10.23", "trialTime": 13441, "trial_type": "mouselab-mdp", "trial_index": 69, "time_elapsed": 1413966, "internal_node_id": "0.0-4.0-3.0-29.0"}}, {"uniqueid": "w74988108:a41144932", "current_trial": 70, "dateTime": 1664465523191, "trialdata": {"rt": 9867, "stimulus": "<h1> End of block! </h1>\n\nYou have reached the end of the block 2/4. If you need a short break, feel free to take one now before moving on.\n\n<br><br>\nIn the next block, you will complete another 30 rounds of this game.\n\n<br><br>\n<div style='text-align: center;'>Press <code>space</code> to begin.</div>\n<br><br>\n<div style='text-align: center;'>(If the experiment doesn't continue, try clicking on the text and then pressing <code>space</code>.)</div>", "response": " ", "trial_id": "mdp_ready_3", "trial_type": "html-keyboard-response", "trial_index": 70, "time_elapsed": 1423844, "internal_node_id": "0.0-4.0-4.0"}}, {"uniqueid": "w74988108:a41144932", "current_trial": 71, "dateTime": 1664465539320, "trialdata": {"revealed_states": [], "num_clicks_accrued": [0, 0, 0, 0, 0, 0, 0, 0, 0, 0, 0, 0, 0], "stateRewards": ["", 2, 8, 48, 24, 2, 8, 48, 48, -2, -4, -24, -48], "withholdReward": true, "trial_id": "mdp_717636349175", "block": "test3", "trialIndex": 62, "score": 63, "costs": 0, "simulationMode": [null, null, null], "rewards": [2, 8, 48], "path": ["0", "0", "1", "2", "3"], "rt": [984, 2866, 931], "actions": ["up", "up", "right"], "actionTimes": [6459, 9865, 11384], "queries": {"click": {"state": {"target": [], "time": []}, "edge": {"target": [], "time": []}}, "mouseover": {"state": {"target": [], "time": []}, "edge": {"target": [], "time": []}}, "mouseout": {"state": {"target": [], "time": []}, "edge": {"target": [], "time": []}}}, "displayed_time": "14.68", "trialTime": 15891, "trial_type": "mouselab-mdp", "trial_index": 71, "time_elapsed": 1439971, "internal_node_id": "0.0-4.0-5.0-0.0"}}, {"uniqueid": "w74988108:a41144932", "current_trial": 72, "dateTime": 1664465561228, "trialdata": {"revealed_states": [], "num_clicks_accrued": [0, 0, 0, 0, 0, 0, 0, 0, 0, 0, 0, 0, 0], "stateRewards": ["", -4, -4, -24, 24, -4, 4, -24, 48, -2, 4, 48, -48], "withholdReward": true, "trial_id": "mdp_774757609669", "block": "test3", "trialIndex": 63, "score": 53, "costs": 0, "simulationMode": [null, null, null], "rewards": [-4, 4, 48], "path": ["0", "0", "5", "6", "8"], "rt": [11019, 4470, 1192], "actions": ["right", "right", "down"], "actionTimes": [12915, 17919, 19633], "queries": {"click": {"state": {"target": [], "time": []}, "edge": {"target": [], "time": []}}, "mouseover": {"state": {"target": ["9", "0"], "time": [9632, 10213]}, "edge": {"target": [], "time": []}}, "mouseout": {"state": {"target": ["0", "9", "0", "0", "5", "5"], "time": [9613, 9681, 10262, 15434, 15715, 17012]}, "edge": {"target": [], "time": []}}}, "displayed_time": "20.15", "trialTime": 21504, "trial_type": "mouselab-mdp", "trial_index": 72, "time_elapsed": 1461881, "internal_node_id": "0.0-4.0-5.0-1.0"}}, {"uniqueid": "w74988108:a41144932", "current_trial": 73, "dateTime": 1664465575489, "trialdata": {"revealed_states": [], "num_clicks_accrued": [0, 0, 0, 0, 0, 0, 0, 0, 0, 0, 0, 0, 0], "stateRewards": ["", -2, 4, -24, -48, -4, 8, -24, 48, 4, 4, -48, 24], "withholdReward": true, "trial_id": "mdp_341117665701", "block": "test3", "trialIndex": 64, "score": 57, "costs": 0, "simulationMode": [null, null, null], "rewards": [-4, 8, 48], "path": ["0", "0", "5", "6", "8"], "rt": [1385, 629, 2263], "actions": ["right", "right", "down"], "actionTimes": [5219, 6384, 9166], "queries": {"click": {"state": {"target": [], "time": []}, "edge": {"target": [], "time": []}}, "mouseover": {"state": {"target": [], "time": []}, "edge": {"target": [], "time": []}}, "mouseout": {"state": {"target": ["9", "9", "5"], "time": [2310, 2370, 2718]}, "edge": {"target": [], "time": []}}}, "displayed_time": "11.93", "trialTime": 13689, "trial_type": "mouselab-mdp", "trial_index": 73, "time_elapsed": 1476142, "internal_node_id": "0.0-4.0-5.0-2.0"}}, {"uniqueid": "w74988108:a41144932", "current_trial": 74, "dateTime": 1664465592253, "trialdata": {"revealed_states": [], "num_clicks_accrued": [0, 0, 0, 0, 0, 0, 0, 0, 0, 0, 0, 0, 0], "stateRewards": ["", -2, 4, -24, -24, -2, 4, 48, 24, -4, -8, 24, -48], "withholdReward": true, "trial_id": "mdp_191839460481", "block": "test3", "trialIndex": 65, "score": 31, "costs": 0, "simulationMode": [null, null, null], "rewards": [-2, 4, 24], "path": ["0", "0", "5", "6", "8"], "rt": [888, 345, 1036], "actions": ["right", "right", "down"], "actionTimes": [6845, 7705, 9257], "queries": {"click": {"state": {"target": [], "time": []}, "edge": {"target": [], "time": []}}, "mouseover": {"state": {"target": [], "time": []}, "edge": {"target": [], "time": []}}, "mouseout": {"state": {"target": [], "time": []}, "edge": {"target": [], "time": []}}}, "displayed_time": "15.07", "trialTime": 16187, "trial_type": "mouselab-mdp", "trial_index": 74, "time_elapsed": 1492906, "internal_node_id": "0.0-4.0-5.0-3.0"}}, {"uniqueid": "w74988108:a41144932", "current_trial": 75, "dateTime": 1664465605157, "trialdata": {"revealed_states": [], "num_clicks_accrued": [0, 0, 0, 0, 0, 0, 0, 0, 0, 0, 0, 0, 0], "stateRewards": ["", 2, -4, 48, 24, 2, 8, 24, 24, -2, 4, 24, 24], "withholdReward": false, "trial_id": "mdp_813974524300", "block": "test3", "trialIndex": 66, "score": 39, "costs": 0, "simulationMode": [null, null, null], "rewards": [2, 8, 24], "path": ["0", "0", "5", "6", "7"], "rt": [1486, 414, 721], "actions": ["right", "right", "up"], "actionTimes": [2929, 3871, 5109], "queries": {"click": {"state": {"target": [], "time": []}, "edge": {"target": [], "time": []}}, "mouseover": {"state": {"target": [], "time": []}, "edge": {"target": [], "time": []}}, "mouseout": {"state": {"target": [], "time": []}, "edge": {"target": [], "time": []}}}, "displayed_time": "9.50", "trialTime": 12690, "trial_type": "mouselab-mdp", "trial_index": 75, "time_elapsed": 1505809, "internal_node_id": "0.0-4.0-5.0-4.0"}}, {"uniqueid": "w74988108:a41144932", "current_trial": 76, "dateTime": 1664465616259, "trialdata": {"revealed_states": [], "num_clicks_accrued": [0, 0, 0, 0, 0, 0, 0, 0, 0, 0, 0, 0, 0], "stateRewards": ["", 2, -4, -24, -48, -2, 8, -24, 48, -2, 8, 24, -48], "withholdReward": true, "trial_id": "mdp_566582551557", "block": "test3", "trialIndex": 67, "score": 35, "costs": 0, "simulationMode": [null, null, null], "rewards": [-2, 8, 24], "path": ["0", "0", "9", "10", "11"], "rt": [1931, 967, 563], "actions": ["left", "left", "up"], "actionTimes": [3704, 5186, 6284], "queries": {"click": {"state": {"target": [], "time": []}, "edge": {"target": [], "time": []}}, "mouseover": {"state": {"target": [], "time": []}, "edge": {"target": [], "time": []}}, "mouseout": {"state": {"target": [], "time": []}, "edge": {"target": [], "time": []}}}, "displayed_time": "9.87", "trialTime": 10770, "trial_type": "mouselab-mdp", "trial_index": 76, "time_elapsed": 1516911, "internal_node_id": "0.0-4.0-5.0-5.0"}}, {"uniqueid": "w74988108:a41144932", "current_trial": 77, "dateTime": 1664465629424, "trialdata": {"revealed_states": [], "num_clicks_accrued": [0, 0, 0, 0, 0, 0, 0, 0, 0, 0, 0, 0, 0], "stateRewards": ["", 2, 4, -48, -24, 2, 8, 24, 48, -2, 4, 48, -48], "withholdReward": true, "trial_id": "mdp_551894842204", "block": "test3", "trialIndex": 68, "score": -41, "costs": 0, "simulationMode": [null, null, null], "rewards": [-2, 4, -48], "path": ["0", "0", "9", "10", "12"], "rt": [1094, 266, 851], "actions": ["left", "left", "down"], "actionTimes": [2717, 3498, 4884], "queries": {"click": {"state": {"target": [], "time": []}, "edge": {"target": [], "time": []}}, "mouseover": {"state": {"target": [], "time": []}, "edge": {"target": [], "time": []}}, "mouseout": {"state": {"target": [], "time": []}, "edge": {"target": [], "time": []}}}, "displayed_time": "9.68", "trialTime": 12984, "trial_type": "mouselab-mdp", "trial_index": 77, "time_elapsed": 1530077, "internal_node_id": "0.0-4.0-5.0-6.0"}}, {"uniqueid": "w74988108:a41144932", "current_trial": 78, "dateTime": 1664465642460, "trialdata": {"revealed_states": [], "num_clicks_accrued": [0, 0, 0, 0, 0, 0, 0, 0, 0, 0, 0, 0, 0], "stateRewards": ["", -4, -4, -24, 48, -4, -8, -24, 48, 2, 4, 48, 48], "withholdReward": true, "trial_id": "mdp_810954007398", "block": "test3", "trialIndex": 69, "score": 41, "costs": 0, "simulationMode": [null, null, null], "rewards": [-4, -8, 48], "path": ["0", "0", "5", "6", "8"], "rt": [1934, 318, 667], "actions": ["right", "right", "down"], "actionTimes": [3430, 4262, 5449], "queries": {"click": {"state": {"target": [], "time": []}, "edge": {"target": [], "time": []}}, "mouseover": {"state": {"target": [], "time": []}, "edge": {"target": [], "time": []}}, "mouseout": {"state": {"target": [], "time": []}, "edge": {"target": [], "time": []}}}, "displayed_time": "11.72", "trialTime": 12780, "trial_type": "mouselab-mdp", "trial_index": 78, "time_elapsed": 1543113, "internal_node_id": "0.0-4.0-5.0-7.0"}}, {"uniqueid": "w74988108:a41144932", "current_trial": 79, "dateTime": 1664465654503, "trialdata": {"revealed_states": [], "num_clicks_accrued": [0, 0, 0, 0, 0, 0, 0, 0, 0, 0, 0, 0, 0], "stateRewards": ["", -2, -4, -48, 48, -2, -4, 24, 48, -4, -8, -24, 24], "withholdReward": true, "trial_id": "mdp_917590390609", "block": "test3", "trialIndex": 70, "score": 23, "costs": 0, "simulationMode": [null, null, null], "rewards": [-2, -4, 24], "path": ["0", "0", "5", "6", "7"], "rt": [1194, 101, 421], "actions": ["right", "right", "up"], "actionTimes": [2725, 3348, 4286], "queries": {"click": {"state": {"target": [], "time": []}, "edge": {"target": [], "time": []}}, "mouseover": {"state": {"target": [], "time": []}, "edge": {"target": [], "time": []}}, "mouseout": {"state": {"target": [], "time": []}, "edge": {"target": [], "time": []}}}, "displayed_time": "10.63", "trialTime": 11894, "trial_type": "mouselab-mdp", "trial_index": 79, "time_elapsed": 1555156, "internal_node_id": "0.0-4.0-5.0-8.0"}}, {"uniqueid": "w74988108:a41144932", "current_trial": 80, "dateTime": 1664465665570, "trialdata": {"revealed_states": [], "num_clicks_accrued": [0, 0, 0, 0, 0, 0, 0, 0, 0, 0, 0, 0, 0], "stateRewards": ["", -2, -8, 24, -48, -4, 8, -48, -24, 4, 8, -24, 24], "withholdReward": true, "trial_id": "mdp_940444641142", "block": "test3", "trialIndex": 71, "score": -53, "costs": 0, "simulationMode": [null, null, null], "rewards": [-2, -8, -48], "path": ["0", "0", "1", "2", "4"], "rt": [1271, 320, 2701], "actions": ["up", "up", "left"], "actionTimes": [3984, 4821, 8032], "queries": {"click": {"state": {"target": [], "time": []}, "edge": {"target": [], "time": []}}, "mouseover": {"state": {"target": [], "time": []}, "edge": {"target": [], "time": []}}, "mouseout": {"state": {"target": [], "time": []}, "edge": {"target": [], "time": []}}}, "displayed_time": "9.77", "trialTime": 10780, "trial_type": "mouselab-mdp", "trial_index": 80, "time_elapsed": 1566222, "internal_node_id": "0.0-4.0-5.0-9.0"}}, {"uniqueid": "w74988108:a41144932", "current_trial": 81, "dateTime": 1664465676092, "trialdata": {"revealed_states": [], "num_clicks_accrued": [0, 0, 0, 0, 0, 0, 0, 0, 0, 0, 0, 0, 0], "stateRewards": ["", 2, -4, -48, 24, 4, 4, 48, -48, -2, -4, -24, -48], "withholdReward": true, "trial_id": "mdp_858916930936", "block": "test3", "trialIndex": 72, "score": 27, "costs": 0, "simulationMode": [null, null, null], "rewards": [2, -4, 24], "path": ["0", "0", "1", "2", "4"], "rt": [1074, 1241, 2174], "actions": ["up", "up", "left"], "actionTimes": [2367, 4148, 6843], "queries": {"click": {"state": {"target": [], "time": []}, "edge": {"target": [], "time": []}}, "mouseover": {"state": {"target": [], "time": []}, "edge": {"target": [], "time": []}}, "mouseout": {"state": {"target": [], "time": []}, "edge": {"target": [], "time": []}}}, "displayed_time": "9.44", "trialTime": 10273, "trial_type": "mouselab-mdp", "trial_index": 81, "time_elapsed": 1576744, "internal_node_id": "0.0-4.0-5.0-10.0"}}, {"uniqueid": "w74988108:a41144932", "current_trial": 82, "dateTime": 1664465688230, "trialdata": {"revealed_states": [], "num_clicks_accrued": [0, 0, 0, 0, 0, 0, 0, 0, 0, 0, 0, 0, 0], "stateRewards": ["", -4, 8, 24, 24, -2, 8, -48, 48, 4, -8, 48, -48], "withholdReward": true, "trial_id": "mdp_295249220524", "block": "test3", "trialIndex": 73, "score": 33, "costs": 0, "simulationMode": [null, null, null], "rewards": [-4, 8, 24], "path": ["0", "0", "1", "2", "3"], "rt": [990, 152, 2184], "actions": ["up", "up", "right"], "actionTimes": [2427, 3117, 5818], "queries": {"click": {"state": {"target": [], "time": []}, "edge": {"target": [], "time": []}}, "mouseover": {"state": {"target": [], "time": []}, "edge": {"target": [], "time": []}}, "mouseout": {"state": {"target": [], "time": []}, "edge": {"target": [], "time": []}}}, "displayed_time": "10.60", "trialTime": 11623, "trial_type": "mouselab-mdp", "trial_index": 82, "time_elapsed": 1588883, "internal_node_id": "0.0-4.0-5.0-11.0"}}, {"uniqueid": "w74988108:a41144932", "current_trial": 83, "dateTime": 1664465699010, "trialdata": {"revealed_states": [], "num_clicks_accrued": [0, 0, 0, 0, 0, 0, 0, 0, 0, 0, 0, 0, 0], "stateRewards": ["", 2, -4, 48, -24, 4, -8, -24, 48, -2, -4, 24, -48], "withholdReward": true, "trial_id": "mdp_357328205509", "block": "test3", "trialIndex": 74, "score": -23, "costs": 0, "simulationMode": [null, null, null], "rewards": [4, -8, -24], "path": ["0", "0", "5", "6", "7"], "rt": [1323, 568, 1966], "actions": ["right", "right", "up"], "actionTimes": [2797, 3889, 6368], "queries": {"click": {"state": {"target": [], "time": []}, "edge": {"target": [], "time": []}}, "mouseover": {"state": {"target": [], "time": []}, "edge": {"target": [], "time": []}}, "mouseout": {"state": {"target": [], "time": []}, "edge": {"target": [], "time": []}}}, "displayed_time": "9.53", "trialTime": 10524, "trial_type": "mouselab-mdp", "trial_index": 83, "time_elapsed": 1599663, "internal_node_id": "0.0-4.0-5.0-12.0"}}, {"uniqueid": "w74988108:a41144932", "current_trial": 84, "dateTime": 1664465712329, "trialdata": {"revealed_states": [], "num_clicks_accrued": [0, 0, 0, 0, 0, 0, 0, 0, 0, 0, 0, 0, 0], "stateRewards": ["", 2, -8, 48, -24, 2, -4, 24, 48, 4, -4, 48, -24], "withholdReward": true, "trial_id": "mdp_656500928756", "block": "test3", "trialIndex": 75, "score": 27, "costs": 0, "simulationMode": [null, null, null], "rewards": [2, -4, 24], "path": ["0", "0", "5", "6", "7"], "rt": [970, 2223, 779], "actions": ["right", "right", "up"], "actionTimes": [2401, 5137, 6428], "queries": {"click": {"state": {"target": [], "time": []}, "edge": {"target": [], "time": []}}, "mouseover": {"state": {"target": [], "time": []}, "edge": {"target": [], "time": []}}, "mouseout": {"state": {"target": [], "time": []}, "edge": {"target": [], "time": []}}}, "displayed_time": "11.67", "trialTime": 13036, "trial_type": "mouselab-mdp", "trial_index": 84, "time_elapsed": 1612982, "internal_node_id": "0.0-4.0-5.0-13.0"}}, {"uniqueid": "w74988108:a41144932", "current_trial": 85, "dateTime": 1664465725041, "trialdata": {"revealed_states": [], "num_clicks_accrued": [0, 0, 0, 0, 0, 0, 0, 0, 0, 0, 0, 0, 0], "stateRewards": ["", 4, -4, 48, -48, 2, 8, -48, 24, -2, -4, -24, 48], "withholdReward": false, "trial_id": "mdp_937564992306", "block": "test3", "trialIndex": 76, "score": 53, "costs": 0, "simulationMode": [null, null, null], "rewards": [4, -4, 48], "path": ["0", "0", "1", "2", "3"], "rt": [1998, 254, 3332], "actions": ["up", "up", "right"], "actionTimes": [3381, 4156, 8014], "queries": {"click": {"state": {"target": [], "time": []}, "edge": {"target": [], "time": []}}, "mouseover": {"state": {"target": [], "time": []}, "edge": {"target": [], "time": []}}, "mouseout": {"state": {"target": [], "time": []}, "edge": {"target": [], "time": []}}}, "displayed_time": "10.60", "trialTime": 12431, "trial_type": "mouselab-mdp", "trial_index": 85, "time_elapsed": 1625694, "internal_node_id": "0.0-4.0-5.0-14.0"}}, {"uniqueid": "w74988108:a41144932", "current_trial": 86, "dateTime": 1664465735999, "trialdata": {"revealed_states": [], "num_clicks_accrued": [0, 0, 0, 0, 0, 0, 0, 0, 0, 0, 0, 0, 0], "stateRewards": ["", -4, 8, 24, 24, 2, 4, -48, 24, -2, -4, -24, -24], "withholdReward": true, "trial_id": "mdp_752328329546", "block": "test3", "trialIndex": 77, "score": -25, "costs": 0, "simulationMode": [null, null, null], "rewards": [-2, -4, -24], "path": ["0", "0", "9", "10", "12"], "rt": [1827, 928, 1549], "actions": ["left", "left", "down"], "actionTimes": [3367, 4814, 6901], "queries": {"click": {"state": {"target": [], "time": []}, "edge": {"target": [], "time": []}}, "mouseover": {"state": {"target": [], "time": []}, "edge": {"target": [], "time": []}}, "mouseout": {"state": {"target": [], "time": []}, "edge": {"target": [], "time": []}}}, "displayed_time": "9.67", "trialTime": 10743, "trial_type": "mouselab-mdp", "trial_index": 86, "time_elapsed": 1636652, "internal_node_id": "0.0-4.0-5.0-15.0"}}, {"uniqueid": "w74988108:a41144932", "current_trial": 87, "dateTime": 1664465747383, "trialdata": {"revealed_states": [], "num_clicks_accrued": [0, 0, 0, 0, 0, 0, 0, 0, 0, 0, 0, 0, 0], "stateRewards": ["", -4, 4, -24, 48, -2, 8, -48, 24, 2, 4, 48, -48], "withholdReward": true, "trial_id": "mdp_366632183904", "block": "test3", "trialIndex": 78, "score": 59, "costs": 0, "simulationMode": [null, null, null], "rewards": [2, 4, 48], "path": ["0", "0", "9", "10", "11"], "rt": [1087, 1878, 3665], "actions": ["left", "left", "up"], "actionTimes": [2612, 5013, 9211], "queries": {"click": {"state": {"target": [], "time": []}, "edge": {"target": [], "time": []}}, "mouseover": {"state": {"target": [], "time": []}, "edge": {"target": [], "time": []}}, "mouseout": {"state": {"target": [], "time": []}, "edge": {"target": [], "time": []}}}, "displayed_time": "9.72", "trialTime": 11128, "trial_type": "mouselab-mdp", "trial_index": 87, "time_elapsed": 1648035, "internal_node_id": "0.0-4.0-5.0-16.0"}}, {"uniqueid": "w74988108:a41144932", "current_trial": 88, "dateTime": 1664465758776, "trialdata": {"revealed_states": [], "num_clicks_accrued": [0, 0, 0, 0, 0, 0, 0, 0, 0, 0, 0, 0, 0], "stateRewards": ["", 2, -8, 48, -24, 2, 8, 24, -24, 4, -4, -48, -48], "withholdReward": true, "trial_id": "mdp_130946197263", "block": "test3", "trialIndex": 79, "score": 39, "costs": 0, "simulationMode": [null, null, null], "rewards": [2, 8, 24], "path": ["0", "0", "5", "6", "7"], "rt": [1429, 403, 2905], "actions": ["right", "right", "up"], "actionTimes": [3063, 3988, 7405], "queries": {"click": {"state": {"target": [], "time": []}, "edge": {"target": [], "time": []}}, "mouseover": {"state": {"target": [], "time": []}, "edge": {"target": [], "time": []}}, "mouseout": {"state": {"target": [], "time": []}, "edge": {"target": [], "time": []}}}, "displayed_time": "9.73", "trialTime": 11100, "trial_type": "mouselab-mdp", "trial_index": 88, "time_elapsed": 1659428, "internal_node_id": "0.0-4.0-5.0-17.0"}}, {"uniqueid": "w74988108:a41144932", "current_trial": 89, "dateTime": 1664465770928, "trialdata": {"revealed_states": [], "num_clicks_accrued": [0, 0, 0, 0, 0, 0, 0, 0, 0, 0, 0, 0, 0], "stateRewards": ["", 2, 8, 24, 24, 2, -8, -24, -48, 2, 8, -48, 48], "withholdReward": true, "trial_id": "mdp_745175888812", "block": "test3", "trialIndex": 80, "score": -25, "costs": 0, "simulationMode": [null, null, null], "rewards": [2, -8, -24], "path": ["0", "0", "5", "6", "7"], "rt": [1403, 1130, 3372], "actions": ["right", "right", "up"], "actionTimes": [3343, 4988, 8919], "queries": {"click": {"state": {"target": [], "time": []}, "edge": {"target": [], "time": []}}, "mouseover": {"state": {"target": [], "time": []}, "edge": {"target": [], "time": []}}, "mouseout": {"state": {"target": [], "time": []}, "edge": {"target": [], "time": []}}}, "displayed_time": "10.03", "trialTime": 11843, "trial_type": "mouselab-mdp", "trial_index": 89, "time_elapsed": 1671579, "internal_node_id": "0.0-4.0-5.0-18.0"}}, {"uniqueid": "w74988108:a41144932", "current_trial": 90, "dateTime": 1664465783086, "trialdata": {"revealed_states": [], "num_clicks_accrued": [0, 0, 0, 0, 0, 0, 0, 0, 0, 0, 0, 0, 0], "stateRewards": ["", 2, 4, 48, 48, -2, 4, 48, -24, -4, 8, -48, 48], "withholdReward": true, "trial_id": "mdp_407586865939", "block": "test3", "trialIndex": 81, "score": -17, "costs": 0, "simulationMode": [null, null, null], "rewards": [-2, 4, -24], "path": ["0", "0", "5", "6", "8"], "rt": [896, 465, 760], "actions": ["right", "right", "down"], "actionTimes": [2249, 3250, 4529], "queries": {"click": {"state": {"target": [], "time": []}, "edge": {"target": [], "time": []}}, "mouseover": {"state": {"target": [], "time": []}, "edge": {"target": [], "time": []}}, "mouseout": {"state": {"target": [], "time": []}, "edge": {"target": [], "time": []}}}, "displayed_time": "10.43", "trialTime": 11713, "trial_type": "mouselab-mdp", "trial_index": 90, "time_elapsed": 1683738, "internal_node_id": "0.0-4.0-5.0-19.0"}}, {"uniqueid": "w74988108:a41144932", "current_trial": 91, "dateTime": 1664465797758, "trialdata": {"revealed_states": [], "num_clicks_accrued": [0, 0, 0, 0, 0, 0, 0, 0, 0, 0, 0, 0, 0], "stateRewards": ["", -4, 8, -24, 48, 2, -8, 24, 48, 2, -8, -24, -48], "withholdReward": false, "trial_id": "mdp_493778446445", "block": "test3", "trialIndex": 82, "score": 47, "costs": 0, "simulationMode": [null, null, null], "rewards": [2, -8, 48], "path": ["0", "0", "5", "6", "8"], "rt": [956, 1151, 906], "actions": ["right", "right", "down"], "actionTimes": [3332, 5011, 6432], "queries": {"click": {"state": {"target": [], "time": []}, "edge": {"target": [], "time": []}}, "mouseover": {"state": {"target": [], "time": []}, "edge": {"target": [], "time": []}}, "mouseout": {"state": {"target": [], "time": []}, "edge": {"target": [], "time": []}}}, "displayed_time": "12.60", "trialTime": 14374, "trial_type": "mouselab-mdp", "trial_index": 91, "time_elapsed": 1698408, "internal_node_id": "0.0-4.0-5.0-20.0"}}, {"uniqueid": "w74988108:a41144932", "current_trial": 92, "dateTime": 1664465811229, "trialdata": {"revealed_states": [], "num_clicks_accrued": [0, 0, 0, 0, 0, 0, 0, 0, 0, 0, 0, 0, 0], "stateRewards": ["", 2, 4, 48, 48, 4, -8, 24, -48, -4, -8, -24, -48], "withholdReward": false, "trial_id": "mdp_343818007251", "block": "test3", "trialIndex": 83, "score": 59, "costs": 0, "simulationMode": [null, null, null], "rewards": [2, 4, 48], "path": ["0", "0", "1", "2", "3"], "rt": [842, 1560, 4547], "actions": ["up", "up", "right"], "actionTimes": [2266, 4358, 9425], "queries": {"click": {"state": {"target": [], "time": []}, "edge": {"target": [], "time": []}}, "mouseover": {"state": {"target": [], "time": []}, "edge": {"target": [], "time": []}}, "mouseout": {"state": {"target": [], "time": []}, "edge": {"target": [], "time": []}}}, "displayed_time": "11.53", "trialTime": 13181, "trial_type": "mouselab-mdp", "trial_index": 92, "time_elapsed": 1711882, "internal_node_id": "0.0-4.0-5.0-21.0"}}, {"uniqueid": "w74988108:a41144932", "current_trial": 93, "dateTime": 1664465822067, "trialdata": {"revealed_states": [], "num_clicks_accrued": [0, 0, 0, 0, 0, 0, 0, 0, 0, 0, 0, 0, 0], "stateRewards": ["", -2, -8, -24, -48, 4, -8, 48, 24, 2, 4, -48, -48], "withholdReward": true, "trial_id": "mdp_898082967464", "block": "test3", "trialIndex": 84, "score": -37, "costs": 0, "simulationMode": [null, null, null], "rewards": [2, 4, -48], "path": ["0", "0", "9", "10", "11"], "rt": [1184, 1009, 3116], "actions": ["left", "left", "up"], "actionTimes": [2660, 4194, 7850], "queries": {"click": {"state": {"target": [], "time": []}, "edge": {"target": [], "time": []}}, "mouseover": {"state": {"target": [], "time": []}, "edge": {"target": [], "time": []}}, "mouseout": {"state": {"target": [], "time": []}, "edge": {"target": [], "time": []}}}, "displayed_time": "9.56", "trialTime": 10626, "trial_type": "mouselab-mdp", "trial_index": 93, "time_elapsed": 1722719, "internal_node_id": "0.0-4.0-5.0-22.0"}}, {"uniqueid": "w74988108:a41144932", "current_trial": 94, "dateTime": 1664465835080, "trialdata": {"revealed_states": [], "num_clicks_accrued": [0, 0, 0, 0, 0, 0, 0, 0, 0, 0, 0, 0, 0], "stateRewards": ["", -4, 8, 48, -48, 2, -4, 24, -24, -2, 4, -24, -24], "withholdReward": true, "trial_id": "mdp_804988042722", "block": "test3", "trialIndex": 85, "score": -17, "costs": 0, "simulationMode": [null, null, null], "rewards": [-2, 4, -24], "path": ["0", "0", "9", "10", "11"], "rt": [1006, 372, 3717], "actions": ["left", "left", "up"], "actionTimes": [2192, 3088, 7316], "queries": {"click": {"state": {"target": [], "time": []}, "edge": {"target": [], "time": []}}, "mouseover": {"state": {"target": [], "time": []}, "edge": {"target": [], "time": []}}, "mouseout": {"state": {"target": [], "time": []}, "edge": {"target": [], "time": []}}}, "displayed_time": "11.48", "trialTime": 12739, "trial_type": "mouselab-mdp", "trial_index": 94, "time_elapsed": 1735733, "internal_node_id": "0.0-4.0-5.0-23.0"}}, {"uniqueid": "w74988108:a41144932", "current_trial": 95, "dateTime": 1664465845994, "trialdata": {"revealed_states": [], "num_clicks_accrued": [0, 0, 0, 0, 0, 0, 0, 0, 0, 0, 0, 0, 0], "stateRewards": ["", -4, 8, -48, -48, -4, 4, -24, -48, 2, -4, -24, 24], "withholdReward": false, "trial_id": "mdp_183773275291", "block": "test3", "trialIndex": 86, "score": -43, "costs": 0, "simulationMode": [null, null, null], "rewards": [-4, 4, -48], "path": ["0", "0", "5", "6", "8"], "rt": [1063, 1864, 3231], "actions": ["right", "right", "down"], "actionTimes": [2502, 4887, 8637], "queries": {"click": {"state": {"target": [], "time": []}, "edge": {"target": [], "time": []}}, "mouseover": {"state": {"target": [], "time": []}, "edge": {"target": [], "time": []}}, "mouseout": {"state": {"target": [], "time": []}, "edge": {"target": [], "time": []}}}, "displayed_time": "9.17", "trialTime": 10692, "trial_type": "mouselab-mdp", "trial_index": 95, "time_elapsed": 1746647, "internal_node_id": "0.0-4.0-5.0-24.0"}}, {"uniqueid": "w74988108:a41144932", "current_trial": 96, "dateTime": 1664465860583, "trialdata": {"revealed_states": [], "num_clicks_accrued": [0, 0, 0, 0, 0, 0, 0, 0, 0, 0, 0, 0, 0], "stateRewards": ["", -2, -4, -24, -48, -2, 8, -48, 24, 4, -4, -24, -24], "withholdReward": true, "trial_id": "mdp_915304165774", "block": "test3", "trialIndex": 87, "score": -19, "costs": 0, "simulationMode": [null, null, null], "rewards": [4, -4, -24], "path": ["0", "0", "9", "10", "11"], "rt": [1708, 6946, 821], "actions": ["left", "left", "up"], "actionTimes": [3652, 11119, 12506], "queries": {"click": {"state": {"target": [], "time": []}, "edge": {"target": [], "time": []}}, "mouseover": {"state": {"target": [], "time": []}, "edge": {"target": [], "time": []}}, "mouseout": {"state": {"target": [], "time": []}, "edge": {"target": [], "time": []}}}, "displayed_time": "13.03", "trialTime": 14332, "trial_type": "mouselab-mdp", "trial_index": 96, "time_elapsed": 1761236, "internal_node_id": "0.0-4.0-5.0-25.0"}}, {"uniqueid": "w74988108:a41144932", "current_trial": 97, "dateTime": 1664465872634, "trialdata": {"revealed_states": [], "num_clicks_accrued": [0, 0, 0, 0, 0, 0, 0, 0, 0, 0, 0, 0, 0], "stateRewards": ["", 2, 8, 48, 24, -4, 4, -48, 24, 2, 8, 48, 48], "withholdReward": false, "trial_id": "mdp_367344599162", "block": "test3", "trialIndex": 88, "score": 29, "costs": 0, "simulationMode": [null, null, null], "rewards": [-4, 4, 24], "path": ["0", "0", "5", "6", "8"], "rt": [1114, 161, 1311], "actions": ["right", "right", "down"], "actionTimes": [2543, 3220, 5036], "queries": {"click": {"state": {"target": [], "time": []}, "edge": {"target": [], "time": []}}, "mouseover": {"state": {"target": [], "time": []}, "edge": {"target": [], "time": []}}, "mouseout": {"state": {"target": [], "time": []}, "edge": {"target": [], "time": []}}}, "displayed_time": "10.52", "trialTime": 11869, "trial_type": "mouselab-mdp", "trial_index": 97, "time_elapsed": 1773287, "internal_node_id": "0.0-4.0-5.0-26.0"}}, {"uniqueid": "w74988108:a41144932", "current_trial": 98, "dateTime": 1664465884031, "trialdata": {"revealed_states": [], "num_clicks_accrued": [0, 0, 0, 0, 0, 0, 0, 0, 0, 0, 0, 0, 0], "stateRewards": ["", -4, 4, -24, 24, -2, -4, 48, 24, 2, 8, -48, 24], "withholdReward": true, "trial_id": "mdp_150340189492", "block": "test3", "trialIndex": 89, "score": 29, "costs": 0, "simulationMode": [null, null, null], "rewards": [-4, 4, 24], "path": ["0", "0", "1", "2", "4"], "rt": [1350, 155, 1008], "actions": ["up", "up", "left"], "actionTimes": [2698, 3397, 4936], "queries": {"click": {"state": {"target": [], "time": []}, "edge": {"target": [], "time": []}}, "mouseover": {"state": {"target": [], "time": []}, "edge": {"target": [], "time": []}}, "mouseout": {"state": {"target": [], "time": []}, "edge": {"target": [], "time": []}}}, "displayed_time": "9.45", "trialTime": 10944, "trial_type": "mouselab-mdp", "trial_index": 98, "time_elapsed": 1784684, "internal_node_id": "0.0-4.0-5.0-27.0"}}, {"uniqueid": "w74988108:a41144932", "current_trial": 99, "dateTime": 1664465899701, "trialdata": {"revealed_states": [], "num_clicks_accrued": [0, 0, 0, 0, 0, 0, 0, 0, 0, 0, 0, 0, 0], "stateRewards": ["", -4, 8, 24, -48, -4, -8, -24, 24, 2, -4, -48, 24], "withholdReward": true, "trial_id": "mdp_898449441629", "block": "test3", "trialIndex": 90, "score": 33, "costs": 0, "simulationMode": [null, null, null], "rewards": [-4, 8, 24], "path": ["0", "0", "1", "2", "3"], "rt": [8458, 135, 768], "actions": ["up", "up", "right"], "actionTimes": [11775, 12432, 13723], "queries": {"click": {"state": {"target": [], "time": []}, "edge": {"target": [], "time": []}}, "mouseover": {"state": {"target": [], "time": []}, "edge": {"target": [], "time": []}}, "mouseout": {"state": {"target": ["0"], "time": [10413]}, "edge": {"target": [], "time": []}}}, "displayed_time": "14.23", "trialTime": 15442, "trial_type": "mouselab-mdp", "trial_index": 99, "time_elapsed": 1800354, "internal_node_id": "0.0-4.0-5.0-28.0"}}, {"uniqueid": "w74988108:a41144932", "current_trial": 100, "dateTime": 1664465914180, "trialdata": {"revealed_states": [], "num_clicks_accrued": [0, 0, 0, 0, 0, 0, 0, 0, 0, 0, 0, 0, 0], "stateRewards": ["", 2, 4, -48, 48, -4, 8, -48, -24, -4, -4, 48, 48], "withholdReward": false, "trial_id": "mdp_613582696541", "block": "test3", "trialIndex": 91, "score": -15, "costs": 0, "simulationMode": [null, null, null], "rewards": [-4, 8, -24], "path": ["0", "0", "5", "6", "8"], "rt": [1251, 222, 3377], "actions": ["right", "right", "down"], "actionTimes": [4335, 5094, 9107], "queries": {"click": {"state": {"target": [], "time": []}, "edge": {"target": [], "time": []}}, "mouseover": {"state": {"target": [], "time": []}, "edge": {"target": [], "time": []}}, "mouseout": {"state": {"target": [], "time": []}, "edge": {"target": [], "time": []}}}, "displayed_time": "12.22", "trialTime": 14239, "trial_type": "mouselab-mdp", "trial_index": 100, "time_elapsed": 1814833, "internal_node_id": "0.0-4.0-5.0-29.0"}}, {"uniqueid": "w74988108:a41144932", "current_trial": 101, "dateTime": 1664465918046, "trialdata": {"rt": 3853, "stimulus": "<h1> End of block! </h1>\n\nYou have reached the end of the block 3/4. If you need a short break, feel free to take one now before moving on.\n\n<br><br>\nIn the next block, you will complete another 30 rounds of this game.\n\n<br><br>\n<div style='text-align: center;'>Press <code>space</code> to begin.</div>\n<br><br>\n<div style='text-align: center;'>(If the experiment doesn't continue, try clicking on the text and then pressing <code>space</code>.)</div>", "response": " ", "trial_id": "mdp_ready_4", "trial_type": "html-keyboard-response", "trial_index": 101, "time_elapsed": 1818699, "internal_node_id": "0.0-4.0-6.0"}}, {"uniqueid": "w74988108:a41144932", "current_trial": 102, "dateTime": 1664465930781, "trialdata": {"revealed_states": [], "num_clicks_accrued": [0, 0, 0, 0, 0, 0, 0, 0, 0, 0, 0, 0, 0], "stateRewards": ["", -2, 8, 48, -24, 2, 4, -48, -24, -4, 8, -48, -48], "withholdReward": true, "trial_id": "mdp_539167561933", "block": "test4", "trialIndex": 92, "score": 59, "costs": 0, "simulationMode": [null, null, null], "rewards": [-2, 8, 48], "path": ["0", "0", "1", "2", "3"], "rt": [1988, 940, 1988], "actions": ["up", "up", "right"], "actionTimes": [3909, 5361, 7890], "queries": {"click": {"state": {"target": [], "time": []}, "edge": {"target": [], "time": []}}, "mouseover": {"state": {"target": [], "time": []}, "edge": {"target": [], "time": []}}, "mouseout": {"state": {"target": [], "time": []}, "edge": {"target": [], "time": []}}}, "displayed_time": "11.23", "trialTime": 12557, "trial_type": "mouselab-mdp", "trial_index": 102, "time_elapsed": 1831434, "internal_node_id": "0.0-4.0-7.0-0.0"}}, {"uniqueid": "w74988108:a41144932", "current_trial": 103, "dateTime": 1664465943586, "trialdata": {"revealed_states": [], "num_clicks_accrued": [0, 0, 0, 0, 0, 0, 0, 0, 0, 0, 0, 0, 0], "stateRewards": ["", 2, 8, -48, 48, -4, -8, 24, 24, -2, -8, 24, -24], "withholdReward": true, "trial_id": "mdp_910248289075", "block": "test4", "trialIndex": 93, "score": -29, "costs": 0, "simulationMode": [null, null, null], "rewards": [-2, -8, -24], "path": ["0", "0", "9", "10", "12"], "rt": [1745, 580, 624], "actions": ["left", "left", "down"], "actionTimes": [3123, 4215, 5359], "queries": {"click": {"state": {"target": [], "time": []}, "edge": {"target": [], "time": []}}, "mouseover": {"state": {"target": [], "time": []}, "edge": {"target": [], "time": []}}, "mouseout": {"state": {"target": [], "time": []}, "edge": {"target": [], "time": []}}}, "displayed_time": "11.48", "trialTime": 12563, "trial_type": "mouselab-mdp", "trial_index": 103, "time_elapsed": 1844239, "internal_node_id": "0.0-4.0-7.0-1.0"}}, {"unique