{"condition": 0, "counterbalance": 0, "assignmentId": "a63751796", "workerId": "w41250443", "hitId": "h55873891", "currenttrial": 965, "bonus": 0, "data": [{"uniqueid": "w41250443:a63751796", "current_trial": 0, "dateTime": 1664873136006, "trialdata": {"success": true, "trial_type": "fullscreen", "trial_index": 0, "time_elapsed": 4433, "internal_node_id": "0.0-0.0"}}, {"uniqueid": "w41250443:a63751796", "current_trial": 1, "dateTime": 1664873230934, "trialdata": {"view_history": [{"page_index": 0, "viewing_time": 94917}], "rt": 94921, "trial_id": "exp_instructions_distractor", "trial_type": "instructions", "trial_index": 1, "time_elapsed": 99362, "internal_node_id": "0.0-1.0"}}, {"uniqueid": "w41250443:a63751796", "current_trial": 2, "dateTime": 1664873272625, "trialdata": {"view_history": [{"page_index": 0, "viewing_time": 41687}], "rt": 41689, "trial_id": "color_game_instructions", "trial_type": "instructions", "trial_index": 2, "time_elapsed": 141053, "internal_node_id": "0.0-2.0"}}, {"uniqueid": "w41250443:a63751796", "current_trial": 3, "dateTime": 1664873277482, "trialdata": {"rt": 4852, "stimulus": "<h1> Get ready to start the game! </h1>\n\nThank you for reading the instructions. Get ready start with the first of 5 block(s) of this game.\n<br><br>\nIn this first block, you will complete 90 rounds of this game before moving on.\n<br><br>\nRemember, the better you perform, the bigger your bonus will be!\n<br><br>\n<div style='text-align: center;'>Press <code>space</code> to begin.</div>", "response": " ", "trial_id": "stroop_1_ready_1", "trial_type": "html-keyboard-response", "trial_index": 3, "time_elapsed": 145910, "internal_node_id": "0.0-3.0"}}, {"uniqueid": "w41250443:a63751796", "current_trial": 4, "dateTime": 1664873278914, "trialdata": {"rt": 1422, "stimulus": "<p id='stroop-text' class='stroop-blue'>GREEN</p>", "response": "b", "stimulus-type": "incongruent", "word": "green", "color": "blue", "correct_response": "b", "trial_id": "stroop-trial-1-incongruent-6", "trial_type": "html-keyboard-response", "trial_index": 4, "time_elapsed": 147342, "internal_node_id": "0.0-4.0-0.0"}}, {"uniqueid": "w41250443:a63751796", "current_trial": 5, "dateTime": 1664873280955, "trialdata": {"rt": 1537, "stimulus": "<p id='stroop-text' class='stroop-red'>STONE</p>", "response": "r", "stimulus-type": "unrelated", "word": "STONE", "color": "red", "correct_response": "r", "trial_id": "stroop-trial-1-unrelated-22", "trial_type": "html-keyboard-response", "trial_index": 5, "time_elapsed": 149383, "internal_node_id": "0.0-4.0-1.0"}}, {"uniqueid": "w41250443:a63751796", "current_trial": 6, "dateTime": 1664873282701, "trialdata": {"rt": 1242, "stimulus": "<p id='stroop-text' class='stroop-blue'>RED</p>", "response": "b", "stimulus-type": "incongruent", "word": "red", "color": "blue", "correct_response": "b", "trial_id": "stroop-trial-1-incongruent-22", "trial_type": "html-keyboard-response", "trial_index": 6, "time_elapsed": 151128, "internal_node_id": "0.0-4.0-2.0"}}, {"uniqueid": "w41250443:a63751796", "current_trial": 7, "dateTime": 1664873284031, "trialdata": {"rt": 828, "stimulus": "<p id='stroop-text' class='stroop-yellow'>YELLOW</p>", "response": "y", "stimulus-type": "congruent", "word": "yellow", "color": "yellow", "correct_response": "y", "trial_id": "stroop-trial-1-congruent-24", "trial_type": "html-keyboard-response", "trial_index": 7, "time_elapsed": 152459, "internal_node_id": "0.0-4.0-3.0"}}, {"uniqueid": "w41250443:a63751796", "current_trial": 8, "dateTime": 1664873285564, "trialdata": {"rt": 1029, "stimulus": "<p id='stroop-text' class='stroop-red'>BOAT</p>", "response": "r", "stimulus-type": "unrelated", "word": "BOAT", "color": "red", "correct_response": "r", "trial_id": "stroop-trial-1-unrelated-2", "trial_type": "html-keyboard-response", "trial_index": 8, "time_elapsed": 153991, "internal_node_id": "0.0-4.0-4.0"}}, {"uniqueid": "w41250443:a63751796", "current_trial": 9, "dateTime": 1664873286958, "trialdata": {"rt": 890, "stimulus": "<p id='stroop-text' class='stroop-blue'>BLUE</p>", "response": "b", "stimulus-type": "congruent", "word": "blue", "color": "blue", "correct_response": "b", "trial_id": "stroop-trial-1-congruent-23", "trial_type": "html-keyboard-response", "trial_index": 9, "time_elapsed": 155386, "internal_node_id": "0.0-4.0-5.0"}}, {"uniqueid": "w41250443:a63751796", "current_trial": 10, "dateTime": 1664873289078, "trialdata": {"rt": 1617, "stimulus": "<p id='stroop-text' class='stroop-red'>YELLOW</p>", "response": "r", "stimulus-type": "incongruent", "word": "yellow", "color": "red", "correct_response": "r", "trial_id": "stroop-trial-1-incongruent-8", "trial_type": "html-keyboard-response", "trial_index": 10, "time_elapsed": 157505, "internal_node_id": "0.0-4.0-6.0"}}, {"uniqueid": "w41250443:a63751796", "current_trial": 11, "dateTime": 1664873290913, "trialdata": {"rt": 1331, "stimulus": "<p id='stroop-text' class='stroop-green'>CHAIR</p>", "response": "g", "stimulus-type": "unrelated", "word": "CHAIR", "color": "green", "correct_response": "g", "trial_id": "stroop-trial-1-unrelated-1", "trial_type": "html-keyboard-response", "trial_index": 11, "time_elapsed": 159340, "internal_node_id": "0.0-4.0-7.0"}}, {"uniqueid": "w41250443:a63751796", "current_trial": 12, "dateTime": 1664873292457, "trialdata": {"rt": 1041, "stimulus": "<p id='stroop-text' class='stroop-red'>RED</p>", "response": "r", "stimulus-type": "congruent", "word": "red", "color": "red", "correct_response": "r", "trial_id": "stroop-trial-1-congruent-21", "trial_type": "html-keyboard-response", "trial_index": 12, "time_elapsed": 160884, "internal_node_id": "0.0-4.0-8.0"}}, {"uniqueid": "w41250443:a63751796", "current_trial": 13, "dateTime": 1664873293983, "trialdata": {"rt": 1021, "stimulus": "<p id='stroop-text' class='stroop-green'>GREEN</p>", "response": "g", "stimulus-type": "congruent", "word": "green", "color": "green", "correct_response": "g", "trial_id": "stroop-trial-1-congruent-19", "trial_type": "html-keyboard-response", "trial_index": 13, "time_elapsed": 162411, "internal_node_id": "0.0-4.0-9.0"}}, {"uniqueid": "w41250443:a63751796", "current_trial": 14, "dateTime": 1664873295374, "trialdata": {"rt": 887, "stimulus": "<p id='stroop-text' class='stroop-red'>RED</p>", "response": "r", "stimulus-type": "congruent", "word": "red", "color": "red", "correct_response": "r", "trial_id": "stroop-trial-1-congruent-11", "trial_type": "html-keyboard-response", "trial_index": 14, "time_elapsed": 163801, "internal_node_id": "0.0-4.0-10.0"}}, {"uniqueid": "w41250443:a63751796", "current_trial": 15, "dateTime": 1664873296777, "trialdata": {"rt": 898, "stimulus": "<p id='stroop-text' class='stroop-red'>RED</p>", "response": "r", "stimulus-type": "congruent", "word": "red", "color": "red", "correct_response": "r", "trial_id": "stroop-trial-1-congruent-14", "trial_type": "html-keyboard-response", "trial_index": 15, "time_elapsed": 165205, "internal_node_id": "0.0-4.0-11.0"}}, {"uniqueid": "w41250443:a63751796", "current_trial": 16, "dateTime": 1664873297944, "trialdata": {"rt": 663, "stimulus": "<p id='stroop-text' class='stroop-blue'>WINDOW</p>", "response": "b", "stimulus-type": "unrelated", "word": "WINDOW", "color": "blue", "correct_response": "b", "trial_id": "stroop-trial-1-unrelated-26", "trial_type": "html-keyboard-response", "trial_index": 16, "time_elapsed": 166372, "internal_node_id": "0.0-4.0-12.0"}}, {"uniqueid": "w41250443:a63751796", "current_trial": 17, "dateTime": 1664873299946, "trialdata": {"rt": 1498, "stimulus": "<p id='stroop-text' class='stroop-red'>WINDOW</p>", "response": "r", "stimulus-type": "unrelated", "word": "WINDOW", "color": "red", "correct_response": "r", "trial_id": "stroop-trial-1-unrelated-24", "trial_type": "html-keyboard-response", "trial_index": 17, "time_elapsed": 168373, "internal_node_id": "0.0-4.0-13.0"}}, {"uniqueid": "w41250443:a63751796", "current_trial": 18, "dateTime": 1664873301418, "trialdata": {"rt": 962, "stimulus": "<p id='stroop-text' class='stroop-yellow'>RED</p>", "response": "y", "stimulus-type": "incongruent", "word": "red", "color": "yellow", "correct_response": "y", "trial_id": "stroop-trial-1-incongruent-19", "trial_type": "html-keyboard-response", "trial_index": 18, "time_elapsed": 169845, "internal_node_id": "0.0-4.0-14.0"}}, {"uniqueid": "w41250443:a63751796", "current_trial": 19, "dateTime": 1664873302754, "trialdata": {"rt": 832, "stimulus": "<p id='stroop-text' class='stroop-red'>BOTTLE</p>", "response": "r", "stimulus-type": "unrelated", "word": "BOTTLE", "color": "red", "correct_response": "r", "trial_id": "stroop-trial-1-unrelated-28", "trial_type": "html-keyboard-response", "trial_index": 19, "time_elapsed": 171182, "internal_node_id": "0.0-4.0-15.0"}}, {"uniqueid": "w41250443:a63751796", "current_trial": 20, "dateTime": 1664873304089, "trialdata": {"rt": 828, "stimulus": "<p id='stroop-text' class='stroop-red'>SHIP</p>", "response": "r", "stimulus-type": "unrelated", "word": "SHIP", "color": "red", "correct_response": "r", "trial_id": "stroop-trial-1-unrelated-3", "trial_type": "html-keyboard-response", "trial_index": 20, "time_elapsed": 172516, "internal_node_id": "0.0-4.0-16.0"}}, {"uniqueid": "w41250443:a63751796", "current_trial": 21, "dateTime": 1664873305764, "trialdata": {"rt": 1172, "stimulus": "<p id='stroop-text' class='stroop-yellow'>GREEN</p>", "response": "y", "stimulus-type": "incongruent", "word": "green", "color": "yellow", "correct_response": "y", "trial_id": "stroop-trial-1-incongruent-30", "trial_type": "html-keyboard-response", "trial_index": 21, "time_elapsed": 174192, "internal_node_id": "0.0-4.0-17.0"}}, {"uniqueid": "w41250443:a63751796", "current_trial": 22, "dateTime": 1664873307037, "trialdata": {"rt": 770, "stimulus": "<p id='stroop-text' class='stroop-blue'>BLUE</p>", "response": "b", "stimulus-type": "congruent", "word": "blue", "color": "blue", "correct_response": "b", "trial_id": "stroop-trial-1-congruent-12", "trial_type": "html-keyboard-response", "trial_index": 22, "time_elapsed": 175464, "internal_node_id": "0.0-4.0-18.0"}}, {"uniqueid": "w41250443:a63751796", "current_trial": 23, "dateTime": 1664873308248, "trialdata": {"rt": 706, "stimulus": "<p id='stroop-text' class='stroop-red'>RED</p>", "response": "r", "stimulus-type": "congruent", "word": "red", "color": "red", "correct_response": "r", "trial_id": "stroop-trial-1-congruent-10", "trial_type": "html-keyboard-response", "trial_index": 23, "time_elapsed": 176675, "internal_node_id": "0.0-4.0-19.0"}}, {"uniqueid": "w41250443:a63751796", "current_trial": 24, "dateTime": 1664873309527, "trialdata": {"rt": 776, "stimulus": "<p id='stroop-text' class='stroop-yellow'>STONE</p>", "response": "y", "stimulus-type": "unrelated", "word": "STONE", "color": "yellow", "correct_response": "y", "trial_id": "stroop-trial-1-unrelated-13", "trial_type": "html-keyboard-response", "trial_index": 24, "time_elapsed": 177954, "internal_node_id": "0.0-4.0-20.0"}}, {"uniqueid": "w41250443:a63751796", "current_trial": 25, "dateTime": 1664873311127, "trialdata": {"rt": 1097, "stimulus": "<p id='stroop-text' class='stroop-red'>BLUE</p>", "response": "r", "stimulus-type": "incongruent", "word": "blue", "color": "red", "correct_response": "r", "trial_id": "stroop-trial-1-incongruent-7", "trial_type": "html-keyboard-response", "trial_index": 25, "time_elapsed": 179555, "internal_node_id": "0.0-4.0-21.0"}}, {"uniqueid": "w41250443:a63751796", "current_trial": 26, "dateTime": 1664873312438, "trialdata": {"rt": 807, "stimulus": "<p id='stroop-text' class='stroop-green'>FORK</p>", "response": "g", "stimulus-type": "unrelated", "word": "FORK", "color": "green", "correct_response": "g", "trial_id": "stroop-trial-1-unrelated-5", "trial_type": "html-keyboard-response", "trial_index": 26, "time_elapsed": 180866, "internal_node_id": "0.0-4.0-22.0"}}, {"uniqueid": "w41250443:a63751796", "current_trial": 27, "dateTime": 1664873313524, "trialdata": {"rt": 583, "stimulus": "<p id='stroop-text' class='stroop-green'>YELLOW</p>", "response": "g", "stimulus-type": "incongruent", "word": "yellow", "color": "green", "correct_response": "g", "trial_id": "stroop-trial-1-incongruent-15", "trial_type": "html-keyboard-response", "trial_index": 27, "time_elapsed": 181952, "internal_node_id": "0.0-4.0-23.0"}}, {"uniqueid": "w41250443:a63751796", "current_trial": 28, "dateTime": 1664873314917, "trialdata": {"rt": 891, "stimulus": "<p id='stroop-text' class='stroop-red'>CHAIR</p>", "response": "r", "stimulus-type": "unrelated", "word": "CHAIR", "color": "red", "correct_response": "r", "trial_id": "stroop-trial-1-unrelated-30", "trial_type": "html-keyboard-response", "trial_index": 28, "time_elapsed": 183344, "internal_node_id": "0.0-4.0-24.0"}}, {"uniqueid": "w41250443:a63751796", "current_trial": 29, "dateTime": 1664873316132, "trialdata": {"rt": 707, "stimulus": "<p id='stroop-text' class='stroop-red'>FORK</p>", "response": "r", "stimulus-type": "unrelated", "word": "FORK", "color": "red", "correct_response": "r", "trial_id": "stroop-trial-1-unrelated-6", "trial_type": "html-keyboard-response", "trial_index": 29, "time_elapsed": 184560, "internal_node_id": "0.0-4.0-25.0"}}, {"uniqueid": "w41250443:a63751796", "current_trial": 30, "dateTime": 1664873317257, "trialdata": {"rt": 622, "stimulus": "<p id='stroop-text' class='stroop-yellow'>YELLOW</p>", "response": "y", "stimulus-type": "congruent", "word": "yellow", "color": "yellow", "correct_response": "y", "trial_id": "stroop-trial-1-congruent-8", "trial_type": "html-keyboard-response", "trial_index": 30, "time_elapsed": 185685, "internal_node_id": "0.0-4.0-26.0"}}, {"uniqueid": "w41250443:a63751796", "current_trial": 31, "dateTime": 1664873318408, "trialdata": {"rt": 644, "stimulus": "<p id='stroop-text' class='stroop-blue'>BLUE</p>", "response": "b", "stimulus-type": "congruent", "word": "blue", "color": "blue", "correct_response": "b", "trial_id": "stroop-trial-1-congruent-18", "trial_type": "html-keyboard-response", "trial_index": 31, "time_elapsed": 186835, "internal_node_id": "0.0-4.0-27.0"}}, {"uniqueid": "w41250443:a63751796", "current_trial": 32, "dateTime": 1664873319580, "trialdata": {"rt": 669, "stimulus": "<p id='stroop-text' class='stroop-red'>RED</p>", "response": "r", "stimulus-type": "congruent", "word": "red", "color": "red", "correct_response": "r", "trial_id": "stroop-trial-1-congruent-2", "trial_type": "html-keyboard-response", "trial_index": 32, "time_elapsed": 188007, "internal_node_id": "0.0-4.0-28.0"}}, {"uniqueid": "w41250443:a63751796", "current_trial": 33, "dateTime": 1664873320966, "trialdata": {"rt": 883, "stimulus": "<p id='stroop-text' class='stroop-blue'>BLUE</p>", "response": "b", "stimulus-type": "congruent", "word": "blue", "color": "blue", "correct_response": "b", "trial_id": "stroop-trial-1-congruent-4", "trial_type": "html-keyboard-response", "trial_index": 33, "time_elapsed": 189394, "internal_node_id": "0.0-4.0-29.0"}}, {"uniqueid": "w41250443:a63751796", "current_trial": 34, "dateTime": 1664873322369, "trialdata": {"rt": 898, "stimulus": "<p id='stroop-text' class='stroop-red'>WINDOW</p>", "response": "r", "stimulus-type": "unrelated", "word": "WINDOW", "color": "red", "correct_response": "r", "trial_id": "stroop-trial-1-unrelated-27", "trial_type": "html-keyboard-response", "trial_index": 34, "time_elapsed": 190797, "internal_node_id": "0.0-4.0-30.0"}}, {"uniqueid": "w41250443:a63751796", "current_trial": 35, "dateTime": 1664873323792, "trialdata": {"rt": 920, "stimulus": "<p id='stroop-text' class='stroop-red'>GREEN</p>", "response": "r", "stimulus-type": "incongruent", "word": "green", "color": "red", "correct_response": "r", "trial_id": "stroop-trial-1-incongruent-21", "trial_type": "html-keyboard-response", "trial_index": 35, "time_elapsed": 192219, "internal_node_id": "0.0-4.0-31.0"}}, {"uniqueid": "w41250443:a63751796", "current_trial": 36, "dateTime": 1664873324914, "trialdata": {"rt": 619, "stimulus": "<p id='stroop-text' class='stroop-blue'>BLUE</p>", "response": "y", "stimulus-type": "congruent", "word": "blue", "color": "blue", "correct_response": "b", "trial_id": "stroop-trial-1-congruent-15", "trial_type": "html-keyboard-response", "trial_index": 36, "time_elapsed": 193341, "internal_node_id": "0.0-4.0-32.0"}}, {"uniqueid": "w41250443:a63751796", "current_trial": 37, "dateTime": 1664873326366, "trialdata": {"rt": 948, "stimulus": "<p id='stroop-text' class='stroop-blue'>FORK</p>", "response": "b", "stimulus-type": "unrelated", "word": "FORK", "color": "blue", "correct_response": "b", "trial_id": "stroop-trial-1-unrelated-10", "trial_type": "html-keyboard-response", "trial_index": 37, "time_elapsed": 194794, "internal_node_id": "0.0-4.0-33.0"}}, {"uniqueid": "w41250443:a63751796", "current_trial": 38, "dateTime": 1664873327581, "trialdata": {"rt": 712, "stimulus": "<p id='stroop-text' class='stroop-yellow'>YELLOW</p>", "response": "y", "stimulus-type": "congruent", "word": "yellow", "color": "yellow", "correct_response": "y", "trial_id": "stroop-trial-1-congruent-7", "trial_type": "html-keyboard-response", "trial_index": 38, "time_elapsed": 196009, "internal_node_id": "0.0-4.0-34.0"}}, {"uniqueid": "w41250443:a63751796", "current_trial": 39, "dateTime": 1664873328772, "trialdata": {"rt": 687, "stimulus": "<p id='stroop-text' class='stroop-yellow'>RED</p>", "response": "y", "stimulus-type": "incongruent", "word": "red", "color": "yellow", "correct_response": "y", "trial_id": "stroop-trial-1-incongruent-3", "trial_type": "html-keyboard-response", "trial_index": 39, "time_elapsed": 197199, "internal_node_id": "0.0-4.0-35.0"}}, {"uniqueid": "w41250443:a63751796", "current_trial": 40, "dateTime": 1664873329880, "trialdata": {"rt": 604, "stimulus": "<p id='stroop-text' class='stroop-red'>RED</p>", "response": "r", "stimulus-type": "congruent", "word": "red", "color": "red", "correct_response": "r", "trial_id": "stroop-trial-1-congruent-1", "trial_type": "html-keyboard-response", "trial_index": 40, "time_elapsed": 198308, "internal_node_id": "0.0-4.0-36.0"}}, {"uniqueid": "w41250443:a63751796", "current_trial": 41, "dateTime": 1664873330890, "trialdata": {"rt": 507, "stimulus": "<p id='stroop-text' class='stroop-red'>BLUE</p>", "response": "r", "stimulus-type": "incongruent", "word": "blue", "color": "red", "correct_response": "r", "trial_id": "stroop-trial-1-incongruent-10", "trial_type": "html-keyboard-response", "trial_index": 41, "time_elapsed": 199318, "internal_node_id": "0.0-4.0-37.0"}}, {"uniqueid": "w41250443:a63751796", "current_trial": 42, "dateTime": 1664873331892, "trialdata": {"rt": 499, "stimulus": "<p id='stroop-text' class='stroop-red'>YELLOW</p>", "response": "r", "stimulus-type": "incongruent", "word": "yellow", "color": "red", "correct_response": "r", "trial_id": "stroop-trial-1-incongruent-20", "trial_type": "html-keyboard-response", "trial_index": 42, "time_elapsed": 200320, "internal_node_id": "0.0-4.0-38.0"}}, {"uniqueid": "w41250443:a63751796", "current_trial": 43, "dateTime": 1664873332832, "trialdata": {"rt": 436, "stimulus": "<p id='stroop-text' class='stroop-red'>YELLOW</p>", "response": "r", "stimulus-type": "incongruent", "word": "yellow", "color": "red", "correct_response": "r", "trial_id": "stroop-trial-1-incongruent-9", "trial_type": "html-keyboard-response", "trial_index": 43, "time_elapsed": 201260, "internal_node_id": "0.0-4.0-39.0"}}, {"uniqueid": "w41250443:a63751796", "current_trial": 44, "dateTime": 1664873333803, "trialdata": {"rt": 468, "stimulus": "<p id='stroop-text' class='stroop-red'>RED</p>", "response": "r", "stimulus-type": "congruent", "word": "red", "color": "red", "correct_response": "r", "trial_id": "stroop-trial-1-congruent-13", "trial_type": "html-keyboard-response", "trial_index": 44, "time_elapsed": 202231, "internal_node_id": "0.0-4.0-40.0"}}, {"uniqueid": "w41250443:a63751796", "current_trial": 45, "dateTime": 1664873335282, "trialdata": {"rt": 974, "stimulus": "<p id='stroop-text' class='stroop-blue'>FORK</p>", "response": "b", "stimulus-type": "unrelated", "word": "FORK", "color": "blue", "correct_response": "b", "trial_id": "stroop-trial-1-unrelated-12", "trial_type": "html-keyboard-response", "trial_index": 45, "time_elapsed": 203708, "internal_node_id": "0.0-4.0-41.0"}}, {"uniqueid": "w41250443:a63751796", "current_trial": 46, "dateTime": 1664873336550, "trialdata": {"rt": 765, "stimulus": "<p id='stroop-text' class='stroop-yellow'>WINDOW</p>", "response": "y", "stimulus-type": "unrelated", "word": "WINDOW", "color": "yellow", "correct_response": "y", "trial_id": "stroop-trial-1-unrelated-17", "trial_type": "html-keyboard-response", "trial_index": 46, "time_elapsed": 204977, "internal_node_id": "0.0-4.0-42.0"}}, {"uniqueid": "w41250443:a63751796", "current_trial": 47, "dateTime": 1664873337864, "trialdata": {"rt": 811, "stimulus": "<p id='stroop-text' class='stroop-red'>BLUE</p>", "response": "r", "stimulus-type": "incongruent", "word": "blue", "color": "red", "correct_response": "r", "trial_id": "stroop-trial-1-incongruent-27", "trial_type": "html-keyboard-response", "trial_index": 47, "time_elapsed": 206291, "internal_node_id": "0.0-4.0-43.0"}}, {"uniqueid": "w41250443:a63751796", "current_trial": 48, "dateTime": 1664873339089, "trialdata": {"rt": 722, "stimulus": "<p id='stroop-text' class='stroop-green'>YELLOW</p>", "response": "g", "stimulus-type": "incongruent", "word": "yellow", "color": "green", "correct_response": "g", "trial_id": "stroop-trial-1-incongruent-28", "trial_type": "html-keyboard-response", "trial_index": 48, "time_elapsed": 207517, "internal_node_id": "0.0-4.0-44.0"}}, {"uniqueid": "w41250443:a63751796", "current_trial": 49, "dateTime": 1664873340439, "trialdata": {"rt": 846, "stimulus": "<p id='stroop-text' class='stroop-blue'>BLUE</p>", "response": "b", "stimulus-type": "congruent", "word": "blue", "color": "blue", "correct_response": "b", "trial_id": "stroop-trial-1-congruent-25", "trial_type": "html-keyboard-response", "trial_index": 49, "time_elapsed": 208867, "internal_node_id": "0.0-4.0-45.0"}}, {"uniqueid": "w41250443:a63751796", "current_trial": 50, "dateTime": 1664873341911, "trialdata": {"rt": 968, "stimulus": "<p id='stroop-text' class='stroop-yellow'>BLUE</p>", "response": "y", "stimulus-type": "incongruent", "word": "blue", "color": "yellow", "correct_response": "y", "trial_id": "stroop-trial-1-incongruent-17", "trial_type": "html-keyboard-response", "trial_index": 50, "time_elapsed": 210338, "internal_node_id": "0.0-4.0-46.0"}}, {"uniqueid": "w41250443:a63751796", "current_trial": 51, "dateTime": 1664873343212, "trialdata": {"rt": 798, "stimulus": "<p id='stroop-text' class='stroop-red'>BRAIN</p>", "response": "r", "stimulus-type": "unrelated", "word": "BRAIN", "color": "red", "correct_response": "r", "trial_id": "stroop-trial-1-unrelated-23", "trial_type": "html-keyboard-response", "trial_index": 51, "time_elapsed": 211640, "internal_node_id": "0.0-4.0-47.0"}}, {"uniqueid": "w41250443:a63751796", "current_trial": 52, "dateTime": 1664873345018, "trialdata": {"rt": 1302, "stimulus": "<p id='stroop-text' class='stroop-blue'>CHAIR</p>", "response": "b", "stimulus-type": "unrelated", "word": "CHAIR", "color": "blue", "correct_response": "b", "trial_id": "stroop-trial-1-unrelated-14", "trial_type": "html-keyboard-response", "trial_index": 52, "time_elapsed": 213446, "internal_node_id": "0.0-4.0-48.0"}}, {"uniqueid": "w41250443:a63751796", "current_trial": 53, "dateTime": 1664873347204, "trialdata": {"rt": 1683, "stimulus": "<p id='stroop-text' class='stroop-yellow'>GREEN</p>", "response": "y", "stimulus-type": "incongruent", "word": "green", "color": "yellow", "correct_response": "y", "trial_id": "stroop-trial-1-incongruent-14", "trial_type": "html-keyboard-response", "trial_index": 53, "time_elapsed": 215631, "internal_node_id": "0.0-4.0-49.0"}}, {"uniqueid": "w41250443:a63751796", "current_trial": 54, "dateTime": 1664873348686, "trialdata": {"rt": 977, "stimulus": "<p id='stroop-text' class='stroop-red'>BLUE</p>", "response": "r", "stimulus-type": "incongruent", "word": "blue", "color": "red", "correct_response": "r", "trial_id": "stroop-trial-1-incongruent-4", "trial_type": "html-keyboard-response", "trial_index": 54, "time_elapsed": 217113, "internal_node_id": "0.0-4.0-50.0"}}, {"uniqueid": "w41250443:a63751796", "current_trial": 55, "dateTime": 1664873350062, "trialdata": {"rt": 864, "stimulus": "<p id='stroop-text' class='stroop-yellow'>BRAIN</p>", "response": "y", "stimulus-type": "unrelated", "word": "BRAIN", "color": "yellow", "correct_response": "y", "trial_id": "stroop-trial-1-unrelated-21", "trial_type": "html-keyboard-response", "trial_index": 55, "time_elapsed": 218490, "internal_node_id": "0.0-4.0-51.0"}}, {"uniqueid": "w41250443:a63751796", "current_trial": 56, "dateTime": 1664873351227, "trialdata": {"rt": 662, "stimulus": "<p id='stroop-text' class='stroop-red'>RED</p>", "response": "r", "stimulus-type": "congruent", "word": "red", "color": "red", "correct_response": "r", "trial_id": "stroop-trial-1-congruent-28", "trial_type": "html-keyboard-response", "trial_index": 56, "time_elapsed": 219655, "internal_node_id": "0.0-4.0-52.0"}}, {"uniqueid": "w41250443:a63751796", "current_trial": 57, "dateTime": 1664873352824, "trialdata": {"rt": 1092, "stimulus": "<p id='stroop-text' class='stroop-green'>BRIDGE</p>", "response": "g", "stimulus-type": "unrelated", "word": "BRIDGE", "color": "green", "correct_response": "g", "trial_id": "stroop-trial-1-unrelated-9", "trial_type": "html-keyboard-response", "trial_index": 57, "time_elapsed": 221252, "internal_node_id": "0.0-4.0-53.0"}}, {"uniqueid": "w41250443:a63751796", "current_trial": 58, "dateTime": 1664873354065, "trialdata": {"rt": 737, "stimulus": "<p id='stroop-text' class='stroop-green'>GREEN</p>", "response": "g", "stimulus-type": "congruent", "word": "green", "color": "green", "correct_response": "g", "trial_id": "stroop-trial-1-congruent-30", "trial_type": "html-keyboard-response", "trial_index": 58, "time_elapsed": 222493, "internal_node_id": "0.0-4.0-54.0"}}, {"uniqueid": "w41250443:a63751796", "current_trial": 59, "dateTime": 1664873355525, "trialdata": {"rt": 956, "stimulus": "<p id='stroop-text' class='stroop-blue'>MONKEY</p>", "response": "b", "stimulus-type": "unrelated", "word": "MONKEY", "color": "blue", "correct_response": "b", "trial_id": "stroop-trial-1-unrelated-16", "trial_type": "html-keyboard-response", "trial_index": 59, "time_elapsed": 223953, "internal_node_id": "0.0-4.0-55.0"}}, {"uniqueid": "w41250443:a63751796", "current_trial": 60, "dateTime": 1664873356997, "trialdata": {"rt": 970, "stimulus": "<p id='stroop-text' class='stroop-green'>CHAIR</p>", "response": "g", "stimulus-type": "unrelated", "word": "CHAIR", "color": "green", "correct_response": "g", "trial_id": "stroop-trial-1-unrelated-29", "trial_type": "html-keyboard-response", "trial_index": 60, "time_elapsed": 225424, "internal_node_id": "0.0-4.0-56.0"}}, {"uniqueid": "w41250443:a63751796", "current_trial": 61, "dateTime": 1664873358362, "trialdata": {"rt": 862, "stimulus": "<p id='stroop-text' class='stroop-yellow'>RED</p>", "response": "y", "stimulus-type": "incongruent", "word": "red", "color": "yellow", "correct_response": "y", "trial_id": "stroop-trial-1-incongruent-23", "trial_type": "html-keyboard-response", "trial_index": 61, "time_elapsed": 226790, "internal_node_id": "0.0-4.0-57.0"}}, {"uniqueid": "w41250443:a63751796", "current_trial": 62, "dateTime": 1664873359716, "trialdata": {"rt": 849, "stimulus": "<p id='stroop-text' class='stroop-yellow'>YELLOW</p>", "response": "y", "stimulus-type": "congruent", "word": "yellow", "color": "yellow", "correct_response": "y", "trial_id": "stroop-trial-1-congruent-27", "trial_type": "html-keyboard-response", "trial_index": 62, "time_elapsed": 228144, "internal_node_id": "0.0-4.0-58.0"}}, {"uniqueid": "w41250443:a63751796", "current_trial": 63, "dateTime": 1664873361046, "trialdata": {"rt": 827, "stimulus": "<p id='stroop-text' class='stroop-yellow'>GREEN</p>", "response": "y", "stimulus-type": "incongruent", "word": "green", "color": "yellow", "correct_response": "y", "trial_id": "stroop-trial-1-incongruent-29", "trial_type": "html-keyboard-response", "trial_index": 63, "time_elapsed": 229474, "internal_node_id": "0.0-4.0-59.0"}}, {"uniqueid": "w41250443:a63751796", "current_trial": 64, "dateTime": 1664873362142, "trialdata": {"rt": 592, "stimulus": "<p id='stroop-text' class='stroop-yellow'>YELLOW</p>", "response": "y", "stimulus-type": "congruent", "word": "yellow", "color": "yellow", "correct_response": "y", "trial_id": "stroop-trial-1-congruent-17", "trial_type": "html-keyboard-response", "trial_index": 64, "time_elapsed": 230570, "internal_node_id": "0.0-4.0-60.0"}}, {"uniqueid": "w41250443:a63751796", "current_trial": 65, "dateTime": 1664873363514, "trialdata": {"rt": 867, "stimulus": "<p id='stroop-text' class='stroop-green'>RED</p>", "response": "g", "stimulus-type": "incongruent", "word": "red", "color": "green", "correct_response": "g", "trial_id": "stroop-trial-1-incongruent-11", "trial_type": "html-keyboard-response", "trial_index": 65, "time_elapsed": 231941, "internal_node_id": "0.0-4.0-61.0"}}, {"uniqueid": "w41250443:a63751796", "current_trial": 66, "dateTime": 1664873365027, "trialdata": {"rt": 1009, "stimulus": "<p id='stroop-text' class='stroop-blue'>WINDOW</p>", "response": "b", "stimulus-type": "unrelated", "word": "WINDOW", "color": "blue", "correct_response": "b", "trial_id": "stroop-trial-1-unrelated-15", "trial_type": "html-keyboard-response", "trial_index": 66, "time_elapsed": 233454, "internal_node_id": "0.0-4.0-62.0"}}, {"uniqueid": "w41250443:a63751796", "current_trial": 67, "dateTime": 1664873367290, "trialdata": {"rt": 1760, "stimulus": "<p id='stroop-text' class='stroop-blue'>BOTTLE</p>", "response": "b", "stimulus-type": "unrelated", "word": "BOTTLE", "color": "blue", "correct_response": "b", "trial_id": "stroop-trial-1-unrelated-25", "trial_type": "html-keyboard-response", "trial_index": 67, "time_elapsed": 235717, "internal_node_id": "0.0-4.0-63.0"}}, {"uniqueid": "w41250443:a63751796", "current_trial": 68, "dateTime": 1664873369393, "trialdata": {"rt": 1600, "stimulus": "<p id='stroop-text' class='stroop-red'>WINDOW</p>", "response": "r", "stimulus-type": "unrelated", "word": "WINDOW", "color": "red", "correct_response": "r", "trial_id": "stroop-trial-1-unrelated-8", "trial_type": "html-keyboard-response", "trial_index": 68, "time_elapsed": 237821, "internal_node_id": "0.0-4.0-64.0"}}, {"uniqueid": "w41250443:a63751796", "current_trial": 69, "dateTime": 1664873370614, "trialdata": {"rt": 715, "stimulus": "<p id='stroop-text' class='stroop-red'>RED</p>", "response": "r", "stimulus-type": "congruent", "word": "red", "color": "red", "correct_response": "r", "trial_id": "stroop-trial-1-congruent-26", "trial_type": "html-keyboard-response", "trial_index": 69, "time_elapsed": 239042, "internal_node_id": "0.0-4.0-65.0"}}, {"uniqueid": "w41250443:a63751796", "current_trial": 70, "dateTime": 1664873371907, "trialdata": {"rt": 788, "stimulus": "<p id='stroop-text' class='stroop-green'>GREEN</p>", "response": "g", "stimulus-type": "congruent", "word": "green", "color": "green", "correct_response": "g", "trial_id": "stroop-trial-1-congruent-5", "trial_type": "html-keyboard-response", "trial_index": 70, "time_elapsed": 240335, "internal_node_id": "0.0-4.0-66.0"}}, {"uniqueid": "w41250443:a63751796", "current_trial": 71, "dateTime": 1664873373127, "trialdata": {"rt": 716, "stimulus": "<p id='stroop-text' class='stroop-green'>RED</p>", "response": "g", "stimulus-type": "incongruent", "word": "red", "color": "green", "correct_response": "g", "trial_id": "stroop-trial-1-incongruent-12", "trial_type": "html-keyboard-response", "trial_index": 71, "time_elapsed": 241554, "internal_node_id": "0.0-4.0-67.0"}}, {"uniqueid": "w41250443:a63751796", "current_trial": 72, "dateTime": 1664873374494, "trialdata": {"rt": 862, "stimulus": "<p id='stroop-text' class='stroop-green'>GREEN</p>", "response": "g", "stimulus-type": "congruent", "word": "green", "color": "green", "correct_response": "g", "trial_id": "stroop-trial-1-congruent-29", "trial_type": "html-keyboard-response", "trial_index": 72, "time_elapsed": 242921, "internal_node_id": "0.0-4.0-68.0"}}, {"uniqueid": "w41250443:a63751796", "current_trial": 73, "dateTime": 1664873375702, "trialdata": {"rt": 704, "stimulus": "<p id='stroop-text' class='stroop-red'>RED</p>", "response": "r", "stimulus-type": "congruent", "word": "red", "color": "red", "correct_response": "r", "trial_id": "stroop-trial-1-congruent-9", "trial_type": "html-keyboard-response", "trial_index": 73, "time_elapsed": 244130, "internal_node_id": "0.0-4.0-69.0"}}, {"uniqueid": "w41250443:a63751796", "current_trial": 74, "dateTime": 1664873377192, "trialdata": {"rt": 987, "stimulus": "<p id='stroop-text' class='stroop-yellow'>GREEN</p>", "response": "y", "stimulus-type": "incongruent", "word": "green", "color": "yellow", "correct_response": "y", "trial_id": "stroop-trial-1-incongruent-2", "trial_type": "html-keyboard-response", "trial_index": 74, "time_elapsed": 245620, "internal_node_id": "0.0-4.0-70.0"}}, {"uniqueid": "w41250443:a63751796", "current_trial": 75, "dateTime": 1664873378703, "trialdata": {"rt": 1007, "stimulus": "<p id='stroop-text' class='stroop-green'>RED</p>", "response": "g", "stimulus-type": "incongruent", "word": "red", "color": "green", "correct_response": "g", "trial_id": "stroop-trial-1-incongruent-24", "trial_type": "html-keyboard-response", "trial_index": 75, "time_elapsed": 247131, "internal_node_id": "0.0-4.0-71.0"}}, {"uniqueid": "w41250443:a63751796", "current_trial": 76, "dateTime": 1664873380380, "trialdata": {"rt": 1174, "stimulus": "<p id='stroop-text' class='stroop-red'>YELLOW</p>", "response": "r", "stimulus-type": "incongruent", "word": "yellow", "color": "red", "correct_response": "r", "trial_id": "stroop-trial-1-incongruent-1", "trial_type": "html-keyboard-response", "trial_index": 76, "time_elapsed": 248808, "internal_node_id": "0.0-4.0-72.0"}}, {"uniqueid": "w41250443:a63751796", "current_trial": 77, "dateTime": 1664873381445, "trialdata": {"rt": 561, "stimulus": "<p id='stroop-text' class='stroop-red'>FORK</p>", "response": "r", "stimulus-type": "unrelated", "word": "FORK", "color": "red", "correct_response": "r", "trial_id": "stroop-trial-1-unrelated-20", "trial_type": "html-keyboard-response", "trial_index": 77, "time_elapsed": 249873, "internal_node_id": "0.0-4.0-73.0"}}, {"uniqueid": "w41250443:a63751796", "current_trial": 78, "dateTime": 1664873382555, "trialdata": {"rt": 607, "stimulus": "<p id='stroop-text' class='stroop-yellow'>YELLOW</p>", "response": "y", "stimulus-type": "congruent", "word": "yellow", "color": "yellow", "correct_response": "y", "trial_id": "stroop-trial-1-congruent-20", "trial_type": "html-keyboard-response", "trial_index": 78, "time_elapsed": 250983, "internal_node_id": "0.0-4.0-74.0"}}, {"uniqueid": "w41250443:a63751796", "current_trial": 79, "dateTime": 1664873383613, "trialdata": {"rt": 554, "stimulus": "<p id='stroop-text' class='stroop-yellow'>RED</p>", "response": "y", "stimulus-type": "incongruent", "word": "red", "color": "yellow", "correct_response": "y", "trial_id": "stroop-trial-1-incongruent-25", "trial_type": "html-keyboard-response", "trial_index": 79, "time_elapsed": 252041, "internal_node_id": "0.0-4.0-75.0"}}, {"uniqueid": "w41250443:a63751796", "current_trial": 80, "dateTime": 1664873384843, "trialdata": {"rt": 726, "stimulus": "<p id='stroop-text' class='stroop-red'>SHIP</p>", "response": "r", "stimulus-type": "unrelated", "word": "SHIP", "color": "red", "correct_response": "r", "trial_id": "stroop-trial-1-unrelated-7", "trial_type": "html-keyboard-response", "trial_index": 80, "time_elapsed": 253271, "internal_node_id": "0.0-4.0-76.0"}}, {"uniqueid": "w41250443:a63751796", "current_trial": 81, "dateTime": 1664873386015, "trialdata": {"rt": 666, "stimulus": "<p id='stroop-text' class='stroop-green'>GREEN</p>", "response": "g", "stimulus-type": "congruent", "word": "green", "color": "green", "correct_response": "g", "trial_id": "stroop-trial-1-congruent-6", "trial_type": "html-keyboard-response", "trial_index": 81, "time_elapsed": 254443, "internal_node_id": "0.0-4.0-77.0"}}, {"uniqueid": "w41250443:a63751796", "current_trial": 82, "dateTime": 1664873387419, "trialdata": {"rt": 901, "stimulus": "<p id='stroop-text' class='stroop-yellow'>WINDOW</p>", "response": "y", "stimulus-type": "unrelated", "word": "WINDOW", "color": "yellow", "correct_response": "y", "trial_id": "stroop-trial-1-unrelated-4", "trial_type": "html-keyboard-response", "trial_index": 82, "time_elapsed": 255847, "internal_node_id": "0.0-4.0-78.0"}}, {"uniqueid": "w41250443:a63751796", "current_trial": 83, "dateTime": 1664873389116, "trialdata": {"rt": 1192, "stimulus": "<p id='stroop-text' class='stroop-blue'>GREEN</p>", "response": "b", "stimulus-type": "incongruent", "word": "green", "color": "blue", "correct_response": "b", "trial_id": "stroop-trial-1-incongruent-13", "trial_type": "html-keyboard-response", "trial_index": 83, "time_elapsed": 257544, "internal_node_id": "0.0-4.0-79.0"}}, {"uniqueid": "w41250443:a63751796", "current_trial": 84, "dateTime": 1664873390271, "trialdata": {"rt": 651, "stimulus": "<p id='stroop-text' class='stroop-blue'>RED</p>", "response": "b", "stimulus-type": "incongruent", "word": "red", "color": "blue", "correct_response": "b", "trial_id": "stroop-trial-1-incongruent-5", "trial_type": "html-keyboard-response", "trial_index": 84, "time_elapsed": 258699, "internal_node_id": "0.0-4.0-80.0"}}, {"uniqueid": "w41250443:a63751796", "current_trial": 85, "dateTime": 1664873391701, "trialdata": {"rt": 926, "stimulus": "<p id='stroop-text' class='stroop-green'>BLUE</p>", "response": "g", "stimulus-type": "incongruent", "word": "blue", "color": "green", "correct_response": "g", "trial_id": "stroop-trial-1-incongruent-26", "trial_type": "html-keyboard-response", "trial_index": 85, "time_elapsed": 260129, "internal_node_id": "0.0-4.0-81.0"}}, {"uniqueid": "w41250443:a63751796", "current_trial": 86, "dateTime": 1664873393525, "trialdata": {"rt": 1320, "stimulus": "<p id='stroop-text' class='stroop-yellow'>SHIP</p>", "response": "y", "stimulus-type": "unrelated", "word": "SHIP", "color": "yellow", "correct_response": "y", "trial_id": "stroop-trial-1-unrelated-11", "trial_type": "html-keyboard-response", "trial_index": 86, "time_elapsed": 261953, "internal_node_id": "0.0-4.0-82.0"}}, {"uniqueid": "w41250443:a63751796", "current_trial": 87, "dateTime": 1664873394578, "trialdata": {"rt": 548, "stimulus": "<p id='stroop-text' class='stroop-yellow'>RED</p>", "response": "y", "stimulus-type": "incongruent", "word": "red", "color": "yellow", "correct_response": "y", "trial_id": "stroop-trial-1-incongruent-16", "trial_type": "html-keyboard-response", "trial_index": 87, "time_elapsed": 263006, "internal_node_id": "0.0-4.0-83.0"}}, {"uniqueid": "w41250443:a63751796", "current_trial": 88, "dateTime": 1664873395772, "trialdata": {"rt": 690, "stimulus": "<p id='stroop-text' class='stroop-blue'>BLUE</p>", "response": "b", "stimulus-type": "congruent", "word": "blue", "color": "blue", "correct_response": "b", "trial_id": "stroop-trial-1-congruent-22", "trial_type": "html-keyboard-response", "trial_index": 88, "time_elapsed": 264199, "internal_node_id": "0.0-4.0-84.0"}}, {"uniqueid": "w41250443:a63751796", "current_trial": 89, "dateTime": 1664873396809, "trialdata": {"rt": 533, "stimulus": "<p id='stroop-text' class='stroop-blue'>BLUE</p>", "response": "b", "stimulus-type": "congruent", "word": "blue", "color": "blue", "correct_response": "b", "trial_id": "stroop-trial-1-congruent-3", "trial_type": "html-keyboard-response", "trial_index": 89, "time_elapsed": 265237, "internal_node_id": "0.0-4.0-85.0"}}, {"uniqueid": "w41250443:a63751796", "current_trial": 90, "dateTime": 1664873397926, "trialdata": {"rt": 613, "stimulus": "<p id='stroop-text' class='stroop-red'>DOG</p>", "response": "r", "stimulus-type": "unrelated", "word": "DOG", "color": "red", "correct_response": "r", "trial_id": "stroop-trial-1-unrelated-18", "trial_type": "html-keyboard-response", "trial_index": 90, "time_elapsed": 266354, "internal_node_id": "0.0-4.0-86.0"}}, {"uniqueid": "w41250443:a63751796", "current_trial": 91, "dateTime": 1664873399201, "trialdata": {"rt": 770, "stimulus": "<p id='stroop-text' class='stroop-yellow'>RED</p>", "response": "y", "stimulus-type": "incongruent", "word": "red", "color": "yellow", "correct_response": "y", "trial_id": "stroop-trial-1-incongruent-18", "trial_type": "html-keyboard-response", "trial_index": 91, "time_elapsed": 267628, "internal_node_id": "0.0-4.0-87.0"}}, {"uniqueid": "w41250443:a63751796", "current_trial": 92, "dateTime": 1664873400632, "trialdata": {"rt": 928, "stimulus": "<p id='stroop-text' class='stroop-green'>GREEN</p>", "response": "g", "stimulus-type": "congruent", "word": "green", "color": "green", "correct_response": "g", "trial_id": "stroop-trial-1-congruent-16", "trial_type": "html-keyboard-response", "trial_index": 92, "time_elapsed": 269060, "internal_node_id": "0.0-4.0-88.0"}}, {"uniqueid": "w41250443:a63751796", "current_trial": 93, "dateTime": 1664873401706, "trialdata": {"rt": 570, "stimulus": "<p id='stroop-text' class='stroop-green'>BRIDGE</p>", "response": "g", "stimulus-type": "unrelated", "word": "BRIDGE", "color": "green", "correct_response": "g", "trial_id": "stroop-trial-1-unrelated-19", "trial_type": "html-keyboard-response", "trial_index": 93, "time_elapsed": 270134, "internal_node_id": "0.0-4.0-89.0"}}, {"uniqueid": "w41250443:a63751796", "current_trial": 94, "dateTime": 1664873409267, "trialdata": {"rt": 7055, "stimulus": "  <h1> End of block! </h1>\n\n  You have reached the end of the block 1/5. If you need a short break, feel free to take one now before moving on.\n\n  <br><br>\n  In the next block, you will complete another 90 rounds of this game.\n\n  <br><br>\n  <div style='text-align: center;'>Press <code>space</code> to begin.</div>\n  <br><br>\n<div style='text-align: center;'>(If the experiment doesn't continue, try clicking on the text and then pressing <code>space</code>.)</div>", "response": " ", "trial_id": "stroop_1_ready_2", "trial_type": "html-keyboard-response", "trial_index": 94, "time_elapsed": 277695, "internal_node_id": "0.0-5.0"}}, {"uniqueid": "w41250443:a63751796", "current_trial": 95, "dateTime": 1664873410594, "trialdata": {"rt": 1322, "stimulus": "<p id='stroop-text' class='stroop-green'>STONE</p>", "response": "g", "stimulus-type": "unrelated", "word": "STONE", "color": "green", "correct_response": "g", "trial_id": "stroop-trial-1-unrelated-1", "trial_type": "html-keyboard-response", "trial_index": 95, "time_elapsed": 279022, "internal_node_id": "0.0-6.0-0.0"}}, {"uniqueid": "w41250443:a63751796", "current_trial": 96, "dateTime": 1664873411906, "trialdata": {"rt": 808, "stimulus": "<p id='stroop-text' class='stroop-red'>GREEN</p>", "response": "r", "stimulus-type": "incongruent", "word": "green", "color": "red", "correct_response": "r", "trial_id": "stroop-trial-1-incongruent-8", "trial_type": "html-keyboard-response", "trial_index": 96, "time_elapsed": 280334, "internal_node_id": "0.0-6.0-1.0"}}, {"uniqueid": "w41250443:a63751796", "current_trial": 97, "dateTime": 1664873413026, "trialdata": {"rt": 616, "stimulus": "<p id='stroop-text' class='stroop-green'>GREEN</p>", "response": "g", "stimulus-type": "congruent", "word": "green", "color": "green", "correct_response": "g", "trial_id": "stroop-trial-1-congruent-13", "trial_type": "html-keyboard-response", "trial_index": 97, "time_elapsed": 281454, "internal_node_id": "0.0-6.0-2.0"}}, {"uniqueid": "w41250443:a63751796", "current_trial": 98, "dateTime": 1664873414383, "trialdata": {"rt": 853, "stimulus": "<p id='stroop-text' class='stroop-red'>GREEN</p>", "response": "r", "stimulus-type": "incongruent", "word": "green", "color": "red", "correct_response": "r", "trial_id": "stroop-trial-1-incongruent-4", "trial_type": "html-keyboard-response", "trial_index": 98, "time_elapsed": 282811, "internal_node_id": "0.0-6.0-3.0"}}, {"uniqueid": "w41250443:a63751796", "current_trial": 99, "dateTime": 1664873415638, "trialdata": {"rt": 751, "stimulus": "<p id='stroop-text' class='stroop-blue'>BLUE</p>", "response": "b", "stimulus-type": "congruent", "word": "blue", "color": "blue", "correct_response": "b", "trial_id": "stroop-trial-1-congruent-20", "trial_type": "html-keyboard-response", "trial_index": 99, "time_elapsed": 284066, "internal_node_id": "0.0-6.0-4.0"}}, {"uniqueid": "w41250443:a63751796", "current_trial": 100, "dateTime": 1664873416828, "trialdata": {"rt": 686, "stimulus": "<p id='stroop-text' class='stroop-yellow'>YELLOW</p>", "response": "y", "stimulus-type": "congruent", "word": "yellow", "color": "yellow", "correct_response": "y", "trial_id": "stroop-trial-1-congruent-11", "trial_type": "html-keyboard-response", "trial_index": 100, "time_elapsed": 285255, "internal_node_id": "0.0-6.0-5.0"}}, {"uniqueid": "w41250443:a63751796", "current_trial": 101, "dateTime": 1664873418945, "trialdata": {"rt": 1613, "stimulus": "<p id='stroop-text' class='stroop-blue'>RED</p>", "response": "b", "stimulus-type": "incongruent", "word": "red", "color": "blue", "correct_response": "b", "trial_id": "stroop-trial-1-incongruent-5", "trial_type": "html-keyboard-response", "trial_index": 101, "time_elapsed": 287372, "internal_node_id": "0.0-6.0-6.0"}}, {"uniqueid": "w41250443:a63751796", "current_trial": 102, "dateTime": 1664873420206, "trialdata": {"rt": 757, "stimulus": "<p id='stroop-text' class='stroop-red'>RED</p>", "response": "r", "stimulus-type": "congruent", "word": "red", "color": "red", "correct_response": "r", "trial_id": "stroop-trial-1-congruent-18", "trial_type": "html-keyboard-response", "trial_index": 102, "time_elapsed": 288634, "internal_node_id": "0.0-6.0-7.0"}}, {"uniqueid": "w41250443:a63751796", "current_trial": 103, "dateTime": 1664873421434, "trialdata": {"rt": 724, "stimulus": "<p id='stroop-text' class='stroop-yellow'>RED</p>", "response": "y", "stimulus-type": "incongruent", "word": "red", "color": "yellow", "correct_response": "y", "trial_id": "stroop-trial-1-incongruent-27", "trial_type": "html-keyboard-response", "trial_index": 103, "time_elapsed": 289861, "internal_node_id": "0.0-6.0-8.0"}}, {"uniqueid": "w41250443:a63751796", "current_trial": 104, "dateTime": 1664873422462, "trialdata": {"rt": 525, "stimulus": "<p id='stroop-text' class='stroop-yellow'>YELLOW</p>", "response": "y", "stimulus-type": "congruent", "word": "yellow", "color": "yellow", "correct_response": "y", "trial_id": "stroop-trial-1-congruent-12", "trial_type": "html-keyboard-response", "trial_index": 104, "time_elapsed": 290890, "internal_node_id": "0.0-6.0-9.0"}}, {"uniqueid": "w41250443:a63751796", "current_trial": 105, "dateTime": 1664873423749, "trialdata": {"rt": 783, "stimulus": "<p id='stroop-text' class='stroop-blue'>MONKEY</p>", "response": "b", "stimulus-type": "unrelated", "word": "MONKEY", "color": "blue", "correct_response": "b", "trial_id": "stroop-trial-1-unrelated-17", "trial_type": "html-keyboard-response", "trial_index": 105, "time_elapsed": 292177, "internal_node_id": "0.0-6.0-10.0"}}, {"uniqueid": "w41250443:a63751796", "current_trial": 106, "dateTime": 1664873425099, "trialdata": {"rt": 846, "stimulus": "<p id='stroop-text' class='stroop-green'>CHAIR</p>", "response": "g", "stimulus-type": "unrelated", "word": "CHAIR", "color": "green", "correct_response": "g", "trial_id": "stroop-trial-1-unrelated-30", "trial_type": "html-keyboard-response", "trial_index": 106, "time_elapsed": 293527, "internal_node_id": "0.0-6.0-11.0"}}, {"uniqueid": "w41250443:a63751796", "current_trial": 107, "dateTime": 1664873426639, "trialdata": {"rt": 1037, "stimulus": "<p id='stroop-text' class='stroop-blue'>BLUE</p>", "response": "b", "stimulus-type": "congruent", "word": "blue", "color": "blue", "correct_response": "b", "trial_id": "stroop-trial-1-congruent-19", "trial_type": "html-keyboard-response", "trial_index": 107, "time_elapsed": 295067, "internal_node_id": "0.0-6.0-12.0"}}, {"uniqueid": "w41250443:a63751796", "current_trial": 108, "dateTime": 1664873427989, "trialdata": {"rt": 845, "stimulus": "<p id='stroop-text' class='stroop-blue'>MONKEY</p>", "response": "b", "stimulus-type": "unrelated", "word": "MONKEY", "color": "blue", "correct_response": "b", "trial_id": "stroop-trial-1-unrelated-2", "trial_type": "html-keyboard-response", "trial_index": 108, "time_elapsed": 296416, "internal_node_id": "0.0-6.0-13.0"}}, {"uniqueid": "w41250443:a63751796", "current_trial": 109, "dateTime": 1664873429252, "trialdata": {"rt": 759, "stimulus": "<p id='stroop-text' class='stroop-yellow'>SHIP</p>", "response": "y", "stimulus-type": "unrelated", "word": "SHIP", "color": "yellow", "correct_response": "y", "trial_id": "stroop-trial-1-unrelated-15", "trial_type": "html-keyboard-response", "trial_index": 109, "time_elapsed": 297679, "internal_node_id": "0.0-6.0-14.0"}}, {"uniqueid": "w41250443:a63751796", "current_trial": 110, "dateTime": 1664873430196, "trialdata": {"rt": 441, "stimulus": "<p id='stroop-text' class='stroop-yellow'>WINDOW</p>", "response": "y", "stimulus-type": "unrelated", "word": "WINDOW", "color": "yellow", "correct_response": "y", "trial_id": "stroop-trial-1-unrelated-26", "trial_type": "html-keyboard-response", "trial_index": 110, "time_elapsed": 298624, "internal_node_id": "0.0-6.0-15.0"}}, {"uniqueid": "w41250443:a63751796", "current_trial": 111, "dateTime": 1664873431539, "trialdata": {"rt": 839, "stimulus": "<p id='stroop-text' class='stroop-green'>RED</p>", "response": "g", "stimulus-type": "incongruent", "word": "red", "color": "green", "correct_response": "g", "trial_id": "stroop-trial-1-incongruent-6", "trial_type": "html-keyboard-response", "trial_index": 111, "time_elapsed": 299966, "internal_node_id": "0.0-6.0-16.0"}}, {"uniqueid": "w41250443:a63751796", "current_trial": 112, "dateTime": 1664873433017, "trialdata": {"rt": 975, "stimulus": "<p id='stroop-text' class='stroop-yellow'>GREEN</p>", "response": "y", "stimulus-type": "incongruent", "word": "green", "color": "yellow", "correct_response": "y", "trial_id": "stroop-trial-1-incongruent-20", "trial_type": "html-keyboard-response", "trial_index": 112, "time_elapsed": 301444, "internal_node_id": "0.0-6.0-17.0"}}, {"uniqueid": "w41250443:a63751796", "current_trial": 113, "dateTime": 1664873434507, "trialdata": {"rt": 986, "stimulus": "<p id='stroop-text' class='stroop-green'>BOAT</p>", "response": "g", "stimulus-type": "unrelated", "word": "BOAT", "color": "green", "correct_response": "g", "trial_id": "stroop-trial-1-unrelated-25", "trial_type": "html-keyboard-response", "trial_index": 113, "time_elapsed": 302935, "internal_node_id": "0.0-6.0-18.0"}}, {"uniqueid": "w41250443:a63751796", "current_trial": 114, "dateTime": 1664873435658, "trialdata": {"rt": 648, "stimulus": "<p id='stroop-text' class='stroop-yellow'>YELLOW</p>", "response": "y", "stimulus-type": "congruent", "word": "yellow", "color": "yellow", "correct_response": "y", "trial_id": "stroop-trial-1-congruent-29", "trial_type": "html-keyboard-response", "trial_index": 114, "time_elapsed": 304086, "internal_node_id": "0.0-6.0-19.0"}}, {"uniqueid": "w41250443:a63751796", "current_trial": 115, "dateTime": 1664873436786, "trialdata": {"rt": 623, "stimulus": "<p id='stroop-text' class='stroop-blue'>BLUE</p>", "response": "b", "stimulus-type": "congruent", "word": "blue", "color": "blue", "correct_response": "b", "trial_id": "stroop-trial-1-congruent-15", "trial_type": "html-keyboard-response", "trial_index": 115, "time_elapsed": 305214, "internal_node_id": "0.0-6.0-20.0"}}, {"uniqueid": "w41250443:a63751796", "current_trial": 116, "dateTime": 1664873437771, "trialdata": {"rt": 480, "stimulus": "<p id='stroop-text' class='stroop-blue'>BOTTLE</p>", "response": "b", "stimulus-type": "unrelated", "word": "BOTTLE", "color": "blue", "correct_response": "b", "trial_id": "stroop-trial-1-unrelated-29", "trial_type": "html-keyboard-response", "trial_index": 116, "time_elapsed": 306198, "internal_node_id": "0.0-6.0-21.0"}}, {"uniqueid": "w41250443:a63751796", "current_trial": 117, "dateTime": 1664873438732, "trialdata": {"rt": 458, "stimulus": "<p id='stroop-text' class='stroop-blue'>GREEN</p>", "response": "b", "stimulus-type": "incongruent", "word": "green", "color": "blue", "correct_response": "b", "trial_id": "stroop-trial-1-incongruent-9", "trial_type": "html-keyboard-response", "trial_index": 117, "time_elapsed": 307160, "internal_node_id": "0.0-6.0-22.0"}}, {"uniqueid": "w41250443:a63751796", "current_trial": 118, "dateTime": 1664873440016, "trialdata": {"rt": 781, "stimulus": "<p id='stroop-text' class='stroop-green'>YELLOW</p>", "response": "y", "stimulus-type": "incongruent", "word": "yellow", "color": "green", "correct_response": "g", "trial_id": "stroop-trial-1-incongruent-13", "trial_type": "html-keyboard-response", "trial_index": 118, "time_elapsed": 308444, "internal_node_id": "0.0-6.0-23.0"}}, {"uniqueid": "w41250443:a63751796", "current_trial": 119, "dateTime": 1664873441383, "trialdata": {"rt": 863, "stimulus": "<p id='stroop-text' class='stroop-yellow'>GREEN</p>", "response": "y", "stimulus-type": "incongruent", "word": "green", "color": "yellow", "correct_response": "y", "trial_id": "stroop-trial-1-incongruent-7", "trial_type": "html-keyboard-response", "trial_index": 119, "time_elapsed": 309811, "internal_node_id": "0.0-6.0-24.0"}}, {"uniqueid": "w41250443:a63751796", "current_trial": 120, "dateTime": 1664873442480, "trialdata": {"rt": 592, "stimulus": "<p id='stroop-text' class='stroop-yellow'>BOTTLE</p>", "response": "y", "stimulus-type": "unrelated", "word": "BOTTLE", "color": "yellow", "correct_response": "y", "trial_id": "stroop-trial-1-unrelated-6", "trial_type": "html-keyboard-response", "trial_index": 120, "time_elapsed": 310908, "internal_node_id": "0.0-6.0-25.0"}}, {"uniqueid": "w41250443:a63751796", "current_trial": 121, "dateTime": 1664873444012, "trialdata": {"rt": 1029, "stimulus": "<p id='stroop-text' class='stroop-blue'>CHAIR</p>", "response": "b", "stimulus-type": "unrelated", "word": "CHAIR", "color": "blue", "correct_response": "b", "trial_id": "stroop-trial-1-unrelated-20", "trial_type": "html-keyboard-response", "trial_index": 121, "time_elapsed": 312440, "internal_node_id": "0.0-6.0-26.0"}}, {"uniqueid": "w41250443:a63751796", "current_trial": 122, "dateTime": 1664873445092, "trialdata": {"rt": 576, "stimulus": "<p id='stroop-text' class='stroop-red'>RED</p>", "response": "r", "stimulus-type": "congruent", "word": "red", "color": "red", "correct_response": "r", "trial_id": "stroop-trial-1-congruent-4", "trial_type": "html-keyboard-response", "trial_index": 122, "time_elapsed": 313520, "internal_node_id": "0.0-6.0-27.0"}}, {"uniqueid": "w41250443:a63751796", "current_trial": 123, "dateTime": 1664873446501, "trialdata": {"rt": 904, "stimulus": "<p id='stroop-text' class='stroop-green'>YELLOW</p>", "response": "g", "stimulus-type": "incongruent", "word": "yellow", "color": "green", "correct_response": "g", "trial_id": "stroop-trial-1-incongruent-3", "trial_type": "html-keyboard-response", "trial_index": 123, "time_elapsed": 314929, "internal_node_id": "0.0-6.0-28.0"}}, {"uniqueid": "w41250443:a63751796", "current_trial": 124, "dateTime": 1664873447909, "trialdata": {"rt": 904, "stimulus": "<p id='stroop-text' class='stroop-red'>RED</p>", "response": "r", "stimulus-type": "congruent", "word": "red", "color": "red", "correct_response": "r", "trial_id": "stroop-trial-1-congruent-30", "trial_type": "html-keyboard-response", "trial_index": 124, "time_elapsed": 316337, "internal_node_id": "0.0-6.0-29.0"}}, {"uniqueid": "w41250443:a63751796", "current_trial": 125, "dateTime": 1664873449347, "trialdata": {"rt": 934, "stimulus": "<p id='stroop-text' class='stroop-green'>RED</p>", "response": "g", "stimulus-type": "incongruent", "word": "red", "color": "green", "correct_response": "g", "trial_id": "stroop-trial-1-incongruent-1", "trial_type": "html-keyboard-response", "trial_index": 125, "time_elapsed": 317774, "internal_node_id": "0.0-6.0-30.0"}}, {"uniqueid": "w41250443:a63751796", "current_trial": 126, "dateTime": 1664873450676, "trialdata": {"rt": 824, "stimulus": "<p id='stroop-text' class='stroop-blue'>CHAIR</p>", "response": "b", "stimulus-type": "unrelated", "word": "CHAIR", "color": "blue", "correct_response": "b", "trial_id": "stroop-trial-1-unrelated-27", "trial_type": "html-keyboard-response", "trial_index": 126, "time_elapsed": 319103, "internal_node_id": "0.0-6.0-31.0"}}, {"uniqueid": "w41250443:a63751796", "current_trial": 127, "dateTime": 1664873451886, "trialdata": {"rt": 706, "stimulus": "<p id='stroop-text' class='stroop-blue'>BLUE</p>", "response": "b", "stimulus-type": "congruent", "word": "blue", "color": "blue", "correct_response": "b", "trial_id": "stroop-trial-1-congruent-14", "trial_type": "html-keyboard-response", "trial_index": 127, "time_elapsed": 320313, "internal_node_id": "0.0-6.0-32.0"}}, {"uniqueid": "w41250443:a63751796", "current_trial": 128, "dateTime": 1664873453059, "trialdata": {"rt": 669, "stimulus": "<p id='stroop-text' class='stroop-yellow'>FORK</p>", "response": "y", "stimulus-type": "unrelated", "word": "FORK", "color": "yellow", "correct_response": "y", "trial_id": "stroop-trial-1-unrelated-8", "trial_type": "html-keyboard-response", "trial_index": 128, "time_elapsed": 321486, "internal_node_id": "0.0-6.0-33.0"}}, {"uniqueid": "w41250443:a63751796", "current_trial": 129, "dateTime": 1664873454187, "trialdata": {"rt": 625, "stimulus": "<p id='stroop-text' class='stroop-green'>GREEN</p>", "response": "g", "stimulus-type": "congruent", "word": "green", "color": "green", "correct_response": "g", "trial_id": "stroop-trial-1-congruent-6", "trial_type": "html-keyboard-response", "trial_index": 129, "time_elapsed": 322614, "internal_node_id": "0.0-6.0-34.0"}}, {"uniqueid": "w41250443:a63751796", "current_trial": 130, "dateTime": 1664873455970, "trialdata": {"rt": 1278, "stimulus": "<p id='stroop-text' class='stroop-blue'>BLUE</p>", "response": "b", "stimulus-type": "congruent", "word": "blue", "color": "blue", "correct_response": "b", "trial_id": "stroop-trial-1-congruent-8", "trial_type": "html-keyboard-response", "trial_index": 130, "time_elapsed": 324398, "internal_node_id": "0.0-6.0-35.0"}}, {"uniqueid": "w41250443:a63751796", "current_trial": 131, "dateTime": 1664873457226, "trialdata": {"rt": 752, "stimulus": "<p id='stroop-text' class='stroop-red'>RED</p>", "response": "r", "stimulus-type": "congruent", "word": "red", "color": "red", "correct_response": "r", "trial_id": "stroop-trial-1-congruent-25", "trial_type": "html-keyboard-response", "trial_index": 131, "time_elapsed": 325653, "internal_node_id": "0.0-6.0-36.0"}}, {"uniqueid": "w41250443:a63751796", "current_trial": 132, "dateTime": 1664873458232, "trialdata": {"rt": 502, "stimulus": "<p id='stroop-text' class='stroop-red'>BLUE</p>", "response": "r", "stimulus-type": "incongruent", "word": "blue", "color": "red", "correct_response": "r", "trial_id": "stroop-trial-1-incongruent-22", "trial_type": "html-keyboard-response", "trial_index": 132, "time_elapsed": 326659, "internal_node_id": "0.0-6.0-37.0"}}, {"uniqueid": "w41250443:a63751796", "current_trial": 133, "dateTime": 1664873459267, "trialdata": {"rt": 532, "stimulus": "<p id='stroop-text' class='stroop-red'>FORK</p>", "response": "r", "stimulus-type": "unrelated", "word": "FORK", "color": "red", "correct_response": "r", "trial_id": "stroop-trial-1-unrelated-18", "trial_type": "html-keyboard-response", "trial_index": 133, "time_elapsed": 327695, "internal_node_id": "0.0-6.0-38.0"}}, {"uniqueid": "w41250443:a63751796", "current_trial": 134, "dateTime": 1664873460216, "trialdata": {"rt": 445, "stimulus": "<p id='stroop-text' class='stroop-red'>RED</p>", "response": "r", "stimulus-type": "congruent", "word": "red", "color": "red", "correct_response": "r", "trial_id": "stroop-trial-1-congruent-17", "trial_type": "html-keyboard-response", "trial_index": 134, "time_elapsed": 328643, "internal_node_id": "0.0-6.0-39.0"}}, {"uniqueid": "w41250443:a63751796", "current_trial": 135, "dateTime": 1664873461366, "trialdata": {"rt": 646, "stimulus": "<p id='stroop-text' class='stroop-green'>GREEN</p>", "response": "g", "stimulus-type": "congruent", "word": "green", "color": "green", "correct_response": "g", "trial_id": "stroop-trial-1-congruent-26", "trial_type": "html-keyboard-response", "trial_index": 135, "time_elapsed": 329793, "internal_node_id": "0.0-6.0-40.0"}}, {"uniqueid": "w41250443:a63751796", "current_trial": 136, "dateTime": 1664873462474, "trialdata": {"rt": 604, "stimulus": "<p id='stroop-text' class='stroop-yellow'>BRAIN</p>", "response": "y", "stimulus-type": "unrelated", "word": "BRAIN", "color": "yellow", "correct_response": "y", "trial_id": "stroop-trial-1-unrelated-3", "trial_type": "html-keyboard-response", "trial_index": 136, "time_elapsed": 330902, "internal_node_id": "0.0-6.0-41.0"}}, {"uniqueid": "w41250443:a63751796", "current_trial": 137, "dateTime": 1664873463622, "trialdata": {"rt": 645, "stimulus": "<p id='stroop-text' class='stroop-blue'>GREEN</p>", "response": "b", "stimulus-type": "incongruent", "word": "green", "color": "blue", "correct_response": "b", "trial_id": "stroop-trial-1-incongruent-21", "trial_type": "html-keyboard-response", "trial_index": 137, "time_elapsed": 332050, "internal_node_id": "0.0-6.0-42.0"}}, {"uniqueid": "w41250443:a63751796", "current_trial": 138, "dateTime": 1664873464825, "trialdata": {"rt": 698, "stimulus": "<p id='stroop-text' class='stroop-green'>FORK</p>", "response": "g", "stimulus-type": "unrelated", "word": "FORK", "color": "green", "correct_response": "g", "trial_id": "stroop-trial-1-unrelated-14", "trial_type": "html-keyboard-response", "trial_index": 138, "time_elapsed": 333252, "internal_node_id": "0.0-6.0-43.0"}}, {"uniqueid": "w41250443:a63751796", "current_trial": 139, "dateTime": 1664873466150, "trialdata": {"rt": 820, "stimulus": "<p id='stroop-text' class='stroop-red'>BOTTLE</p>", "response": "y", "stimulus-type": "unrelated", "word": "BOTTLE", "color": "red", "correct_response": "r", "trial_id": "stroop-trial-1-unrelated-19", "trial_type": "html-keyboard-response", "trial_index": 139, "time_elapsed": 334576, "internal_node_id": "0.0-6.0-44.0"}}, {"uniqueid": "w41250443:a63751796", "current_trial": 140, "dateTime": 1664873467356, "trialdata": {"rt": 702, "stimulus": "<p id='stroop-text' class='stroop-yellow'>BRIDGE</p>", "response": "y", "stimulus-type": "unrelated", "word": "BRIDGE", "color": "yellow", "correct_response": "y", "trial_id": "stroop-trial-1-unrelated-28", "trial_type": "html-keyboard-response", "trial_index": 140, "time_elapsed": 335783, "internal_node_id": "0.0-6.0-45.0"}}, {"uniqueid": "w41250443:a63751796", "current_trial": 141, "dateTime": 1664873468396, "trialdata": {"rt": 537, "stimulus": "<p id='stroop-text' class='stroop-yellow'>BRAIN</p>", "response": "y", "stimulus-type": "unrelated", "word": "BRAIN", "color": "yellow", "correct_response": "y", "trial_id": "stroop-trial-1-unrelated-7", "trial_type": "html-keyboard-response", "trial_index": 141, "time_elapsed": 336824, "internal_node_id": "0.0-6.0-46.0"}}, {"uniqueid": "w41250443:a63751796", "current_trial": 142, "dateTime": 1664873469326, "trialdata": {"rt": 426, "stimulus": "<p id='stroop-text' class='stroop-yellow'>RED</p>", "response": "y", "stimulus-type": "incongruent", "word": "red", "color": "yellow", "correct_response": "y", "trial_id": "stroop-trial-1-incongruent-14", "trial_type": "html-keyboard-response", "trial_index": 142, "time_elapsed": 337754, "internal_node_id": "0.0-6.0-47.0"}}, {"uniqueid": "w41250443:a63751796", "current_trial": 143, "dateTime": 1664873470483, "trialdata": {"rt": 652, "stimulus": "<p id='stroop-text' class='stroop-green'>YELLOW</p>", "response": "g", "stimulus-type": "incongruent", "word": "yellow", "color": "green", "correct_response": "g", "trial_id": "stroop-trial-1-incongruent-11", "trial_type": "html-keyboard-response", "trial_index": 143, "time_elapsed": 338911, "internal_node_id": "0.0-6.0-48.0"}}, {"uniqueid": "w41250443:a63751796", "current_trial": 144, "dateTime": 1664873471683, "trialdata": {"rt": 696, "stimulus": "<p id='stroop-text' class='stroop-blue'>BLUE</p>", "response": "b", "stimulus-type": "congruent", "word": "blue", "color": "blue", "correct_response": "b", "trial_id": "stroop-trial-1-congruent-1", "trial_type": "html-keyboard-response", "trial_index": 144, "time_elapsed": 340111, "internal_node_id": "0.0-6.0-49.0"}}, {"uniqueid": "w41250443:a63751796", "current_trial": 145, "dateTime": 1664873473035, "trialdata": {"rt": 847, "stimulus": "<p id='stroop-text' class='stroop-green'>BOAT</p>", "response": "g", "stimulus-type": "unrelated", "word": "BOAT", "color": "green", "correct_response": "g", "trial_id": "stroop-trial-1-unrelated-10", "trial_type": "html-keyboard-response", "trial_index": 145, "time_elapsed": 341462, "internal_node_id": "0.0-6.0-50.0"}}, {"uniqueid": "w41250443:a63751796", "current_trial": 146, "dateTime": 1664873474107, "trialdata": {"rt": 569, "stimulus": "<p id='stroop-text' class='stroop-green'>GREEN</p>", "response": "g", "stimulus-type": "congruent", "word": "green", "color": "green", "correct_response": "g", "trial_id": "stroop-trial-1-congruent-3", "trial_type": "html-keyboard-response", "trial_index": 146, "time_elapsed": 342534, "internal_node_id": "0.0-6.0-51.0"}}, {"uniqueid": "w41250443:a63751796", "current_trial": 147, "dateTime": 1664873475241, "trialdata": {"rt": 630, "stimulus": "<p id='stroop-text' class='stroop-blue'>BLUE</p>", "response": "b", "stimulus-type": "congruent", "word": "blue", "color": "blue", "correct_response": "b", "trial_id": "stroop-trial-1-congruent-28", "trial_type": "html-keyboard-response", "trial_index": 147, "time_elapsed": 343668, "internal_node_id": "0.0-6.0-52.0"}}, {"uniqueid": "w41250443:a63751796", "current_trial": 148, "dateTime": 1664873476597, "trialdata": {"rt": 851, "stimulus": "<p id='stroop-text' class='stroop-yellow'>GREEN</p>", "response": "y", "stimulus-type": "incongruent", "word": "green", "color": "yellow", "correct_response": "y", "trial_id": "stroop-trial-1-incongruent-19", "trial_type": "html-keyboard-response", "trial_index": 148, "time_elapsed": 345024, "internal_node_id": "0.0-6.0-53.0"}}, {"uniqueid": "w41250443:a63751796", "current_trial": 149, "dateTime": 1664873478245, "trialdata": {"rt": 1145, "stimulus": "<p id='stroop-text' class='stroop-green'>RED</p>", "response": "g", "stimulus-type": "incongruent", "word": "red", "color": "green", "correct_response": "g", "trial_id": "stroop-trial-1-incongruent-26", "trial_type": "html-keyboard-response", "trial_index": 149, "time_elapsed": 346673, "internal_node_id": "0.0-6.0-54.0"}}, {"uniqueid": "w41250443:a63751796", "current_trial": 150, "dateTime": 1664873479618, "trialdata": {"rt": 867, "stimulus": "<p id='stroop-text' class='stroop-blue'>STONE</p>", "response": "b", "stimulus-type": "unrelated", "word": "STONE", "color": "blue", "correct_response": "b", "trial_id": "stroop-trial-1-unrelated-13", "trial_type": "html-keyboard-response", "trial_index": 150, "time_elapsed": 348045, "internal_node_id": "0.0-6.0-55.0"}}, {"uniqueid": "w41250443:a63751796", "current_trial": 151, "dateTime": 1664873481030, "trialdata": {"rt": 908, "stimulus": "<p id='stroop-text' class='stroop-red'>GREEN</p>", "response": "r", "stimulus-type": "incongruent", "word": "green", "color": "red", "correct_response": "r", "trial_id": "stroop-trial-1-incongruent-24", "trial_type": "html-keyboard-response", "trial_index": 151, "time_elapsed": 349458, "internal_node_id": "0.0-6.0-56.0"}}, {"uniqueid": "w41250443:a63751796", "current_trial": 152, "dateTime": 1664873482264, "trialdata": {"rt": 730, "stimulus": "<p id='stroop-text' class='stroop-blue'>BOAT</p>", "response": "b", "stimulus-type": "unrelated", "word": "BOAT", "color": "blue", "correct_response": "b", "trial_id": "stroop-trial-1-unrelated-9", "trial_type": "html-keyboard-response", "trial_index": 152, "time_elapsed": 350692, "internal_node_id": "0.0-6.0-57.0"}}, {"uniqueid": "w41250443:a63751796", "current_trial": 153, "dateTime": 1664873483177, "trialdata": {"rt": 408, "stimulus": "<p id='stroop-text' class='stroop-blue'>FORK</p>", "response": "b", "stimulus-type": "unrelated", "word": "FORK", "color": "blue", "correct_response": "b", "trial_id": "stroop-trial-1-unrelated-16", "trial_type": "html-keyboard-response", "trial_index": 153, "time_elapsed": 351604, "internal_node_id": "0.0-6.0-58.0"}}, {"uniqueid": "w41250443:a63751796", "current_trial": 154, "dateTime": 1664873484484, "trialdata": {"rt": 801, "stimulus": "<p id='stroop-text' class='stroop-red'>YELLOW</p>", "response": "r", "stimulus-type": "incongruent", "word": "yellow", "color": "red", "correct_response": "r", "trial_id": "stroop-trial-1-incongruent-29", "trial_type": "html-keyboard-response", "trial_index": 154, "time_elapsed": 352912, "internal_node_id": "0.0-6.0-59.0"}}, {"uniqueid": "w41250443:a63751796", "current_trial": 155, "dateTime": 1664873485427, "trialdata": {"rt": 438, "stimulus": "<p id='stroop-text' class='stroop-blue'>BLUE</p>", "response": "r", "stimulus-type": "congruent", "word": "blue", "color": "blue", "correct_response": "b", "trial_id": "stroop-trial-1-congruent-10", "trial_type": "html-keyboard-response", "trial_index": 155, "time_elapsed": 353854, "internal_node_id": "0.0-6.0-60.0"}}, {"uniqueid": "w41250443:a63751796", "current_trial": 156, "dateTime": 1664873486920, "trialdata": {"rt": 989, "stimulus": "<p id='stroop-text' class='stroop-red'>BLUE</p>", "response": "r", "stimulus-type": "incongruent", "word": "blue", "color": "red", "correct_response": "r", "trial_id": "stroop-trial-1-incongruent-30", "trial_type": "html-keyboard-response", "trial_index": 156, "time_elapsed": 355348, "internal_node_id": "0.0-6.0-61.0"}}, {"uniqueid": "w41250443:a63751796", "current_trial": 157, "dateTime": 1664873488277, "trialdata": {"rt": 853, "stimulus": "<p id='stroop-text' class='stroop-blue'>RED</p>", "response": "b", "stimulus-type": "incongruent", "word": "red", "color": "blue", "correct_response": "b", "trial_id": "stroop-trial-1-incongruent-17", "trial_type": "html-keyboard-response", "trial_index": 157, "time_elapsed": 356704, "internal_node_id": "0.0-6.0-62.0"}}, {"uniqueid": "w41250443:a63751796", "current_trial": 158, "dateTime": 1664873490634, "trialdata": {"rt": 1854, "stimulus": "<p id='stroop-text' class='stroop-red'>GREEN</p>", "response": "r", "stimulus-type": "incongruent", "word": "green", "color": "red", "correct_response": "r", "trial_id": "stroop-trial-1-incongruent-15", "trial_type": "html-keyboard-response", "trial_index": 158, "time_elapsed": 359062, "internal_node_id": "0.0-6.0-63.0"}}, {"uniqueid": "w41250443:a63751796", "current_trial": 159, "dateTime": 1664873491762, "trialdata": {"rt": 624, "stimulus": "<p id='stroop-text' class='stroop-yellow'>YELLOW</p>", "response": "y", "stimulus-type": "congruent", "word": "yellow", "color": "yellow", "correct_response": "y", "trial_id": "stroop-trial-1-congruent-7", "trial_type": "html-keyboard-response", "trial_index": 159, "time_elapsed": 360190, "internal_node_id": "0.0-6.0-64.0"}}, {"uniqueid": "w41250443:a63751796", "current_trial": 160, "dateTime": 1664873493314, "trialdata": {"rt": 1046, "stimulus": "<p id='stroop-text' class='stroop-green'>GREEN</p>", "response": "g", "stimulus-type": "congruent", "word": "green", "color": "green", "correct_response": "g", "trial_id": "stroop-trial-1-congruent-24", "trial_type": "html-keyboard-response", "trial_index": 160, "time_elapsed": 361741, "internal_node_id": "0.0-6.0-65.0"}}, {"uniqueid": "w41250443:a63751796", "current_trial": 161, "dateTime": 1664873494817, "trialdata": {"rt": 999, "stimulus": "<p id='stroop-text' class='stroop-green'>BLUE</p>", "response": "b", "stimulus-type": "incongruent", "word": "blue", "color": "green", "correct_response": "g", "trial_id": "stroop-trial-1-incongruent-10", "trial_type": "html-keyboard-response", "trial_index": 161, "time_elapsed": 363245, "internal_node_id": "0.0-6.0-66.0"}}, {"uniqueid": "w41250443:a63751796", "current_trial": 162, "dateTime": 1664873496905, "trialdata": {"rt": 1573, "stimulus": "<p id='stroop-text' class='stroop-green'>BLUE</p>", "response": "g", "stimulus-type": "incongruent", "word": "blue", "color": "green", "correct_response": "g", "trial_id": "stroop-trial-1-incongruent-18", "trial_type": "html-keyboard-response", "trial_index": 162, "time_elapsed": 365332, "internal_node_id": "0.0-6.0-67.0"}}, {"uniqueid": "w41250443:a63751796", "current_trial": 163, "dateTime": 1664873498148, "trialdata": {"rt": 738, "stimulus": "<p id='stroop-text' class='stroop-red'>GREEN</p>", "response": "r", "stimulus-type": "incongruent", "word": "green", "color": "red", "correct_response": "r", "trial_id": "stroop-trial-1-incongruent-2", "trial_type": "html-keyboard-response", "trial_index": 163, "time_elapsed": 366575, "internal_node_id": "0.0-6.0-68.0"}}, {"uniqueid": "w41250443:a63751796", "current_trial": 164, "dateTime": 1664873500343, "trialdata": {"rt": 1691, "stimulus": "<p id='stroop-text' class='stroop-green'>DOG</p>", "response": "g", "stimulus-type": "unrelated", "word": "DOG", "color": "green", "correct_response": "g", "trial_id": "stroop-trial-1-unrelated-23", "trial_type": "html-keyboard-response", "trial_index": 164, "time_elapsed": 368770, "internal_node_id": "0.0-6.0-69.0"}}, {"uniqueid": "w41250443:a63751796", "current_trial": 165, "dateTime": 1664873501534, "trialdata": {"rt": 687, "stimulus": "<p id='stroop-text' class='stroop-yellow'>YELLOW</p>", "response": "y", "stimulus-type": "congruent", "word": "yellow", "color": "yellow", "correct_response": "y", "trial_id": "stroop-trial-1-congruent-27", "trial_type": "html-keyboard-response", "trial_index": 165, "time_elapsed": 369961, "internal_node_id": "0.0-6.0-70.0"}}, {"uniqueid": "w41250443:a63751796", "current_trial": 166, "dateTime": 1664873502741, "trialdata": {"rt": 703, "stimulus": "<p id='stroop-text' class='stroop-red'>BRAIN</p>", "response": "r", "stimulus-type": "unrelated", "word": "BRAIN", "color": "red", "correct_response": "r", "trial_id": "stroop-trial-1-unrelated-4", "trial_type": "html-keyboard-response", "trial_index": 166, "time_elapsed": 371168, "internal_node_id": "0.0-6.0-71.0"}}, {"uniqueid": "w41250443:a63751796", "current_trial": 167, "dateTime": 1664873503820, "trialdata": {"rt": 575, "stimulus": "<p id='stroop-text' class='stroop-red'>RED</p>", "response": "r", "stimulus-type": "congruent", "word": "red", "color": "red", "correct_response": "r", "trial_id": "stroop-trial-1-congruent-23", "trial_type": "html-keyboard-response", "trial_index": 167, "time_elapsed": 372247, "internal_node_id": "0.0-6.0-72.0"}}, {"uniqueid": "w41250443:a63751796", "current_trial": 168, "dateTime": 1664873504751, "trialdata": {"rt": 427, "stimulus": "<p id='stroop-text' class='stroop-red'>BOAT</p>", "response": "r", "stimulus-type": "unrelated", "word": "BOAT", "color": "red", "correct_response": "r", "trial_id": "stroop-trial-1-unrelated-22", "trial_type": "html-keyboard-response", "trial_index": 168, "time_elapsed": 373179, "internal_node_id": "0.0-6.0-73.0"}}, {"uniqueid": "w41250443:a63751796", "current_trial": 169, "dateTime": 1664873505952, "trialdata": {"rt": 697, "stimulus": "<p id='stroop-text' class='stroop-green'>BOAT</p>", "response": "g", "stimulus-type": "unrelated", "word": "BOAT", "color": "green", "correct_response": "g", "trial_id": "stroop-trial-1-unrelated-24", "trial_type": "html-keyboard-response", "trial_index": 169, "time_elapsed": 374379, "internal_node_id": "0.0-6.0-74.0"}}, {"uniqueid": "w41250443:a63751796", "current_trial": 170, "dateTime": 1664873507448, "trialdata": {"rt": 992, "stimulus": "<p id='stroop-text' class='stroop-green'>YELLOW</p>", "response": "y", "stimulus-type": "incongruent", "word": "yellow", "color": "green", "correct_response": "g", "trial_id": "stroop-trial-1-incongruent-28", "trial_type": "html-keyboard-response", "trial_index": 170, "time_elapsed": 375876, "internal_node_id": "0.0-6.0-75.0"}}, {"uniqueid": "w41250443:a63751796", "current_trial": 171, "dateTime": 1664873509147, "trialdata": {"rt": 1194, "stimulus": "<p id='stroop-text' class='stroop-blue'>BLUE</p>", "response": "b", "stimulus-type": "congruent", "word": "blue", "color": "blue", "correct_response": "b", "trial_id": "stroop-trial-1-congruent-5", "trial_type": "html-keyboard-response", "trial_index": 171, "time_elapsed": 377574, "internal_node_id": "0.0-6.0-76.0"}}, {"uniqueid": "w41250443:a63751796", "current_trial": 172, "dateTime": 1664873510426, "trialdata": {"rt": 775, "stimulus": "<p id='stroop-text' class='stroop-blue'>BLUE</p>", "response": "b", "stimulus-type": "congruent", "word": "blue", "color": "blue", "correct_response": "b", "trial_id": "stroop-trial-1-congruent-16", "trial_type": "html-keyboard-response", "trial_index": 172, "time_elapsed": 378854, "internal_node_id": "0.0-6.0-77.0"}}, {"uniqueid": "w41250443:a63751796", "current_trial": 173, "dateTime": 1664873511834, "trialdata": {"rt": 904, "stimulus": "<p id='stroop-text' class='stroop-yellow'>RED</p>", "response": "y", "stimulus-type": "incongruent", "word": "red", "color": "yellow", "correct_response": "y", "trial_id": "stroop-trial-1-incongruent-12", "trial_type": "html-keyboard-response", "trial_index": 173, "time_elapsed": 380262, "internal_node_id": "0.0-6.0-78.0"}}, {"uniqueid": "w41250443:a63751796", "current_trial": 174, "dateTime": 1664873514110, "trialdata": {"rt": 1771, "stimulus": "<p id='stroop-text' class='stroop-blue'>RED</p>", "response": "b", "stimulus-type": "incongruent", "word": "red", "color": "blue", "correct_response": "b", "trial_id": "stroop-trial-1-incongruent-16", "trial_type": "html-keyboard-response", "trial_index": 174, "time_elapsed": 382538, "internal_node_id": "0.0-6.0-79.0"}}, {"uniqueid": "w41250443:a63751796", "current_trial": 175, "dateTime": 1664873515977, "trialdata": {"rt": 1363, "stimulus": "<p id='stroop-text' class='stroop-green'>GREEN</p>", "response": "g", "stimulus-type": "congruent", "word": "green", "color": "green", "correct_response": "g", "trial_id": "stroop-trial-1-congruent-22", "trial_type": "html-keyboard-response", "trial_index": 175, "time_elapsed": 384405, "internal_node_id": "0.0-6.0-80.0"}}, {"uniqueid": "w41250443:a63751796", "current_trial": 176, "dateTime": 1664873517118, "trialdata": {"rt": 637, "stimulus": "<p id='stroop-text' class='stroop-green'>GREEN</p>", "response": "g", "stimulus-type": "congruent", "word": "green", "color": "green", "correct_response": "g", "trial_id": "stroop-trial-1-congruent-9", "trial_type": "html-keyboard-response", "trial_index": 176, "time_elapsed": 385545, "internal_node_id": "0.0-6.0-81.0"}}, {"uniqueid": "w41250443:a63751796", "current_trial": 177, "dateTime": 1664873519003, "trialdata": {"rt": 1381, "stimulus": "<p id='stroop-text' class='stroop-red'>BLUE</p>", "response": "r", "stimulus-type": "incongruent", "word": "blue", "color": "red", "correct_response": "r", "trial_id": "stroop-trial-1-incongruent-23", "trial_type": "html-keyboard-response", "trial_index": 177, "time_elapsed": 387430, "internal_node_id": "0.0-6.0-82.0"}}, {"uniqueid": "w41250443:a63751796", "current_trial": 178, "dateTime": 1664873520505, "trialdata": {"rt": 998, "stimulus": "<p id='stroop-text' class='stroop-green'>BOAT</p>", "response": "g", "stimulus-type": "unrelated", "word": "BOAT", "color": "green", "correct_response": "g", "trial_id": "stroop-trial-1-unrelated-21", "trial_type": "html-keyboard-response", "trial_index": 178, "time_elapsed": 388933, "internal_node_id": "0.0-6.0-83.0"}}, {"uniqueid": "w41250443:a63751796", "current_trial": 179, "dateTime": 1664873521907, "trialdata": {"rt": 897, "stimulus": "<p id='stroop-text' class='stroop-yellow'>GREEN</p>", "response": "y", "stimulus-type": "incongruent", "word": "green", "color": "yellow", "correct_response": "y", "trial_id": "stroop-trial-1-incongruent-25", "trial_type": "html-keyboard-response", "trial_index": 179, "time_elapsed": 390334, "internal_node_id": "0.0-6.0-84.0"}}, {"uniqueid": "w41250443:a63751796", "current_trial": 180, "dateTime": 1664873523139, "trialdata": {"rt": 728, "stimulus": "<p id='stroop-text' class='stroop-blue'>FORK</p>", "response": "b", "stimulus-type": "unrelated", "word": "FORK", "color": "blue", "correct_response": "b", "trial_id": "stroop-trial-1-unrelated-5", "trial_type": "html-keyboard-response", "trial_index": 180, "time_elapsed": 391567, "internal_node_id": "0.0-6.0-85.0"}}, {"uniqueid": "w41250443:a63751796", "current_trial": 181, "dateTime": 1664873524384, "trialdata": {"rt": 740, "stimulus": "<p id='stroop-text' class='stroop-yellow'>YELLOW</p>", "response": "y", "stimulus-type": "congruent", "word": "yellow", "color": "yellow", "correct_response": "y", "trial_id": "stroop-trial-1-congruent-21", "trial_type": "html-keyboard-response", "trial_index": 181, "time_elapsed": 392812, "internal_node_id": "0.0-6.0-86.0"}}, {"uniqueid": "w41250443:a63751796", "current_trial": 182, "dateTime": 1664873526397, "trialdata": {"rt": 1509, "stimulus": "<p id='stroop-text' class='stroop-green'>BRAIN</p>", "response": "g", "stimulus-type": "unrelated", "word": "BRAIN", "color": "green", "correct_response": "g", "trial_id": "stroop-trial-1-unrelated-12", "trial_type": "html-keyboard-response", "trial_index": 182, "time_elapsed": 394824, "internal_node_id": "0.0-6.0-87.0"}}, {"uniqueid": "w41250443:a63751796", "current_trial": 183, "dateTime": 1664873528027, "trialdata": {"rt": 1126, "stimulus": "<p id='stroop-text' class='stroop-blue'>BRIDGE</p>", "response": "b", "stimulus-type": "unrelated", "word": "BRIDGE", "color": "blue", "correct_response": "b", "trial_id": "stroop-trial-1-unrelated-11", "trial_type": "html-keyboard-response", "trial_index": 183, "time_elapsed": 396455, "internal_node_id": "0.0-6.0-88.0"}}, {"uniqueid": "w41250443:a63751796", "current_trial": 184, "dateTime": 1664873529684, "trialdata": {"rt": 1153, "stimulus": "<p id='stroop-text' class='stroop-green'>GREEN</p>", "response": "g", "stimulus-type": "congruent", "word": "green", "color": "green", "correct_response": "g", "trial_id": "stroop-trial-1-congruent-2", "trial_type": "html-keyboard-response", "trial_index": 184, "time_elapsed": 398112, "internal_node_id": "0.0-6.0-89.0"}}, {"uniqueid": "w41250443:a63751796", "current_trial": 185, "dateTime": 1664873531901, "trialdata": {"rt": 1712, "stimulus": "  <h1> End of block! </h1>\n\n  You have reached the end of the block 2/5. If you need a short break, feel free to take one now before moving on.\n\n  <br><br>\n  In the next block, you will complete another 90 rounds of this game.\n\n  <br><br>\n  <div style='text-align: center;'>Press <code>space</code> to begin.</div>\n  <br><br>\n<div style='text-align: center;'>(If the experiment doesn't continue, try clicking on the text and then pressing <code>space</code>.)</div>", "response": " ", "trial_id": "stroop_1_ready_3", "trial_type": "html-keyboard-response", "trial_index": 185, "time_elapsed": 400329, "internal_node_id": "0.0-7.0"}}, {"uniqueid": "w41250443:a63751796", "current_trial": 186, "dateTime": 1664873533444, "trialdata": {"rt": 1539, "stimulus": "<p id='stroop-text' class='stroop-yellow'>GREEN</p>", "response": "y", "stimulus-type": "incongruent", "word": "green", "color": "yellow", "correct_response": "y", "trial_id": "stroop-trial-1-incongruent-11", "trial_type": "html-keyboard-response", "trial_index": 186, "time_elapsed": 401871, "internal_node_id": "0.0-8.0-0.0"}}, {"uniqueid": "w41250443:a63751796", "current_trial": 187, "dateTime": 1664873534815, "trialdata": {"rt": 866, "stimulus": "<p id='stroop-text' class='stroop-green'>GREEN</p>", "response": "g", "stimulus-type": "congruent", "word": "green", "color": "green", "correct_response": "g", "trial_id": "stroop-trial-1-congruent-28", "trial_type": "html-keyboard-response", "trial_index": 187, "time_elapsed": 403242, "internal_node_id": "0.0-8.0-1.0"}}, {"uniqueid": "w41250443:a63751796", "current_trial": 188, "dateTime": 1664873536225, "trialdata": {"rt": 906, "stimulus": "<p id='stroop-text' class='stroop-blue'>GREEN</p>", "response": "b", "stimulus-type": "incongruent", "word": "green", "color": "blue", "correct_response": "b", "trial_id": "stroop-trial-1-incongruent-4", "trial_type": "html-keyboard-response", "trial_index": 188, "time_elapsed": 404653, "internal_node_id": "0.0-8.0-2.0"}}, {"uniqueid": "w41250443:a63751796", "current_trial": 189, "dateTime": 1664873537334, "trialdata": {"rt": 606, "stimulus": "<p id='stroop-text' class='stroop-blue'>GREEN</p>", "response": "b", "stimulus-type": "incongruent", "word": "green", "color": "blue", "correct_response": "b", "trial_id": "stroop-trial-1-incongruent-19", "trial_type": "html-keyboard-response", "trial_index": 189, "time_elapsed": 405762, "internal_node_id": "0.0-8.0-3.0"}}, {"uniqueid": "w41250443:a63751796", "current_trial": 190, "dateTime": 1664873538743, "trialdata": {"rt": 905, "stimulus": "<p id='stroop-text' class='stroop-yellow'>BOTTLE</p>", "response": "y", "stimulus-type": "unrelated", "word": "BOTTLE", "color": "yellow", "correct_response": "y", "trial_id": "stroop-trial-1-unrelated-18", "trial_type": "html-keyboard-response", "trial_index": 190, "time_elapsed": 407171, "internal_node_id": "0.0-8.0-4.0"}}, {"uniqueid": "w41250443:a63751796", "current_trial": 191, "dateTime": 1664873540510, "trialdata": {"rt": 1262, "stimulus": "<p id='stroop-text' class='stroop-red'>YELLOW</p>", "response": "r", "stimulus-type": "incongruent", "word": "yellow", "color": "red", "correct_response": "r", "trial_id": "stroop-trial-1-incongruent-7", "trial_type": "html-keyboard-response", "trial_index": 191, "time_elapsed": 408938, "internal_node_id": "0.0-8.0-5.0"}}, {"uniqueid": "w41250443:a63751796", "current_trial": 192, "dateTime": 1664873542174, "trialdata": {"rt": 1158, "stimulus": "<p id='stroop-text' class='stroop-green'>BOAT</p>", "response": "g", "stimulus-type": "unrelated", "word": "BOAT", "color": "green", "correct_response": "g", "trial_id": "stroop-trial-1-unrelated-15", "trial_type": "html-keyboard-response", "trial_index": 192, "time_elapsed": 410601, "internal_node_id": "0.0-8.0-6.0"}}, {"uniqueid": "w41250443:a63751796", "current_trial": 193, "dateTime": 1664873543427, "trialdata": {"rt": 748, "stimulus": "<p id='stroop-text' class='stroop-blue'>MONKEY</p>", "response": "b", "stimulus-type": "unrelated", "word": "MONKEY", "color": "blue", "correct_response": "b", "trial_id": "stroop-trial-1-unrelated-28", "trial_type": "html-keyboard-response", "trial_index": 193, "time_elapsed": 411855, "internal_node_id": "0.0-8.0-7.0"}}, {"uniqueid": "w41250443:a63751796", "current_trial": 194, "dateTime": 1664873544871, "trialdata": {"rt": 937, "stimulus": "<p id='stroop-text' class='stroop-yellow'>YELLOW</p>", "response": "y", "stimulus-type": "congruent", "word": "yellow", "color": "yellow", "correct_response": "y", "trial_id": "stroop-trial-1-congruent-13", "trial_type": "html-keyboard-response", "trial_index": 194, "time_elapsed": 413298, "internal_node_id": "0.0-8.0-8.0"}}, {"uniqueid": "w41250443:a63751796", "current_trial": 195, "dateTime": 1664873546516, "trialdata": {"rt": 1142, "stimulus": "<p id='stroop-text' class='stroop-red'>BLUE</p>", "response": "r", "stimulus-type": "incongruent", "word": "blue", "color": "red", "correct_response": "r", "trial_id": "stroop-trial-1-incongruent-24", "trial_type": "html-keyboard-response", "trial_index": 195, "time_elapsed": 414944, "internal_node_id": "0.0-8.0-9.0"}}, {"uniqueid": "w41250443:a63751796", "current_trial": 196, "dateTime": 1664873548165, "trialdata": {"rt": 1143, "stimulus": "<p id='stroop-text' class='stroop-yellow'>RED</p>", "response": "y", "stimulus-type": "incongruent", "word": "red", "color": "yellow", "correct_response": "y", "trial_id": "stroop-trial-1-incongruent-23", "trial_type": "html-keyboard-response", "trial_index": 196, "time_elapsed": 416593, "internal_node_id": "0.0-8.0-10.0"}}, {"uniqueid": "w41250443:a63751796", "current_trial": 197, "dateTime": 1664873549636, "trialdata": {"rt": 965, "stimulus": "<p id='stroop-text' class='stroop-blue'>GREEN</p>", "response": "b", "stimulus-type": "incongruent", "word": "green", "color": "blue", "correct_response": "b", "trial_id": "stroop-trial-1-incongruent-18", "trial_type": "html-keyboard-response", "trial_index": 197, "time_elapsed": 418063, "internal_node_id": "0.0-8.0-11.0"}}, {"uniqueid": "w41250443:a63751796", "current_trial": 198, "dateTime": 1664873550841, "trialdata": {"rt": 701, "stimulus": "<p id='stroop-text' class='stroop-blue'>BLUE</p>", "response": "b", "stimulus-type": "congruent", "word": "blue", "color": "blue", "correct_response": "b", "trial_id": "stroop-trial-1-congruent-21", "trial_type": "html-keyboard-response", "trial_index": 198, "time_elapsed": 419269, "internal_node_id": "0.0-8.0-12.0"}}, {"uniqueid": "w41250443:a63751796", "current_trial": 199, "dateTime": 1664873552093, "trialdata": {"rt": 748, "stimulus": "<p id='stroop-text' class='stroop-blue'>BLUE</p>", "response": "b", "stimulus-type": "congruent", "word": "blue", "color": "blue", "correct_response": "b", "trial_id": "stroop-trial-1-congruent-19", "trial_type": "html-keyboard-response", "trial_index": 199, "time_elapsed": 420521, "internal_node_id": "0.0-8.0-13.0"}}, {"uniqueid": "w41250443:a63751796", "current_trial": 200, "dateTime": 1664873553424, "trialdata": {"rt": 825, "stimulus": "<p id='stroop-text' class='stroop-red'>RED</p>", "response": "r", "stimulus-type": "congruent", "word": "red", "color": "red", "correct_response": "r", "trial_id": "stroop-trial-1-congruent-9", "trial_type": "html-keyboard-response", "trial_index": 200, "time_elapsed": 421851, "internal_node_id": "0.0-8.0-14.0"}}, {"uniqueid": "w41250443:a63751796", "current_trial": 201, "dateTime": 1664873554725, "trialdata": {"rt": 797, "stimulus": "<p id='stroop-text' class='stroop-yellow'>FORK</p>", "response": "y", "stimulus-type": "unrelated", "word": "FORK", "color": "yellow", "correct_response": "y", "trial_id": "stroop-trial-1-unrelated-14", "trial_type": "html-keyboard-response", "trial_index": 201, "time_elapsed": 423153, "internal_node_id": "0.0-8.0-15.0"}}, {"uniqueid": "w41250443:a63751796", "current_trial": 202, "dateTime": 1664873556127, "trialdata": {"rt": 897, "stimulus": "<p id='stroop-text' class='stroop-blue'>BLUE</p>", "response": "b", "stimulus-type": "congruent", "word": "blue", "color": "blue", "correct_response": "b", "trial_id": "stroop-trial-1-congruent-8", "trial_type": "html-keyboard-response", "trial_index": 202, "time_elapsed": 424555, "internal_node_id": "0.0-8.0-16.0"}}, {"uniqueid": "w41250443:a63751796", "current_trial": 203, "dateTime": 1664873557285, "trialdata": {"rt": 653, "stimulus": "<p id='stroop-text' class='stroop-blue'>BLUE</p>", "response": "b", "stimulus-type": "congruent", "word": "blue", "color": "blue", "correct_response": "b", "trial_id": "stroop-trial-1-congruent-5", "trial_type": "html-keyboard-response", "trial_index": 203, "time_elapsed": 425713, "internal_node_id": "0.0-8.0-17.0"}}, {"uniqueid": "w41250443:a63751796", "current_trial": 204, "dateTime": 1664873558607, "trialdata": {"rt": 817, "stimulus": "<p id='stroop-text' class='stroop-red'>RED</p>", "response": "r", "stimulus-type": "congruent", "word": "red", "color": "red", "correct_response": "r", "trial_id": "stroop-trial-1-congruent-17", "trial_type": "html-keyboard-response", "trial_index": 204, "time_elapsed": 427034, "internal_node_id": "0.0-8.0-18.0"}}, {"uniqueid": "w41250443:a63751796", "current_trial": 205, "dateTime": 1664873559936, "trialdata": {"rt": 824, "stimulus": "<p id='stroop-text' class='stroop-yellow'>MONKEY</p>", "response": "y", "stimulus-type": "unrelated", "word": "MONKEY", "color": "yellow", "correct_response": "y", "trial_id": "stroop-trial-1-unrelated-25", "trial_type": "html-keyboard-response", "trial_index": 205, "time_elapsed": 428364, "internal_node_id": "0.0-8.0-19.0"}}, {"uniqueid": "w41250443:a63751796", "current_trial": 206, "dateTime": 1664873562259, "trialdata": {"rt": 1819, "stimulus": "<p id='stroop-text' class='stroop-blue'>GREEN</p>", "response": "b", "stimulus-type": "incongruent", "word": "green", "color": "blue", "correct_response": "b", "trial_id": "stroop-trial-1-incongruent-13", "trial_type": "html-keyboard-response", "trial_index": 206, "time_elapsed": 430686, "internal_node_id": "0.0-8.0-20.0"}}, {"uniqueid": "w41250443:a63751796", "current_trial": 207, "dateTime": 1664873564098, "trialdata": {"rt": 1334, "stimulus": "<p id='stroop-text' class='stroop-yellow'>YELLOW</p>", "response": "y", "stimulus-type": "congruent", "word": "yellow", "color": "yellow", "correct_response": "y", "trial_id": "stroop-trial-1-congruent-7", "trial_type": "html-keyboard-response", "trial_index": 207, "time_elapsed": 432525, "internal_node_id": "0.0-8.0-21.0"}}, {"uniqueid": "w41250443:a63751796", "current_trial": 208, "dateTime": 1664873565902, "trialdata": {"rt": 1299, "stimulus": "<p id='stroop-text' class='stroop-green'>BLUE</p>", "response": "g", "stimulus-type": "incongruent", "word": "blue", "color": "green", "correct_response": "g", "trial_id": "stroop-trial-1-incongruent-5", "trial_type": "html-keyboard-response", "trial_index": 208, "time_elapsed": 434330, "internal_node_id": "0.0-8.0-22.0"}}, {"uniqueid": "w41250443:a63751796", "current_trial": 209, "dateTime": 1664873567669, "trialdata": {"rt": 1262, "stimulus": "<p id='stroop-text' class='stroop-yellow'>SHIP</p>", "response": "y", "stimulus-type": "unrelated", "word": "SHIP", "color": "yellow", "correct_response": "y", "trial_id": "stroop-trial-1-unrelated-6", "trial_type": "html-keyboard-response", "trial_index": 209, "time_elapsed": 436097, "internal_node_id": "0.0-8.0-23.0"}}, {"uniqueid": "w41250443:a63751796", "current_trial": 210, "dateTime": 1664873569220, "trialdata": {"rt": 1045, "stimulus": "<p id='stroop-text' class='stroop-blue'>BLUE</p>", "response": "b", "stimulus-type": "congruent", "word": "blue", "color": "blue", "correct_response": "b", "trial_id": "stroop-trial-1-congruent-20", "trial_type": "html-keyboard-response", "trial_index": 210, "time_elapsed": 437648, "internal_node_id": "0.0-8.0-24.0"}}, {"uniqueid": "w41250443:a63751796", "current_trial": 211, "dateTime": 1664873570735, "trialdata": {"rt": 1011, "stimulus": "<p id='stroop-text' class='stroop-yellow'>BLUE</p>", "response": "y", "stimulus-type": "incongruent", "word": "blue", "color": "yellow", "correct_response": "y", "trial_id": "stroop-trial-1-incongruent-22", "trial_type": "html-keyboard-response", "trial_index": 211, "time_elapsed": 439163, "internal_node_id": "0.0-8.0-25.0"}}, {"uniqueid": "w41250443:a63751796", "current_trial": 212, "dateTime": 1664873571912, "trialdata": {"rt": 672, "stimulus": "<p id='stroop-text' class='stroop-yellow'>GREEN</p>", "response": "y", "stimulus-type": "incongruent", "word": "green", "color": "yellow", "correct_response": "y", "trial_id": "stroop-trial-1-incongruent-10", "trial_type": "html-keyboard-response", "trial_index": 212, "time_elapsed": 440340, "internal_node_id": "0.0-8.0-26.0"}}, {"uniqueid": "w41250443:a63751796", "current_trial": 213, "dateTime": 1664873573567, "trialdata": {"rt": 1149, "stimulus": "<p id='stroop-text' class='stroop-blue'>GREEN</p>", "response": "b", "stimulus-type": "incongruent", "word": "green", "color": "blue", "correct_response": "b", "trial_id": "stroop-trial-1-incongruent-21", "trial_type": "html-keyboard-response", "trial_index": 213, "time_elapsed": 441995, "internal_node_id": "0.0-8.0-27.0"}}, {"uniqueid": "w41250443:a63751796", "current_trial": 214, "dateTime": 1664873575011, "trialdata": {"rt": 939, "stimulus": "<p id='stroop-text' class='stroop-yellow'>YELLOW</p>", "response": "y", "stimulus-type": "congruent", "word": "yellow", "color": "yellow", "correct_response": "y", "trial_id": "stroop-trial-1-congruent-2", "trial_type": "html-keyboard-response", "trial_index": 214, "time_elapsed": 443439, "internal_node_id": "0.0-8.0-28.0"}}, {"uniqueid": "w41250443:a63751796", "current_trial": 215, "dateTime": 1664873576469, "trialdata": {"rt": 953, "stimulus": "<p id='stroop-text' class='stroop-yellow'>RED</p>", "response": "y", "stimulus-type": "incongruent", "word": "red", "color": "yellow", "correct_response": "y", "trial_id": "stroop-trial-1-incongruent-28", "trial_type": "html-keyboard-response", "trial_index": 215, "time_elapsed": 444897, "internal_node_id": "0.0-8.0-29.0"}}, {"uniqueid": "w41250443:a63751796", "current_trial": 216, "dateTime": 1664873577855, "trialdata": {"rt": 881, "stimulus": "<p id='stroop-text' class='stroop-red'>RED</p>", "response": "r", "stimulus-type": "congruent", "word": "red", "color": "red", "correct_response": "r", "trial_id": "stroop-trial-1-congruent-22", "trial_type": "html-keyboard-response", "trial_index": 216, "time_elapsed": 446282, "internal_node_id": "0.0-8.0-30.0"}}, {"uniqueid": "w41250443:a63751796", "current_trial": 217, "dateTime": 1664873579295, "trialdata": {"rt": 936, "stimulus": "<p id='stroop-text' class='stroop-blue'>YELLOW</p>", "response": "b", "stimulus-type": "incongruent", "word": "yellow", "color": "blue", "correct_response": "b", "trial_id": "stroop-trial-1-incongruent-8", "trial_type": "html-keyboard-response", "trial_index": 217, "time_elapsed": 447723, "internal_node_id": "0.0-8.0-31.0"}}, {"uniqueid": "w41250443:a63751796", "current_trial": 218, "dateTime": 1664873580433, "trialdata": {"rt": 633, "stimulus": "<p id='stroop-text' class='stroop-blue'>STONE</p>", "response": "b", "stimulus-type": "unrelated", "word": "STONE", "color": "blue", "correct_response": "b", "trial_id": "stroop-trial-1-unrelated-19", "trial_type": "html-keyboard-response", "trial_index": 218, "time_elapsed": 448861, "internal_node_id": "0.0-8.0-32.0"}}, {"uniqueid": "w41250443:a63751796", "current_trial": 219, "dateTime": 1664873581647, "trialdata": {"rt": 709, "stimulus": "<p id='stroop-text' class='stroop-blue'>BRAIN</p>", "response": "b", "stimulus-type": "unrelated", "word": "BRAIN", "color": "blue", "correct_response": "b", "trial_id": "stroop-trial-1-unrelated-16", "trial_type": "html-keyboard-response", "trial_index": 219, "time_elapsed": 450074, "internal_node_id": "0.0-8.0-33.0"}}, {"uniqueid": "w41250443:a63751796", "current_trial": 220, "dateTime": 1664873583257, "trialdata": {"rt": 1105, "stimulus": "<p id='stroop-text' class='stroop-red'>MONKEY</p>", "response": "r", "stimulus-type": "unrelated", "word": "MONKEY", "color": "red", "correct_response": "r", "trial_id": "stroop-trial-1-unrelated-7", "trial_type": "html-keyboard-response", "trial_index": 220, "time_elapsed": 451685, "internal_node_id": "0.0-8.0-34.0"}}, {"uniqueid": "w41250443:a63751796", "current_trial": 221, "dateTime": 1664873584760, "trialdata": {"rt": 998, "stimulus": "<p id='stroop-text' class='stroop-yellow'>YELLOW</p>", "response": "y", "stimulus-type": "congruent", "word": "yellow", "color": "yellow", "correct_response": "y", "trial_id": "stroop-trial-1-congruent-15", "trial_type": "html-keyboard-response", "trial_index": 221, "time_elapsed": 453188, "internal_node_id": "0.0-8.0-35.0"}}, {"uniqueid": "w41250443:a63751796", "current_trial": 222, "dateTime": 1664873586071, "trialdata": {"rt": 805, "stimulus": "<p id='stroop-text' class='stroop-yellow'>BRAIN</p>", "response": "y", "stimulus-type": "unrelated", "word": "BRAIN", "color": "yellow", "correct_response": "y", "trial_id": "stroop-trial-1-unrelated-1", "trial_type": "html-keyboard-response", "trial_index": 222,