{"condition": 0, "counterbalance": 0, "assignmentId": "a54504938", "workerId": "w64877162", "hitId": "h32547375", "currenttrial": 965, "bonus": 0, "data": [{"uniqueid": "w64877162:a54504938", "current_trial": 0, "dateTime": 1664463969700, "trialdata": {"success": true, "trial_type": "fullscreen", "trial_index": 0, "time_elapsed": 72104, "internal_node_id": "0.0-0.0"}}, {"uniqueid": "w64877162:a54504938", "current_trial": 1, "dateTime": 1664463993855, "trialdata": {"view_history": [{"page_index": 0, "viewing_time": 24150}], "rt": 24151, "trial_id": "exp_instructions_distractor", "trial_type": "instructions", "trial_index": 1, "time_elapsed": 96261, "internal_node_id": "0.0-1.0"}}, {"uniqueid": "w64877162:a54504938", "current_trial": 2, "dateTime": 1664464020095, "trialdata": {"view_history": [{"page_index": 0, "viewing_time": 26238}], "rt": 26238, "trial_id": "color_game_instructions", "trial_type": "instructions", "trial_index": 2, "time_elapsed": 122501, "internal_node_id": "0.0-2.0"}}, {"uniqueid": "w64877162:a54504938", "current_trial": 3, "dateTime": 1664464028195, "trialdata": {"rt": 8099, "stimulus": "<h1> Get ready to start the game! </h1>\n\nThank you for reading the instructions. Get ready start with the first of 5 block(s) of this game.\n<br><br>\nIn this first block, you will complete 90 rounds of this game before moving on.\n<br><br>\nRemember, the better you perform, the bigger your bonus will be!\n<br><br>\n<div style='text-align: center;'>Press <code>space</code> to begin.</div>", "response": " ", "trial_id": "stroop_1_ready_1", "trial_type": "html-keyboard-response", "trial_index": 3, "time_elapsed": 130601, "internal_node_id": "0.0-3.0"}}, {"uniqueid": "w64877162:a54504938", "current_trial": 4, "dateTime": 1664464029481, "trialdata": {"rt": 1279, "stimulus": "<p id='stroop-text' class='stroop-yellow'>RED</p>", "response": "r", "stimulus-type": "incongruent", "word": "red", "color": "yellow", "correct_response": "y", "trial_id": "stroop-trial-1-incongruent-27", "trial_type": "html-keyboard-response", "trial_index": 4, "time_elapsed": 131886, "internal_node_id": "0.0-4.0-0.0"}}, {"uniqueid": "w64877162:a54504938", "current_trial": 5, "dateTime": 1664464031665, "trialdata": {"rt": 1679, "stimulus": "<p id='stroop-text' class='stroop-blue'>RED</p>", "response": "b", "stimulus-type": "incongruent", "word": "red", "color": "blue", "correct_response": "b", "trial_id": "stroop-trial-1-incongruent-29", "trial_type": "html-keyboard-response", "trial_index": 5, "time_elapsed": 134070, "internal_node_id": "0.0-4.0-1.0"}}, {"uniqueid": "w64877162:a54504938", "current_trial": 6, "dateTime": 1664464033337, "trialdata": {"rt": 1168, "stimulus": "<p id='stroop-text' class='stroop-yellow'>YELLOW</p>", "response": "y", "stimulus-type": "congruent", "word": "yellow", "color": "yellow", "correct_response": "y", "trial_id": "stroop-trial-1-congruent-3", "trial_type": "html-keyboard-response", "trial_index": 6, "time_elapsed": 135743, "internal_node_id": "0.0-4.0-2.0"}}, {"uniqueid": "w64877162:a54504938", "current_trial": 7, "dateTime": 1664464034697, "trialdata": {"rt": 854, "stimulus": "<p id='stroop-text' class='stroop-green'>GREEN</p>", "response": "g", "stimulus-type": "congruent", "word": "green", "color": "green", "correct_response": "g", "trial_id": "stroop-trial-1-congruent-5", "trial_type": "html-keyboard-response", "trial_index": 7, "time_elapsed": 137102, "internal_node_id": "0.0-4.0-3.0"}}, {"uniqueid": "w64877162:a54504938", "current_trial": 8, "dateTime": 1664464036185, "trialdata": {"rt": 984, "stimulus": "<p id='stroop-text' class='stroop-blue'>SHIP</p>", "response": "b", "stimulus-type": "unrelated", "word": "SHIP", "color": "blue", "correct_response": "b", "trial_id": "stroop-trial-1-unrelated-4", "trial_type": "html-keyboard-response", "trial_index": 8, "time_elapsed": 138590, "internal_node_id": "0.0-4.0-4.0"}}, {"uniqueid": "w64877162:a54504938", "current_trial": 9, "dateTime": 1664464037793, "trialdata": {"rt": 1102, "stimulus": "<p id='stroop-text' class='stroop-blue'>RED</p>", "response": "b", "stimulus-type": "incongruent", "word": "red", "color": "blue", "correct_response": "b", "trial_id": "stroop-trial-1-incongruent-17", "trial_type": "html-keyboard-response", "trial_index": 9, "time_elapsed": 140198, "internal_node_id": "0.0-4.0-5.0"}}, {"uniqueid": "w64877162:a54504938", "current_trial": 10, "dateTime": 1664464039320, "trialdata": {"rt": 1024, "stimulus": "<p id='stroop-text' class='stroop-yellow'>BLUE</p>", "response": "y", "stimulus-type": "incongruent", "word": "blue", "color": "yellow", "correct_response": "y", "trial_id": "stroop-trial-1-incongruent-5", "trial_type": "html-keyboard-response", "trial_index": 10, "time_elapsed": 141726, "internal_node_id": "0.0-4.0-6.0"}}, {"uniqueid": "w64877162:a54504938", "current_trial": 11, "dateTime": 1664464040983, "trialdata": {"rt": 1159, "stimulus": "<p id='stroop-text' class='stroop-yellow'>BOAT</p>", "response": "y", "stimulus-type": "unrelated", "word": "BOAT", "color": "yellow", "correct_response": "y", "trial_id": "stroop-trial-1-unrelated-5", "trial_type": "html-keyboard-response", "trial_index": 11, "time_elapsed": 143389, "internal_node_id": "0.0-4.0-7.0"}}, {"uniqueid": "w64877162:a54504938", "current_trial": 12, "dateTime": 1664464042217, "trialdata": {"rt": 732, "stimulus": "<p id='stroop-text' class='stroop-yellow'>GREEN</p>", "response": "y", "stimulus-type": "incongruent", "word": "green", "color": "yellow", "correct_response": "y", "trial_id": "stroop-trial-1-incongruent-1", "trial_type": "html-keyboard-response", "trial_index": 12, "time_elapsed": 144622, "internal_node_id": "0.0-4.0-8.0"}}, {"uniqueid": "w64877162:a54504938", "current_trial": 13, "dateTime": 1664464044297, "trialdata": {"rt": 1576, "stimulus": "<p id='stroop-text' class='stroop-blue'>RED</p>", "response": "b", "stimulus-type": "incongruent", "word": "red", "color": "blue", "correct_response": "b", "trial_id": "stroop-trial-1-incongruent-14", "trial_type": "html-keyboard-response", "trial_index": 13, "time_elapsed": 146702, "internal_node_id": "0.0-4.0-9.0"}}, {"uniqueid": "w64877162:a54504938", "current_trial": 14, "dateTime": 1664464045802, "trialdata": {"rt": 1000, "stimulus": "<p id='stroop-text' class='stroop-red'>STONE</p>", "response": "r", "stimulus-type": "unrelated", "word": "STONE", "color": "red", "correct_response": "r", "trial_id": "stroop-trial-1-unrelated-28", "trial_type": "html-keyboard-response", "trial_index": 14, "time_elapsed": 148207, "internal_node_id": "0.0-4.0-10.0"}}, {"uniqueid": "w64877162:a54504938", "current_trial": 15, "dateTime": 1664464048463, "trialdata": {"rt": 2157, "stimulus": "<p id='stroop-text' class='stroop-yellow'>GREEN</p>", "response": "y", "stimulus-type": "incongruent", "word": "green", "color": "yellow", "correct_response": "y", "trial_id": "stroop-trial-1-incongruent-4", "trial_type": "html-keyboard-response", "trial_index": 15, "time_elapsed": 150869, "internal_node_id": "0.0-4.0-11.0"}}, {"uniqueid": "w64877162:a54504938", "current_trial": 16, "dateTime": 1664464050241, "trialdata": {"rt": 1274, "stimulus": "<p id='stroop-text' class='stroop-green'>CHAIR</p>", "response": "g", "stimulus-type": "unrelated", "word": "CHAIR", "color": "green", "correct_response": "g", "trial_id": "stroop-trial-1-unrelated-2", "trial_type": "html-keyboard-response", "trial_index": 16, "time_elapsed": 152646, "internal_node_id": "0.0-4.0-12.0"}}, {"uniqueid": "w64877162:a54504938", "current_trial": 17, "dateTime": 1664464051417, "trialdata": {"rt": 672, "stimulus": "<p id='stroop-text' class='stroop-yellow'>YELLOW</p>", "response": "y", "stimulus-type": "congruent", "word": "yellow", "color": "yellow", "correct_response": "y", "trial_id": "stroop-trial-1-congruent-29", "trial_type": "html-keyboard-response", "trial_index": 17, "time_elapsed": 153822, "internal_node_id": "0.0-4.0-13.0"}}, {"uniqueid": "w64877162:a54504938", "current_trial": 18, "dateTime": 1664464053047, "trialdata": {"rt": 1127, "stimulus": "<p id='stroop-text' class='stroop-blue'>GREEN</p>", "response": "b", "stimulus-type": "incongruent", "word": "green", "color": "blue", "correct_response": "b", "trial_id": "stroop-trial-1-incongruent-3", "trial_type": "html-keyboard-response", "trial_index": 18, "time_elapsed": 155452, "internal_node_id": "0.0-4.0-14.0"}}, {"uniqueid": "w64877162:a54504938", "current_trial": 19, "dateTime": 1664464054401, "trialdata": {"rt": 851, "stimulus": "<p id='stroop-text' class='stroop-blue'>BLUE</p>", "response": "b", "stimulus-type": "congruent", "word": "blue", "color": "blue", "correct_response": "b", "trial_id": "stroop-trial-1-congruent-4", "trial_type": "html-keyboard-response", "trial_index": 19, "time_elapsed": 156806, "internal_node_id": "0.0-4.0-15.0"}}, {"uniqueid": "w64877162:a54504938", "current_trial": 20, "dateTime": 1664464055608, "trialdata": {"rt": 704, "stimulus": "<p id='stroop-text' class='stroop-yellow'>YELLOW</p>", "response": "y", "stimulus-type": "congruent", "word": "yellow", "color": "yellow", "correct_response": "y", "trial_id": "stroop-trial-1-congruent-2", "trial_type": "html-keyboard-response", "trial_index": 20, "time_elapsed": 158014, "internal_node_id": "0.0-4.0-16.0"}}, {"uniqueid": "w64877162:a54504938", "current_trial": 21, "dateTime": 1664464057208, "trialdata": {"rt": 1096, "stimulus": "<p id='stroop-text' class='stroop-red'>GREEN</p>", "response": "r", "stimulus-type": "incongruent", "word": "green", "color": "red", "correct_response": "r", "trial_id": "stroop-trial-1-incongruent-20", "trial_type": "html-keyboard-response", "trial_index": 21, "time_elapsed": 159614, "internal_node_id": "0.0-4.0-17.0"}}, {"uniqueid": "w64877162:a54504938", "current_trial": 22, "dateTime": 1664464059055, "trialdata": {"rt": 1344, "stimulus": "<p id='stroop-text' class='stroop-yellow'>GREEN</p>", "response": "y", "stimulus-type": "incongruent", "word": "green", "color": "yellow", "correct_response": "y", "trial_id": "stroop-trial-1-incongruent-24", "trial_type": "html-keyboard-response", "trial_index": 22, "time_elapsed": 161461, "internal_node_id": "0.0-4.0-18.0"}}, {"uniqueid": "w64877162:a54504938", "current_trial": 23, "dateTime": 1664464060279, "trialdata": {"rt": 723, "stimulus": "<p id='stroop-text' class='stroop-yellow'>YELLOW</p>", "response": "y", "stimulus-type": "congruent", "word": "yellow", "color": "yellow", "correct_response": "y", "trial_id": "stroop-trial-1-congruent-14", "trial_type": "html-keyboard-response", "trial_index": 23, "time_elapsed": 162685, "internal_node_id": "0.0-4.0-19.0"}}, {"uniqueid": "w64877162:a54504938", "current_trial": 24, "dateTime": 1664464061881, "trialdata": {"rt": 1099, "stimulus": "<p id='stroop-text' class='stroop-red'>BLUE</p>", "response": "r", "stimulus-type": "incongruent", "word": "blue", "color": "red", "correct_response": "r", "trial_id": "stroop-trial-1-incongruent-30", "trial_type": "html-keyboard-response", "trial_index": 24, "time_elapsed": 164287, "internal_node_id": "0.0-4.0-20.0"}}, {"uniqueid": "w64877162:a54504938", "current_trial": 25, "dateTime": 1664464063210, "trialdata": {"rt": 825, "stimulus": "<p id='stroop-text' class='stroop-yellow'>RED</p>", "response": "y", "stimulus-type": "incongruent", "word": "red", "color": "yellow", "correct_response": "y", "trial_id": "stroop-trial-1-incongruent-25", "trial_type": "html-keyboard-response", "trial_index": 25, "time_elapsed": 165615, "internal_node_id": "0.0-4.0-21.0"}}, {"uniqueid": "w64877162:a54504938", "current_trial": 26, "dateTime": 1664464064417, "trialdata": {"rt": 704, "stimulus": "<p id='stroop-text' class='stroop-yellow'>YELLOW</p>", "response": "y", "stimulus-type": "congruent", "word": "yellow", "color": "yellow", "correct_response": "y", "trial_id": "stroop-trial-1-congruent-15", "trial_type": "html-keyboard-response", "trial_index": 26, "time_elapsed": 166823, "internal_node_id": "0.0-4.0-22.0"}}, {"uniqueid": "w64877162:a54504938", "current_trial": 27, "dateTime": 1664464065537, "trialdata": {"rt": 616, "stimulus": "<p id='stroop-text' class='stroop-red'>RED</p>", "response": "r", "stimulus-type": "congruent", "word": "red", "color": "red", "correct_response": "r", "trial_id": "stroop-trial-1-congruent-17", "trial_type": "html-keyboard-response", "trial_index": 27, "time_elapsed": 167942, "internal_node_id": "0.0-4.0-23.0"}}, {"uniqueid": "w64877162:a54504938", "current_trial": 28, "dateTime": 1664464066761, "trialdata": {"rt": 718, "stimulus": "<p id='stroop-text' class='stroop-green'>GREEN</p>", "response": "g", "stimulus-type": "congruent", "word": "green", "color": "green", "correct_response": "g", "trial_id": "stroop-trial-1-congruent-8", "trial_type": "html-keyboard-response", "trial_index": 28, "time_elapsed": 169166, "internal_node_id": "0.0-4.0-24.0"}}, {"uniqueid": "w64877162:a54504938", "current_trial": 29, "dateTime": 1664464068057, "trialdata": {"rt": 792, "stimulus": "<p id='stroop-text' class='stroop-blue'>BLUE</p>", "response": "b", "stimulus-type": "congruent", "word": "blue", "color": "blue", "correct_response": "b", "trial_id": "stroop-trial-1-congruent-22", "trial_type": "html-keyboard-response", "trial_index": 29, "time_elapsed": 170462, "internal_node_id": "0.0-4.0-25.0"}}, {"uniqueid": "w64877162:a54504938", "current_trial": 30, "dateTime": 1664464069617, "trialdata": {"rt": 1055, "stimulus": "<p id='stroop-text' class='stroop-red'>RED</p>", "response": "r", "stimulus-type": "congruent", "word": "red", "color": "red", "correct_response": "r", "trial_id": "stroop-trial-1-congruent-21", "trial_type": "html-keyboard-response", "trial_index": 30, "time_elapsed": 172022, "internal_node_id": "0.0-4.0-26.0"}}, {"uniqueid": "w64877162:a54504938", "current_trial": 31, "dateTime": 1664464070793, "trialdata": {"rt": 672, "stimulus": "<p id='stroop-text' class='stroop-red'>MONKEY</p>", "response": "r", "stimulus-type": "unrelated", "word": "MONKEY", "color": "red", "correct_response": "r", "trial_id": "stroop-trial-1-unrelated-16", "trial_type": "html-keyboard-response", "trial_index": 31, "time_elapsed": 173198, "internal_node_id": "0.0-4.0-27.0"}}, {"uniqueid": "w64877162:a54504938", "current_trial": 32, "dateTime": 1664464071913, "trialdata": {"rt": 616, "stimulus": "<p id='stroop-text' class='stroop-red'>DOG</p>", "response": "r", "stimulus-type": "unrelated", "word": "DOG", "color": "red", "correct_response": "r", "trial_id": "stroop-trial-1-unrelated-29", "trial_type": "html-keyboard-response", "trial_index": 32, "time_elapsed": 174319, "internal_node_id": "0.0-4.0-28.0"}}, {"uniqueid": "w64877162:a54504938", "current_trial": 33, "dateTime": 1664464072969, "trialdata": {"rt": 551, "stimulus": "<p id='stroop-text' class='stroop-blue'>BLUE</p>", "response": "b", "stimulus-type": "congruent", "word": "blue", "color": "blue", "correct_response": "b", "trial_id": "stroop-trial-1-congruent-11", "trial_type": "html-keyboard-response", "trial_index": 33, "time_elapsed": 175374, "internal_node_id": "0.0-4.0-29.0"}}, {"uniqueid": "w64877162:a54504938", "current_trial": 34, "dateTime": 1664464074127, "trialdata": {"rt": 649, "stimulus": "<p id='stroop-text' class='stroop-green'>WINDOW</p>", "response": "g", "stimulus-type": "unrelated", "word": "WINDOW", "color": "green", "correct_response": "g", "trial_id": "stroop-trial-1-unrelated-20", "trial_type": "html-keyboard-response", "trial_index": 34, "time_elapsed": 176533, "internal_node_id": "0.0-4.0-30.0"}}, {"uniqueid": "w64877162:a54504938", "current_trial": 35, "dateTime": 1664464075425, "trialdata": {"rt": 795, "stimulus": "<p id='stroop-text' class='stroop-blue'>RED</p>", "response": "b", "stimulus-type": "incongruent", "word": "red", "color": "blue", "correct_response": "b", "trial_id": "stroop-trial-1-incongruent-19", "trial_type": "html-keyboard-response", "trial_index": 35, "time_elapsed": 177831, "internal_node_id": "0.0-4.0-31.0"}}, {"uniqueid": "w64877162:a54504938", "current_trial": 36, "dateTime": 1664464076585, "trialdata": {"rt": 655, "stimulus": "<p id='stroop-text' class='stroop-yellow'>YELLOW</p>", "response": "y", "stimulus-type": "congruent", "word": "yellow", "color": "yellow", "correct_response": "y", "trial_id": "stroop-trial-1-congruent-7", "trial_type": "html-keyboard-response", "trial_index": 36, "time_elapsed": 178990, "internal_node_id": "0.0-4.0-32.0"}}, {"uniqueid": "w64877162:a54504938", "current_trial": 37, "dateTime": 1664464078017, "trialdata": {"rt": 928, "stimulus": "<p id='stroop-text' class='stroop-blue'>RED</p>", "response": "b", "stimulus-type": "incongruent", "word": "red", "color": "blue", "correct_response": "b", "trial_id": "stroop-trial-1-incongruent-12", "trial_type": "html-keyboard-response", "trial_index": 37, "time_elapsed": 180423, "internal_node_id": "0.0-4.0-33.0"}}, {"uniqueid": "w64877162:a54504938", "current_trial": 38, "dateTime": 1664464079314, "trialdata": {"rt": 792, "stimulus": "<p id='stroop-text' class='stroop-red'>STONE</p>", "response": "r", "stimulus-type": "unrelated", "word": "STONE", "color": "red", "correct_response": "r", "trial_id": "stroop-trial-1-unrelated-14", "trial_type": "html-keyboard-response", "trial_index": 38, "time_elapsed": 181719, "internal_node_id": "0.0-4.0-34.0"}}, {"uniqueid": "w64877162:a54504938", "current_trial": 39, "dateTime": 1664464080487, "trialdata": {"rt": 668, "stimulus": "<p id='stroop-text' class='stroop-yellow'>YELLOW</p>", "response": "y", "stimulus-type": "congruent", "word": "yellow", "color": "yellow", "correct_response": "y", "trial_id": "stroop-trial-1-congruent-24", "trial_type": "html-keyboard-response", "trial_index": 39, "time_elapsed": 182893, "internal_node_id": "0.0-4.0-35.0"}}, {"uniqueid": "w64877162:a54504938", "current_trial": 40, "dateTime": 1664464081665, "trialdata": {"rt": 670, "stimulus": "<p id='stroop-text' class='stroop-green'>GREEN</p>", "response": "g", "stimulus-type": "congruent", "word": "green", "color": "green", "correct_response": "g", "trial_id": "stroop-trial-1-congruent-25", "trial_type": "html-keyboard-response", "trial_index": 40, "time_elapsed": 184071, "internal_node_id": "0.0-4.0-36.0"}}, {"uniqueid": "w64877162:a54504938", "current_trial": 41, "dateTime": 1664464082833, "trialdata": {"rt": 664, "stimulus": "<p id='stroop-text' class='stroop-green'>CHAIR</p>", "response": "g", "stimulus-type": "unrelated", "word": "CHAIR", "color": "green", "correct_response": "g", "trial_id": "stroop-trial-1-unrelated-7", "trial_type": "html-keyboard-response", "trial_index": 41, "time_elapsed": 185238, "internal_node_id": "0.0-4.0-37.0"}}, {"uniqueid": "w64877162:a54504938", "current_trial": 42, "dateTime": 1664464084001, "trialdata": {"rt": 664, "stimulus": "<p id='stroop-text' class='stroop-blue'>DOG</p>", "response": "b", "stimulus-type": "unrelated", "word": "DOG", "color": "blue", "correct_response": "b", "trial_id": "stroop-trial-1-unrelated-9", "trial_type": "html-keyboard-response", "trial_index": 42, "time_elapsed": 186406, "internal_node_id": "0.0-4.0-38.0"}}, {"uniqueid": "w64877162:a54504938", "current_trial": 43, "dateTime": 1664464085167, "trialdata": {"rt": 660, "stimulus": "<p id='stroop-text' class='stroop-blue'>FORK</p>", "response": "b", "stimulus-type": "unrelated", "word": "FORK", "color": "blue", "correct_response": "b", "trial_id": "stroop-trial-1-unrelated-30", "trial_type": "html-keyboard-response", "trial_index": 43, "time_elapsed": 187573, "internal_node_id": "0.0-4.0-39.0"}}, {"uniqueid": "w64877162:a54504938", "current_trial": 44, "dateTime": 1664464086111, "trialdata": {"rt": 441, "stimulus": "<p id='stroop-text' class='stroop-blue'>BLUE</p>", "response": "b", "stimulus-type": "congruent", "word": "blue", "color": "blue", "correct_response": "b", "trial_id": "stroop-trial-1-congruent-26", "trial_type": "html-keyboard-response", "trial_index": 44, "time_elapsed": 188517, "internal_node_id": "0.0-4.0-40.0"}}, {"uniqueid": "w64877162:a54504938", "current_trial": 45, "dateTime": 1664464087193, "trialdata": {"rt": 578, "stimulus": "<p id='stroop-text' class='stroop-yellow'>YELLOW</p>", "response": "y", "stimulus-type": "congruent", "word": "yellow", "color": "yellow", "correct_response": "y", "trial_id": "stroop-trial-1-congruent-19", "trial_type": "html-keyboard-response", "trial_index": 45, "time_elapsed": 189598, "internal_node_id": "0.0-4.0-41.0"}}, {"uniqueid": "w64877162:a54504938", "current_trial": 46, "dateTime": 1664464088416, "trialdata": {"rt": 719, "stimulus": "<p id='stroop-text' class='stroop-green'>WINDOW</p>", "response": "g", "stimulus-type": "unrelated", "word": "WINDOW", "color": "green", "correct_response": "g", "trial_id": "stroop-trial-1-unrelated-6", "trial_type": "html-keyboard-response", "trial_index": 46, "time_elapsed": 190822, "internal_node_id": "0.0-4.0-42.0"}}, {"uniqueid": "w64877162:a54504938", "current_trial": 47, "dateTime": 1664464090217, "trialdata": {"rt": 1296, "stimulus": "<p id='stroop-text' class='stroop-blue'>RED</p>", "response": "b", "stimulus-type": "incongruent", "word": "red", "color": "blue", "correct_response": "b", "trial_id": "stroop-trial-1-incongruent-2", "trial_type": "html-keyboard-response", "trial_index": 47, "time_elapsed": 192622, "internal_node_id": "0.0-4.0-43.0"}}, {"uniqueid": "w64877162:a54504938", "current_trial": 48, "dateTime": 1664464091632, "trialdata": {"rt": 911, "stimulus": "<p id='stroop-text' class='stroop-blue'>YELLOW</p>", "response": "b", "stimulus-type": "incongruent", "word": "yellow", "color": "blue", "correct_response": "b", "trial_id": "stroop-trial-1-incongruent-21", "trial_type": "html-keyboard-response", "trial_index": 48, "time_elapsed": 194037, "internal_node_id": "0.0-4.0-44.0"}}, {"uniqueid": "w64877162:a54504938", "current_trial": 49, "dateTime": 1664464092625, "trialdata": {"rt": 491, "stimulus": "<p id='stroop-text' class='stroop-blue'>BLUE</p>", "response": "b", "stimulus-type": "congruent", "word": "blue", "color": "blue", "correct_response": "b", "trial_id": "stroop-trial-1-congruent-16", "trial_type": "html-keyboard-response", "trial_index": 49, "time_elapsed": 195030, "internal_node_id": "0.0-4.0-45.0"}}, {"uniqueid": "w64877162:a54504938", "current_trial": 50, "dateTime": 1664464093783, "trialdata": {"rt": 655, "stimulus": "<p id='stroop-text' class='stroop-red'>DOG</p>", "response": "r", "stimulus-type": "unrelated", "word": "DOG", "color": "red", "correct_response": "r", "trial_id": "stroop-trial-1-unrelated-27", "trial_type": "html-keyboard-response", "trial_index": 50, "time_elapsed": 196189, "internal_node_id": "0.0-4.0-46.0"}}, {"uniqueid": "w64877162:a54504938", "current_trial": 51, "dateTime": 1664464094865, "trialdata": {"rt": 578, "stimulus": "<p id='stroop-text' class='stroop-yellow'>GREEN</p>", "response": "y", "stimulus-type": "incongruent", "word": "green", "color": "yellow", "correct_response": "y", "trial_id": "stroop-trial-1-incongruent-6", "trial_type": "html-keyboard-response", "trial_index": 51, "time_elapsed": 197271, "internal_node_id": "0.0-4.0-47.0"}}, {"uniqueid": "w64877162:a54504938", "current_trial": 52, "dateTime": 1664464096273, "trialdata": {"rt": 903, "stimulus": "<p id='stroop-text' class='stroop-blue'>BRIDGE</p>", "response": "b", "stimulus-type": "unrelated", "word": "BRIDGE", "color": "blue", "correct_response": "b", "trial_id": "stroop-trial-1-unrelated-18", "trial_type": "html-keyboard-response", "trial_index": 52, "time_elapsed": 198679, "internal_node_id": "0.0-4.0-48.0"}}, {"uniqueid": "w64877162:a54504938", "current_trial": 53, "dateTime": 1664464097690, "trialdata": {"rt": 912, "stimulus": "<p id='stroop-text' class='stroop-yellow'>MONKEY</p>", "response": "y", "stimulus-type": "unrelated", "word": "MONKEY", "color": "yellow", "correct_response": "y", "trial_id": "stroop-trial-1-unrelated-1", "trial_type": "html-keyboard-response", "trial_index": 53, "time_elapsed": 200095, "internal_node_id": "0.0-4.0-49.0"}}, {"uniqueid": "w64877162:a54504938", "current_trial": 54, "dateTime": 1664464099137, "trialdata": {"rt": 943, "stimulus": "<p id='stroop-text' class='stroop-blue'>GREEN</p>", "response": "b", "stimulus-type": "incongruent", "word": "green", "color": "blue", "correct_response": "b", "trial_id": "stroop-trial-1-incongruent-10", "trial_type": "html-keyboard-response", "trial_index": 54, "time_elapsed": 201542, "internal_node_id": "0.0-4.0-50.0"}}, {"uniqueid": "w64877162:a54504938", "current_trial": 55, "dateTime": 1664464100441, "trialdata": {"rt": 799, "stimulus": "<p id='stroop-text' class='stroop-green'>RED</p>", "response": "g", "stimulus-type": "incongruent", "word": "red", "color": "green", "correct_response": "g", "trial_id": "stroop-trial-1-incongruent-22", "trial_type": "html-keyboard-response", "trial_index": 55, "time_elapsed": 202846, "internal_node_id": "0.0-4.0-51.0"}}, {"uniqueid": "w64877162:a54504938", "current_trial": 56, "dateTime": 1664464101561, "trialdata": {"rt": 616, "stimulus": "<p id='stroop-text' class='stroop-green'>BRIDGE</p>", "response": "g", "stimulus-type": "unrelated", "word": "BRIDGE", "color": "green", "correct_response": "g", "trial_id": "stroop-trial-1-unrelated-8", "trial_type": "html-keyboard-response", "trial_index": 56, "time_elapsed": 203967, "internal_node_id": "0.0-4.0-52.0"}}, {"uniqueid": "w64877162:a54504938", "current_trial": 57, "dateTime": 1664464102881, "trialdata": {"rt": 815, "stimulus": "<p id='stroop-text' class='stroop-blue'>YELLOW</p>", "response": "b", "stimulus-type": "incongruent", "word": "yellow", "color": "blue", "correct_response": "b", "trial_id": "stroop-trial-1-incongruent-26", "trial_type": "html-keyboard-response", "trial_index": 57, "time_elapsed": 205287, "internal_node_id": "0.0-4.0-53.0"}}, {"uniqueid": "w64877162:a54504938", "current_trial": 58, "dateTime": 1664464103913, "trialdata": {"rt": 527, "stimulus": "<p id='stroop-text' class='stroop-blue'>CHAIR</p>", "response": "b", "stimulus-type": "unrelated", "word": "CHAIR", "color": "blue", "correct_response": "b", "trial_id": "stroop-trial-1-unrelated-13", "trial_type": "html-keyboard-response", "trial_index": 58, "time_elapsed": 206318, "internal_node_id": "0.0-4.0-54.0"}}, {"uniqueid": "w64877162:a54504938", "current_trial": 59, "dateTime": 1664464105104, "trialdata": {"rt": 687, "stimulus": "<p id='stroop-text' class='stroop-yellow'>RED</p>", "response": "y", "stimulus-type": "incongruent", "word": "red", "color": "yellow", "correct_response": "y", "trial_id": "stroop-trial-1-incongruent-28", "trial_type": "html-keyboard-response", "trial_index": 59, "time_elapsed": 207510, "internal_node_id": "0.0-4.0-55.0"}}, {"uniqueid": "w64877162:a54504938", "current_trial": 60, "dateTime": 1664464106233, "trialdata": {"rt": 625, "stimulus": "<p id='stroop-text' class='stroop-green'>GREEN</p>", "response": "g", "stimulus-type": "congruent", "word": "green", "color": "green", "correct_response": "g", "trial_id": "stroop-trial-1-congruent-18", "trial_type": "html-keyboard-response", "trial_index": 60, "time_elapsed": 208639, "internal_node_id": "0.0-4.0-56.0"}}, {"uniqueid": "w64877162:a54504938", "current_trial": 61, "dateTime": 1664464107176, "trialdata": {"rt": 440, "stimulus": "<p id='stroop-text' class='stroop-green'>BOAT</p>", "response": "g", "stimulus-type": "unrelated", "word": "BOAT", "color": "green", "correct_response": "g", "trial_id": "stroop-trial-1-unrelated-21", "trial_type": "html-keyboard-response", "trial_index": 61, "time_elapsed": 209582, "internal_node_id": "0.0-4.0-57.0"}}, {"uniqueid": "w64877162:a54504938", "current_trial": 62, "dateTime": 1664464109297, "trialdata": {"rt": 1606, "stimulus": "<p id='stroop-text' class='stroop-yellow'>YELLOW</p>", "response": "y", "stimulus-type": "congruent", "word": "yellow", "color": "yellow", "correct_response": "y", "trial_id": "stroop-trial-1-congruent-27", "trial_type": "html-keyboard-response", "trial_index": 62, "time_elapsed": 211702, "internal_node_id": "0.0-4.0-58.0"}}, {"uniqueid": "w64877162:a54504938", "current_trial": 63, "dateTime": 1664464110394, "trialdata": {"rt": 591, "stimulus": "<p id='stroop-text' class='stroop-blue'>BRIDGE</p>", "response": "g", "stimulus-type": "unrelated", "word": "BRIDGE", "color": "blue", "correct_response": "b", "trial_id": "stroop-trial-1-unrelated-17", "trial_type": "html-keyboard-response", "trial_index": 63, "time_elapsed": 212799, "internal_node_id": "0.0-4.0-59.0"}}, {"uniqueid": "w64877162:a54504938", "current_trial": 64, "dateTime": 1664464112337, "trialdata": {"rt": 1439, "stimulus": "<p id='stroop-text' class='stroop-red'>YELLOW</p>", "response": "r", "stimulus-type": "incongruent", "word": "yellow", "color": "red", "correct_response": "r", "trial_id": "stroop-trial-1-incongruent-18", "trial_type": "html-keyboard-response", "trial_index": 64, "time_elapsed": 214742, "internal_node_id": "0.0-4.0-60.0"}}, {"uniqueid": "w64877162:a54504938", "current_trial": 65, "dateTime": 1664464114545, "trialdata": {"rt": 1705, "stimulus": "<p id='stroop-text' class='stroop-yellow'>BLUE</p>", "response": "y", "stimulus-type": "incongruent", "word": "blue", "color": "yellow", "correct_response": "y", "trial_id": "stroop-trial-1-incongruent-7", "trial_type": "html-keyboard-response", "trial_index": 65, "time_elapsed": 216951, "internal_node_id": "0.0-4.0-61.0"}}, {"uniqueid": "w64877162:a54504938", "current_trial": 66, "dateTime": 1664464115617, "trialdata": {"rt": 565, "stimulus": "<p id='stroop-text' class='stroop-yellow'>YELLOW</p>", "response": "y", "stimulus-type": "congruent", "word": "yellow", "color": "yellow", "correct_response": "y", "trial_id": "stroop-trial-1-congruent-9", "trial_type": "html-keyboard-response", "trial_index": 66, "time_elapsed": 218023, "internal_node_id": "0.0-4.0-62.0"}}, {"uniqueid": "w64877162:a54504938", "current_trial": 67, "dateTime": 1664464116881, "trialdata": {"rt": 759, "stimulus": "<p id='stroop-text' class='stroop-yellow'>CHAIR</p>", "response": "y", "stimulus-type": "unrelated", "word": "CHAIR", "color": "yellow", "correct_response": "y", "trial_id": "stroop-trial-1-unrelated-26", "trial_type": "html-keyboard-response", "trial_index": 67, "time_elapsed": 219286, "internal_node_id": "0.0-4.0-63.0"}}, {"uniqueid": "w64877162:a54504938", "current_trial": 68, "dateTime": 1664464119335, "trialdata": {"rt": 1950, "stimulus": "<p id='stroop-text' class='stroop-red'>GREEN</p>", "response": "r", "stimulus-type": "incongruent", "word": "green", "color": "red", "correct_response": "r", "trial_id": "stroop-trial-1-incongruent-13", "trial_type": "html-keyboard-response", "trial_index": 68, "time_elapsed": 221741, "internal_node_id": "0.0-4.0-64.0"}}, {"uniqueid": "w64877162:a54504938", "current_trial": 69, "dateTime": 1664464120568, "trialdata": {"rt": 729, "stimulus": "<p id='stroop-text' class='stroop-yellow'>YELLOW</p>", "response": "y", "stimulus-type": "congruent", "word": "yellow", "color": "yellow", "correct_response": "y", "trial_id": "stroop-trial-1-congruent-20", "trial_type": "html-keyboard-response", "trial_index": 69, "time_elapsed": 222974, "internal_node_id": "0.0-4.0-65.0"}}, {"uniqueid": "w64877162:a54504938", "current_trial": 70, "dateTime": 1664464122064, "trialdata": {"rt": 991, "stimulus": "<p id='stroop-text' class='stroop-blue'>RED</p>", "response": "b", "stimulus-type": "incongruent", "word": "red", "color": "blue", "correct_response": "b", "trial_id": "stroop-trial-1-incongruent-8", "trial_type": "html-keyboard-response", "trial_index": 70, "time_elapsed": 224470, "internal_node_id": "0.0-4.0-66.0"}}, {"uniqueid": "w64877162:a54504938", "current_trial": 71, "dateTime": 1664464123230, "trialdata": {"rt": 661, "stimulus": "<p id='stroop-text' class='stroop-yellow'>CHAIR</p>", "response": "y", "stimulus-type": "unrelated", "word": "CHAIR", "color": "yellow", "correct_response": "y", "trial_id": "stroop-trial-1-unrelated-15", "trial_type": "html-keyboard-response", "trial_index": 71, "time_elapsed": 225636, "internal_node_id": "0.0-4.0-67.0"}}, {"uniqueid": "w64877162:a54504938", "current_trial": 72, "dateTime": 1664464124425, "trialdata": {"rt": 693, "stimulus": "<p id='stroop-text' class='stroop-blue'>GREEN</p>", "response": "b", "stimulus-type": "incongruent", "word": "green", "color": "blue", "correct_response": "b", "trial_id": "stroop-trial-1-incongruent-16", "trial_type": "html-keyboard-response", "trial_index": 72, "time_elapsed": 226831, "internal_node_id": "0.0-4.0-68.0"}}, {"uniqueid": "w64877162:a54504938", "current_trial": 73, "dateTime": 1664464125776, "trialdata": {"rt": 845, "stimulus": "<p id='stroop-text' class='stroop-red'>BOTTLE</p>", "response": "r", "stimulus-type": "unrelated", "word": "BOTTLE", "color": "red", "correct_response": "r", "trial_id": "stroop-trial-1-unrelated-3", "trial_type": "html-keyboard-response", "trial_index": 73, "time_elapsed": 228182, "internal_node_id": "0.0-4.0-69.0"}}, {"uniqueid": "w64877162:a54504938", "current_trial": 74, "dateTime": 1664464126841, "trialdata": {"rt": 560, "stimulus": "<p id='stroop-text' class='stroop-yellow'>MONKEY</p>", "response": "y", "stimulus-type": "unrelated", "word": "MONKEY", "color": "yellow", "correct_response": "y", "trial_id": "stroop-trial-1-unrelated-22", "trial_type": "html-keyboard-response", "trial_index": 74, "time_elapsed": 229246, "internal_node_id": "0.0-4.0-70.0"}}, {"uniqueid": "w64877162:a54504938", "current_trial": 75, "dateTime": 1664464128143, "trialdata": {"rt": 795, "stimulus": "<p id='stroop-text' class='stroop-red'>RED</p>", "response": "r", "stimulus-type": "congruent", "word": "red", "color": "red", "correct_response": "r", "trial_id": "stroop-trial-1-congruent-6", "trial_type": "html-keyboard-response", "trial_index": 75, "time_elapsed": 230549, "internal_node_id": "0.0-4.0-71.0"}}, {"uniqueid": "w64877162:a54504938", "current_trial": 76, "dateTime": 1664464129225, "trialdata": {"rt": 577, "stimulus": "<p id='stroop-text' class='stroop-red'>RED</p>", "response": "r", "stimulus-type": "congruent", "word": "red", "color": "red", "correct_response": "r", "trial_id": "stroop-trial-1-congruent-30", "trial_type": "html-keyboard-response", "trial_index": 76, "time_elapsed": 231630, "internal_node_id": "0.0-4.0-72.0"}}, {"uniqueid": "w64877162:a54504938", "current_trial": 77, "dateTime": 1664464130393, "trialdata": {"rt": 662, "stimulus": "<p id='stroop-text' class='stroop-blue'>RED</p>", "response": "b", "stimulus-type": "incongruent", "word": "red", "color": "blue", "correct_response": "b", "trial_id": "stroop-trial-1-incongruent-15", "trial_type": "html-keyboard-response", "trial_index": 77, "time_elapsed": 232799, "internal_node_id": "0.0-4.0-73.0"}}, {"uniqueid": "w64877162:a54504938", "current_trial": 78, "dateTime": 1664464131537, "trialdata": {"rt": 639, "stimulus": "<p id='stroop-text' class='stroop-blue'>STONE</p>", "response": "b", "stimulus-type": "unrelated", "word": "STONE", "color": "blue", "correct_response": "b", "trial_id": "stroop-trial-1-unrelated-25", "trial_type": "html-keyboard-response", "trial_index": 78, "time_elapsed": 233943, "internal_node_id": "0.0-4.0-74.0"}}, {"uniqueid": "w64877162:a54504938", "current_trial": 79, "dateTime": 1664464132895, "trialdata": {"rt": 853, "stimulus": "<p id='stroop-text' class='stroop-blue'>YELLOW</p>", "response": "b", "stimulus-type": "incongruent", "word": "yellow", "color": "blue", "correct_response": "b", "trial_id": "stroop-trial-1-incongruent-9", "trial_type": "html-keyboard-response", "trial_index": 79, "time_elapsed": 235301, "internal_node_id": "0.0-4.0-75.0"}}, {"uniqueid": "w64877162:a54504938", "current_trial": 80, "dateTime": 1664464134001, "trialdata": {"rt": 601, "stimulus": "<p id='stroop-text' class='stroop-green'>YELLOW</p>", "response": "g", "stimulus-type": "incongruent", "word": "yellow", "color": "green", "correct_response": "g", "trial_id": "stroop-trial-1-incongruent-11", "trial_type": "html-keyboard-response", "trial_index": 80, "time_elapsed": 236406, "internal_node_id": "0.0-4.0-76.0"}}, {"uniqueid": "w64877162:a54504938", "current_trial": 81, "dateTime": 1664464136560, "trialdata": {"rt": 2054, "stimulus": "<p id='stroop-text' class='stroop-red'>RED</p>", "response": "r", "stimulus-type": "congruent", "word": "red", "color": "red", "correct_response": "r", "trial_id": "stroop-trial-1-congruent-28", "trial_type": "html-keyboard-response", "trial_index": 81, "time_elapsed": 238966, "internal_node_id": "0.0-4.0-77.0"}}, {"uniqueid": "w64877162:a54504938", "current_trial": 82, "dateTime": 1664464137656, "trialdata": {"rt": 591, "stimulus": "<p id='stroop-text' class='stroop-blue'>BLUE</p>", "response": "b", "stimulus-type": "congruent", "word": "blue", "color": "blue", "correct_response": "b", "trial_id": "stroop-trial-1-congruent-12", "trial_type": "html-keyboard-response", "trial_index": 82, "time_elapsed": 240062, "internal_node_id": "0.0-4.0-78.0"}}, {"uniqueid": "w64877162:a54504938", "current_trial": 83, "dateTime": 1664464138905, "trialdata": {"rt": 743, "stimulus": "<p id='stroop-text' class='stroop-green'>FORK</p>", "response": "g", "stimulus-type": "unrelated", "word": "FORK", "color": "green", "correct_response": "g", "trial_id": "stroop-trial-1-unrelated-19", "trial_type": "html-keyboard-response", "trial_index": 83, "time_elapsed": 241310, "internal_node_id": "0.0-4.0-79.0"}}, {"uniqueid": "w64877162:a54504938", "current_trial": 84, "dateTime": 1664464140094, "trialdata": {"rt": 684, "stimulus": "<p id='stroop-text' class='stroop-yellow'>YELLOW</p>", "response": "y", "stimulus-type": "congruent", "word": "yellow", "color": "yellow", "correct_response": "y", "trial_id": "stroop-trial-1-congruent-10", "trial_type": "html-keyboard-response", "trial_index": 84, "time_elapsed": 242500, "internal_node_id": "0.0-4.0-80.0"}}, {"uniqueid": "w64877162:a54504938", "current_trial": 85, "dateTime": 1664464141192, "trialdata": {"rt": 594, "stimulus": "<p id='stroop-text' class='stroop-green'>GREEN</p>", "response": "g", "stimulus-type": "congruent", "word": "green", "color": "green", "correct_response": "g", "trial_id": "stroop-trial-1-congruent-13", "trial_type": "html-keyboard-response", "trial_index": 85, "time_elapsed": 243598, "internal_node_id": "0.0-4.0-81.0"}}, {"uniqueid": "w64877162:a54504938", "current_trial": 86, "dateTime": 1664464142712, "trialdata": {"rt": 1015, "stimulus": "<p id='stroop-text' class='stroop-blue'>STONE</p>", "response": "b", "stimulus-type": "unrelated", "word": "STONE", "color": "blue", "correct_response": "b", "trial_id": "stroop-trial-1-unrelated-11", "trial_type": "html-keyboard-response", "trial_index": 86, "time_elapsed": 245118, "internal_node_id": "0.0-4.0-82.0"}}, {"uniqueid": "w64877162:a54504938", "current_trial": 87, "dateTime": 1664464143807, "trialdata": {"rt": 589, "stimulus": "<p id='stroop-text' class='stroop-red'>RED</p>", "response": "r", "stimulus-type": "congruent", "word": "red", "color": "red", "correct_response": "r", "trial_id": "stroop-trial-1-congruent-1", "trial_type": "html-keyboard-response", "trial_index": 87, "time_elapsed": 246213, "internal_node_id": "0.0-4.0-83.0"}}, {"uniqueid": "w64877162:a54504938", "current_trial": 88, "dateTime": 1664464145200, "trialdata": {"rt": 890, "stimulus": "<p id='stroop-text' class='stroop-yellow'>BRIDGE</p>", "response": "y", "stimulus-type": "unrelated", "word": "BRIDGE", "color": "yellow", "correct_response": "y", "trial_id": "stroop-trial-1-unrelated-12", "trial_type": "html-keyboard-response", "trial_index": 88, "time_elapsed": 247606, "internal_node_id": "0.0-4.0-84.0"}}, {"uniqueid": "w64877162:a54504938", "current_trial": 89, "dateTime": 1664464147880, "trialdata": {"rt": 2176, "stimulus": "<p id='stroop-text' class='stroop-red'>CHAIR</p>", "response": "r", "stimulus-type": "unrelated", "word": "CHAIR", "color": "red", "correct_response": "r", "trial_id": "stroop-trial-1-unrelated-24", "trial_type": "html-keyboard-response", "trial_index": 89, "time_elapsed": 250286, "internal_node_id": "0.0-4.0-85.0"}}, {"uniqueid": "w64877162:a54504938", "current_trial": 90, "dateTime": 1664464149001, "trialdata": {"rt": 615, "stimulus": "<p id='stroop-text' class='stroop-blue'>WINDOW</p>", "response": "y", "stimulus-type": "unrelated", "word": "WINDOW", "color": "blue", "correct_response": "b", "trial_id": "stroop-trial-1-unrelated-23", "trial_type": "html-keyboard-response", "trial_index": 90, "time_elapsed": 251406, "internal_node_id": "0.0-4.0-86.0"}}, {"uniqueid": "w64877162:a54504938", "current_trial": 91, "dateTime": 1664464151297, "trialdata": {"rt": 1788, "stimulus": "<p id='stroop-text' class='stroop-red'>RED</p>", "response": "r", "stimulus-type": "congruent", "word": "red", "color": "red", "correct_response": "r", "trial_id": "stroop-trial-1-congruent-23", "trial_type": "html-keyboard-response", "trial_index": 91, "time_elapsed": 253702, "internal_node_id": "0.0-4.0-87.0"}}, {"uniqueid": "w64877162:a54504938", "current_trial": 92, "dateTime": 1664464152686, "trialdata": {"rt": 885, "stimulus": "<p id='stroop-text' class='stroop-green'>RED</p>", "response": "g", "stimulus-type": "incongruent", "word": "red", "color": "green", "correct_response": "g", "trial_id": "stroop-trial-1-incongruent-23", "trial_type": "html-keyboard-response", "trial_index": 92, "time_elapsed": 255092, "internal_node_id": "0.0-4.0-88.0"}}, {"uniqueid": "w64877162:a54504938", "current_trial": 93, "dateTime": 1664464154440, "trialdata": {"rt": 1244, "stimulus": "<p id='stroop-text' class='stroop-green'>BOAT</p>", "response": "g", "stimulus-type": "unrelated", "word": "BOAT", "color": "green", "correct_response": "g", "trial_id": "stroop-trial-1-unrelated-10", "trial_type": "html-keyboard-response", "trial_index": 93, "time_elapsed": 256846, "internal_node_id": "0.0-4.0-89.0"}}, {"uniqueid": "w64877162:a54504938", "current_trial": 94, "dateTime": 1664464193169, "trialdata": {"rt": 38221, "stimulus": "  <h1> End of block! </h1>\n\n  You have reached the end of the block 1/5. If you need a short break, feel free to take one now before moving on.\n\n  <br><br>\n  In the next block, you will complete another 90 rounds of this game.\n\n  <br><br>\n  <div style='text-align: center;'>Press <code>space</code> to begin.</div>\n  <br><br>\n<div style='text-align: center;'>(If the experiment doesn't continue, try clicking on the text and then pressing <code>space</code>.)</div>", "response": " ", "trial_id": "stroop_1_ready_2", "trial_type": "html-keyboard-response", "trial_index": 94, "time_elapsed": 295575, "internal_node_id": "0.0-5.0"}}, {"uniqueid": "w64877162:a54504938", "current_trial": 95, "dateTime": 1664464194528, "trialdata": {"rt": 1355, "stimulus": "<p id='stroop-text' class='stroop-red'>YELLOW</p>", "response": "r", "stimulus-type": "incongruent", "word": "yellow", "color": "red", "correct_response": "r", "trial_id": "stroop-trial-1-incongruent-30", "trial_type": "html-keyboard-response", "trial_index": 95, "time_elapsed": 296934, "internal_node_id": "0.0-6.0-0.0"}}, {"uniqueid": "w64877162:a54504938", "current_trial": 96, "dateTime": 1664464195912, "trialdata": {"rt": 876, "stimulus": "<p id='stroop-text' class='stroop-blue'>BLUE</p>", "response": "b", "stimulus-type": "congruent", "word": "blue", "color": "blue", "correct_response": "b", "trial_id": "stroop-trial-1-congruent-10", "trial_type": "html-keyboard-response", "trial_index": 96, "time_elapsed": 298318, "internal_node_id": "0.0-6.0-1.0"}}, {"uniqueid": "w64877162:a54504938", "current_trial": 97, "dateTime": 1664464197112, "trialdata": {"rt": 695, "stimulus": "<p id='stroop-text' class='stroop-blue'>BLUE</p>", "response": "b", "stimulus-type": "congruent", "word": "blue", "color": "blue", "correct_response": "b", "trial_id": "stroop-trial-1-congruent-6", "trial_type": "html-keyboard-response", "trial_index": 97, "time_elapsed": 299518, "internal_node_id": "0.0-6.0-2.0"}}, {"uniqueid": "w64877162:a54504938", "current_trial": 98, "dateTime": 1664464198592, "trialdata": {"rt": 975, "stimulus": "<p id='stroop-text' class='stroop-red'>YELLOW</p>", "response": "r", "stimulus-type": "incongruent", "word": "yellow", "color": "red", "correct_response": "r", "trial_id": "stroop-trial-1-incongruent-21", "trial_type": "html-keyboard-response", "trial_index": 98, "time_elapsed": 300998, "internal_node_id": "0.0-6.0-3.0"}}, {"uniqueid": "w64877162:a54504938", "current_trial": 99, "dateTime": 1664464199712, "trialdata": {"rt": 613, "stimulus": "<p id='stroop-text' class='stroop-green'>STONE</p>", "response": "g", "stimulus-type": "unrelated", "word": "STONE", "color": "green", "correct_response": "g", "trial_id": "stroop-trial-1-unrelated-17", "trial_type": "html-keyboard-response", "trial_index": 99, "time_elapsed": 302118, "internal_node_id": "0.0-6.0-4.0"}}, {"uniqueid": "w64877162:a54504938", "current_trial": 100, "dateTime": 1664464201288, "trialdata": {"rt": 1071, "stimulus": "<p id='stroop-text' class='stroop-yellow'>YELLOW</p>", "response": "y", "stimulus-type": "congruent", "word": "yellow", "color": "yellow", "correct_response": "y", "trial_id": "stroop-trial-1-congruent-27", "trial_type": "html-keyboard-response", "trial_index": 100, "time_elapsed": 303694, "internal_node_id": "0.0-6.0-5.0"}}, {"uniqueid": "w64877162:a54504938", "current_trial": 101, "dateTime": 1664464203816, "trialdata": {"rt": 2021, "stimulus": "<p id='stroop-text' class='stroop-red'>BRAIN</p>", "response": "r", "stimulus-type": "unrelated", "word": "BRAIN", "color": "red", "correct_response": "r", "trial_id": "stroop-trial-1-unrelated-27", "trial_type": "html-keyboard-response", "trial_index": 101, "time_elapsed": 306222, "internal_node_id": "0.0-6.0-6.0"}}, {"uniqueid": "w64877162:a54504938", "current_trial": 102, "dateTime": 1664464205031, "trialdata": {"rt": 703, "stimulus": "<p id='stroop-text' class='stroop-green'>GREEN</p>", "response": "g", "stimulus-type": "congruent", "word": "green", "color": "green", "correct_response": "g", "trial_id": "stroop-trial-1-congruent-7", "trial_type": "html-keyboard-response", "trial_index": 102, "time_elapsed": 307437, "internal_node_id": "0.0-6.0-7.0"}}, {"uniqueid": "w64877162:a54504938", "current_trial": 103, "dateTime": 1664464206272, "trialdata": {"rt": 737, "stimulus": "<p id='stroop-text' class='stroop-yellow'>GREEN</p>", "response": "y", "stimulus-type": "incongruent", "word": "green", "color": "yellow", "correct_response": "y", "trial_id": "stroop-trial-1-incongruent-1", "trial_type": "html-keyboard-response", "trial_index": 103, "time_elapsed": 308678, "internal_node_id": "0.0-6.0-8.0"}}, {"uniqueid": "w64877162:a54504938", "current_trial": 104, "dateTime": 1664464207382, "trialdata": {"rt": 604, "stimulus": "<p id='stroop-text' class='stroop-green'>GREEN</p>", "response": "g", "stimulus-type": "congruent", "word": "green", "color": "green", "correct_response": "g", "trial_id": "stroop-trial-1-congruent-16", "trial_type": "html-keyboard-response", "trial_index": 104, "time_elapsed": 309788, "internal_node_id": "0.0-6.0-9.0"}}, {"uniqueid": "w64877162:a54504938", "current_trial": 105, "dateTime": 1664464208432, "trialdata": {"rt": 547, "stimulus": "<p id='stroop-text' class='stroop-blue'>WINDOW</p>", "response": "b", "stimulus-type": "unrelated", "word": "WINDOW", "color": "blue", "correct_response": "b", "trial_id": "stroop-trial-1-unrelated-22", "trial_type": "html-keyboard-response", "trial_index": 105, "time_elapsed": 310838, "internal_node_id": "0.0-6.0-10.0"}}, {"uniqueid": "w64877162:a54504938", "current_trial": 106, "dateTime": 1664464210256, "trialdata": {"rt": 1319, "stimulus": "<p id='stroop-text' class='stroop-green'>RED</p>", "response": "g", "stimulus-type": "incongruent", "word": "red", "color": "green", "correct_response": "g", "trial_id": "stroop-trial-1-incongruent-20", "trial_type": "html-keyboard-response", "trial_index": 106, "time_elapsed": 312662, "internal_node_id": "0.0-6.0-11.0"}}, {"uniqueid": "w64877162:a54504938", "current_trial": 107, "dateTime": 1664464211816, "trialdata": {"rt": 1054, "stimulus": "<p id='stroop-text' class='stroop-red'>MONKEY</p>", "response": "r", "stimulus-type": "unrelated", "word": "MONKEY", "color": "red", "correct_response": "r", "trial_id": "stroop-trial-1-unrelated-18", "trial_type": "html-keyboard-response", "trial_index": 107, "time_elapsed": 314222, "internal_node_id": "0.0-6.0-12.0"}}, {"uniqueid": "w64877162:a54504938", "current_trial": 108, "dateTime": 1664464212768, "trialdata": {"rt": 446, "stimulus": "<p id='stroop-text' class='stroop-red'>BOTTLE</p>", "response": "r", "stimulus-type": "unrelated", "word": "BOTTLE", "color": "red", "correct_response": "r", "trial_id": "stroop-trial-1-unrelated-1", "trial_type": "html-keyboard-response", "trial_index": 108, "time_elapsed": 315174, "internal_node_id": "0.0-6.0-13.0"}}, {"uniqueid": "w64877162:a54504938", "current_trial": 109, "dateTime": 1664464213849, "trialdata": {"rt": 575, "stimulus": "<p id='stroop-text' class='stroop-yellow'>RED</p>", "response": "y", "stimulus-type": "incongruent", "word": "red", "color": "yellow", "correct_response": "y", "trial_id": "stroop-trial-1-incongruent-6", "trial_type": "html-keyboard-response", "trial_index": 109, "time_elapsed": 316254, "internal_node_id": "0.0-6.0-14.0"}}, {"uniqueid": "w64877162:a54504938", "current_trial": 110, "dateTime": 1664464214752, "trialdata": {"rt": 398, "stimulus": "<p id='stroop-text' class='stroop-yellow'>YELLOW</p>", "response": "y", "stimulus-type": "congruent", "word": "yellow", "color": "yellow", "correct_response": "y", "trial_id": "stroop-trial-1-congruent-12", "trial_type": "html-keyboard-response", "trial_index": 110, "time_elapsed": 317158, "internal_node_id": "0.0-6.0-15.0"}}, {"uniqueid": "w64877162:a54504938", "current_trial": 111, "dateTime": 1664464217200, "trialdata": {"rt": 1942, "stimulus": "<p id='stroop-text' class='stroop-red'>GREEN</p>", "response": "r", "stimulus-type": "incongruent", "word": "green", "color": "red", "correct_response": "r", "trial_id": "stroop-trial-1-incongruent-28", "trial_type": "html-keyboard-response", "trial_index": 111, "time_elapsed": 319606, "internal_node_id": "0.0-6.0-16.0"}}, {"uniqueid": "w64877162:a54504938", "current_trial": 112, "dateTime": 1664464218224, "trialdata": {"rt": 518, "stimulus": "<p id='stroop-text' class='stroop-red'>YELLOW</p>", "response": "r", "stimulus-type": "incongruent", "word": "yellow", "color": "red", "correct_response": "r", "trial_id": "stroop-trial-1-incongruent-5", "trial_type": "html-keyboard-response", "trial_index": 112, "time_elapsed": 320630, "internal_node_id": "0.0-6.0-17.0"}}, {"uniqueid": "w64877162:a54504938", "current_trial": 113, "dateTime": 1664464219111, "trialdata": {"rt": 379, "stimulus": "<p id='stroop-text' class='stroop-red'>CHAIR</p>", "response": "r", "stimulus-type": "unrelated", "word": "CHAIR", "color": "red", "correct_response": "r", "trial_id": "stroop-trial-1-unrelated-9", "trial_type": "html-keyboard-response", "trial_index": 113, "time_elapsed": 321517, "internal_node_id": "0.0-6.0-18.0"}}, {"uniqueid": "w64877162:a54504938", "current_trial": 114, "dateTime": 1664464220184, "trialdata": {"rt": 571, "stimulus": "<p id='stroop-text' class='stroop-yellow'>BRAIN</p>", "response": "y", "stimulus-type": "unrelated", "word": "BRAIN", "color": "yellow", "correct_response": "y", "trial_id": "stroop-trial-1-unrelated-13", "trial_type": "html-keyboard-response", "trial_index": 114, "time_elapsed": 322590, "internal_node_id": "0.0-6.0-19.0"}}, {"uniqueid": "w64877162:a54504938", "current_trial": 115, "dateTime": 1664464221312, "trialdata": {"rt": 621, "stimulus": "<p id='stroop-text' class='stroop-green'>GREEN</p>", "response": "g", "stimulus-type": "congruent", "word": "green", "color": "green", "correct_response": "g", "trial_id": "stroop-trial-1-congruent-28", "trial_type": "html-keyboard-response", "trial_index": 115, "time_elapsed": 323718, "internal_node_id": "0.0-6.0-20.0"}}, {"uniqueid": "w64877162:a54504938", "current_trial": 116, "dateTime": 1664464222432, "trialdata": {"rt": 613, "stimulus": "<p id='stroop-text' class='stroop-blue'>CHAIR</p>", "response": "b", "stimulus-type": "unrelated", "word": "CHAIR", "color": "blue", "correct_response": "b", "trial_id": "stroop-trial-1-unrelated-3", "trial_type": "html-keyboard-response", "trial_index": 116, "time_elapsed": 324838, "internal_node_id": "0.0-6.0-21.0"}}, {"uniqueid": "w64877162:a54504938", "current_trial": 117, "dateTime": 1664464223889, "trialdata": {"rt": 950, "stimulus": "<p id='stroop-text' class='stroop-yellow'>CHAIR</p>", "response": "y", "stimulus-type": "unrelated", "word": "CHAIR", "color": "yellow", "correct_response": "y", "trial_id": "stroop-trial-1-unrelated-20", "trial_type": "html-keyboard-response", "trial_index": 117, "time_elapsed": 326294, "internal_node_id": "0.0-6.0-22.0"}}, {"uniqueid": "w64877162:a54504938", "current_trial": 118, "dateTime": 1664464225248, "trialdata": {"rt": 851, "stimulus": "<p id='stroop-text' class='stroop-green'>YELLOW</p>", "response": "g", "stimulus-type": "incongruent", "word": "yellow", "color": "green", "correct_response": "g", "trial_id": "stroop-trial-1-incongruent-2", "trial_type": "html-keyboard-response", "trial_index": 118, "time_elapsed": 327654, "internal_node_id": "0.0-6.0-23.0"}}, {"uniqueid": "w64877162:a54504938", "current_trial": 119, "dateTime": 1664464226400, "trialdata": {"rt": 646, "stimulus": "<p id='stroop-text' class='stroop-yellow'>YELLOW</p>", "response": "y", "stimulus-type": "congruent", "word": "yellow", "color": "yellow", "correct_response": "y", "trial_id": "stroop-trial-1-congruent-25", "trial_type": "html-keyboard-response", "trial_index": 119, "time_elapsed": 328806, "internal_node_id": "0.0-6.0-24.0"}}, {"uniqueid": "w64877162:a54504938", "current_trial": 120, "dateTime": 1664464227896, "trialdata": {"rt": 990, "stimulus": "<p id='stroop-text' class='stroop-blue'>YELLOW</p>", "response": "b", "stimulus-type": "incongruent", "word": "yellow", "color": "blue", "correct_response": "b", "trial_id": "stroop-trial-1-incongruent-13", "trial_type": "html-keyboard-response", "trial_index": 120, "time_elapsed": 330302, "internal_node_id": "0.0-6.0-25.0"}}, {"uniqueid": "w64877162:a54504938", "current_trial": 121, "dateTime": 1664464229121, "trialdata": {"rt": 719, "stimulus": "<p id='stroop-text' class='stroop-yellow'>YELLOW</p>", "response": "y", "stimulus-type": "congruent", "word": "yellow", "color": "yellow", "correct_response": "y", "trial_id": "stroop-trial-1-congruent-5", "trial_type": "html-keyboard-response", "trial_index": 121, "time_elapsed": 331527, "internal_node_id": "0.0-6.0-26.0"}}, {"uniqueid": "w64877162:a54504938", "current_trial": 122, "dateTime": 1664464230465, "trialdata": {"rt": 836, "stimulus": "<p id='stroop-text' class='stroop-blue'>STONE</p>", "response": "b", "stimulus-type": "unrelated", "word": "STONE", "color": "blue", "correct_response": "b", "trial_id": "stroop-trial-1-unrelated-23", "trial_type": "html-keyboard-response", "trial_index": 122, "time_elapsed": 332870, "internal_node_id": "0.0-6.0-27.0"}}, {"uniqueid": "w64877162:a54504938", "current_trial": 123, "dateTime": 1664464231584, "trialdata": {"rt": 614, "stimulus": "<p id='stroop-text' class='stroop-red'>BLUE</p>", "response": "r", "stimulus-type": "incongruent", "word": "blue", "color": "red", "correct_response": "r", "trial_id": "stroop-trial-1-incongruent-4", "trial_type": "html-keyboard-response", "trial_index": 123, "time_elapsed": 333990, "internal_node_id": "0.0-6.0-28.0"}}, {"uniqueid": "w64877162:a54504938", "current_trial": 124, "dateTime": 1664464232785, "trialdata": {"rt": 693, "stimulus": "<p id='stroop-text' class='stroop-yellow'>GREEN</p>", "response": "y", "stimulus-type": "incongruent", "word": "green", "color": "yellow", "correct_response": "y", "trial_id": "stroop-trial-1-incongruent-10", "trial_type": "html-keyboard-response", "trial_index": 124, "time_elapsed": 335190, "internal_node_id": "0.0-6.0-29.0"}}, {"uniqueid": "w64877162:a54504938", "current_trial": 125, "dateTime": 1664464233864, "trialdata": {"rt": 574, "stimulus": "<p id='stroop-text' class='stroop-blue'>DOG</p>", "response": "b", "stimulus-type": "unrelated", "word": "DOG", "color": "blue", "correct_response": "b", "trial_id": "stroop-trial-1-unrelated-5", "trial_type": "html-keyboard-response", "trial_index": 125, "time_elapsed": 336270, "internal_node_id": "0.0-6.0-30.0"}}, {"uniqueid": "w64877162:a54504938", "current_trial": 126, "dateTime": 1664464235152, "trialdata": {"rt": 783, "stimulus": "<p id='stroop-text' class='stroop-yellow'>GREEN</p>", "response": "y", "stimulus-type": "incongruent", "word": "green", "color": "yellow", "correct_response": "y", "trial_id": "stroop-trial-1-incongruent-8", "trial_type": "html-keyboard-response", "trial_index": 126, "time_elapsed": 337558, "internal_node_id": "0.0-6.0-31.0"}}, {"uniqueid": "w64877162:a54504938", "current_trial": 127, "dateTime": 1664464237393, "trialdata": {"rt": 1735, "stimulus": "<p id='stroop-text' class='stroop-green'>GREEN</p>", "response": "g", "stimulus-type": "congruent", "word": "green", "color": "green", "correct_response": "g", "trial_id": "stroop-trial-1-congruent-30", "trial_type": "html-keyboard-response", "trial_index": 127, "time_elapsed": 339798, "internal_node_id": "0.0-6.0-32.0"}}, {"uniqueid": "w64877162:a54504938", "current_trial": 128, "dateTime": 1664464238401, "trialdata": {"rt": 502, "stimulus": "<p id='stroop-text' class='stroop-green'>BRAIN</p>", "response": "g", "stimulus-type": "unrelated", "word": "BRAIN", "color": "green", "correct_response": "g", "trial_id": "stroop-trial-1-unrelated-14", "trial_type": "html-keyboard-response", "trial_index": 128, "time_elapsed": 340806, "internal_node_id": "0.0-6.0-33.0"}}, {"uniqueid": "w64877162:a54504938", "current_trial": 129, "dateTime": 1664464239672, "trialdata": {"rt": 766, "stimulus": "<p id='stroop-text' class='stroop-red'>RED</p>", "response": "r", "stimulus-type": "congruent", "word": "red", "color": "red", "correct_response": "r", "trial_id": "stroop-trial-1-congruent-20", "trial_type": "html-keyboard-response", "trial_index": 129, "time_elapsed": 342078, "internal_node_id": "0.0-6.0-34.0"}}, {"uniqueid": "w64877162:a54504938", "current_trial": 130, "dateTime": 1664464240897, "trialdata": {"rt": 718, "stimulus": "<p id='stroop-text' class='stroop-green'>GREEN</p>", "response": "g", "stimulus-type": "congruent", "word": "green", "color": "green", "correct_response": "g", "trial_id": "stroop-trial-1-congruent-21", "trial_type": "html-keyboard-response", "trial_index": 130, "time_elapsed": 343302, "internal_node_id": "0.0-6.0-35.0"}}, {"uniqueid": "w64877162:a54504938", "current_trial": 131, "dateTime": 1664464242040, "trialdata": {"rt": 638, "stimulus": "<p id='stroop-text' class='stroop-blue'>BLUE</p>", "response": "b", "stimulus-type": "congruent", "word": "blue", "color": "blue", "correct_response": "b", "trial_id": "stroop-trial-1-congruent-24", "trial_type": "html-keyboard-response", "trial_index": 131, "time_elapsed": 344446, "internal_node_id": "0.0-6.0-36.0"}}, {"uniqueid": "w64877162:a54504938", "current_trial": 132, "dateTime": 1664464243016, "trialdata": {"rt": 470, "stimulus": "<p id='stroop-text' class='stroop-yellow'>SHIP</p>", "response": "y", "stimulus-type": "unrelated", "word": "SHIP", "color": "yellow", "correct_response": "y", "trial_id": "stroop-trial-1-unrelated-6", "trial_type": "html-keyboard-response", "trial_index": 132, "time_elapsed": 345422, "internal_node_id": "0.0-6.0-37.0"}}, {"uniqueid": "w64877162:a54504938", "current_trial": 133, "dateTime": 1664464244216, "trialdata": {"rt": 694, "stimulus": "<p id='stroop-text' class='stroop-red'>RED</p>", "response": "r", "stimulus-type": "congruent", "word": "red", "color": "red", "correct_response": "r", "trial_id": "stroop-trial-1-congruent-17", "trial_type": "html-keyboard-response", "trial_index": 133, "time_elapsed": 346622, "internal_node_id": "0.0-6.0-38.0"}}, {"uniqueid": "w64877162:a54504938", "current_trial": 134, "dateTime": 1664464245345, "trialdata": {"rt": 622, "stimulus": "<p id='stroop-text' class='stroop-blue'>RED</p>", "response": "b", "stimulus-type": "incongruent", "word": "red", "color": "blue", "correct_response": "b", "trial_id": "stroop-trial-1-incongruent-26", "trial_type": "html-keyboard-response", "trial_index": 134, "time_elapsed": 347750, "internal_node_id": "0.0-6.0-39.0"}}, {"uniqueid": "w64877162:a54504938", "current_trial": 135, "dateTime": 1664464246488, "trialdata": {"rt": 637, "stimulus": "<p id='stroop-text' class='stroop-green'>GREEN</p>", "response": "g", "stimulus-type": "congruent", "word": "green", "color": "green", "correct_response": "g", "trial_id": "stroop-trial-1-congruent-26", "trial_type": "html-keyboard-response", "trial_index": 135, "time_elapsed": 348894, "internal_node_id": "0.0-6.0-40.0"}}, {"uniqueid": "w64877162:a54504938", "current_trial": 136, "dateTime": 1664464247504, "trialdata": {"rt": 508, "stimulus": "<p id='stroop-text' class='stroop-yellow'>YELLOW</p>", "response": "y", "stimulus-type": "congruent", "word": "yellow", "color": "yellow", "correct_response": "y", "trial_id": "stroop-trial-1-congruent-3", "trial_type": "html-keyboard-response", "trial_index": 136, "time_elapsed": 349910, "internal_node_id": "0.0-6.0-41.0"}}, {"uniqueid": "w64877162:a54504938", "current_trial": 137, "dateTime": 1664464248680, "trialdata": {"rt": 670, "stimulus": "<p id='stroop-text' class='stroop-blue'>BOTTLE</p>", "response": "b", "stimulus-type": "unrelated", "word": "BOTTLE", "color": "blue", "correct_response": "b", "trial_id": "stroop-trial-1-unrelated-30", "trial_type": "html-keyboard-response", "trial_index": 137, "time_elapsed": 351086, "internal_node_id": "0.0-6.0-42.0"}}, {"uniqueid": "w64877162:a54504938", "current_trial": 138, "dateTime": 1664464250336, "trialdata": {"rt": 1152, "stimulus": "<p id='stroop-text' class='stroop-green'>RED</p>", "response": "g", "stimulus-type": "incongruent", "word": "red", "color": "green", "correct_response": "g", "trial_id": "stroop-trial-1-incongruent-22", "trial_type": "html-keyboard-response", "trial_index": 138, "time_elapsed": 352742, "internal_node_id": "0.0-6.0-43.0"}}, {"uniqueid": "w64877162:a54504938", "current_trial": 139, "dateTime": 1664464251705, "trialdata": {"rt": 863, "stimulus": "<p id='stroop-text' class='stroop-red'>BLUE</p>", "response": "b", "stimulus-type": "incongruent", "word": "blue", "color": "red", "correct_response": "r", "trial_id": "stroop-trial-1-incongruent-24", "trial_type": "html-keyboard-response", "trial_index": 139, "time_elapsed": 354110, "internal_node_id": "0.0-6.0-44.0"}}, {"uniqueid": "w64877162:a54504938", "current_trial": 140, "dateTime": 1664464253458, "trialdata": {"rt": 1245, "stimulus": "<p id='stroop-text' class='stroop-yellow'>RED</p>", "response": "y", "stimulus-type": "incongruent", "word": "red", "color": "yellow", "correct_response": "y", "trial_id": "stroop-trial-1-incongruent-11", "trial_type": "html-keyboard-response", "trial_index": 140, "time_elapsed": 355864, "internal_node_id": "0.0-6.0-45.0"}}, {"uniqueid": "w64877162:a54504938", "current_trial": 141, "dateTime": 1664464254465, "trialdata": {"rt": 501, "stimulus": "<p id='stroop-text' class='stroop-yellow'>MONKEY</p>", "response": "y", "stimulus-type": "unrelated", "word": "MONKEY", "color": "yellow", "correct_response": "y", "trial_id": "stroop-trial-1-unrelated-16", "trial_type": "html-keyboard-response", "trial_index": 141, "time_elapsed": 356870, "internal_node_id": "0.0-6.0-46.0"}}, {"uniqueid": "w64877162:a54504938", "current_trial": 142, "dateTime": 1664464255521, "trialdata": {"rt": 550, "stimulus": "<p id='stroop-text' class='stroop-yellow'>SHIP</p>", "response": "y", "stimulus-type": "unrelated", "word": "SHIP", "color": "yellow", "correct_response": "y", "trial_id": "stroop-trial-1-unrelated-21", "trial_type": "html-keyboard-response", "trial_index": 142, "time_elapsed": 357927, "internal_node_id": "0.0-6.0-47.0"}}, {"uniqueid": "w64877162:a54504938", "current_trial": 143, "dateTime": 1664464256426, "trialdata": {"rt": 399, "stimulus": "<p id='stroop-text' class='stroop-yellow'>GREEN</p>", "response": "y", "stimulus-type": "incongruent", "word": "green", "color": "yellow", "correct_response": "y", "trial_id": "stroop-trial-1-incongruent-16", "trial_type": "html-keyboard-response", "trial_index": 143, "time_elapsed": 358831, "internal_node_id": "0.0-6.0-48.0"}}, {"uniqueid": "w64877162:a54504938", "current_trial": 144, "dateTime": 1664464257802, "trialdata": {"rt": 868, "stimulus": "<p id='stroop-text' class='stroop-green'>GREEN</p>", "response": "g", "stimulus-type": "congruent", "word": "green", "color": "green", "correct_response": "g", "trial_id": "stroop-trial-1-congruent-22", "trial_type": "html-keyboard-response", "trial_index": 144, "time_elapsed": 360207, "internal_node_id": "0.0-6.0-49.0"}}, {"uniqueid": "w64877162:a54504938", "current_trial": 145, "dateTime": 1664464259281, "trialdata": {"rt": 974, "stimulus": "<p id='stroop-text' class='stroop-yellow'>CHAIR</p>", "response": "y", "stimulus-type": "unrelated", "word": "CHAIR", "color": "yellow", "correct_response": "y", "trial_id": "stroop-trial-1-unrelated-15", "trial_type": "html-keyboard-response", "trial_index": 145, "time_elapsed": 361686, "internal_node_id": "0.0-6.0-50.0"}}, {"uniqueid": "w64877162:a54504938", "current_trial": 146, "dateTime": 1664464261440, "trialdata": {"rt": 1653, "stimulus": "<p id='stroop-text' class='stroop-red'>BRAIN</p>", "response": "r", "stimulus-type": "unrelated", "word": "BRAIN", "color": "red", "correct_response": "r", "trial_id": "stroop-trial-1-unrelated-4", "trial_type": "html-keyboard-response", "trial_index": 146, "time_elapsed": 363845, "internal_node_id": "0.0-6.0-51.0"}}, {"uniqueid": "w64877162:a54504938", "current_trial": 147, "dateTime": 1664464262842, "trialdata": {"rt": 896, "stimulus": "<p id='stroop-text' class='stroop-yellow'>RED</p>", "response": "y", "stimulus-type": "incongruent", "word": "red", "color": "yellow", "correct_response": "y", "trial_id": "stroop-trial-1-incongruent-29", "trial_type": "html-keyboard-response", "trial_index": 147, "time_elapsed": 365247, "internal_node_id": "0.0-6.0-52.0"}}, {"uniqueid": "w64877162:a54504938", "current_trial": 148, "dateTime": 1664464264001, "trialdata": {"rt": 653, "stimulus": "<p id='stroop-text' class='stroop-yellow'>GREEN</p>", "response": "y", "stimulus-type": "incongruent", "word": "green", "color": "yellow", "correct_response": "y", "trial_id": "stroop-trial-1-incongruent-25", "trial_type": "html-keyboard-response", "trial_index": 148, "time_elapsed": 366407, "internal_node_id": "0.0-6.0-53.0"}}, {"uniqueid": "w64877162:a54504938", "current_trial": 149, "dateTime": 1664464265761, "trialdata": {"rt": 1254, "stimulus": "<p id='stroop-text' class='stroop-red'>RED</p>", "response": "r", "stimulus-type": "congruent", "word": "red", "color": "red", "correct_response": "r", "trial_id": "stroop-trial-1-congruent-19", "trial_type": "html-keyboard-response", "trial_index": 149, "time_elapsed": 368167, "internal_node_id": "0.0-6.0-54.0"}}, {"uniqueid": "w64877162:a54504938", "current_trial": 150, "dateTime": 1664464268937, "trialdata": {"rt": 2670, "stimulus": "<p id='stroop-text' class='stroop-blue'>BLUE</p>", "response": "b", "stimulus-type": "congruent", "word": "blue", "color": "blue", "correct_response": "b", "trial_id": "stroop-trial-1-congruent-15", "trial_type": "html-keyboard-response", "trial_index": 150, "time_elapsed": 371342, "internal_node_id": "0.0-6.0-55.0"}}, {"uniqueid": "w64877162:a54504938", "current_trial": 151, "dateTime": 1664464270241, "trialdata": {"rt": 797, "stimulus": "<p id='stroop-text' class='stroop-red'>RED</p>", "response": "r", "stimulus-type": "congruent", "word": "red", "color": "red", "correct_response": "r", "trial_id": "stroop-trial-1-congruent-18", "trial_type": "html-keyboard-response", "trial_index": 151, "time_elapsed": 372647, "internal_node_id": "0.0-6.0-56.0"}}, {"uniqueid": "w64877162:a54504938", "current_trial": 152, "dateTime": 1664464272041, "trialdata": {"rt": 1294, "stimulus": "<p id='stroop-text' class='stroop-yellow'>CHAIR</p>", "response": "y", "stimulus-type": "unrelated", "word": "CHAIR", "color": "yellow", "correct_response": "y", "trial_id": "stroop-trial-1-unrelated-24", "trial_type": "html-keyboard-response", "trial_index": 152, "time_elapsed": 374446, "internal_node_id": "0.0-6.0-57.0"}}, {"uniqueid": "w64877162:a54504938", "current_trial": 153, "dateTime": 1664464273377, "trialdata": {"rt": 830, "stimulus": "<p id='stroop-text' class='stroop-green'>CHAIR</p>", "response": "g", "stimulus-type": "unrelated", "word": "CHAIR", "color": "green", "correct_response": "g", "trial_id": "stroop-trial-1-unrelated-28", "trial_type": "html-keyboard-response", "trial_index": 153, "time_elapsed": 375783, "internal_node_id": "0.0-6.0-58.0"}}, {"uniqueid": "w64877162:a54504938", "current_trial": 154, "dateTime": 1664464274457, "trialdata": {"rt": 573, "stimulus": "<p id='stroop-text' class='stroop-blue'>BLUE</p>", "response": "b", "stimulus-type": "congruent", "word": "blue", "color": "blue", "correct_response": "b", "trial_id": "stroop-trial-1-congruent-13", "trial_type": "html-keyboard-response", "trial_index": 154, "time_elapsed": 376862, "internal_node_id": "0.0-6.0-59.0"}}, {"uniqueid": "w64877162:a54504938", "current_trial": 155, "dateTime": 1664464275664, "trialdata": {"rt": 701, "stimulus": "<p id='stroop-text' class='stroop-red'>BOAT</p>", "response": "b", "stimulus-type": "unrelated", "word": "BOAT", "color": "red", "correct_response": "r", "trial_id": "stroop-trial-1-unrelated-19", "trial_type": "html-keyboard-response", "trial_index": 155, "time_elapsed": 378070, "internal_node_id": "0.0-6.0-60.0"}}, {"uniqueid": "w64877162:a54504938", "current_trial": 156, "dateTime": 1664464276729, "trialdata": {"rt": 561, "stimulus": "<p id='stroop-text' class='stroop-blue'>BLUE</p>", "response": "b", "stimulus-type": "congruent", "word": "blue", "color": "blue", "correct_response": "b", "trial_id": "stroop-trial-1-congruent-23", "trial_type": "html-keyboard-response", "trial_index": 156, "time_elapsed": 379135, "internal_node_id": "0.0-6.0-61.0"}}, {"uniqueid": "w64877162:a54504938", "current_trial": 157, "dateTime": 1664464278233, "trialdata": {"rt": 995, "stimulus": "<p id='stroop-text' class='stroop-green'>FORK</p>", "response": "g", "stimulus-type": "unrelated", "word": "FORK", "color": "green", "correct_response": "g", "trial_id": "stroop-trial-1-unrelated-10", "trial_type": "html-keyboard-response", "trial_index": 157, "time_elapsed": 380638, "internal_node_id": "0.0-6.0-62.0"}}, {"uniqueid": "w64877162:a54504938", "current_trial": 158, "dateTime": 1664464279281, "trialdata": {"rt": 542, "stimulus": "<p id='stroop-text' class='stroop-yellow'>YELLOW</p>", "response": "y", "stimulus-type": "congruent", "word": "yellow", "color": "yellow", "correct_response": "y", "trial_id": "stroop-trial-1-congruent-8", "trial_type": "html-keyboard-response", "trial_index": 158, "time_elapsed": 381687, "internal_node_id": "0.0-6.0-63.0"}}, {"uniqueid": "w64877162:a54504938", "current_trial": 159, "dateTime": 1664464280682, "trialdata": {"rt": 894, "stimulus": "<p id='stroop-text' class='stroop-blue'>BOTTLE</p>", "response": "b", "stimulus-type": "unrelated", "word": "BOTTLE", "color": "blue", "correct_response": "b", "trial_id": "stroop-trial-1-unrelated-11", "trial_type": "html-keyboard-response", "trial_index": 159, "time_elapsed": 383087, "internal_node_id": "0.0-6.0-64.0"}}, {"uniqueid": "w64877162:a54504938", "current_trial": 160, "dateTime": 1664464281993, "trialdata": {"rt": 805, "stimulus": "<p id='stroop-text' class='stroop-yellow'>CHAIR</p>", "response": "y", "stimulus-type": "unrelated", "word": "CHAIR", "color": "yellow", "correct_response": "y", "trial_id": "stroop-trial-1-unrelated-7", "trial_type": "html-keyboard-response", "trial_index": 160, "time_elapsed": 384398, "internal_node_id": "0.0-6.0-65.0"}}, {"uniqueid": "w64877162:a54504938", "current_trial": 161, "dateTime": 1664464283057, "trialdata": {"rt": 558, "stimulus": "<p id='stroop-text' class='stroop-green'>GREEN</p>", "response": "g", "stimulus-type": "congruent", "word": "green", "color": "green", "correct_response": "g", "trial_id": "stroop-trial-1-congruent-1", "trial_type": "html-keyboard-response", "trial_index": 161, "time_elapsed": 385463, "internal_node_id": "0.0-6.0-66.0"}}, {"uniqueid": "w64877162:a54504938", "current_trial": 162, "dateTime": 1664464284361, "trialdata": {"rt": 797, "stimulus": "<p id='stroop-text' class='stroop-blue'>BRIDGE</p>", "response": "b", "stimulus-type": "unrelated", "word": "BRIDGE", "color": "blue", "correct_response": "b", "trial_id": "stroop-trial-1-unrelated-25", "trial_type": "html-keyboard-response", "trial_index": 162, "time_elapsed": 386767, "internal_node_id": "0.0-6.0-67.0"}}, {"uniqueid": "w64877162:a54504938", "current_trial": 163, "dateTime": 1664464285417, "trialdata": {"rt": 550, "stimulus": "<p id='stroop-text' class='stroop-red'>GREEN</p>", "response": "r", "stimulus-type": "incongruent", "word": "green", "color": "red", "correct_response": "r", "trial_id": "stroop-trial-1-incongruent-19", "trial_type": "html-keyboard-response", "trial_index": 163, "time_elapsed": 387823, "internal_node_id": "0.0-6.0-68.0"}}, {"uniqueid": "w64877162:a54504938", "current_trial": 164, "dateTime": 1664464286906, "trialdata": {"rt": 983, "stimulus": "<p id='stroop-text' class='stroop-green'>BLUE</p>", "response": "g", "stimulus-type": "incongruent", "word": "blue", "color": "green", "correct_response": "g", "trial_id": "stroop-trial-1-incongruent-3", "trial_type": "html-keyboard-response", "trial_index": 164, "time_elapsed": 389311, "internal_node_id": "0.0-6.0-69.0"}}, {"uniqueid": "w64877162:a54504938", "current_trial": 165, "dateTime": 1664464287873, "trialdata": {"rt": 460, "stimulus": "<p id='stroop-text' class='stroop-green'>GREEN</p>", "response": "g", "stimulus-type": "congruent", "word": "green", "color": "green", "correct_response": "g", "trial_id": "stroop-trial-1-congruent-4", "trial_type": "html-keyboard-response", "trial_index": 165, "time_elapsed": 390278, "internal_node_id": "0.0-6.0-70.0"}}, {"uniqueid": "w64877162:a54504938", "current_trial": 166, "dateTime": 1664464288873, "trialdata": {"rt": 493, "stimulus": "<p id='stroop-text' class='stroop-yellow'>BRIDGE</p>", "response": "y", "stimulus-type": "unrelated", "word": "BRIDGE", "color": "yellow", "correct_response": "y", "trial_id": "stroop-trial-1-unrelated-2", "trial_type": "html-keyboard-response", "trial_index": 166, "time_elapsed": 391278, "internal_node_id": "0.0-6.0-71.0"}}, {"uniqueid": "w64877162:a54504938", "current_trial": 167, "dateTime": 1664464290063, "trialdata": {"rt": 684, "stimulus": "<p id='stroop-text' class='stroop-green'>BLUE</p>", "response": "g", "stimulus-type": "incongruent", "word": "blue", "color": "green", "correct_response": "g", "trial_id": "stroop-trial-1-incongruent-7", "trial_type": "html-keyboard-response", "trial_index": 167, "time_elapsed": 392469, "internal_node_id": "0.0-6.0-72.0"}}, {"uniqueid": "w64877162:a54504938", "current_trial": 168, "dateTime": 1664464291064, "trialdata": {"rt": 498, "stimulus": "<p id='stroop-text' class='stroop-blue'>BLUE</p>", "response": "b", "stimulus-type": "congruent", "word": "blue", "color": "blue", "correct_response": "b", "trial_id": "stroop-trial-1-congruent-9", "trial_type": "html-keyboard-response", "trial_index": 168, "time_elapsed": 393470, "internal_node_id": "0.0-6.0-73.0"}}, {"uniqueid": "w64877162:a54504938", "current_trial": 169, "dateTime": 1664464292482, "trialdata": {"rt": 913, "stimulus": "<p id='stroop-text' class='stroop-yellow'>BOAT</p>", "response": "y", "stimulus-type": "unrelated", "word": "BOAT", "color": "yellow", "correct_response": "y", "trial_id": "stroop-trial-1-unrelated-8", "trial_type": "html-keyboard-response", "trial_index": 169, "time_elapsed": 394888, "internal_node_id": "0.0-6.0-74.0"}}, {"uniqueid": "w64877162:a54504938", "current_trial": 170, "dateTime": 1664464293801, "trialdata": {"rt": 812, "stimulus": "<p id='stroop-text' class='stroop-green'>YELLOW</p>", "response": "g", "stimulus-type": "incongruent", "word": "yellow", "color": "green", "correct_response": "g", "trial_id": "stroop-trial-1-incongruent-15", "trial_type": "html-keyboard-response", "trial_index": 170, "time_elapsed": 396206, "internal_node_id": "0.0-6.0-75.0"}}, {"uniqueid": "w64877162:a54504938", "current_trial": 171, "dateTime": 1664464294793, "trialdata": {"rt": 486, "stimulus": "<p id='stroop-text' class='stroop-green'>RED</p>", "response": "g", "stimulus-type": "incongruent", "word": "red", "color": "green", "correct_response": "g", "trial_id": "stroop-trial-1-incongruent-18", "trial_type": "html-keyboard-response", "trial_index": 171, "time_elapsed": 397199, "internal_node_id": "0.0-6.0-76.0"}}, {"uniqueid": "w64877162:a54504938", "current_trial": 172, "dateTime": 1664464295945, "trialdata": {"rt": 645, "stimulus": "<p id='stroop-text' class='stroop-yellow'>BRIDGE</p>", "response": "y", "stimulus-type": "unrelated", "word": "BRIDGE", "color": "yellow", "correct_response": "y", "trial_id": "stroop-trial-1-unrelated-12", "trial_type": "html-keyboard-response", "trial_index": 172, "time_elapsed": 398351, "internal_node_id": "0.0-6.0-77.0"}}, {"uniqueid": "w64877162:a54504938", "current_trial": 173, "dateTime": 1664464297065, "trialdata": {"rt": 611, "stimulus": "<p id='stroop-text' class='stroop-green'>YELLOW</p>", "response": "y", "stimulus-type": "incongruent", "word": "yellow", "color": "green", "correct_response": "g", "trial_id": "stroop-trial-1-incongruent-14", "trial_type": "html-keyboard-response", "trial_index": 173, "time_elapsed": 399470, "internal_node_id": "0.0-6.0-78.0"}}, {"uniqueid": "w64877162:a54504938", "current_trial": 174, "dateTime": 1664464298311, "trialdata": {"rt": 740, "stimulus": "<p id='stroop-text' class='stroop-green'>BLUE</p>", "response": "g", "stimulus-type": "incongruent", "word": "blue", "color": "green", "correct_response": "g", "trial_id": "stroop-trial-1-incongruent-27", "trial_type": "html-keyboard-response", "trial_index": 174, "time_elapsed": 400717, "internal_node_id": "0.0-6.0-79.0"}}, {"uniqueid": "w64877162:a54504938", "current_trial": 175, "dateTime": 1664464299561, "trialdata": {"rt": 746, "stimulus": "<p id='stroop-text' class='stroop-red'>GREEN</p>", "response": "r", "stimulus-type": "incongruent", "word": "green", "color": "red", "correct_response": "r", "trial_id": "stroop-trial-1-incongruent-17", "trial_type": "html-keyboard-response", "trial_index": 175, "time_elapsed": 401966, "internal_node_id": "0.0-6.0-80.0"}}, {"uniqueid": "w64877162:a54504938", "current_trial": 176, "dateTime": 1664464300881, "trialdata": {"rt": 814, "stimulus": "<p id='stroop-text' class='stroop-yellow'>BLUE</p>", "response": "y", "stimulus-type": "incongruent", "word": "blue", "color": "yellow", "correct_response": "y", "trial_id": "stroop-trial-1-incongruent-12", "trial_type": "html-keyboard-response", "trial_index": 176, "time_elapsed": 403286, "internal_node_id": "0.0-6.0-81.0"}}, {"uniqueid": "w64877162:a54504938", "current_trial": 177, "dateTime": 1664464301984, "trialdata": {"rt": 596, "stimulus": "<p id='stroop-text' class='stroop-blue'>BLUE</p>", "response": "b", "stimulus-type": "congruent", "word": "blue", "color": "blue", "correct_response": "b", "trial_id": "stroop-trial-1-congruent-29", "trial_type": "html-keyboard-response", "trial_index": 177, "time_elapsed": 404389, "internal_node_id": "0.0-6.0-82.0"}}, {"uniqueid": "w64877162:a54504938", "current_trial": 178, "dateTime": 1664464303210, "trialdata": {"rt": 723, "stimulus": "<p id='stroop-text' class='stroop-blue'>BLUE</p>", "response": "b", "stimulus-type": "congruent", "word": "blue", "color": "blue", "correct_response": "b", "trial_id": "stroop-trial-1-congruent-2", "trial_type": "html-keyboard-response", "trial_index": 178, "time_elapsed": 405615, "internal_node_id": "0.0-6.0-83.0"}}, {"uniqueid": "w64877162:a54504938", "current_trial": 179, "dateTime": 1664464304275, "trialdata": {"rt": 558, "stimulus": "<p id='stroop-text' class='stroop-blue'>BLUE</p>", "response": "b", "stimulus-type": "congruent", "word": "blue", "color": "blue", "correct_response": "b", "trial_id": "stroop-trial-1-congruent-11", "trial_type": "html-keyboard-response", "trial_index": 179, "time_elapsed": 406679, "internal_node_id": "0.0-6.0-84.0"}}, {"uniqueid": "w64877162:a54504938", "current_trial": 180, "dateTime": 1664464305394, "trialdata": {"rt": 613, "stimulus": "<p id='stroop-text' class='stroop-red'>CHAIR</p>", "response": "r", "stimulus-type": "unrelated", "word": "CHAIR", "color": "red", "correct_response": "r", "trial_id": "stroop-trial-1-unrelated-29", "trial_type": "html-keyboard-response", "trial_index": 180, "time_elapsed": 407799, "internal_node_id": "0.0-6.0-85.0"}}, {"uniqueid": "w64877162:a54504938", "current_trial": 181, "dateTime": 1664464306473, "trialdata": {"rt": 572, "stimulus": "<p id='stroop-text' class='stroop-red'>GREEN</p>", "response": "r", "stimulus-type": "incongruent", "word": "green", "color": "red", "correct_response": "r", "trial_id": "stroop-trial-1-incongruent-23", "trial_type": "html-keyboard-response", "trial_index": 181, "time_elapsed": 408878, "internal_node_id": "0.0-6.0-86.0"}}, {"uniqueid": "w64877162:a54504938", "current_trial": 182, "dateTime": 1664464307792, "trialdata": {"rt": 813, "stimulus": "<p id='stroop-text' class='stroop-red'>BOAT</p>", "response": "r", "stimulus-type": "unrelated", "word": "BOAT", "color": "red", "correct_response": "r", "trial_id": "stroop-trial-1-unrelated-26", "trial_type": "html-keyboard-response", "trial_index": 182, "time_elapsed": 410197, "internal_node_id": "0.0-6.0-87.0"}}, {"uniqueid": "w64877162:a54504938", "current_trial": 183, "dateTime": 1664464308993, "trialdata": {"rt": 697, "stimulus": "<p id='stroop-text' class='stroop-green'>YELLOW</p>", "response": "g", "stimulus-type": "incongruent", "word": "yellow", "color": "green", "correct_response": "g", "trial_id": "stroop-trial-1-incongruent-9", "trial_type": "html-keyboard-response", "trial_index": 183, "time_elapsed": 411398, "internal_node_id": "0.0-6.0-88.0"}}, {"uniqueid": "w64877162:a54504938", "current_trial": 184, "dateTime": 1664464310154, "trialdata": {"rt": 655, "stimulus": "<p id='stroop-text' class='stroop-blue'>BLUE</p>", "response": "b", "stimulus-type": "congruent", "word": "blue", "color": "blue", "correct_response": "b", "trial_id": "stroop-trial-1-congruent-14", "trial_type": "html-keyboard-response", "trial_index": 184, "time_elapsed": 412559, "internal_node_id": "0.0-6.0-89.0"}}, {"uniqueid": "w64877162:a54504938", "current_trial": 185, "dateTime": 1664464312680, "trialdata": {"rt": 2016, "stimulus": "  <h1> End of block! </h1>\n\n  You have reached the end of the block 2/5. If you need a short break, feel free to take one now before moving on.\n\n  <br><br>\n  In the next block, you will complete another 90 rounds of this game.\n\n  <br><br>\n  <div style='text-align: center;'>Press <code>space</code> to begin.</div>\n  <br><br>\n<div style='text-align: center;'>(If the experiment doesn't continue, try clicking on the text and then pressing <code>space</code>.)</div>", "response": " ", "trial_id": "stroop_1_ready_3", "trial_type": "html-keyboard-response", "trial_index": 185, "time_elapsed": 415086, "internal_node_id": "0.0-7.0"}}, {"uniqueid": "w64877162:a54504938", "current_trial": 186, "dateTime": 1664464313496, "trialdata": {"rt": 811, "stimulus": "<p id='stroop-text' class='stroop-blue'>GREEN</p>", "response": "b", "stimulus-type": "incongruent", "word": "green", "color": "blue", "correct_response": "b", "trial_id": "stroop-trial-1-incongruent-19", "trial_type": "html-keyboard-response", "trial_index": 186, "time_elapsed": 415902, "internal_node_id": "0.0-8.0-0.0"}}, {"uniqueid": "w64877162:a54504938", "current_trial": 187, "dateTime": 1664464314656, "trialdata": {"rt": 655, "stimulus": "<p id='stroop-text' class='stroop-green'>BLUE</p>", "response": "g", "stimulus-type": "incongruent", "word": "blue", "color": "green", "correct_response": "g", "trial_id": "stroop-trial-1-incongruent-17", "trial_type": "html-keyboard-response", "trial_index": 187, "time_elapsed": 417062, "internal_node_id": "0.0-8.0-1.0"}}, {"uniqueid": "w64877162:a54504938", "current_trial": 188, "dateTime": 1664464315775, "trialdata": {"rt": 612, "stimulus": "<p id='stroop-text' class='stroop-blue'>MONKEY</p>", "response": "b", "stimulus-type": "unrelated", "word": "MONKEY", "color": "blue", "correct_response": "b", "trial_id": "stroop-trial-1-unrelated-3", "trial_type": "html-keyboard-response", "trial_index": 188, "time_elapsed": 418180, "internal_node_id": "0.0-8.0-2.0"}}, {"uniqueid": "w64877162:a54504938", "current_trial": 189, "dateTime": 1664464317208, "trialdata": {"rt": 930, "stimulus": "<p id='stroop-text' class='stroop-red'>RED</p>", "response": "r", "stimulus-type": "congruent", "word": "red", "color": "red", "correct_response": "r", "trial_id": "stroop-trial-1-congruent-22", "trial_type": "html-keyboard-response", "trial_index": 189, "time_elapsed": 419614, "internal_node_id": "0.0-8.0-3.0"}}, {"uniqueid": "w64877162:a54504938", "current_trial": 190, "dateTime": 1664464318272, "trialdata": {"rt": 558, "stimulus": "<p id='stroop-text' class='stroop-red'>BLUE</p>", "response": "r", "stimulus-type": "incongruent", "word": "blue", "color": "red", "correct_response": "r", "trial_id": "stroop-trial-1-incongruent-29", "trial_type": "html-keyboard-response", "trial_index": 190, "time_elapsed": 420678, "internal_node_id": "0.0-8.0-4.0"}}, {"uniqueid": "w64877162:a54504938", "current_trial": 191, "dateTime": 1664464319448, "trialdata": {"rt": 671, "stimulus": "<p id='stroop-text' class='stroop-green'>RED</p>", "response": "g", "stimulus-type": "incongruent", "word": "red", "color": "green", "correct_response": "g", "trial_id": "stroop-trial-1-incongruent-7", "trial_type": "html-keyboard-response", "trial_index": 191, "time_elapsed": 421854, "internal_node_id": "0.0-8.0-5.0"}}, {"uniqueid": "w64877162:a54504938", "current_trial": 192, "dateTime": 1664464321056, "trialdata": {"rt": 1101, "stimulus": "<p id='stroop-text' class='stroop-blue'>RED</p>", "response": "b", "stimulus-type": "incongruent", "word": "red", "color": "blue", "correct_response": "b", "trial_id": "stroop-trial-1-incongruent-13", "trial_type": "html-keyboard-response", "trial_index": 192, "time_elapsed": 423461, "internal_node_id": "0.0-8.0-6.0"}}, {"uniqueid": "w64877162:a54504938", "current_trial": 193, "dateTime": 1664464322025, "trialdata": {"rt": 463, "stimulus": "<p id='stroop-text' class='stroop-blue'>BLUE</p>", "response": "b", "stimulus-type": "congruent", "word": "blue", "color": "blue", "correct_response": "b", "trial_id": "stroop-trial-1-congruent-3", "trial_type": "html-keyboard-response", "trial_index": 193, "time_elapsed": 424430, "internal_node_id": "0.0-8.0-7.0"}}, {"uniqueid": "w64877162:a54504938", "current_trial": 194, "dateTime": 1664464322904, "trialdata": {"rt": 375, "stimulus": "<p id='stroop-text' class='stroop-blue'>WINDOW</p>", "response": "b", "stimulus-type": "unrelated", "word": "WINDOW", "color": "blue", "correct_response": "b", "trial_id": "stroop-trial-1-unrelated-23", "trial_type": "html-keyboard-response", "trial_index": 194, "time_elapsed": 425310, "internal_node_id": "0.0-8.0-8.0"}}, {"uniqueid": "w64877162:a54504938", "current_trial": 195, "dateTime": 1664464324129, "trialdata": {"rt": 718, "stimulus": "<p id='stroop-text' class='stroop-red'>RED</p>", "response": "g", "stimulus-type": "congruent", "word": "red", "color": "red", "correct_response": "r", "trial_id": "stroop-trial-1-congruent-1", "trial_type": "html-keyboard-response", "trial_index": 195, "time_elapsed": 426535, "internal_node_id": "0.0-8.0-9.0"}}, {"uniqueid": "w64877162:a54504938", "current_trial": 196, "dateTime": 1664464327422, "trialdata": {"rt": 2787, "stimulus": "<p id='stroop-text' class='stroop-yellow'>BLUE</p>", "response": "y", "stimulus-type": "incongruent", "word": "blue", "color": "yellow", "correct_response": "y", "trial_id": "stroop-trial-1-incongruent-27", "trial_type": "html-keyboard-response", "trial_index": 196, "time_elapsed": 429828, "internal_node_id": "0.0-8.0-10.0"}}, {"uniqueid": "w64877162:a54504938", "current_trial": 197, "dateTime": 1664464329153, "trialdata": {"rt": 1226, "stimulus": "<p id='stroop-text' class='stroop-red'>RED</p>", "response": "r", "stimulus-type": "congruent", "word": "red", "color": "red", "correct_response": "r", "trial_id": "stroop-trial-1-congruent-27", "trial_type": "html-keyboard-response", "trial_index": 197, "time_elapsed": 431559, "internal_node_id": "0.0-8.0-11.0"}}, {"uniqueid": "w64877162:a54504938", "current_trial": 198, "dateTime": 1664464330327, "trialdata": {"rt": 668, "stimulus": "<p id='stroop-text' class='stroop-green'>RED</p>", "response": "g", "stimulus-type": "incongruent", "word": "red", "color": "green", "correct_response": "g", "trial_id": "stroop-trial-1-incongruent-21", "trial_type": "html-keyboard-response", "trial_index": 198, "time_elapsed": 432733, "internal_node_id": "0.0-8.0-12.0"}}, {"uniqueid": "w64877162:a54504938", "current_trial": 199, "dateTime": 1664464331392, "trialdata": {"rt": 561, "stimulus": "<p id='stroop-text' class='stroop-red'>MONKEY</p>", "response": "r", "stimulus-type": "unrelated", "word": "MONKEY", "color": "red", "correct_response": "r", "trial_id": "stroop-trial-1-unrelated-13", "trial_type": "html-keyboard-response", "trial_index": 199, "time_elapsed": 433798, "internal_node_id": "0.0-8.0-13.0"}}, {"uniqueid": "w64877162:a54504938", "current_trial": 200, "dateTime": 1664464332537, "trialdata": {"rt": 637, "stimulus": "<p id='stroop-text' class='stroop-green'>YELLOW</p>", "response": "g", "stimulus-type": "incongruent", "word": "yellow", "color": "green", "correct_response": "g", "trial_id": "stroop-trial-1-incongruent-20", "trial_type": "html-keyboard-response", "trial_index": 200, "time_elapsed": 434942, "internal_node_id": "0.0-8.0-14.0"}}, {"uniqueid": "w64877162:a54504938", "current_trial": 201, "dateTime": 1664464333600, "trialdata": {"rt": 557, "stimulus": "<p id='stroop-text' class='stroop-green'>BLUE</p>", "response": "g", "stimulus-type": "incongruent", "word": "blue", "color": "green", "correct_response": "g", "trial_id": "stroop-trial-1-incongruent-10", "trial_type": "html-keyboard-response", "trial_index": 201, "time_elapsed": 436006, "internal_node_id": "0.0-8.0-15.0"}}, {"uniqueid": "w64877162:a54504938", "current_trial": 202, "dateTime": 1664464334647, "trialdata": {"rt": 541, "stimulus": "<p id='stroop-text' class='stroop-red'>YELLOW</p>", "response": "r", "stimulus-type": "incongruent", "word": "yellow", "color": "red", "correct_response": "r", "trial_id": "stroop-trial-1-incongruent-11", "trial_type": "html-keyboard-response", "trial_index": 202, "time_elapsed": 437053, "internal_node_id": "0.0-8.0-16.0"}}, {"uniqueid": "w64877162:a54504938", "current_trial": 203, "dateTime": 1664464335688, "trialdata": {"rt": 537, "stimulus": "<p id='stroop-text' class='stroop-yellow'>YELLOW</p>", "response": "y", "stimulus-type": "congruent", "word": "yellow", "color": "yellow", "correct_response": "y", "trial_id": "stroop-trial-1-congruent-11", "trial_type": "html-keyboard-response", "trial_index": 203, "time_elapsed": 438094, "internal_node_id": "0.0-8.0-17.0"}}, {"uniqueid": "w64877162:a54504938", "current_trial": 204, "dateTime": 1664464336977, "trialdata": {"rt": 780, "stimulus": "<p id='stroop-text' class='stroop-red'>RED</p>", "response": "r", "stimulus-type": "congruent", "word": "red", "color": "red", "correct_response": "r", "trial_id": "stroop-trial-1-congruent-20", "trial_type": "html-keyboard-response", "trial_index": 204, "time_elapsed": 439382, "internal_node_id": "0.0-8.0-18.0"}}, {"uniqueid": "w64877162:a54504938", "current_trial": 205, "dateTime": 1664464338103, "trialdata": {"rt": 621, "stimulus": "<p id='stroop-text' class='stroop-blue'>STONE</p>", "response": "b", "stimulus-type": "unrelated", "word": "STONE", "color": "blue", "correct_response": "b", "trial_id": "stroop-trial-1-unrelated-12", "trial_type": "html-keyboard-response", "trial_index": 205, "time_elapsed": 440509, "internal_node_id": "0.0-8.0-19.0"}}, {"uniqueid": "w64877162:a54504938", "current_trial": 206, "dateTime": 1664464339241, "trialdata": {"rt": 634, "stimulus": "<p id='stroop-text' class='stroop-blue'>BLUE</p>", "response": "b", "stimulus-type": "congruent", "word": "blue", "color": "blue", "correct_response": "b", "trial_id": "stroop-trial-1-congruent-18", "trial_type": "html-keyboard-response", "trial_index": 206, "time_elapsed": 441647, "internal_node_id": "0.0-8.0-20.0"}}, {"uniqueid": "w64877162:a54504938", "current_trial": 207, "dateTime": 1664464341120, "trialdata": {"rt": 1370, "stimulus": "<p id='stroop-text' class='stroop-yellow'>RED</p>", "response": "y", "stimulus-type": "incongruent", "word": "red", "color": "yellow", "correct_response": "y", "trial_id": "stroop-trial-1-incongruent-23", "trial_type": "html-keyboard-response", "trial_index": 207, "time_elapsed": 443526, "internal_node_id": "0.0-8.0-21.0"}}, {"uniqueid": "w64877162:a54504938", "current_trial": 208, "dateTime": 1664464342288, "trialdata": {"rt": 663, "stimulus": "<p id='stroop-text' class='stroop-red'>RED</p>", "response": "r", "stimulus-type": "congruent", "word": "red", "color": "red", "correct_response": "r", "trial_id": "stroop-trial-1-congruent-28", "trial_type": "html-keyboard-response", "trial_index": 208, "time_elapsed": 444694, "internal_node_id": "0.0-8.0-22.0"}}, {"uniqueid": "w64877162:a54504938", "current_trial": 209, "dateTime": 1664464343281, "trialdata": {"rt": 486, "stimulus": "<p id='stroop-text' class='stroop-green'>BRIDGE</p>", "response": "g", "stimulus-type": "unrelated", "word": "BRIDGE", "color": "green", "correct_response": "g", "trial_id": "stroop-trial-1-unrelated-16", "trial_type": "html-keyboard-response", "trial_index": 209, "time_elapsed": 445686, "internal_node_id": "0.0-8.0-23.0"}}, {"uniqueid": "w64877162:a54504938", "current_trial": 210, "dateTime": 1664464344312, "trialdata": {"rt": 523, "stimulus": "<p id='stroop-text' class='stroop-yellow'>WINDOW</p>", "response": "y", "stimulus-type": "unrelated", "word": "WINDOW", "color": "yellow", "correct_response": "y", "trial_id": "stroop-trial-1-unrelated-22", "trial_type": "html-keyboard-response", "trial_index": 210, "time_elapsed": 446718, "internal_node_id": "0.0-8.0-24.0"}}, {"uniqueid": "w64877162:a54504938", "current_trial": 211, "dateTime": 1664464345409, "trialdata": {"rt": 591, "stimulus": "<p id='stroop-text' class='stroop-blue'>BLUE</p>", "response": "b", "stimulus-type": "congruent", "word": "blue", "color": "blue", "correct_response": "b", "trial_id": "stroop-trial-1-congruent-9", "trial_type": "html-keyboard-response", "trial_index": 211, "time_elapsed": 447815, "internal_node_id": "0.0-8.0-25.0"}}, {"uniqueid": "w64877162:a54504938", "current_trial": 212, "dateTime": 1664464346800, "trialdata": {"rt": 885, "stimulus": "<p id='stroop-text' class='stroop-yellow'>GREEN</p>", "response": "y", "stimulus-type": "incongruent", "word": "green", "color": "yellow", "correct_response": "y", "trial_id": "stroop-trial-1-incongruent-15", "trial_type": "html-keyboard-response", "trial_index": 212, "time_elapsed": 449206, "internal_node_id": "0.0-8.0-26.0"}}, {"uniqueid": "w64877162:a54504938", "current_trial": 213, "dateTime": 1664464347968, "trialdata": {"rt": 661, "stimulus": "<p id='stroop-text' class='stroop-red'>RED</p>", "response": "r", "stimulus-type": "congruent", "word": "red", "color": "red", "correct_response": "r", "trial_id": "stroop-trial-1-congruent-23", "trial_type": "html-keyboard-response", "trial_index": 213, "time_elapsed": 450374, "internal_node_id": "0.0-8.0-27.0"}}, {"uniqueid": "w64877162:a54504938", "current_trial": 214, "dateTime": 1664464349049, "trialdata": {"rt": 574, "stimulus": "<p id='stroop-text' class='stroop-blue'>FORK</p>", "response": "b", "stimulus-type": "unrelated", "word": "FORK", "color": "blue", "correct_response": "b", "trial_id": "stroop-trial-1-unrelated-4", "trial_type": "html-keyboard-response", "trial_index": 214, "time_elapsed": 451455, "internal_node_id": "0.0-8.0-28.0"}}, {"uniqueid": "w64877162:a54504938", "current_trial": 215, "dateTime": 1664464350145, "trialdata": {"rt": 589, "stimulus": "<p id='stroop-text' class='stroop-red'>RED</p>", "response": "r", "stimulus-type": "congruent", "word": "red", "color": "red", "correct_response": "r", "trial_id": "stroop-trial-1-congruent-24", "trial_type": "html-keyboard-response", "trial_index": 215, "time_elapsed": 452550, "internal_node_id": "0.0-8.0-29.0"}}, {"uniqueid": "w64877162:a54504938", "current_trial": 216, "dateTime": 1664464351328, "trialdata": {"rt": 677, "stimulus": "<p id='stroop-text' class='stroop-green'>MONKEY</p>", "response": "g", "stimulus-type": "unrelated", "word": "MONKEY", "color": "green", "correct_response": "g", "trial_id": "stroop-trial-1-unrelated-18", "trial_type": "html-keyboard-response", "trial_index": 216, "time_elapsed": 453734, "internal_node_id": "0.0-8.0-30.0"}}, {"uniqueid": "w64877162:a54504938", "current_trial": 217, "dateTime": 1664464352767, "trialdata": {"rt": 933, "stimulus": "<p id='stroop-text' class='stroop-blue'>BLUE</p>", "response": "b", "stimulus-type": "congruent", "word": "blue", "color": "blue", "correct_response": "b", "trial_id": "stroop-trial-1-congruent-8", "trial_type": "html-keyboard-response", "trial_index": 217, "time_elapsed": 455173, "internal_node_id": "0.0-8.0-31.0"}}, {"uniqueid": "w64877162:a54504938", "current_trial": 218, "dateTime": 1664464354697, "trialdata": {"rt": 1425, "stimulus": "<p id='stroop-text' class='stroop-red'>SHIP</p>", "response": "r", "stimulus-type": "unrelated", "word": "SHIP", "color": "red", "correct_response": "r", "trial_id": "stroop-trial-1-unrelated-6", "trial_type": "html-keyboard-response", "trial_index": 218, "time_elapsed": 457102, "internal_node_id": "0.0-8.0-32.0"}}, {"uniqueid": "w64877162:a54504938", "current_trial": 219, "dateTime": 1664464356321, "trialdata": {"rt": 1119, "stimulus": "<p id='stroop-text' class='stroop-yellow'>WINDOW</p>", "response": "y", "stimulus-type": "unrelated", "word": "WINDOW", "color": "yellow", "correct_response": "y", "trial_id": "stroop-trial-1-unrelated-29", "trial_type": "html-keyboard-response", "trial_index": 219, "time_elapsed": 458726, "internal_node_id": "0.0-8.0-33.0"}}, {"uniqueid": "w64877162:a54504938", "current_trial": 220, "dateTime": 1664464357632, "trialdata": {"rt": 802, "stimulus": "<p id='stroop-text' class='stroop-blue'>CHAIR</p>", "response": "b", "stimulus-type": "unrelated", "word": "CHAIR", "color": "blue", "correct_response": "b", "trial_id": "stroop-trial-1-unrelated-30", "trial_type": "html-keyboard-response", "trial_index": 220, "time_elapsed": 460038, "internal_node_id": "0.0-8.0-34.0"}}, {"uniqueid": "w64877162:a54504938", "current_trial": 221, "dateTime": 1664464358568, "trialdata": {"rt": 429, "stimulus": "<p id='stroop-text' class='stroop-blue'>BRIDGE</p>", "response": "b", "stimulus-type": "unrelated", "word": "BRIDGE", "color": "blue", "correct_response": "b", "trial_id": "stroop-trial-1-unrelated-7", "trial_type": "html-keyboard-response", "trial_index": 221, "time_elapsed": 460974, "internal_node_id": "0.0-8.0-35.0"}}, {"uniqueid": "w64877162:a54504938", "current_trial": 222, "dateTime": 1664464359448, "trialdata": {"rt": 374, "stimulus": "<p id='stroop-text' class='stroop-blue'>RED</p>", "response": "b", "stimulus-type": "incongruent", "word": "red", "color": "blue", "correct_response": "b", "trial_id": "stroop-trial-1-incongruent-16", "trial_type