{"condition": 0, "counterbalance": 0, "assignmentId": "a73819912", "workerId": "w92929972", "hitId": "h44836946", "currenttrial": 747, "bonus": 0, "data": [{"uniqueid": "w92929972:a73819912", "current_trial": 0, "dateTime": 1664554890570, "trialdata": {"success": true, "trial_type": "fullscreen", "trial_index": 0, "time_elapsed": 4258, "internal_node_id": "0.0-0.0"}}, {"uniqueid": "w92929972:a73819912", "current_trial": 1, "dateTime": 1664554894890, "trialdata": {"view_history": [{"page_index": 0, "viewing_time": 4317}], "rt": 4317, "trial_id": "exp_instructions_distractor", "trial_type": "instructions", "trial_index": 1, "time_elapsed": 8578, "internal_node_id": "0.0-1.0"}}, {"uniqueid": "w92929972:a73819912", "current_trial": 2, "dateTime": 1664554925343, "trialdata": {"view_history": [{"page_index": 0, "viewing_time": 30452}], "rt": 30452, "trial_id": "color_game_instructions", "trial_type": "instructions", "trial_index": 2, "time_elapsed": 39031, "internal_node_id": "0.0-2.0"}}, {"uniqueid": "w92929972:a73819912", "current_trial": 3, "dateTime": 1664554930464, "trialdata": {"rt": 5119, "stimulus": "<h1> Get ready to start the game! </h1>\n\nThank you for reading the instructions. Get ready start with the first of 5 block(s) of this game.\n<br><br>\nIn this first block, you will complete 90 rounds of this game before moving on.\n<br><br>\nRemember, the better you perform, the bigger your bonus will be!\n<br><br>\n<div style='text-align: center;'>Press <code>space</code> to begin.</div>", "response": " ", "trial_id": "stroop_1_ready_1", "trial_type": "html-keyboard-response", "trial_index": 3, "time_elapsed": 44152, "internal_node_id": "0.0-3.0"}}, {"uniqueid": "w92929972:a73819912", "current_trial": 4, "dateTime": 1664554931876, "trialdata": {"rt": 1407, "stimulus": "<p id='stroop-text' class='stroop-green'>MONKEY</p>", "response": "g", "stimulus-type": "unrelated", "word": "MONKEY", "color": "green", "correct_response": "g", "trial_id": "stroop-trial-1-unrelated-12", "trial_type": "html-keyboard-response", "trial_index": 4, "time_elapsed": 45564, "internal_node_id": "0.0-4.0-0.0"}}, {"uniqueid": "w92929972:a73819912", "current_trial": 5, "dateTime": 1664554933339, "trialdata": {"rt": 961, "stimulus": "<p id='stroop-text' class='stroop-red'>YELLOW</p>", "response": "y", "stimulus-type": "incongruent", "word": "yellow", "color": "red", "correct_response": "r", "trial_id": "stroop-trial-1-incongruent-24", "trial_type": "html-keyboard-response", "trial_index": 5, "time_elapsed": 47027, "internal_node_id": "0.0-4.0-1.0"}}, {"uniqueid": "w92929972:a73819912", "current_trial": 6, "dateTime": 1664554934953, "trialdata": {"rt": 1113, "stimulus": "<p id='stroop-text' class='stroop-green'>GREEN</p>", "response": "g", "stimulus-type": "congruent", "word": "green", "color": "green", "correct_response": "g", "trial_id": "stroop-trial-1-congruent-17", "trial_type": "html-keyboard-response", "trial_index": 6, "time_elapsed": 48641, "internal_node_id": "0.0-4.0-2.0"}}, {"uniqueid": "w92929972:a73819912", "current_trial": 7, "dateTime": 1664554936223, "trialdata": {"rt": 768, "stimulus": "<p id='stroop-text' class='stroop-blue'>BOAT</p>", "response": "b", "stimulus-type": "unrelated", "word": "BOAT", "color": "blue", "correct_response": "b", "trial_id": "stroop-trial-1-unrelated-14", "trial_type": "html-keyboard-response", "trial_index": 7, "time_elapsed": 49911, "internal_node_id": "0.0-4.0-3.0"}}, {"uniqueid": "w92929972:a73819912", "current_trial": 8, "dateTime": 1664554937535, "trialdata": {"rt": 810, "stimulus": "<p id='stroop-text' class='stroop-green'>BRAIN</p>", "response": "b", "stimulus-type": "unrelated", "word": "BRAIN", "color": "green", "correct_response": "g", "trial_id": "stroop-trial-1-unrelated-23", "trial_type": "html-keyboard-response", "trial_index": 8, "time_elapsed": 51223, "internal_node_id": "0.0-4.0-4.0"}}, {"uniqueid": "w92929972:a73819912", "current_trial": 9, "dateTime": 1664554939981, "trialdata": {"rt": 1945, "stimulus": "<p id='stroop-text' class='stroop-green'>GREEN</p>", "response": "g", "stimulus-type": "congruent", "word": "green", "color": "green", "correct_response": "g", "trial_id": "stroop-trial-1-congruent-22", "trial_type": "html-keyboard-response", "trial_index": 9, "time_elapsed": 53669, "internal_node_id": "0.0-4.0-5.0"}}, {"uniqueid": "w92929972:a73819912", "current_trial": 10, "dateTime": 1664554941647, "trialdata": {"rt": 1165, "stimulus": "<p id='stroop-text' class='stroop-blue'>YELLOW</p>", "response": "b", "stimulus-type": "incongruent", "word": "yellow", "color": "blue", "correct_response": "b", "trial_id": "stroop-trial-1-incongruent-21", "trial_type": "html-keyboard-response", "trial_index": 10, "time_elapsed": 55334, "internal_node_id": "0.0-4.0-6.0"}}, {"uniqueid": "w92929972:a73819912", "current_trial": 11, "dateTime": 1664554943983, "trialdata": {"rt": 1833, "stimulus": "<p id='stroop-text' class='stroop-green'>GREEN</p>", "response": "g", "stimulus-type": "congruent", "word": "green", "color": "green", "correct_response": "g", "trial_id": "stroop-trial-1-congruent-7", "trial_type": "html-keyboard-response", "trial_index": 11, "time_elapsed": 57671, "internal_node_id": "0.0-4.0-7.0"}}, {"uniqueid": "w92929972:a73819912", "current_trial": 12, "dateTime": 1664554945624, "trialdata": {"rt": 1140, "stimulus": "<p id='stroop-text' class='stroop-green'>RED</p>", "response": "g", "stimulus-type": "incongruent", "word": "red", "color": "green", "correct_response": "g", "trial_id": "stroop-trial-1-incongruent-9", "trial_type": "html-keyboard-response", "trial_index": 12, "time_elapsed": 59312, "internal_node_id": "0.0-4.0-8.0"}}, {"uniqueid": "w92929972:a73819912", "current_trial": 13, "dateTime": 1664554947161, "trialdata": {"rt": 1023, "stimulus": "<p id='stroop-text' class='stroop-blue'>BOAT</p>", "response": "b", "stimulus-type": "unrelated", "word": "BOAT", "color": "blue", "correct_response": "b", "trial_id": "stroop-trial-1-unrelated-18", "trial_type": "html-keyboard-response", "trial_index": 13, "time_elapsed": 60849, "internal_node_id": "0.0-4.0-9.0"}}, {"uniqueid": "w92929972:a73819912", "current_trial": 14, "dateTime": 1664554948372, "trialdata": {"rt": 710, "stimulus": "<p id='stroop-text' class='stroop-green'>BLUE</p>", "response": "g", "stimulus-type": "incongruent", "word": "blue", "color": "green", "correct_response": "g", "trial_id": "stroop-trial-1-incongruent-30", "trial_type": "html-keyboard-response", "trial_index": 14, "time_elapsed": 62059, "internal_node_id": "0.0-4.0-10.0"}}, {"uniqueid": "w92929972:a73819912", "current_trial": 15, "dateTime": 1664554949859, "trialdata": {"rt": 985, "stimulus": "<p id='stroop-text' class='stroop-red'>RED</p>", "response": "r", "stimulus-type": "congruent", "word": "red", "color": "red", "correct_response": "r", "trial_id": "stroop-trial-1-congruent-25", "trial_type": "html-keyboard-response", "trial_index": 15, "time_elapsed": 63546, "internal_node_id": "0.0-4.0-11.0"}}, {"uniqueid": "w92929972:a73819912", "current_trial": 16, "dateTime": 1664554951591, "trialdata": {"rt": 1230, "stimulus": "<p id='stroop-text' class='stroop-red'>YELLOW</p>", "response": "r", "stimulus-type": "incongruent", "word": "yellow", "color": "red", "correct_response": "r", "trial_id": "stroop-trial-1-incongruent-29", "trial_type": "html-keyboard-response", "trial_index": 16, "time_elapsed": 65279, "internal_node_id": "0.0-4.0-12.0"}}, {"uniqueid": "w92929972:a73819912", "current_trial": 17, "dateTime": 1664554952978, "trialdata": {"rt": 885, "stimulus": "<p id='stroop-text' class='stroop-green'>CHAIR</p>", "response": "g", "stimulus-type": "unrelated", "word": "CHAIR", "color": "green", "correct_response": "g", "trial_id": "stroop-trial-1-unrelated-20", "trial_type": "html-keyboard-response", "trial_index": 17, "time_elapsed": 66665, "internal_node_id": "0.0-4.0-13.0"}}, {"uniqueid": "w92929972:a73819912", "current_trial": 18, "dateTime": 1664554954466, "trialdata": {"rt": 987, "stimulus": "<p id='stroop-text' class='stroop-green'>BLUE</p>", "response": "g", "stimulus-type": "incongruent", "word": "blue", "color": "green", "correct_response": "g", "trial_id": "stroop-trial-1-incongruent-4", "trial_type": "html-keyboard-response", "trial_index": 18, "time_elapsed": 68154, "internal_node_id": "0.0-4.0-14.0"}}, {"uniqueid": "w92929972:a73819912", "current_trial": 19, "dateTime": 1664554956013, "trialdata": {"rt": 1031, "stimulus": "<p id='stroop-text' class='stroop-green'>BOAT</p>", "response": "g", "stimulus-type": "unrelated", "word": "BOAT", "color": "green", "correct_response": "g", "trial_id": "stroop-trial-1-unrelated-19", "trial_type": "html-keyboard-response", "trial_index": 19, "time_elapsed": 69701, "internal_node_id": "0.0-4.0-15.0"}}, {"uniqueid": "w92929972:a73819912", "current_trial": 20, "dateTime": 1664554957427, "trialdata": {"rt": 912, "stimulus": "<p id='stroop-text' class='stroop-red'>RED</p>", "response": "r", "stimulus-type": "congruent", "word": "red", "color": "red", "correct_response": "r", "trial_id": "stroop-trial-1-congruent-8", "trial_type": "html-keyboard-response", "trial_index": 20, "time_elapsed": 71114, "internal_node_id": "0.0-4.0-16.0"}}, {"uniqueid": "w92929972:a73819912", "current_trial": 21, "dateTime": 1664554958805, "trialdata": {"rt": 875, "stimulus": "<p id='stroop-text' class='stroop-yellow'>BLUE</p>", "response": "y", "stimulus-type": "incongruent", "word": "blue", "color": "yellow", "correct_response": "y", "trial_id": "stroop-trial-1-incongruent-11", "trial_type": "html-keyboard-response", "trial_index": 21, "time_elapsed": 72493, "internal_node_id": "0.0-4.0-17.0"}}, {"uniqueid": "w92929972:a73819912", "current_trial": 22, "dateTime": 1664554960101, "trialdata": {"rt": 795, "stimulus": "<p id='stroop-text' class='stroop-red'>RED</p>", "response": "r", "stimulus-type": "congruent", "word": "red", "color": "red", "correct_response": "r", "trial_id": "stroop-trial-1-congruent-28", "trial_type": "html-keyboard-response", "trial_index": 22, "time_elapsed": 73789, "internal_node_id": "0.0-4.0-18.0"}}, {"uniqueid": "w92929972:a73819912", "current_trial": 23, "dateTime": 1664554961051, "trialdata": {"rt": 448, "stimulus": "<p id='stroop-text' class='stroop-red'>RED</p>", "response": "r", "stimulus-type": "congruent", "word": "red", "color": "red", "correct_response": "r", "trial_id": "stroop-trial-1-congruent-29", "trial_type": "html-keyboard-response", "trial_index": 23, "time_elapsed": 74739, "internal_node_id": "0.0-4.0-19.0"}}, {"uniqueid": "w92929972:a73819912", "current_trial": 24, "dateTime": 1664554962356, "trialdata": {"rt": 803, "stimulus": "<p id='stroop-text' class='stroop-yellow'>BLUE</p>", "response": "y", "stimulus-type": "incongruent", "word": "blue", "color": "yellow", "correct_response": "y", "trial_id": "stroop-trial-1-incongruent-12", "trial_type": "html-keyboard-response", "trial_index": 24, "time_elapsed": 76043, "internal_node_id": "0.0-4.0-20.0"}}, {"uniqueid": "w92929972:a73819912", "current_trial": 25, "dateTime": 1664554963843, "trialdata": {"rt": 986, "stimulus": "<p id='stroop-text' class='stroop-green'>YELLOW</p>", "response": "g", "stimulus-type": "incongruent", "word": "yellow", "color": "green", "correct_response": "g", "trial_id": "stroop-trial-1-incongruent-28", "trial_type": "html-keyboard-response", "trial_index": 25, "time_elapsed": 77531, "internal_node_id": "0.0-4.0-21.0"}}, {"uniqueid": "w92929972:a73819912", "current_trial": 26, "dateTime": 1664554964744, "trialdata": {"rt": 400, "stimulus": "<p id='stroop-text' class='stroop-green'>GREEN</p>", "response": "g", "stimulus-type": "congruent", "word": "green", "color": "green", "correct_response": "g", "trial_id": "stroop-trial-1-congruent-27", "trial_type": "html-keyboard-response", "trial_index": 26, "time_elapsed": 78431, "internal_node_id": "0.0-4.0-22.0"}}, {"uniqueid": "w92929972:a73819912", "current_trial": 27, "dateTime": 1664554965861, "trialdata": {"rt": 615, "stimulus": "<p id='stroop-text' class='stroop-red'>RED</p>", "response": "r", "stimulus-type": "congruent", "word": "red", "color": "red", "correct_response": "r", "trial_id": "stroop-trial-1-congruent-18", "trial_type": "html-keyboard-response", "trial_index": 27, "time_elapsed": 79548, "internal_node_id": "0.0-4.0-23.0"}}, {"uniqueid": "w92929972:a73819912", "current_trial": 28, "dateTime": 1664554967215, "trialdata": {"rt": 853, "stimulus": "<p id='stroop-text' class='stroop-blue'>CHAIR</p>", "response": "b", "stimulus-type": "unrelated", "word": "CHAIR", "color": "blue", "correct_response": "b", "trial_id": "stroop-trial-1-unrelated-11", "trial_type": "html-keyboard-response", "trial_index": 28, "time_elapsed": 80903, "internal_node_id": "0.0-4.0-24.0"}}, {"uniqueid": "w92929972:a73819912", "current_trial": 29, "dateTime": 1664554968711, "trialdata": {"rt": 994, "stimulus": "<p id='stroop-text' class='stroop-yellow'>GREEN</p>", "response": "y", "stimulus-type": "incongruent", "word": "green", "color": "yellow", "correct_response": "y", "trial_id": "stroop-trial-1-incongruent-13", "trial_type": "html-keyboard-response", "trial_index": 29, "time_elapsed": 82399, "internal_node_id": "0.0-4.0-25.0"}}, {"uniqueid": "w92929972:a73819912", "current_trial": 30, "dateTime": 1664554970375, "trialdata": {"rt": 1162, "stimulus": "<p id='stroop-text' class='stroop-red'>BRAIN</p>", "response": "r", "stimulus-type": "unrelated", "word": "BRAIN", "color": "red", "correct_response": "r", "trial_id": "stroop-trial-1-unrelated-29", "trial_type": "html-keyboard-response", "trial_index": 30, "time_elapsed": 84063, "internal_node_id": "0.0-4.0-26.0"}}, {"uniqueid": "w92929972:a73819912", "current_trial": 31, "dateTime": 1664554971485, "trialdata": {"rt": 609, "stimulus": "<p id='stroop-text' class='stroop-yellow'>STONE</p>", "response": "y", "stimulus-type": "unrelated", "word": "STONE", "color": "yellow", "correct_response": "y", "trial_id": "stroop-trial-1-unrelated-22", "trial_type": "html-keyboard-response", "trial_index": 31, "time_elapsed": 85173, "internal_node_id": "0.0-4.0-27.0"}}, {"uniqueid": "w92929972:a73819912", "current_trial": 32, "dateTime": 1664554972982, "trialdata": {"rt": 995, "stimulus": "<p id='stroop-text' class='stroop-green'>GREEN</p>", "response": "g", "stimulus-type": "congruent", "word": "green", "color": "green", "correct_response": "g", "trial_id": "stroop-trial-1-congruent-21", "trial_type": "html-keyboard-response", "trial_index": 32, "time_elapsed": 86670, "internal_node_id": "0.0-4.0-28.0"}}, {"uniqueid": "w92929972:a73819912", "current_trial": 33, "dateTime": 1664554974351, "trialdata": {"rt": 866, "stimulus": "<p id='stroop-text' class='stroop-red'>BLUE</p>", "response": "b", "stimulus-type": "incongruent", "word": "blue", "color": "red", "correct_response": "r", "trial_id": "stroop-trial-1-incongruent-17", "trial_type": "html-keyboard-response", "trial_index": 33, "time_elapsed": 88038, "internal_node_id": "0.0-4.0-29.0"}}, {"uniqueid": "w92929972:a73819912", "current_trial": 34, "dateTime": 1664554975991, "trialdata": {"rt": 1139, "stimulus": "<p id='stroop-text' class='stroop-green'>YELLOW</p>", "response": "g", "stimulus-type": "incongruent", "word": "yellow", "color": "green", "correct_response": "g", "trial_id": "stroop-trial-1-incongruent-25", "trial_type": "html-keyboard-response", "trial_index": 34, "time_elapsed": 89679, "internal_node_id": "0.0-4.0-30.0"}}, {"uniqueid": "w92929972:a73819912", "current_trial": 35, "dateTime": 1664554978118, "trialdata": {"rt": 1625, "stimulus": "<p id='stroop-text' class='stroop-blue'>BRIDGE</p>", "response": "b", "stimulus-type": "unrelated", "word": "BRIDGE", "color": "blue", "correct_response": "b", "trial_id": "stroop-trial-1-unrelated-2", "trial_type": "html-keyboard-response", "trial_index": 35, "time_elapsed": 91805, "internal_node_id": "0.0-4.0-31.0"}}, {"uniqueid": "w92929972:a73819912", "current_trial": 36, "dateTime": 1664554979303, "trialdata": {"rt": 683, "stimulus": "<p id='stroop-text' class='stroop-red'>YELLOW</p>", "response": "r", "stimulus-type": "incongruent", "word": "yellow", "color": "red", "correct_response": "r", "trial_id": "stroop-trial-1-incongruent-27", "trial_type": "html-keyboard-response", "trial_index": 36, "time_elapsed": 92991, "internal_node_id": "0.0-4.0-32.0"}}, {"uniqueid": "w92929972:a73819912", "current_trial": 37, "dateTime": 1664554980547, "trialdata": {"rt": 742, "stimulus": "<p id='stroop-text' class='stroop-green'>BLUE</p>", "response": "g", "stimulus-type": "incongruent", "word": "blue", "color": "green", "correct_response": "g", "trial_id": "stroop-trial-1-incongruent-23", "trial_type": "html-keyboard-response", "trial_index": 37, "time_elapsed": 94234, "internal_node_id": "0.0-4.0-33.0"}}, {"uniqueid": "w92929972:a73819912", "current_trial": 38, "dateTime": 1664554981673, "trialdata": {"rt": 623, "stimulus": "<p id='stroop-text' class='stroop-red'>RED</p>", "response": "r", "stimulus-type": "congruent", "word": "red", "color": "red", "correct_response": "r", "trial_id": "stroop-trial-1-congruent-30", "trial_type": "html-keyboard-response", "trial_index": 38, "time_elapsed": 95361, "internal_node_id": "0.0-4.0-34.0"}}, {"uniqueid": "w92929972:a73819912", "current_trial": 39, "dateTime": 1664554982994, "trialdata": {"rt": 816, "stimulus": "<p id='stroop-text' class='stroop-green'>GREEN</p>", "response": "g", "stimulus-type": "congruent", "word": "green", "color": "green", "correct_response": "g", "trial_id": "stroop-trial-1-congruent-6", "trial_type": "html-keyboard-response", "trial_index": 39, "time_elapsed": 96682, "internal_node_id": "0.0-4.0-35.0"}}, {"uniqueid": "w92929972:a73819912", "current_trial": 40, "dateTime": 1664554984379, "trialdata": {"rt": 883, "stimulus": "<p id='stroop-text' class='stroop-green'>BLUE</p>", "response": "g", "stimulus-type": "incongruent", "word": "blue", "color": "green", "correct_response": "g", "trial_id": "stroop-trial-1-incongruent-15", "trial_type": "html-keyboard-response", "trial_index": 40, "time_elapsed": 98067, "internal_node_id": "0.0-4.0-36.0"}}, {"uniqueid": "w92929972:a73819912", "current_trial": 41, "dateTime": 1664554985413, "trialdata": {"rt": 532, "stimulus": "<p id='stroop-text' class='stroop-green'>GREEN</p>", "response": "g", "stimulus-type": "congruent", "word": "green", "color": "green", "correct_response": "g", "trial_id": "stroop-trial-1-congruent-5", "trial_type": "html-keyboard-response", "trial_index": 41, "time_elapsed": 99101, "internal_node_id": "0.0-4.0-37.0"}}, {"uniqueid": "w92929972:a73819912", "current_trial": 42, "dateTime": 1664554987313, "trialdata": {"rt": 1398, "stimulus": "<p id='stroop-text' class='stroop-blue'>BLUE</p>", "response": "b", "stimulus-type": "congruent", "word": "blue", "color": "blue", "correct_response": "b", "trial_id": "stroop-trial-1-congruent-13", "trial_type": "html-keyboard-response", "trial_index": 42, "time_elapsed": 101001, "internal_node_id": "0.0-4.0-38.0"}}, {"uniqueid": "w92929972:a73819912", "current_trial": 43, "dateTime": 1664554988684, "trialdata": {"rt": 870, "stimulus": "<p id='stroop-text' class='stroop-yellow'>BLUE</p>", "response": "y", "stimulus-type": "incongruent", "word": "blue", "color": "yellow", "correct_response": "y", "trial_id": "stroop-trial-1-incongruent-16", "trial_type": "html-keyboard-response", "trial_index": 43, "time_elapsed": 102372, "internal_node_id": "0.0-4.0-39.0"}}, {"uniqueid": "w92929972:a73819912", "current_trial": 44, "dateTime": 1664554990020, "trialdata": {"rt": 835, "stimulus": "<p id='stroop-text' class='stroop-green'>STONE</p>", "response": "g", "stimulus-type": "unrelated", "word": "STONE", "color": "green", "correct_response": "g", "trial_id": "stroop-trial-1-unrelated-7", "trial_type": "html-keyboard-response", "trial_index": 44, "time_elapsed": 103708, "internal_node_id": "0.0-4.0-40.0"}}, {"uniqueid": "w92929972:a73819912", "current_trial": 45, "dateTime": 1664554991466, "trialdata": {"rt": 945, "stimulus": "<p id='stroop-text' class='stroop-blue'>BLUE</p>", "response": "b", "stimulus-type": "congruent", "word": "blue", "color": "blue", "correct_response": "b", "trial_id": "stroop-trial-1-congruent-26", "trial_type": "html-keyboard-response", "trial_index": 45, "time_elapsed": 105154, "internal_node_id": "0.0-4.0-41.0"}}, {"uniqueid": "w92929972:a73819912", "current_trial": 46, "dateTime": 1664554992610, "trialdata": {"rt": 633, "stimulus": "<p id='stroop-text' class='stroop-blue'>BLUE</p>", "response": "b", "stimulus-type": "congruent", "word": "blue", "color": "blue", "correct_response": "b", "trial_id": "stroop-trial-1-congruent-10", "trial_type": "html-keyboard-response", "trial_index": 46, "time_elapsed": 106298, "internal_node_id": "0.0-4.0-42.0"}}, {"uniqueid": "w92929972:a73819912", "current_trial": 47, "dateTime": 1664554993602, "trialdata": {"rt": 490, "stimulus": "<p id='stroop-text' class='stroop-blue'>BLUE</p>", "response": "b", "stimulus-type": "congruent", "word": "blue", "color": "blue", "correct_response": "b", "trial_id": "stroop-trial-1-congruent-11", "trial_type": "html-keyboard-response", "trial_index": 47, "time_elapsed": 107290, "internal_node_id": "0.0-4.0-43.0"}}, {"uniqueid": "w92929972:a73819912", "current_trial": 48, "dateTime": 1664554994780, "trialdata": {"rt": 676, "stimulus": "<p id='stroop-text' class='stroop-red'>BRAIN</p>", "response": "r", "stimulus-type": "unrelated", "word": "BRAIN", "color": "red", "correct_response": "r", "trial_id": "stroop-trial-1-unrelated-4", "trial_type": "html-keyboard-response", "trial_index": 48, "time_elapsed": 108468, "internal_node_id": "0.0-4.0-44.0"}}, {"uniqueid": "w92929972:a73819912", "current_trial": 49, "dateTime": 1664554996015, "trialdata": {"rt": 734, "stimulus": "<p id='stroop-text' class='stroop-yellow'>BOAT</p>", "response": "y", "stimulus-type": "unrelated", "word": "BOAT", "color": "yellow", "correct_response": "y", "trial_id": "stroop-trial-1-unrelated-6", "trial_type": "html-keyboard-response", "trial_index": 49, "time_elapsed": 109703, "internal_node_id": "0.0-4.0-45.0"}}, {"uniqueid": "w92929972:a73819912", "current_trial": 50, "dateTime": 1664554997908, "trialdata": {"rt": 1391, "stimulus": "<p id='stroop-text' class='stroop-blue'>SHIP</p>", "response": "b", "stimulus-type": "unrelated", "word": "SHIP", "color": "blue", "correct_response": "b", "trial_id": "stroop-trial-1-unrelated-16", "trial_type": "html-keyboard-response", "trial_index": 50, "time_elapsed": 111595, "internal_node_id": "0.0-4.0-46.0"}}, {"uniqueid": "w92929972:a73819912", "current_trial": 51, "dateTime": 1664554999453, "trialdata": {"rt": 1043, "stimulus": "<p id='stroop-text' class='stroop-green'>RED</p>", "response": "g", "stimulus-type": "incongruent", "word": "red", "color": "green", "correct_response": "g", "trial_id": "stroop-trial-1-incongruent-8", "trial_type": "html-keyboard-response", "trial_index": 51, "time_elapsed": 113141, "internal_node_id": "0.0-4.0-47.0"}}, {"uniqueid": "w92929972:a73819912", "current_trial": 52, "dateTime": 1664555000478, "trialdata": {"rt": 523, "stimulus": "<p id='stroop-text' class='stroop-green'>DOG</p>", "response": "g", "stimulus-type": "unrelated", "word": "DOG", "color": "green", "correct_response": "g", "trial_id": "stroop-trial-1-unrelated-26", "trial_type": "html-keyboard-response", "trial_index": 52, "time_elapsed": 114166, "internal_node_id": "0.0-4.0-48.0"}}, {"uniqueid": "w92929972:a73819912", "current_trial": 53, "dateTime": 1664555001428, "trialdata": {"rt": 449, "stimulus": "<p id='stroop-text' class='stroop-green'>GREEN</p>", "response": "g", "stimulus-type": "congruent", "word": "green", "color": "green", "correct_response": "g", "trial_id": "stroop-trial-1-congruent-19", "trial_type": "html-keyboard-response", "trial_index": 53, "time_elapsed": 115116, "internal_node_id": "0.0-4.0-49.0"}}, {"uniqueid": "w92929972:a73819912", "current_trial": 54, "dateTime": 1664555002320, "trialdata": {"rt": 390, "stimulus": "<p id='stroop-text' class='stroop-green'>GREEN</p>", "response": "g", "stimulus-type": "congruent", "word": "green", "color": "green", "correct_response": "g", "trial_id": "stroop-trial-1-congruent-4", "trial_type": "html-keyboard-response", "trial_index": 54, "time_elapsed": 116008, "internal_node_id": "0.0-4.0-50.0"}}, {"uniqueid": "w92929972:a73819912", "current_trial": 55, "dateTime": 1664555003447, "trialdata": {"rt": 625, "stimulus": "<p id='stroop-text' class='stroop-red'>YELLOW</p>", "response": "r", "stimulus-type": "incongruent", "word": "yellow", "color": "red", "correct_response": "r", "trial_id": "stroop-trial-1-incongruent-10", "trial_type": "html-keyboard-response", "trial_index": 55, "time_elapsed": 117135, "internal_node_id": "0.0-4.0-51.0"}}, {"uniqueid": "w92929972:a73819912", "current_trial": 56, "dateTime": 1664555004346, "trialdata": {"rt": 397, "stimulus": "<p id='stroop-text' class='stroop-red'>YELLOW</p>", "response": "r", "stimulus-type": "incongruent", "word": "yellow", "color": "red", "correct_response": "r", "trial_id": "stroop-trial-1-incongruent-5", "trial_type": "html-keyboard-response", "trial_index": 56, "time_elapsed": 118034, "internal_node_id": "0.0-4.0-52.0"}}, {"uniqueid": "w92929972:a73819912", "current_trial": 57, "dateTime": 1664555005253, "trialdata": {"rt": 406, "stimulus": "<p id='stroop-text' class='stroop-green'>GREEN</p>", "response": "r", "stimulus-type": "congruent", "word": "green", "color": "green", "correct_response": "g", "trial_id": "stroop-trial-1-congruent-20", "trial_type": "html-keyboard-response", "trial_index": 57, "time_elapsed": 118941, "internal_node_id": "0.0-4.0-53.0"}}, {"uniqueid": "w92929972:a73819912", "current_trial": 58, "dateTime": 1664555006917, "trialdata": {"rt": 1162, "stimulus": "<p id='stroop-text' class='stroop-red'>YELLOW</p>", "response": "r", "stimulus-type": "incongruent", "word": "yellow", "color": "red", "correct_response": "r", "trial_id": "stroop-trial-1-incongruent-18", "trial_type": "html-keyboard-response", "trial_index": 58, "time_elapsed": 120605, "internal_node_id": "0.0-4.0-54.0"}}, {"uniqueid": "w92929972:a73819912", "current_trial": 59, "dateTime": 1664555008287, "trialdata": {"rt": 867, "stimulus": "<p id='stroop-text' class='stroop-blue'>YELLOW</p>", "response": "b", "stimulus-type": "incongruent", "word": "yellow", "color": "blue", "correct_response": "b", "trial_id": "stroop-trial-1-incongruent-6", "trial_type": "html-keyboard-response", "trial_index": 59, "time_elapsed": 121975, "internal_node_id": "0.0-4.0-55.0"}}, {"uniqueid": "w92929972:a73819912", "current_trial": 60, "dateTime": 1664555009633, "trialdata": {"rt": 844, "stimulus": "<p id='stroop-text' class='stroop-green'>YELLOW</p>", "response": "g", "stimulus-type": "incongruent", "word": "yellow", "color": "green", "correct_response": "g", "trial_id": "stroop-trial-1-incongruent-26", "trial_type": "html-keyboard-response", "trial_index": 60, "time_elapsed": 123320, "internal_node_id": "0.0-4.0-56.0"}}, {"uniqueid": "w92929972:a73819912", "current_trial": 61, "dateTime": 1664555011078, "trialdata": {"rt": 943, "stimulus": "<p id='stroop-text' class='stroop-blue'>FORK</p>", "response": "b", "stimulus-type": "unrelated", "word": "FORK", "color": "blue", "correct_response": "b", "trial_id": "stroop-trial-1-unrelated-9", "trial_type": "html-keyboard-response", "trial_index": 61, "time_elapsed": 124765, "internal_node_id": "0.0-4.0-57.0"}}, {"uniqueid": "w92929972:a73819912", "current_trial": 62, "dateTime": 1664555012422, "trialdata": {"rt": 841, "stimulus": "<p id='stroop-text' class='stroop-green'>BLUE</p>", "response": "g", "stimulus-type": "incongruent", "word": "blue", "color": "green", "correct_response": "g", "trial_id": "stroop-trial-1-incongruent-7", "trial_type": "html-keyboard-response", "trial_index": 62, "time_elapsed": 126110, "internal_node_id": "0.0-4.0-58.0"}}, {"uniqueid": "w92929972:a73819912", "current_trial": 63, "dateTime": 1664555013600, "trialdata": {"rt": 676, "stimulus": "<p id='stroop-text' class='stroop-blue'>BOAT</p>", "response": "b", "stimulus-type": "unrelated", "word": "BOAT", "color": "blue", "correct_response": "b", "trial_id": "stroop-trial-1-unrelated-17", "trial_type": "html-keyboard-response", "trial_index": 63, "time_elapsed": 127288, "internal_node_id": "0.0-4.0-59.0"}}, {"uniqueid": "w92929972:a73819912", "current_trial": 64, "dateTime": 1664555014809, "trialdata": {"rt": 697, "stimulus": "<p id='stroop-text' class='stroop-blue'>STONE</p>", "response": "b", "stimulus-type": "unrelated", "word": "STONE", "color": "blue", "correct_response": "b", "trial_id": "stroop-trial-1-unrelated-27", "trial_type": "html-keyboard-response", "trial_index": 64, "time_elapsed": 128496, "internal_node_id": "0.0-4.0-60.0"}}, {"uniqueid": "w92929972:a73819912", "current_trial": 65, "dateTime": 1664555015809, "trialdata": {"rt": 496, "stimulus": "<p id='stroop-text' class='stroop-green'>GREEN</p>", "response": "g", "stimulus-type": "congruent", "word": "green", "color": "green", "correct_response": "g", "trial_id": "stroop-trial-1-congruent-2", "trial_type": "html-keyboard-response", "trial_index": 65, "time_elapsed": 129497, "internal_node_id": "0.0-4.0-61.0"}}, {"uniqueid": "w92929972:a73819912", "current_trial": 66, "dateTime": 1664555016952, "trialdata": {"rt": 642, "stimulus": "<p id='stroop-text' class='stroop-yellow'>YELLOW</p>", "response": "y", "stimulus-type": "congruent", "word": "yellow", "color": "yellow", "correct_response": "y", "trial_id": "stroop-trial-1-congruent-9", "trial_type": "html-keyboard-response", "trial_index": 66, "time_elapsed": 130640, "internal_node_id": "0.0-4.0-62.0"}}, {"uniqueid": "w92929972:a73819912", "current_trial": 67, "dateTime": 1664555019087, "trialdata": {"rt": 1633, "stimulus": "<p id='stroop-text' class='stroop-blue'>RED</p>", "response": "b", "stimulus-type": "incongruent", "word": "red", "color": "blue", "correct_response": "b", "trial_id": "stroop-trial-1-incongruent-3", "trial_type": "html-keyboard-response", "trial_index": 67, "time_elapsed": 132775, "internal_node_id": "0.0-4.0-63.0"}}, {"uniqueid": "w92929972:a73819912", "current_trial": 68, "dateTime": 1664555020281, "trialdata": {"rt": 693, "stimulus": "<p id='stroop-text' class='stroop-blue'>DOG</p>", "response": "b", "stimulus-type": "unrelated", "word": "DOG", "color": "blue", "correct_response": "b", "trial_id": "stroop-trial-1-unrelated-8", "trial_type": "html-keyboard-response", "trial_index": 68, "time_elapsed": 133969, "internal_node_id": "0.0-4.0-64.0"}}, {"uniqueid": "w92929972:a73819912", "current_trial": 69, "dateTime": 1664555021383, "trialdata": {"rt": 600, "stimulus": "<p id='stroop-text' class='stroop-green'>CHAIR</p>", "response": "g", "stimulus-type": "unrelated", "word": "CHAIR", "color": "green", "correct_response": "g", "trial_id": "stroop-trial-1-unrelated-15", "trial_type": "html-keyboard-response", "trial_index": 69, "time_elapsed": 135070, "internal_node_id": "0.0-4.0-65.0"}}, {"uniqueid": "w92929972:a73819912", "current_trial": 70, "dateTime": 1664555022610, "trialdata": {"rt": 725, "stimulus": "<p id='stroop-text' class='stroop-blue'>RED</p>", "response": "b", "stimulus-type": "incongruent", "word": "red", "color": "blue", "correct_response": "b", "trial_id": "stroop-trial-1-incongruent-22", "trial_type": "html-keyboard-response", "trial_index": 70, "time_elapsed": 136298, "internal_node_id": "0.0-4.0-66.0"}}, {"uniqueid": "w92929972:a73819912", "current_trial": 71, "dateTime": 1664555023519, "trialdata": {"rt": 408, "stimulus": "<p id='stroop-text' class='stroop-red'>RED</p>", "response": "r", "stimulus-type": "congruent", "word": "red", "color": "red", "correct_response": "r", "trial_id": "stroop-trial-1-congruent-15", "trial_type": "html-keyboard-response", "trial_index": 71, "time_elapsed": 137207, "internal_node_id": "0.0-4.0-67.0"}}, {"uniqueid": "w92929972:a73819912", "current_trial": 72, "dateTime": 1664555024679, "trialdata": {"rt": 657, "stimulus": "<p id='stroop-text' class='stroop-blue'>BRAIN</p>", "response": "b", "stimulus-type": "unrelated", "word": "BRAIN", "color": "blue", "correct_response": "b", "trial_id": "stroop-trial-1-unrelated-5", "trial_type": "html-keyboard-response", "trial_index": 72, "time_elapsed": 138366, "internal_node_id": "0.0-4.0-68.0"}}, {"uniqueid": "w92929972:a73819912", "current_trial": 73, "dateTime": 1664555025982, "trialdata": {"rt": 802, "stimulus": "<p id='stroop-text' class='stroop-green'>FORK</p>", "response": "g", "stimulus-type": "unrelated", "word": "FORK", "color": "green", "correct_response": "g", "trial_id": "stroop-trial-1-unrelated-21", "trial_type": "html-keyboard-response", "trial_index": 73, "time_elapsed": 139670, "internal_node_id": "0.0-4.0-69.0"}}, {"uniqueid": "w92929972:a73819912", "current_trial": 74, "dateTime": 1664555027261, "trialdata": {"rt": 771, "stimulus": "<p id='stroop-text' class='stroop-yellow'>WINDOW</p>", "response": "y", "stimulus-type": "unrelated", "word": "WINDOW", "color": "yellow", "correct_response": "y", "trial_id": "stroop-trial-1-unrelated-24", "trial_type": "html-keyboard-response", "trial_index": 74, "time_elapsed": 140948, "internal_node_id": "0.0-4.0-70.0"}}, {"uniqueid": "w92929972:a73819912", "current_trial": 75, "dateTime": 1664555028976, "trialdata": {"rt": 1213, "stimulus": "<p id='stroop-text' class='stroop-red'>RED</p>", "response": "r", "stimulus-type": "congruent", "word": "red", "color": "red", "correct_response": "r", "trial_id": "stroop-trial-1-congruent-23", "trial_type": "html-keyboard-response", "trial_index": 75, "time_elapsed": 142664, "internal_node_id": "0.0-4.0-71.0"}}, {"uniqueid": "w92929972:a73819912", "current_trial": 76, "dateTime": 1664555030564, "trialdata": {"rt": 1076, "stimulus": "<p id='stroop-text' class='stroop-green'>BLUE</p>", "response": "g", "stimulus-type": "incongruent", "word": "blue", "color": "green", "correct_response": "g", "trial_id": "stroop-trial-1-incongruent-20", "trial_type": "html-keyboard-response", "trial_index": 76, "time_elapsed": 144252, "internal_node_id": "0.0-4.0-72.0"}}, {"uniqueid": "w92929972:a73819912", "current_trial": 77, "dateTime": 1664555031724, "trialdata": {"rt": 657, "stimulus": "<p id='stroop-text' class='stroop-red'>BRAIN</p>", "response": "b", "stimulus-type": "unrelated", "word": "BRAIN", "color": "red", "correct_response": "r", "trial_id": "stroop-trial-1-unrelated-1", "trial_type": "html-keyboard-response", "trial_index": 77, "time_elapsed": 145412, "internal_node_id": "0.0-4.0-73.0"}}, {"uniqueid": "w92929972:a73819912", "current_trial": 78, "dateTime": 1664555032893, "trialdata": {"rt": 667, "stimulus": "<p id='stroop-text' class='stroop-blue'>BLUE</p>", "response": "b", "stimulus-type": "congruent", "word": "blue", "color": "blue", "correct_response": "b", "trial_id": "stroop-trial-1-congruent-14", "trial_type": "html-keyboard-response", "trial_index": 78, "time_elapsed": 146581, "internal_node_id": "0.0-4.0-74.0"}}, {"uniqueid": "w92929972:a73819912", "current_trial": 79, "dateTime": 1664555034180, "trialdata": {"rt": 784, "stimulus": "<p id='stroop-text' class='stroop-yellow'>BLUE</p>", "response": "y", "stimulus-type": "incongruent", "word": "blue", "color": "yellow", "correct_response": "y", "trial_id": "stroop-trial-1-incongruent-1", "trial_type": "html-keyboard-response", "trial_index": 79, "time_elapsed": 147868, "internal_node_id": "0.0-4.0-75.0"}}, {"uniqueid": "w92929972:a73819912", "current_trial": 80, "dateTime": 1664555036029, "trialdata": {"rt": 1347, "stimulus": "<p id='stroop-text' class='stroop-blue'>BLUE</p>", "response": "b", "stimulus-type": "congruent", "word": "blue", "color": "blue", "correct_response": "b", "trial_id": "stroop-trial-1-congruent-3", "trial_type": "html-keyboard-response", "trial_index": 80, "time_elapsed": 149717, "internal_node_id": "0.0-4.0-76.0"}}, {"uniqueid": "w92929972:a73819912", "current_trial": 81, "dateTime": 1664555037920, "trialdata": {"rt": 1388, "stimulus": "<p id='stroop-text' class='stroop-blue'>GREEN</p>", "response": "b", "stimulus-type": "incongruent", "word": "green", "color": "blue", "correct_response": "b", "trial_id": "stroop-trial-1-incongruent-19", "trial_type": "html-keyboard-response", "trial_index": 81, "time_elapsed": 151608, "internal_node_id": "0.0-4.0-77.0"}}, {"uniqueid": "w92929972:a73819912", "current_trial": 82, "dateTime": 1664555039181, "trialdata": {"rt": 759, "stimulus": "<p id='stroop-text' class='stroop-red'>BOAT</p>", "response": "r", "stimulus-type": "unrelated", "word": "BOAT", "color": "red", "correct_response": "r", "trial_id": "stroop-trial-1-unrelated-10", "trial_type": "html-keyboard-response", "trial_index": 82, "time_elapsed": 152868, "internal_node_id": "0.0-4.0-78.0"}}, {"uniqueid": "w92929972:a73819912", "current_trial": 83, "dateTime": 1664555040173, "trialdata": {"rt": 489, "stimulus": "<p id='stroop-text' class='stroop-green'>GREEN</p>", "response": "g", "stimulus-type": "congruent", "word": "green", "color": "green", "correct_response": "g", "trial_id": "stroop-trial-1-congruent-1", "trial_type": "html-keyboard-response", "trial_index": 83, "time_elapsed": 153861, "internal_node_id": "0.0-4.0-79.0"}}, {"uniqueid": "w92929972:a73819912", "current_trial": 84, "dateTime": 1664555041392, "trialdata": {"rt": 717, "stimulus": "<p id='stroop-text' class='stroop-yellow'>SHIP</p>", "response": "y", "stimulus-type": "unrelated", "word": "SHIP", "color": "yellow", "correct_response": "y", "trial_id": "stroop-trial-1-unrelated-28", "trial_type": "html-keyboard-response", "trial_index": 84, "time_elapsed": 155080, "internal_node_id": "0.0-4.0-80.0"}}, {"uniqueid": "w92929972:a73819912", "current_trial": 85, "dateTime": 1664555042905, "trialdata": {"rt": 1010, "stimulus": "<p id='stroop-text' class='stroop-red'>SHIP</p>", "response": "r", "stimulus-type": "unrelated", "word": "SHIP", "color": "red", "correct_response": "r", "trial_id": "stroop-trial-1-unrelated-13", "trial_type": "html-keyboard-response", "trial_index": 85, "time_elapsed": 156592, "internal_node_id": "0.0-4.0-81.0"}}, {"uniqueid": "w92929972:a73819912", "current_trial": 86, "dateTime": 1664555044107, "trialdata": {"rt": 700, "stimulus": "<p id='stroop-text' class='stroop-yellow'>BOTTLE</p>", "response": "y", "stimulus-type": "unrelated", "word": "BOTTLE", "color": "yellow", "correct_response": "y", "trial_id": "stroop-trial-1-unrelated-3", "trial_type": "html-keyboard-response", "trial_index": 86, "time_elapsed": 157795, "internal_node_id": "0.0-4.0-82.0"}}, {"uniqueid": "w92929972:a73819912", "current_trial": 87, "dateTime": 1664555045166, "trialdata": {"rt": 557, "stimulus": "<p id='stroop-text' class='stroop-yellow'>FORK</p>", "response": "y", "stimulus-type": "unrelated", "word": "FORK", "color": "yellow", "correct_response": "y", "trial_id": "stroop-trial-1-unrelated-30", "trial_type": "html-keyboard-response", "trial_index": 87, "time_elapsed": 158853, "internal_node_id": "0.0-4.0-83.0"}}, {"uniqueid": "w92929972:a73819912", "current_trial": 88, "dateTime": 1664555046403, "trialdata": {"rt": 726, "stimulus": "<p id='stroop-text' class='stroop-green'>STONE</p>", "response": "g", "stimulus-type": "unrelated", "word": "STONE", "color": "green", "correct_response": "g", "trial_id": "stroop-trial-1-unrelated-25", "trial_type": "html-keyboard-response", "trial_index": 88, "time_elapsed": 160090, "internal_node_id": "0.0-4.0-84.0"}}, {"uniqueid": "w92929972:a73819912", "current_trial": 89, "dateTime": 1664555047377, "trialdata": {"rt": 473, "stimulus": "<p id='stroop-text' class='stroop-green'>GREEN</p>", "response": "g", "stimulus-type": "congruent", "word": "green", "color": "green", "correct_response": "g", "trial_id": "stroop-trial-1-congruent-12", "trial_type": "html-keyboard-response", "trial_index": 89, "time_elapsed": 161065, "internal_node_id": "0.0-4.0-85.0"}}, {"uniqueid": "w92929972:a73819912", "current_trial": 90, "dateTime": 1664555048648, "trialdata": {"rt": 768, "stimulus": "<p id='stroop-text' class='stroop-blue'>BLUE</p>", "response": "b", "stimulus-type": "congruent", "word": "blue", "color": "blue", "correct_response": "b", "trial_id": "stroop-trial-1-congruent-24", "trial_type": "html-keyboard-response", "trial_index": 90, "time_elapsed": 162335, "internal_node_id": "0.0-4.0-86.0"}}, {"uniqueid": "w92929972:a73819912", "current_trial": 91, "dateTime": 1664555049925, "trialdata": {"rt": 775, "stimulus": "<p id='stroop-text' class='stroop-blue'>BLUE</p>", "response": "b", "stimulus-type": "congruent", "word": "blue", "color": "blue", "correct_response": "b", "trial_id": "stroop-trial-1-congruent-16", "trial_type": "html-keyboard-response", "trial_index": 91, "time_elapsed": 163613, "internal_node_id": "0.0-4.0-87.0"}}, {"uniqueid": "w92929972:a73819912", "current_trial": 92, "dateTime": 1664555051363, "trialdata": {"rt": 935, "stimulus": "<p id='stroop-text' class='stroop-yellow'>GREEN</p>", "response": "y", "stimulus-type": "incongruent", "word": "green", "color": "yellow", "correct_response": "y", "trial_id": "stroop-trial-1-incongruent-2", "trial_type": "html-keyboard-response", "trial_index": 92, "time_elapsed": 165051, "internal_node_id": "0.0-4.0-88.0"}}, {"uniqueid": "w92929972:a73819912", "current_trial": 93, "dateTime": 1664555052262, "trialdata": {"rt": 397, "stimulus": "<p id='stroop-text' class='stroop-yellow'>RED</p>", "response": "y", "stimulus-type": "incongruent", "word": "red", "color": "yellow", "correct_response": "y", "trial_id": "stroop-trial-1-incongruent-14", "trial_type": "html-keyboard-response", "trial_index": 93, "time_elapsed": 165950, "internal_node_id": "0.0-4.0-89.0"}}, {"uniqueid": "w92929972:a73819912", "current_trial": 94, "dateTime": 1664555490753, "trialdata": {"rt": 437986, "stimulus": "  <h1> End of block! </h1>\n\n  You have reached the end of the block 1/5. If you need a short break, feel free to take one now before moving on.\n\n  <br><br>\n  In the next block, you will complete another 90 rounds of this game.\n\n  <br><br>\n  <div style='text-align: center;'>Press <code>space</code> to begin.</div>\n  <br><br>\n<div style='text-align: center;'>(If the experiment doesn't continue, try clicking on the text and then pressing <code>space</code>.)</div>", "response": " ", "trial_id": "stroop_1_ready_2", "trial_type": "html-keyboard-response", "trial_index": 94, "time_elapsed": 604441, "internal_node_id": "0.0-5.0"}}, {"uniqueid": "w92929972:a73819912", "current_trial": 95, "dateTime": 1664555491897, "trialdata": {"rt": 1142, "stimulus": "<p id='stroop-text' class='stroop-blue'>BLUE</p>", "response": "b", "stimulus-type": "congruent", "word": "blue", "color": "blue", "correct_response": "b", "trial_id": "stroop-trial-1-congruent-9", "trial_type": "html-keyboard-response", "trial_index": 95, "time_elapsed": 605585, "internal_node_id": "0.0-6.0-0.0"}}, {"uniqueid": "w92929972:a73819912", "current_trial": 96, "dateTime": 1664555493132, "trialdata": {"rt": 729, "stimulus": "<p id='stroop-text' class='stroop-yellow'>BLUE</p>", "response": "y", "stimulus-type": "incongruent", "word": "blue", "color": "yellow", "correct_response": "y", "trial_id": "stroop-trial-1-incongruent-24", "trial_type": "html-keyboard-response", "trial_index": 96, "time_elapsed": 606819, "internal_node_id": "0.0-6.0-1.0"}}, {"uniqueid": "w92929972:a73819912", "current_trial": 97, "dateTime": 1664555494116, "trialdata": {"rt": 482, "stimulus": "<p id='stroop-text' class='stroop-red'>RED</p>", "response": "r", "stimulus-type": "congruent", "word": "red", "color": "red", "correct_response": "r", "trial_id": "stroop-trial-1-congruent-20", "trial_type": "html-keyboard-response", "trial_index": 97, "time_elapsed": 607804, "internal_node_id": "0.0-6.0-2.0"}}, {"uniqueid": "w92929972:a73819912", "current_trial": 98, "dateTime": 1664555495209, "trialdata": {"rt": 586, "stimulus": "<p id='stroop-text' class='stroop-yellow'>GREEN</p>", "response": "y", "stimulus-type": "incongruent", "word": "green", "color": "yellow", "correct_response": "y", "trial_id": "stroop-trial-1-incongruent-16", "trial_type": "html-keyboard-response", "trial_index": 98, "time_elapsed": 608897, "internal_node_id": "0.0-6.0-3.0"}}, {"uniqueid": "w92929972:a73819912", "current_trial": 99, "dateTime": 1664555496419, "trialdata": {"rt": 709, "stimulus": "<p id='stroop-text' class='stroop-green'>BOAT</p>", "response": "g", "stimulus-type": "unrelated", "word": "BOAT", "color": "green", "correct_response": "g", "trial_id": "stroop-trial-1-unrelated-24", "trial_type": "html-keyboard-response", "trial_index": 99, "time_elapsed": 610106, "internal_node_id": "0.0-6.0-4.0"}}, {"uniqueid": "w92929972:a73819912", "current_trial": 100, "dateTime": 1664555497605, "trialdata": {"rt": 683, "stimulus": "<p id='stroop-text' class='stroop-red'>BLUE</p>", "response": "b", "stimulus-type": "incongruent", "word": "blue", "color": "red", "correct_response": "r", "trial_id": "stroop-trial-1-incongruent-4", "trial_type": "html-keyboard-response", "trial_index": 100, "time_elapsed": 611292, "internal_node_id": "0.0-6.0-5.0"}}, {"uniqueid": "w92929972:a73819912", "current_trial": 101, "dateTime": 1664555498968, "trialdata": {"rt": 862, "stimulus": "<p id='stroop-text' class='stroop-green'>GREEN</p>", "response": "g", "stimulus-type": "congruent", "word": "green", "color": "green", "correct_response": "g", "trial_id": "stroop-trial-1-congruent-26", "trial_type": "html-keyboard-response", "trial_index": 101, "time_elapsed": 612656, "internal_node_id": "0.0-6.0-6.0"}}, {"uniqueid": "w92929972:a73819912", "current_trial": 102, "dateTime": 1664555500018, "trialdata": {"rt": 548, "stimulus": "<p id='stroop-text' class='stroop-yellow'>YELLOW</p>", "response": "y", "stimulus-type": "congruent", "word": "yellow", "color": "yellow", "correct_response": "y", "trial_id": "stroop-trial-1-congruent-13", "trial_type": "html-keyboard-response", "trial_index": 102, "time_elapsed": 613706, "internal_node_id": "0.0-6.0-7.0"}}, {"uniqueid": "w92929972:a73819912", "current_trial": 103, "dateTime": 1664555501306, "trialdata": {"rt": 785, "stimulus": "<p id='stroop-text' class='stroop-red'>FORK</p>", "response": "r", "stimulus-type": "unrelated", "word": "FORK", "color": "red", "correct_response": "r", "trial_id": "stroop-trial-1-unrelated-15", "trial_type": "html-keyboard-response", "trial_index": 103, "time_elapsed": 614994, "internal_node_id": "0.0-6.0-8.0"}}, {"uniqueid": "w92929972:a73819912", "current_trial": 104, "dateTime": 1664555502784, "trialdata": {"rt": 961, "stimulus": "<p id='stroop-text' class='stroop-green'>BLUE</p>", "response": "g", "stimulus-type": "incongruent", "word": "blue", "color": "green", "correct_response": "g", "trial_id": "stroop-trial-1-incongruent-2", "trial_type": "html-keyboard-response", "trial_index": 104, "time_elapsed": 616471, "internal_node_id": "0.0-6.0-9.0"}}, {"uniqueid": "w92929972:a73819912", "current_trial": 105, "dateTime": 1664555504341, "trialdata": {"rt": 1056, "stimulus": "<p id='stroop-text' class='stroop-blue'>GREEN</p>", "response": "b", "stimulus-type": "incongruent", "word": "green", "color": "blue", "correct_response": "b", "trial_id": "stroop-trial-1-incongruent-12", "trial_type": "html-keyboard-response", "trial_index": 105, "time_elapsed": 618029, "internal_node_id": "0.0-6.0-10.0"}}, {"uniqueid": "w92929972:a73819912", "current_trial": 106, "dateTime": 1664555505592, "trialdata": {"rt": 748, "stimulus": "<p id='stroop-text' class='stroop-red'>BRAIN</p>", "response": "r", "stimulus-type": "unrelated", "word": "BRAIN", "color": "red", "correct_response": "r", "trial_id": "stroop-trial-1-unrelated-1", "trial_type": "html-keyboard-response", "trial_index": 106, "time_elapsed": 619280, "internal_node_id": "0.0-6.0-11.0"}}, {"uniqueid": "w92929972:a73819912", "current_trial": 107, "dateTime": 1664555507121, "trialdata": {"rt": 1027, "stimulus": "<p id='stroop-text' class='stroop-green'>GREEN</p>", "response": "g", "stimulus-type": "congruent", "word": "green", "color": "green", "correct_response": "g", "trial_id": "stroop-trial-1-congruent-28", "trial_type": "html-keyboard-response", "trial_index": 107, "time_elapsed": 620809, "internal_node_id": "0.0-6.0-12.0"}}, {"uniqueid": "w92929972:a73819912", "current_trial": 108, "dateTime": 1664555508172, "trialdata": {"rt": 549, "stimulus": "<p id='stroop-text' class='stroop-yellow'>WINDOW</p>", "response": "y", "stimulus-type": "unrelated", "word": "WINDOW", "color": "yellow", "correct_response": "y", "trial_id": "stroop-trial-1-unrelated-10", "trial_type": "html-keyboard-response", "trial_index": 108, "time_elapsed": 621860, "internal_node_id": "0.0-6.0-13.0"}}, {"uniqueid": "w92929972:a73819912", "current_trial": 109, "dateTime": 1664555509407, "trialdata": {"rt": 733, "stimulus": "<p id='stroop-text' class='stroop-red'>SHIP</p>", "response": "r", "stimulus-type": "unrelated", "word": "SHIP", "color": "red", "correct_response": "r", "trial_id": "stroop-trial-1-unrelated-18", "trial_type": "html-keyboard-response", "trial_index": 109, "time_elapsed": 623095, "internal_node_id": "0.0-6.0-14.0"}}, {"uniqueid": "w92929972:a73819912", "current_trial": 110, "dateTime": 1664555510450, "trialdata": {"rt": 541, "stimulus": "<p id='stroop-text' class='stroop-green'>GREEN</p>", "response": "g", "stimulus-type": "congruent", "word": "green", "color": "green", "correct_response": "g", "trial_id": "stroop-trial-1-congruent-16", "trial_type": "html-keyboard-response", "trial_index": 110, "time_elapsed": 624138, "internal_node_id": "0.0-6.0-15.0"}}, {"uniqueid": "w92929972:a73819912", "current_trial": 111, "dateTime": 1664555511558, "trialdata": {"rt": 604, "stimulus": "<p id='stroop-text' class='stroop-blue'>BLUE</p>", "response": "b", "stimulus-type": "congruent", "word": "blue", "color": "blue", "correct_response": "b", "trial_id": "stroop-trial-1-congruent-30", "trial_type": "html-keyboard-response", "trial_index": 111, "time_elapsed": 625246, "internal_node_id": "0.0-6.0-16.0"}}, {"uniqueid": "w92929972:a73819912", "current_trial": 112, "dateTime": 1664555512962, "trialdata": {"rt": 902, "stimulus": "<p id='stroop-text' class='stroop-red'>YELLOW</p>", "response": "r", "stimulus-type": "incongruent", "word": "yellow", "color": "red", "correct_response": "r", "trial_id": "stroop-trial-1-incongruent-17", "trial_type": "html-keyboard-response", "trial_index": 112, "time_elapsed": 626649, "internal_node_id": "0.0-6.0-17.0"}}, {"uniqueid": "w92929972:a73819912", "current_trial": 113, "dateTime": 1664555514071, "trialdata": {"rt": 608, "stimulus": "<p id='stroop-text' class='stroop-blue'>STONE</p>", "response": "g", "stimulus-type": "unrelated", "word": "STONE", "color": "blue", "correct_response": "b", "trial_id": "stroop-trial-1-unrelated-7", "trial_type": "html-keyboard-response", "trial_index": 113, "time_elapsed": 627758, "internal_node_id": "0.0-6.0-18.0"}}, {"uniqueid": "w92929972:a73819912", "current_trial": 114, "dateTime": 1664555516096, "trialdata": {"rt": 1523, "stimulus": "<p id='stroop-text' class='stroop-green'>RED</p>", "response": "g", "stimulus-type": "incongruent", "word": "red", "color": "green", "correct_response": "g", "trial_id": "stroop-trial-1-incongruent-27", "trial_type": "html-keyboard-response", "trial_index": 114, "time_elapsed": 629784, "internal_node_id": "0.0-6.0-19.0"}}, {"uniqueid": "w92929972:a73819912", "current_trial": 115, "dateTime": 1664555517121, "trialdata": {"rt": 518, "stimulus": "<p id='stroop-text' class='stroop-red'>RED</p>", "response": "r", "stimulus-type": "congruent", "word": "red", "color": "red", "correct_response": "r", "trial_id": "stroop-trial-1-congruent-18", "trial_type": "html-keyboard-response", "trial_index": 115, "time_elapsed": 630809, "internal_node_id": "0.0-6.0-20.0"}}, {"uniqueid": "w92929972:a73819912", "current_trial": 116, "dateTime": 1664555518289, "trialdata": {"rt": 666, "stimulus": "<p id='stroop-text' class='stroop-yellow'>DOG</p>", "response": "y", "stimulus-type": "unrelated", "word": "DOG", "color": "yellow", "correct_response": "y", "trial_id": "stroop-trial-1-unrelated-21", "trial_type": "html-keyboard-response", "trial_index": 116, "time_elapsed": 631977, "internal_node_id": "0.0-6.0-21.0"}}, {"uniqueid": "w92929972:a73819912", "current_trial": 117, "dateTime": 1664555519859, "trialdata": {"rt": 1068, "stimulus": "<p id='stroop-text' class='stroop-blue'>BLUE</p>", "response": "b", "stimulus-type": "congruent", "word": "blue", "color": "blue", "correct_response": "b", "trial_id": "stroop-trial-1-congruent-19", "trial_type": "html-keyboard-response", "trial_index": 117, "time_elapsed": 633546, "internal_node_id": "0.0-6.0-22.0"}}, {"uniqueid": "w92929972:a73819912", "current_trial": 118, "dateTime": 1664555521053, "trialdata": {"rt": 692, "stimulus": "<p id='stroop-text' class='stroop-green'>WINDOW</p>", "response": "g", "stimulus-type": "unrelated", "word": "WINDOW", "color": "green", "correct_response": "g", "trial_id": "stroop-trial-1-unrelated-25", "trial_type": "html-keyboard-response", "trial_index": 118, "time_elapsed": 634741, "internal_node_id": "0.0-6.0-23.0"}}, {"uniqueid": "w92929972:a73819912", "current_trial": 119, "dateTime": 1664555522533, "trialdata": {"rt": 978, "stimulus": "<p id='stroop-text' class='stroop-blue'>BLUE</p>", "response": "b", "stimulus-type": "congruent", "word": "blue", "color": "blue", "correct_response": "b", "trial_id": "stroop-trial-1-congruent-25", "trial_type": "html-keyboard-response", "trial_index": 119, "time_elapsed": 636221, "internal_node_id": "0.0-6.0-24.0"}}, {"uniqueid": "w92929972:a73819912", "current_trial": 120, "dateTime": 1664555523759, "trialdata": {"rt": 723, "stimulus": "<p id='stroop-text' class='stroop-green'>GREEN</p>", "response": "g", "stimulus-type": "congruent", "word": "green", "color": "green", "correct_response": "g", "trial_id": "stroop-trial-1-congruent-11", "trial_type": "html-keyboard-response", "trial_index": 120, "time_elapsed": 637447, "internal_node_id": "0.0-6.0-25.0"}}, {"uniqueid": "w92929972:a73819912", "current_trial": 121, "dateTime": 1664555524919, "trialdata": {"rt": 658, "stimulus": "<p id='stroop-text' class='stroop-red'>BLUE</p>", "response": "r", "stimulus-type": "incongruent", "word": "blue", "color": "red", "correct_response": "r", "trial_id": "stroop-trial-1-incongruent-23", "trial_type": "html-keyboard-response", "trial_index": 121, "time_elapsed": 638607, "internal_node_id": "0.0-6.0-26.0"}}, {"uniqueid": "w92929972:a73819912", "current_trial": 122, "dateTime": 1664555527079, "trialdata": {"rt": 1657, "stimulus": "<p id='stroop-text' class='stroop-blue'>DOG</p>", "response": "b", "stimulus-type": "unrelated", "word": "DOG", "color": "blue", "correct_response": "b", "trial_id": "stroop-trial-1-unrelated-20", "trial_type": "html-keyboard-response", "trial_index": 122, "time_elapsed": 640767, "internal_node_id": "0.0-6.0-27.0"}}, {"uniqueid": "w92929972:a73819912", "current_trial": 123, "dateTime": 1664555528289, "trialdata": {"rt": 708, "stimulus": "<p id='stroop-text' class='stroop-yellow'>WINDOW</p>", "response": "y", "stimulus-type": "unrelated", "word": "WINDOW", "color": "yellow", "correct_response": "y", "trial_id": "stroop-trial-1-unrelated-11", "trial_type": "html-keyboard-response", "trial_index": 123, "time_elapsed": 641977, "internal_node_id": "0.0-6.0-28.0"}}, {"uniqueid": "w92929972:a73819912", "current_trial": 124, "dateTime": 1664555529633, "trialdata": {"rt": 842, "stimulus": "<p id='stroop-text' class='stroop-red'>RED</p>", "response": "r", "stimulus-type": "congruent", "word": "red", "color": "red", "correct_response": "r", "trial_id": "stroop-trial-1-congruent-21", "trial_type": "html-keyboard-response", "trial_index": 124, "time_elapsed": 643321, "internal_node_id": "0.0-6.0-29.0"}}, {"uniqueid": "w92929972:a73819912", "current_trial": 125, "dateTime": 1664555530944, "trialdata": {"rt": 809, "stimulus": "<p id='stroop-text' class='stroop-green'>GREEN</p>", "response": "g", "stimulus-type": "congruent", "word": "green", "color": "green", "correct_response": "g", "trial_id": "stroop-trial-1-congruent-24", "trial_type": "html-keyboard-response", "trial_index": 125, "time_elapsed": 644632, "internal_node_id": "0.0-6.0-30.0"}}, {"uniqueid": "w92929972:a73819912", "current_trial": 126, "dateTime": 1664555532389, "trialdata": {"rt": 943, "stimulus": "<p id='stroop-text' class='stroop-red'>GREEN</p>", "response": "r", "stimulus-type": "incongruent", "word": "green", "color": "red", "correct_response": "r", "trial_id": "stroop-trial-1-incongruent-10", "trial_type": "html-keyboard-response", "trial_index": 126, "time_elapsed": 646077, "internal_node_id": "0.0-6.0-31.0"}}, {"uniqueid": "w92929972:a73819912", "current_trial": 127, "dateTime": 1664555533953, "trialdata": {"rt": 1061, "stimulus": "<p id='stroop-text' class='stroop-yellow'>STONE</p>", "response": "y", "stimulus-type": "unrelated", "word": "STONE", "color": "yellow", "correct_response": "y", "trial_id": "stroop-trial-1-unrelated-2", "trial_type": "html-keyboard-response", "trial_index": 127, "time_elapsed": 647640, "internal_node_id": "0.0-6.0-32.0"}}, {"uniqueid": "w92929972:a73819912", "current_trial": 128, "dateTime": 1664555535248, "trialdata": {"rt": 794, "stimulus": "<p id='stroop-text' class='stroop-blue'>YELLOW</p>", "response": "b", "stimulus-type": "incongruent", "word": "yellow", "color": "blue", "correct_response": "b", "trial_id": "stroop-trial-1-incongruent-20", "trial_type": "html-keyboard-response", "trial_index": 128, "time_elapsed": 648936, "internal_node_id": "0.0-6.0-33.0"}}, {"uniqueid": "w92929972:a73819912", "current_trial": 129, "dateTime": 1664555536567, "trialdata": {"rt": 816, "stimulus": "<p id='stroop-text' class='stroop-green'>RED</p>", "response": "g", "stimulus-type": "incongruent", "word": "red", "color": "green", "correct_response": "g", "trial_id": "stroop-trial-1-incongruent-26", "trial_type": "html-keyboard-response", "trial_index": 129, "time_elapsed": 650254, "internal_node_id": "0.0-6.0-34.0"}}, {"uniqueid": "w92929972:a73819912", "current_trial": 130, "dateTime": 1664555537861, "trialdata": {"rt": 792, "stimulus": "<p id='stroop-text' class='stroop-green'>RED</p>", "response": "g", "stimulus-type": "incongruent", "word": "red", "color": "green", "correct_response": "g", "trial_id": "stroop-trial-1-incongruent-9", "trial_type": "html-keyboard-response", "trial_index": 130, "time_elapsed": 651549, "internal_node_id": "0.0-6.0-35.0"}}, {"uniqueid": "w92929972:a73819912", "current_trial": 131, "dateTime": 1664555539375, "trialdata": {"rt": 1011, "stimulus": "<p id='stroop-text' class='stroop-red'>RED</p>", "response": "r", "stimulus-type": "congruent", "word": "red", "color": "red", "correct_response": "r", "trial_id": "stroop-trial-1-congruent-6", "trial_type": "html-keyboard-response", "trial_index": 131, "time_elapsed": 653063, "internal_node_id": "0.0-6.0-36.0"}}, {"uniqueid": "w92929972:a73819912", "current_trial": 132, "dateTime": 1664555540794, "trialdata": {"rt": 917, "stimulus": "<p id='stroop-text' class='stroop-green'>YELLOW</p>", "response": "g", "stimulus-type": "incongruent", "word": "yellow", "color": "green", "correct_response": "g", "trial_id": "stroop-trial-1-incongruent-28", "trial_type": "html-keyboard-response", "trial_index": 132, "time_elapsed": 654481, "internal_node_id": "0.0-6.0-37.0"}}, {"uniqueid": "w92929972:a73819912", "current_trial": 133, "dateTime": 1664555541978, "trialdata": {"rt": 682, "stimulus": "<p id='stroop-text' class='stroop-blue'>BLUE</p>", "response": "b", "stimulus-type": "congruent", "word": "blue", "color": "blue", "correct_response": "b", "trial_id": "stroop-trial-1-congruent-15", "trial_type": "html-keyboard-response", "trial_index": 133, "time_elapsed": 655665, "internal_node_id": "0.0-6.0-38.0"}}, {"uniqueid": "w92929972:a73819912", "current_trial": 134, "dateTime": 1664555543651, "trialdata": {"rt": 1165, "stimulus": "<p id='stroop-text' class='stroop-green'>YELLOW</p>", "response": "g", "stimulus-type": "incongruent", "word": "yellow", "color": "green", "correct_response": "g", "trial_id": "stroop-trial-1-incongruent-30", "trial_type": "html-keyboard-response", "trial_index": 134, "time_elapsed": 657339, "internal_node_id": "0.0-6.0-39.0"}}, {"uniqueid": "w92929972:a73819912", "current_trial": 135, "dateTime": 1664555546761, "trialdata": {"rt": 2608, "stimulus": "<p id='stroop-text' class='stroop-yellow'>RED</p>", "response": "y", "stimulus-type": "incongruent", "word": "red", "color": "yellow", "correct_response": "y", "trial_id": "stroop-trial-1-incongruent-8", "trial_type": "html-keyboard-response", "trial_index": 135, "time_elapsed": 660449, "internal_node_id": "0.0-6.0-40.0"}}, {"uniqueid": "w92929972:a73819912", "current_trial": 136, "dateTime": 1664555548123, "trialdata": {"rt": 860, "stimulus": "<p id='stroop-text' class='stroop-green'>RED</p>", "response": "g", "stimulus-type": "incongruent", "word": "red", "color": "green", "correct_response": "g", "trial_id": "stroop-trial-1-incongruent-6", "trial_type": "html-keyboard-response", "trial_index": 136, "time_elapsed": 661811, "internal_node_id": "0.0-6.0-41.0"}}, {"uniqueid": "w92929972:a73819912", "current_trial": 137, "dateTime": 1664555549291, "trialdata": {"rt": 666, "stimulus": "<p id='stroop-text' class='stroop-red'>RED</p>", "response": "r", "stimulus-type": "congruent", "word": "red", "color": "red", "correct_response": "r", "trial_id": "stroop-trial-1-congruent-8", "trial_type": "html-keyboard-response", "trial_index": 137, "time_elapsed": 662979, "internal_node_id": "0.0-6.0-42.0"}}, {"uniqueid": "w92929972:a73819912", "current_trial": 138, "dateTime": 1664555550509, "trialdata": {"rt": 716, "stimulus": "<p id='stroop-text' class='stroop-blue'>FORK</p>", "response": "b", "stimulus-type": "unrelated", "word": "FORK", "color": "blue", "correct_response": "b", "trial_id": "stroop-trial-1-unrelated-6", "trial_type": "html-keyboard-response", "trial_index": 138, "time_elapsed": 664196, "internal_node_id": "0.0-6.0-43.0"}}, {"uniqueid": "w92929972:a73819912", "current_trial": 139, "dateTime": 1664555551644, "trialdata": {"rt": 634, "stimulus": "<p id='stroop-text' class='stroop-green'>BOAT</p>", "response": "g", "stimulus-type": "unrelated", "word": "BOAT", "color": "green", "correct_response": "g", "trial_id": "stroop-trial-1-unrelated-27", "trial_type": "html-keyboard-response", "trial_index": 139, "time_elapsed": 665332, "internal_node_id": "0.0-6.0-44.0"}}, {"uniqueid": "w92929972:a73819912", "current_trial": 140, "dateTime": 1664555552996, "trialdata": {"rt": 837, "stimulus": "<p id='stroop-text' class='stroop-blue'>CHAIR</p>", "response": "b", "stimulus-type": "unrelated", "word": "CHAIR", "color": "blue", "correct_response": "b", "trial_id": "stroop-trial-1-unrelated-19", "trial_type": "html-keyboard-response", "trial_index": 140, "time_elapsed": 666684, "internal_node_id": "0.0-6.0-45.0"}}, {"uniqueid": "w92929972:a73819912", "current_trial": 141, "dateTime": 1664555554080, "trialdata": {"rt": 582, "stimulus": "<p id='stroop-text' class='stroop-blue'>FORK</p>", "response": "b", "stimulus-type": "unrelated", "word": "FORK", "color": "blue", "correct_response": "b", "trial_id": "stroop-trial-1-unrelated-29", "trial_type": "html-keyboard-response", "trial_index": 141, "time_elapsed": 667768, "internal_node_id": "0.0-6.0-46.0"}}, {"uniqueid": "w92929972:a73819912", "current_trial": 142, "dateTime": 1664555557082, "trialdata": {"rt": 2499, "stimulus": "<p id='stroop-text' class='stroop-yellow'>SHIP</p>", "response": "y", "stimulus-type": "unrelated", "word": "SHIP", "color": "yellow", "correct_response": "y", "trial_id": "stroop-trial-1-unrelated-9", "trial_type": "html-keyboard-response", "trial_index": 142, "time_elapsed": 670770, "internal_node_id": "0.0-6.0-47.0"}}, {"uniqueid": "w92929972:a73819912", "current_trial": 143, "dateTime": 1664555558359, "trialdata": {"rt": 773, "stimulus": "<p id='stroop-text' class='stroop-green'>BRAIN</p>", "response": "g", "stimulus-type": "unrelated", "word": "BRAIN", "color": "green", "correct_response": "g", "trial_id": "stroop-trial-1-unrelated-17", "trial_type": "html-keyboard-response", "trial_index": 143, "time_elapsed": 672047, "internal_node_id": "0.0-6.0-48.0"}}, {"uniqueid": "w92929972:a73819912", "current_trial": 144, "dateTime": 1664555559587, "trialdata": {"rt": 725, "stimulus": "<p id='stroop-text' class='stroop-green'>BRIDGE</p>", "response": "g", "stimulus-type": "unrelated", "word": "BRIDGE", "color": "green", "correct_response": "g", "trial_id": "stroop-trial-1-unrelated-4", "trial_type": "html-keyboard-response", "trial_index": 144, "time_elapsed": 673275, "internal_node_id": "0.0-6.0-49.0"}}, {"uniqueid": "w92929972:a73819912", "current_trial": 145, "dateTime": 1664555560974, "trialdata": {"rt": 885, "stimulus": "<p id='stroop-text' class='stroop-blue'>FORK</p>", "response": "b", "stimulus-type": "unrelated", "word": "FORK", "color": "blue", "correct_response": "b", "trial_id": "stroop-trial-1-unrelated-30", "trial_type": "html-keyboard-response", "trial_index": 145, "time_elapsed": 674662, "internal_node_id": "0.0-6.0-50.0"}}, {"uniqueid": "w92929972:a73819912", "current_trial": 146, "dateTime": 1664555563520, "trialdata": {"rt": 2044, "stimulus": "<p id='stroop-text' class='stroop-green'>MONKEY</p>", "response": "g", "stimulus-type": "unrelated", "word": "MONKEY", "color": "green", "correct_response": "g", "trial_id": "stroop-trial-1-unrelated-16", "trial_type": "html-keyboard-response", "trial_index": 146, "time_elapsed": 677208, "internal_node_id": "0.0-6.0-51.0"}}, {"uniqueid": "w92929972:a73819912", "current_trial": 147, "dateTime": 1664555565671, "trialdata": {"rt": 1649, "stimulus": "<p id='stroop-text' class='stroop-blue'>BLUE</p>", "response": "b", "stimulus-type": "congruent", "word": "blue", "color": "blue", "correct_response": "b", "trial_id": "stroop-trial-1-congruent-5", "trial_type": "html-keyboard-response", "trial_index": 147, "time_elapsed": 679359, "internal_node_id": "0.0-6.0-52.0"}}, {"uniqueid": "w92929972:a73819912", "current_trial": 148, "dateTime": 1664555566982, "trialdata": {"rt": 808, "stimulus": "<p id='stroop-text' class='stroop-blue'>RED</p>", "response": "b", "stimulus-type": "incongruent", "word": "red", "color": "blue", "correct_response": "b", "trial_id": "stroop-trial-1-incongruent-22", "trial_type": "html-keyboard-response", "trial_index": 148, "time_elapsed": 680670, "internal_node_id": "0.0-6.0-53.0"}}, {"uniqueid": "w92929972:a73819912", "current_trial": 149, "dateTime": 1664555568337, "trialdata": {"rt": 852, "stimulus": "<p id='stroop-text' class='stroop-yellow'>DOG</p>", "response": "y", "stimulus-type": "unrelated", "word": "DOG", "color": "yellow", "correct_response": "y", "trial_id": "stroop-trial-1-unrelated-26", "trial_type": "html-keyboard-response", "trial_index": 149, "time_elapsed": 682025, "internal_node_id": "0.0-6.0-54.0"}}, {"uniqueid": "w92929972:a73819912", "current_trial": 150, "dateTime": 1664555569789, "trialdata": {"rt": 950, "stimulus": "<p id='stroop-text' class='stroop-red'>DOG</p>", "response": "r", "stimulus-type": "unrelated", "word": "DOG", "color": "red", "correct_response": "r", "trial_id": "stroop-trial-1-unrelated-22", "trial_type": "html-keyboard-response", "trial_index": 150, "time_elapsed": 683477, "internal_node_id": "0.0-6.0-55.0"}}, {"uniqueid": "w92929972:a73819912", "current_trial": 151, "dateTime": 1664555571024, "trialdata": {"rt": 732, "stimulus": "<p id='stroop-text' class='stroop-yellow'>YELLOW</p>", "response": "y", "stimulus-type": "congruent", "word": "yellow", "color": "yellow", "correct_response": "y", "trial_id": "stroop-trial-1-congruent-1", "trial_type": "html-keyboard-response", "trial_index": 151, "time_elapsed": 684712, "internal_node_id": "0.0-6.0-56.0"}}, {"uniqueid": "w92929972:a73819912", "current_trial": 152, "dateTime": 1664555572428, "trialdata": {"rt": 901, "stimulus": "<p id='stroop-text' class='stroop-green'>STONE</p>", "response": "g", "stimulus-type": "unrelated", "word": "STONE", "color": "green", "correct_response": "g", "trial_id": "stroop-trial-1-unrelated-23", "trial_type": "html-keyboard-response", "trial_index": 152, "time_elapsed": 686116, "internal_node_id": "0.0-6.0-57.0"}}, {"uniqueid": "w92929972:a73819912", "current_trial": 153, "dateTime": 1664555574284, "trialdata": {"rt": 1353, "stimulus": "<p id='stroop-text' class='stroop-red'>BLUE</p>", "response": "r", "stimulus-type": "incongruent", "word": "blue", "color": "red", "correct_response": "r", "trial_id": "stroop-trial-1-incongruent-18", "trial_type": "html-keyboard-response", "trial_index": 153, "time_elapsed": 687972, "internal_node_id": "0.0-6.0-58.0"}}, {"uniqueid": "w92929972:a73819912", "current_trial": 154, "dateTime": 1664555575394, "trialdata": {"rt": 608, "stimulus": "<p id='stroop-text' class='stroop-yellow'>BLUE</p>", "response": "y", "stimulus-type": "incongruent", "word": "blue", "color": "yellow", "correct_response": "y", "trial_id": "stroop-trial-1-incongruent-21", "trial_type": "html-keyboard-response", "trial_index": 154, "time_elapsed": 689082, "internal_node_id": "0.0-6.0-59.0"}}, {"uniqueid": "w92929972:a73819912", "current_trial": 155, "dateTime": 1664555576368, "trialdata": {"rt": 472, "stimulus": "<p id='stroop-text' class='stroop-yellow'>BLUE</p>", "response": "y", "stimulus-type": "incongruent", "word": "blue", "color": "yellow", "correct_response": "y", "trial_id": "stroop-trial-1-incongruent-13", "trial_type": "html-keyboard-response", "trial_index": 155, "time_elapsed": 690056, "internal_node_id": "0.0-6.0-60.0"}}, {"uniqueid": "w92929972:a73819912", "current_trial": 156, "dateTime": 1664555577452, "trialdata": {"rt": 582, "stimulus": "<p id='stroop-text' class='stroop-red'>RED</p>", "response": "r", "stimulus-type": "congruent", "word": "red", "color": "red", "correct_response": "r", "trial_id": "stroop-trial-1-congruent-27", "trial_type": "html-keyboard-response", "trial_index": 156, "time_elapsed": 691140, "internal_node_id": "0.0-6.0-61.0"}}, {"uniqueid": "w92929972:a73819912", "current_trial": 157, "dateTime": 1664555578713, "trialdata": {"rt": 750, "stimulus": "<p id='stroop-text' class='stroop-green'>SHIP</p>", "response": "g", "stimulus-type": "unrelated", "word": "SHIP", "color": "green", "correct_response": "g", "trial_id": "stroop-trial-1-unrelated-3", "trial_type": "html-keyboard-response", "trial_index": 157, "time_elapsed": 692401, "internal_node_id": "0.0-6.0-62.0"}}, {"uniqueid": "w92929972:a73819912", "current_trial": 158, "dateTime": 1664555580351, "trialdata": {"rt": 1136, "stimulus": "<p id='stroop-text' class='stroop-red'>RED</p>", "response": "r", "stimulus-type": "congruent", "word": "red", "color": "red", "correct_response": "r", "trial_id": "stroop-trial-1-congruent-7", "trial_type": "html-keyboard-response", "trial_index": 158, "time_elapsed": 694039, "internal_node_id": "0.0-6.0-63.0"}}, {"uniqueid": "w92929972:a73819912", "current_trial": 159, "dateTime": 1664555581637, "trialdata": {"rt": 784, "stimulus": "<p id='stroop-text' class='stroop-green'>RED</p>", "response": "g", "stimulus-type": "incongruent", "word": "red", "color": "green", "correct_response": "g", "trial_id": "stroop-trial-1-incongruent-5", "trial_type": "html-keyboard-response", "trial_index": 159, "time_elapsed": 695325, "internal_node_id": "0.0-6.0-64.0"}}, {"uniqueid": "w92929972:a73819912", "current_trial": 160, "dateTime": 1664555582840, "trialdata": {"rt": 700, "stimulus": "<p id='stroop-text' class='stroop-green'>GREEN</p>", "response": "g", "stimulus-type": "congruent", "word": "green", "color": "green", "correct_response": "g", "trial_id": "stroop-trial-1-congruent-23", "trial_type": "html-keyboard-response", "trial_index": 160, "time_elapsed": 696528, "internal_node_id": "0.0-6.0-65.0"}}, {"uniqueid": "w92929972:a73819912", "current_trial": 161, "dateTime": 1664555583983, "trialdata": {"rt": 640, "stimulus": "<p id='stroop-text' class='stroop-yellow'>RED</p>", "response": "y", "stimulus-type": "incongruent", "word": "red", "color": "yellow", "correct_response": "y", "trial_id": "stroop-trial-1-incongruent-25", "trial_type": "html-keyboard-response", "trial_index": 161, "time_elapsed": 697671, "internal_node_id": "0.0-6.0-66.0"}}, {"uniqueid": "w92929972:a73819912", "current_trial": 162, "dateTime": 1664555584966, "trialdata": {"rt": 481, "stimulus": "<p id='stroop-text' class='stroop-yellow'>RED</p>", "response": "y", "stimulus-type": "incongruent", "word": "red", "color": "yellow", "correct_response": "y", "trial_id": "stroop-trial-1-incongruent-15", "trial_type": "html-keyboard-response", "trial_index": 162, "time_elapsed": 698654, "internal_node_id": "0.0-6.0-67.0"}}, {"uniqueid": "w92929972:a73819912", "current_trial": 163, "dateTime": 1664555587017, "trialdata": {"rt": 1549, "stimulus": "<p id='stroop-text' class='stroop-red'>BLUE</p>", "response": "r", "stimulus-type": "incongruent", "word": "blue", "color": "red", "correct_response": "r", "trial_id": "stroop-trial-1-incongruent-19", "trial_type": "html-keyboard-response", "trial_index": 163, "time_elapsed": 700705, "internal_node_id": "0.0-6.0-68.0"}}, {"uniqueid": "w92929972:a73819912", "current_trial": 164, "dateTime": 1664555588841, "trialdata": {"rt": 1322, "stimulus": "<p id='stroop-text' class='stroop-blue'>GREEN</p>", "response": "b", "stimulus-type": "incongruent", "word": "green", "color": "blue", "correct_response": "b", "trial_id": "stroop-trial-1-incongruent-1", "trial_type": "html-keyboard-response", "trial_index": 164, "time_elapsed": 702529, "internal_node_id": "0.0-6.0-69.0"}}, {"uniqueid": "w92929972:a73819912", "current_trial": 165, "dateTime": 1664555589968, "trialdata": {"rt": 625, "stimulus": "<p id='stroop-text' class='stroop-yellow'>BRAIN</p>", "response": "y", "stimulus-type": "unrelated", "word": "BRAIN", "color": "yellow", "correct_response": "y", "trial_id": "stroop-trial-1-unrelated-13", "trial_type": "html-keyboard-response", "trial_index": 165, "time_elapsed": 703656, "internal_node_id": "0.0-6.0-70.0"}}, {"uniqueid": "w92929972:a73819912", "current_trial": 166, "dateTime": 1664555591414, "trialdata": {"rt": 942, "stimulus": "<p id='stroop-text' class='stroop-blue'>BLUE</p>", "response": "b", "stimulus-type": "congruent", "word": "blue", "color": "blue", "correct_response": "b", "trial_id": "stroop-trial-1-congruent-14", "trial_type": "html-keyboard-response", "trial_index": 166, "time_elapsed": 705101, "internal_node_id": "0.0-6.0-71.0"}}, {"uniqueid": "w92929972:a73819912", "current_trial": 167, "dateTime": 1664555592539, "trialdata": {"rt": 623, "stimulus": "<p id='stroop-text' class='stroop-yellow'>YELLOW</p>", "response": "y", "stimulus-type": "congruent", "word": "yellow", "color": "yellow", "correct_response": "y", "trial_id": "stroop-trial-1-congruent-3", "trial_type": "html-keyboard-response", "trial_index": 167, "time_elapsed": 706227, "internal_node_id": "0.0-6.0-72.0"}}, {"uniqueid": "w92929972:a73819912", "current_trial": 168, "dateTime": 1664555594489, "trialdata": {"rt": 1448, "stimulus": "<p id='stroop-text' class='stroop-red'>BLUE</p>", "response": "r", "stimulus-type": "incongruent", "word": "blue", "color": "red", "correct_response": "r", "trial_id": "stroop-trial-1-incongruent-11", "trial_type": "html-keyboard-response", "trial_index": 168, "time_elapsed": 708177, "internal_node_id": "0.0-6.0-73.0"}}, {"uniqueid": "w92929972:a73819912", "current_trial": 169, "dateTime": 1664555595859, "trialdata": {"rt": 867, "stimulus": "<p id='stroop-text' class='stroop-green'>RED</p>", "response": "g", "stimulus-type": "incongruent", "word": "red", "color": "green", "correct_response": "g", "trial_id": "stroop-trial-1-incongruent-29", "trial_type": "html-keyboard-response", "trial_index": 169, "time_elapsed": 709547, "internal_node_id": "0.0-6.0-74.0"}}, {"uniqueid": "w92929972:a73819912", "current_trial": 170, "dateTime": 1664555597027, "trialdata": {"rt": 666, "stimulus": "<p id='stroop-text' class='stroop-red'>CHAIR</p>", "response": "r", "stimulus-type": "unrelated", "word": "CHAIR", "color": "red", "correct_response": "r", "trial_id": "stroop-trial-1-unrelated-14", "trial_type": "html-keyboard-response", "trial_index": 170, "time_elapsed": 710715, "internal_node_id": "0.0-6.0-75.0"}}, {"uniqueid": "w92929972:a73819912", "current_trial": 171, "dateTime": 1664555598489, "trialdata": {"rt": 959, "stimulus": "<p id='stroop-text' class='stroop-blue'>BLUE</p>", "response": "b", "stimulus-type": "congruent", "word": "blue", "color": "blue", "correct_response": "b", "trial_id": "stroop-trial-1-congruent-4", "trial_type": "html-keyboard-response", "trial_index": 171, "time_elapsed": 712177, "internal_node_id": "0.0-6.0-76.0"}}, {"uniqueid": "w92929972:a73819912", "current_trial": 172, "dateTime": 1664555599892, "trialdata": {"rt": 900, "stimulus": "<p id='stroop-text' class='stroop-green'>DOG</p>", "response": "g", "stimulus-type": "unrelated", "word": "DOG", "color": "green", "correct_response": "g", "trial_id": "stroop-trial-1-unrelated-28", "trial_type": "html-keyboard-response", "trial_index": 172, "time_elapsed": 713580, "internal_node_id": "0.0-6.0-77.0"}}, {"uniqueid": "w92929972:a73819912", "current_trial": 173, "dateTime": 1664555602690, "trialdata": {"rt": 2296, "stimulus": "<p id='stroop-text' class='stroop-blue'>GREEN</p>", "response": "b", "stimulus-type": "incongruent", "word": "green", "color": "blue", "correct_response": "b", "trial_id": "stroop-trial-1-incongruent-7", "trial_type": "html-keyboard-response", "trial_index": 173, "time_elapsed": 716378, "internal_node_id": "0.0-6.0-78.0"}}, {"uniqueid": "w92929972:a73819912", "current_trial": 174, "dateTime": 1664555604346, "trialdata": {"rt": 1153, "stimulus": "<p id='stroop-text' class='stroop-green'>GREEN</p>", "response": "g", "stimulus-type": "congruent", "word": "green", "color": "green", "correct_response": "g", "trial_id": "stroop-trial-1-congruent-12", "trial_type": "html-keyboard-response", "trial_index": 174, "time_elapsed": 718034, "internal_node_id": "0.0-6.0-79.0"}}, {"uniqueid": "w92929972:a73819912", "current_trial": 175, "dateTime": 1664555605724, "trialdata": {"rt": 877, "stimulus": "<p id='stroop-text' class='stroop-blue'>BLUE</p>", "response": "b", "stimulus-type": "congruent", "word": "blue", "color": "blue", "correct_response": "b", "trial_id": "stroop-trial-1-congruent-29", "trial_type": "html-keyboard-response", "trial_index": 175, "time_elapsed": 719412, "internal_node_id": "0.0-6.0-80.0"}}, {"uniqueid": "w92929972:a73819912", "current_trial": 176, "dateTime": 1664555606842, "trialdata": {"rt": 616, "stimulus": "<p id='stroop-text' class='stroop-red'>RED</p>", "response": "r", "stimulus-type": "congruent", "word": "red", "color": "red", "correct_response": "r", "trial_id": "stroop-trial-1-congruent-17", "trial_type": "html-keyboard-response", "trial_index": 176, "time_elapsed": 720530, "internal_node_id": "0.0-6.0-81.0"}}, {"uniqueid": "w92929972:a73819912", "current_trial": 177, "dateTime": 1664555608077, "trialdata": {"rt": 731, "stimulus": "<p id='stroop-text' class='stroop-blue'>CHAIR</p>", "response": "b", "stimulus-type": "unrelated", "word": "CHAIR", "color": "blue", "correct_response": "b", "trial_id": "stroop-trial-1-unrelated-5", "trial_type": "html-keyboard-response", "trial_index": 177, "time_elapsed": 721765, "internal_node_id": "0.0-6.0-82.0"}}, {"uniqueid": "w92929972:a73819912", "current_trial": 178, "dateTime": 1664555609657, "trialdata": {"rt": 1076, "stimulus": "<p id='stroop-text' class='stroop-blue'>SHIP</p>", "response": "b", "stimulus-type": "unrelated", "word": "SHIP", "color": "blue", "correct_response": "b", "trial_id": "stroop-trial-1-unrelated-12", "trial_type": "html-keyboard-response", "trial_index": 178, "time_elapsed": 723345, "internal_node_id": "0.0-6.0-83.0"}}, {"uniqueid": "w92929972:a73819912", "current_trial": 179, "dateTime": 1664555610767, "trialdata": {"rt": 608, "stimulus": "<p id='stroop-text' class='stroop-red'>RED</p>", "response": "r", "stimulus-type": "congruent", "word": "red", "color": "red", "correct_response": "r", "trial_id": "stroop-trial-1-congruent-22", "trial_type": "html-keyboard-response", "trial_index": 179, "time_elapsed": 724455, "internal_node_id": "0.0-6.0-84.0"}}, {"uniqueid": "w92929972:a73819912", "current_trial": 180, "dateTime": 1664555612027, "trialdata": {"rt": 758, "stimulus": "<p id='stroop-text' class='stroop-blue'>WINDOW</p>", "response": "b", "stimulus-type": "unrelated", "word": "WINDOW", "color": "blue", "correct_response": "b", "trial_id": "stroop-trial-1-unrelated-8", "trial_type": "html-keyboard-response", "trial_index": 180, "time_elapsed": 725715, "internal_node_id": "0.0-6.0-85.0"}}, {"uniqueid": "w92929972:a73819912", "current_trial": 181, "dateTime": 1664555613532, "trialdata": {"rt": 1001, "stimulus": "<p id='stroop-text' class='stroop-red'>YELLOW</p>", "response": "r", "stimulus-type": "incongruent", "word": "yellow", "color": "red", "correct_response": "r", "trial_id": "stroop-trial-1-incongruent-14", "trial_type": "html-keyboard-response", "trial_index": 181, "time_elapsed": 727220, "internal_node_id": "0.0-6.0-86.0"}}, {"uniqueid": "w92929972:a73819912", "current_trial": 182, "dateTime": 1664555614759, "trialdata": {"rt": 725, "stimulus": "<p id='stroop-text' class='stroop-yellow'>RED</p>", "response": "y", "stimulus-type": "incongruent", "word": "red", "color": "yellow", "correct_response": "y", "trial_id": "stroop-trial-1-incongruent-3", "trial_type": "html-keyboard-response", "trial_index": 182, "time_elapsed": 728447, "internal_node_id": "0.0-6.0-87.0"}}, {"uniqueid": "w92929972:a73819912", "current_trial": 183, "dateTime": 1664555615912, "trialdata": {"rt": 650, "stimulus": "<p id='stroop-text' class='stroop-green'>GREEN</p>", "response": "g", "stimulus-type": "congruent", "word": "green", "color": "green", "correct_response": "g", "trial_id": "stroop-trial-1-congruent-2", "trial_type": "html-keyboard-response", "trial_index": 183, "time_elapsed": 729600, "internal_node_id": "0.0-6.0-88.0"}}, {"uniqueid": "w92929972:a73819912", "current_trial": 184, "dateTime": 1664555616810, "trialdata": {"rt": 396, "stimulus": "<p id='stroop-text' class='stroop-green'>GREEN</p>", "response": "g", "stimulus-type": "congruent", "word": "green", "color": "green", "correct_response": "g", "trial_id": "stroop-trial-1-congruent-10", "trial_type": "html-keyboard-response", "trial_index": 184, "time_elapsed": 730498, "internal_node_id": "0.0-6.0-89.0"}}, {"uniqueid": "w92929972:a73819912", "current_trial": 185, "dateTime": 1664555662734, "trialdata": {"rt": 45422, "stimulus": "  <h1> End of block! </h1>\n\n  You have reached the end of the block 2/5. If you need a short break, feel free to take one now before moving on.\n\n  <br><br>\n  In the next block, you will complete another 90 rounds of this game.\n\n  <br><br>\n  <div style='text-align: center;'>Press <code>space</code> to begin.</div>\n  <br><br>\n<div style='text-align: center;'>(If the experiment doesn't continue, try clicking on the text and then pressing <code>space</code>.)</div>", "response": " ", "trial_id": "stroop_1_ready_3", "trial_type": "html-keyboard-response", "trial_index": 185, "time_elapsed": 776422, "internal_node_id": "0.0-7.0"}}, {"uniqueid": "w92929972:a73819912", "current_trial": 186, "dateTime": 1664555663600, "trialdata": {"rt": 864, "stimulus": "<p id='stroop-text' class='stroop-green'>GREEN</p>", "response": "g", "stimulus-type": "congruent", "word": "green", "color": "green", "correct_response": "g", "trial_id": "stroop-trial-1-congruent-16", "trial_type": "html-keyboard-response", "trial_index": 186, "time_elapsed": 777288, "internal_node_id": "0.0-8.0-0.0"}}, {"uniqueid": "w92929972:a73819912", "current_trial": 187, "dateTime": 1664555664675, "trialdata": {"rt": 573, "stimulus": "<p id='stroop-text' class='stroop-red'>RED</p>", "response": "r", "stimulus-type": "congruent", "word": "red", "color": "red", "correct_response": "r", "trial_id": "stroop-trial-1-congruent-9", "trial_type": "html-keyboard-response", "trial_index": 187, "time_elapsed": 778363, "internal_node_id": "0.0-8.0-1.0"}}, {"uniqueid": "w92929972:a73819912", "current_trial": 188, "dateTime": 1664555665813, "trialdata": {"rt": 628, "stimulus": "<p id='stroop-text' class='stroop-blue'>BLUE</p>", "response": "b", "stimulus-type": "congruent", "word": "blue", "color": "blue", "correct_response": "b", "trial_id": "stroop-trial-1-congruent-25", "trial_type": "html-keyboard-response", "trial_index": 188, "time_elapsed": 779501, "internal_node_id": "0.0-8.0-2.0"}}, {"uniqueid": "w92929972:a73819912", "current_trial": 189, "dateTime": 1664555667307, "trialdata": {"rt": 991, "stimulus": "<p id='stroop-text' class='stroop-green'>BLUE</p>", "response": "g", "stimulus-type": "incongruent", "word": "blue", "color": "green", "correct_response": "g", "trial_id": "stroop-trial-1-incongruent-2", "trial_type": "html-keyboard-response", "trial_index": 189, "time_elapsed": 780995, "internal_node_id": "0.0-8.0-3.0"}}, {"uniqueid": "w92929972:a73819912", "current_trial": 190, "dateTime": 1664555668955, "trialdata": {"rt": 1146, "stimulus": "<p id='stroop-text' class='stroop-blue'>YELLOW</p>", "response": "b", "stimulus-type": "incongruent", "word": "yellow", "color": "blue", "correct_response": "b", "trial_id": "stroop-trial-1-incongruent-5", "trial_type": "html-keyboard-response", "trial_index": 190, "time_elapsed": 782643, "internal_node_id": "0.0-8.0-4.0"}}, {"uniqueid": "w92929972:a73819912", "current_trial": 191, "dateTime": 1664555670359, "trialdata": {"rt": 902, "stimulus": "<p id='stroop-text' class='stroop-green'>YELLOW</p>", "response": "g", "stimulus-type": "incongruent", "word": "yellow", "color": "green", "correct_response": "g", "trial_id": "stroop-trial-1-incongruent-25", "trial_type": "html-keyboard-response", "trial_index": 191, "time_elapsed": 784047, "internal_node_id": "0.0-8.0-5.0"}}, {"uniqueid": "w92929972:a73819912", "current_trial": 192, "dateTime": 1664555671469, "trialdata": {"rt": 607, "stimulus": "<p id='stroop-text' class='stroop-yellow'>YELLOW</p>", "response": "y", "stimulus-type": "congruent", "word": "yellow", "color": "yellow", "correct_response": "y", "trial_id": "stroop-trial-1-congruent-19", "trial_type": "html-keyboard-response", "trial_index": 192, "time_elapsed": 785157, "internal_node_id": "0.0-8.0-6.0"}}, {"uniqueid": "w92929972:a73819912", "current_trial": 193, "dateTime": 1664555672630, "trialdata": {"rt": 659, "stimulus": "<p id='stroop-text' class='stroop-green'>WINDOW</p>", "response": "g", "stimulus-type": "unrelated", "word": "WINDOW", "color": "green", "correct_response": "g", "trial_id": "stroop-trial-1-unrelated-18", "trial_type": "html-keyboard-response", "trial_index": 193, "time_elapsed": 786318, "internal_node_id": "0.0-8.0-7.0"}}, {"uniqueid": "w92929972:a73819912", "current_trial": 194, "dateTime": 1664555673539, "trialdata": {"rt": 406, "stimulus": "<p id='stroop-text' class='stroop-green'>GREEN</p>", "response": "g", "stimulus-type": "congruent", "word": "green", "color": "green", "correct_response": "g", "trial_id": "stroop-trial-1-congruent-30", "trial_type": "html-keyboard-response", "trial_index": 194, "time_elapsed": 787226, "internal_node_id": "0.0-8.0-8.0"}}, {"uniqueid": "w92929972:a73819912", "current_trial": 195, "dateTime": 1664555674741, "trialdata": {"rt": 701, "stimulus": "<p id='stroop-text' class='stroop-blue'>RED</p>", "response": "r", "stimulus-type": "incongruent", "word": "red", "color": "blue", "correct_response": "b", "trial_id": "stroop-trial-1-incongruent-24", "trial_type": "html-keyboard-response", "trial_index": 195, "time_elapsed": 788429, "internal_node_id": "0.0-8.0-9.0"}}, {"uniqueid": "w92929972:a73819912", "current_trial": 196, "dateTime": 1664555676718, "trialdata": {"rt": 1475, "stimulus": "<p id='stroop-text' class='stroop-green'>BRIDGE</p>", "response": "g", "stimulus-type": "unrelated", "word": "BRIDGE", "color": "green", "correct_response": "g", "trial_id": "stroop-trial-1-unrelated-2", "trial_type": "html-keyboard-response", "trial_index": 196, "time_elapsed": 790406, "internal_node_id": "0.0-8.0-10.0"}}, {"uniqueid": "w92929972:a73819912", "current_trial": 197, "dateTime": 1664555677963, "trialdata": {"rt": 742, "stimulus": "<p id='stroop-text' class='stroop-blue'>BLUE</p>", "response": "b", "stimulus-type": "congruent", "word": "blue", "color": "blue", "correct_response": "b", "trial_id": "stroop-trial-1-congruent-28", "trial_type": "html-keyboard-response", "trial_index": 197, "time_elapsed": 791651, "internal_node_id": "0.0-8.0-11.0"}}, {"uniqueid": "w92929972:a73819912", "current_trial": 198, "dateTime": 1664555680721, "trialdata": {"rt": 2256, "stimulus": "<p id='stroop-text' class='stroop-red'>BLUE</p>", "response": "r", "stimulus-type": "incongruent", "word": "blue", "color": "red", "correct_response": "r", "trial_id": "stroop-trial-1-incongruent-1", "trial_type": "html-keyboard-response", "trial_index": 198, "time_elapsed": 794409, "internal_node_id": "0.0-8.0-12.0"}}, {"uniqueid": "w92929972:a73819912", "current_trial": 199, "dateTime": 1664555682034, "trialdata": {"rt": 810, "stimulus": "<p id='stroop-text' class='stroop-blue'>BLUE</p>", "response": "b", "stimulus-type": "congruent", "word": "blue", "color": "blue", "correct_response": "b", "trial_id": "stroop-trial-1-congruent-18", "trial_type": "html-keyboard-response", "trial_index": 199, "time_elapsed": 795722, "internal_node_id": "0.0-8.0-13.0"}}, {"uniqueid": "w92929972:a73819912", "current_trial": 200, "dateTime": 1664555683372, "trialdata": {"rt": 835, "stimulus": "<p id='stroop-text' class='stroop-red'>BOAT</p>", "response": "r", "stimulus-type": "unrelated", "word": "BOAT", "color": "red", "correct_response": "r", "trial_id": "stroop-trial-1-unrelated-19", "trial_type": "html-keyboard-response", "trial_index": 200, "time_elapsed": 797060, "internal_node_id": "0.0-8.0-14.0"}}, {"uniqueid": "w92929972:a73819912", "current_trial": 201, "dateTime": 1664555685280, "trialdata": {"rt": 1406, "stimulus": "<p id='stroop-text' class='stroop-blue'>RED</p>", "response": "b", "stimulus-type": "incongruent", "word": "red", "color": "blue", "correct_response": "b", "trial_id": "stroop-trial-1-incongruent-10", "trial_type": "html-keyboard-response", "trial_index": 201, "time_elapsed": 798968, "internal_node_id": "0.0-8.0-15.0"}}, {"uniqueid": "w92929972:a73819912", "current_trial": 202, "dateTime": 1664555686548, "trialdata": {"rt": 765, "stimulus": "<p id='stroop-text' class='stroop-yellow'>YELLOW</p>", "response": "y", "stimulus-type": "congruent", "word": "yellow", "color": "yellow", "correct_response": "y", "trial_id": "stroop-trial-1-congruent-26", "trial_type": "html-keyboard-response", "trial_index": 202, "time_elapsed": 800236, "internal_node_id": "0.0-8.0-16.0"}}, {"uniqueid": "w92929972:a73819912", "current_trial": 203, "dateTime": 1664555687903, "trialdata": {"rt": 853, "stimulus": "<p id='stroop-text' class='stroop-red'>DOG</p>", "response": "r", "stimulus-type": "unrelated", "word": "DOG", "color": "red", "correct_response": "r", "trial_id": "stroop-trial-1-unrelated-27", "trial_type": "html-keyboard-response", "trial_index": 203, "time_elapsed": 801591, "internal_node_id": "0.0-8.0-17.0"}}, {"uniqueid": "w92929972:a73819912", "current_trial": 204, "dateTime": 1664555689222, "trialdata": {"rt": 817, "stimulus": "<p id='stroop-text' class='stroop-green'>GREEN</p>", "response": "g", "stimulus-type": "congruent", "word": "green", "color": "green", "correct_response": "g", "trial_id": "stroop-trial-1-congruent-27", "trial_type": "html-keyboard-response", "trial_index": 204, "time_elapsed": 802910, "internal_node_id": "0.0-8.0-18.0"}}, {"uniqueid": "w92929972:a73819912", "current_trial": 205, "dateTime": 1664555690585, "trialdata": {"rt": 861, "stimulus": "<p id='stroop-text' class='stroop-yellow'>BRIDGE</p>", "response": "y", "stimulus-type": "unrelated", "word": "BRIDGE", "color": "yellow", "correct_response": "y", "trial_id": "stroop-trial-1-unrelated-16", "trial_type": "html-keyboard-response", "trial_index": 205, "time_elapsed": 804273, "internal_node_id": "0.0-8.0-19.0"}}, {"uniqueid": "w92929972:a73819912", "current_trial": 206, "dateTime": 1664555691459, "trialdata": {"rt": 362, "stimulus": "<p id='stroop-text' class='stroop-yellow'>GREEN</p>", "response": "y", "stimulus-type": "incongruent", "word": "green", "color": "yellow", "correct_response": "y", "trial_id": "stroop-trial-1-incongruent-15", "trial_type": "html-keyboard-response", "trial_index": 206, "time_elapsed": 805147, "internal_node_id": "0.0-8.0-20.0"}}, {"uniqueid": "w92929972:a73819912", "current_trial": 207, "dateTime": 1664555692645, "trialdata": {"rt": 683, "stimulus": "<p id='stroop-text' class='stroop-red'>YELLOW</p>", "response": "r", "stimulus-type": "incongruent", "word": "yellow", "color": "red", "correct_response": "r", "trial_id": "stroop-trial-1-incongruent-23", "trial_type": "html-keyboard-response", "trial_index": 207, "time_elapsed": 806333, "internal_node_id": "0.0-8.0-21.0"}}, {"uniqueid": "w92929972:a73819912", "current_trial": 208, "dateTime": 1664555693966, "trialdata": {"rt": 813, "stimulus": "<p id='stroop-text' class='stroop-green'>YELLOW</p>", "response": "g", "stimulus-type": "incongruent", "word": "yellow", "color": "green", "correct_response": "g", "trial_id": "stroop-trial-1-incongruent-7", "trial_type": "html-keyboard-response", "trial_index": 208, "time_elapsed": 807653, "internal_node_id": "0.0-8.0-22.0"}}, {"uniqueid": "w92929972:a73819912", "current_trial": 209, "dateTime": 1664555695522, "trialdata": {"rt": 1041, "stimulus": "<p id='stroop-text' class='stroop-red'>CHAIR</p>", "response": "r", "stimulus-type": "unrelated", "word": "CHAIR", "color": "red", "correct_response": "r", "trial_id": "stroop-trial-1-unrelated-29", "trial_type": "html-keyboard-response", "trial_index": 209, "time_elapsed": 809209, "internal_node_id": "0.0-8.0-23.0"}}, {"uniqueid": "w92929972:a73819912", "current_trial": 210, "dateTime": 1664555696421, "trialdata": {"rt": 397, "stimulus": "<p id='stroop-text' class='stroop-red'>RED</p>", "response": "r", "stimulus-type": "congruent", "word": "red", "color": "red", "correct_response": "r", "trial_id": "stroop-trial-1-congruent-29", "trial_type": "html-keyboard-response", "trial_index": 210, "time_elapsed": 810109, "internal_node_id": "0.0-8.0-24.0"}}, {"uniqueid": "w92929972:a73819912", "current_trial": 211, "dateTime": 1664555697321, "trialdata": {"rt": 397, "stimulus": "<p id='stroop-text' class='stroop-red'>BLUE</p>", "response": "r", "stimulus-type": "incongruent", "word": "blue", "color": "red", "correct_response": "r", "trial_id": "stroop-trial-1-incongruent-28", "trial_type": "html-keyboard-response", "trial_index": 211, "time_elapsed": 811009, "internal_node_id": "0.0-8.0-25.0"}}, {"uniqueid": "w92929972:a73819912", "current_trial": 212, "dateTime": 1664555698223, "trialdata": {"rt": 398, "stimulus": "<p id='stroop-text' class='stroop-red'>BLUE</p>", "response": "r", "stimulus-type": "incongruent", "word": "blue", "color": "red", "correct_response": "r", "trial_id": "stroop-trial-1-incongruent-12", "trial_type": "html-keyboard-response", "trial_index": 212, "time_elapsed": 811910, "internal_node_id": "0.0-8.0-26.0"}}, {"uniqueid": "w92929972:a73819912", "current_trial": 213, "dateTime": 1664555699307, "trialdata": {"rt": 582, "stimulus": "<p id='stroop-text' class='stroop-green'>GREEN</p>", "response": "g", "stimulus-type": "congruent", "word": "green", "color": "green", "correct_response": "g", "trial_id": "stroop-trial-1-congruent-17", "trial_type": "html-keyboard-response", "trial_index": 213, "time_elapsed": 812995, "internal_node_id": "0.0-8.0-27.0"}}, {"uniqueid": "w92929972:a73819912", "current_trial": 214, "dateTime": 1664555700358, "trialdata": {"rt": 548, "stimulus": "<p id='stroop-text' class='stroop-green'>BRIDGE</p>", "response": "g", "stimulus-type": "unrelated", "word": "BRIDGE", "color": "green", "correct_response": "g", "trial_id": "stroop-trial-1-unrelated-14", "trial_type": "html-keyboard-response", "trial_index": 214, "time_elapsed": 814046, "internal_node_id": "0.0-8.0-28.0"}}, {"uniqueid": "w92929972:a73819912", "current_trial": 215, "dateTime": 1664555701853, "trialdata": {"rt": 993, "stimulus": "<p id='stroop-text' class='stroop-yellow'>GREEN</p>", "response": "y", "stimulus-type": "incongruent", "word": "green", "color": "yellow", "correct_response": "y", "trial_id": "stroop-trial-1-incongruent-26", "trial_type": "html-keyboard-response", "trial_index": 215, "time_elapsed": 815541, "internal_node_id": "0.0-8.0-29.0"}}, {"uniqueid": "w92929972:a73819912", "current_trial": 216, "dateTime": 1664555702913, "trialdata": {"rt": 558, "stimulus": "<p id='stroop-text' class='stroop-red'>RED</p>", "response": "r", "stimulus-type": "congruent", "word": "red", "color": "red", "correct_response": "r", "trial_id": "stroop-trial-1-congruent-1", "trial_type": "html-keyboard-response", "trial_index": 216, "time_elapsed": 816601, "internal_node_id": "0.0-8.0-30.0"}}, {"uniqueid": "w92929972:a73819912", "current_trial": 217, "dateTime": 1664555704148, "trialdata": {"rt": 732, "stimulus": "<p id='stroop-text' class='stroop-blue'>STONE</p>", "response": "b", "stimulus-type": "unrelated", "word": "STONE", "color": "blue", "correct_response": "b", "trial_id": "stroop-trial-1-unrelated-5", "trial_type": "html-keyboard-response", "trial_index": 217, "time_elapsed": 817836, "internal_node_id": "0.0-8.0-31.0"}}, {"uniqueid": "w92929972:a73819912", "current_trial": 218, "dateTime": 1664555705502, "trialdata": {"rt": 851, "stimulus": "<p id='stroop-text' class='stroop-blue'>CHAIR</p>", "response": "b", "stimulus-type": "unrelated", "word": "CHAIR", "color": "blue", "correct_response": "b", "trial_id": "stroop-trial-1-unrelated-10", "trial_type": "html-keyboard-response", "trial_index": 218, "time_elapsed": 819190, "internal_node_id": "0.0-8.0-32.0"}}, {"uniqueid": "w92929972:a73819912", "current_trial": 219, "dateTime": 1664555706965, "trialdata": {"rt": 959, "stimulus": "<p id='stroop-text' class='stroop-red'>YELLOW</p>", "response": "r", "stimulus-type": "incongruent", "word": "yellow", "color": "red", "correct_response": "r", "trial_id": "stroop-trial-1-incongruent-11", "trial_type": "html-keyboard-response", "trial_index": 219, "time_elapsed": 820652, "internal_node_id": "0.0-8.0-33.0"}}, {"uniqueid": "w92929972:a73819912", "current_trial": 220, "dateTime": 1664555708134, "trialdata": {"rt": 666, "stimulus": "<p id='stroop-text' class='stroop-yellow'>YELLOW</p>", "response": "y", "stimulus-type": "congruent", "word": "yellow", "color": "yellow", "correct_response": "y", "trial_id": "stroop-trial-1-congruent-3", "trial_type": "html-keyboard-response", "trial_index": 220, "time_elapsed": 821821, "internal_node_id": "0.0-8.0-34.0"}}, {"uniqueid": "w92929972:a73819912", "current_trial": 221, "dateTime": 1664555709512, "trialdata": {"rt": 875, "stimulus": "<p id='stroop-text' class='stroop-red'>GREEN</p>", "response": "r", "stimulus-type": "incongruent", "word": "green", "color": "red", "correct_response": "r", "trial_id": "stroop-trial-1-incongruent-29", "trial_type": "html-keyboard-response", "trial_index": 221, "time_elapsed": 823200, "internal_node_id": "0.0-8.0-35.0"}}, {"uniqueid": "w92929972:a73819912", "current_trial": 222, "dateTime": 1664555710875, "trialdata": {"rt": 849, "stimulus": "<p id='stroop-text' class='stroop-yellow'>SHIP</p>", "response": "y", "stimulus-type": "unrelated", "word": "SHIP", "color": "yellow", "correct_response": "y", "trial_id": "stroop-trial-1-unrelated-1", "trial_type": "html-keyboard-response", "trial_index": 222, "time_elapsed": 824562, "internal_node_id": "0.0-8.0-36.0"}}, {"uniqueid": "w92929972:a73819912", "cu