{"condition": 1, "counterbalance": 0, "assignmentId": "a69696822", "workerId": "w97987237", "hitId": "h66799560", "currenttrial": 78, "bonus": 0, "data": [{"uniqueid": "w97987237:a69696822", "current_trial": 0, "dateTime": 1664368815068, "trialdata": {"success": true, "trial_type": "fullscreen", "trial_index": 0, "time_elapsed": 50273, "internal_node_id": "0.0-0.0"}}, {"uniqueid": "w97987237:a69696822", "current_trial": 1, "dateTime": 1664368848041, "trialdata": {"view_history": [{"page_index": 0, "viewing_time": 32960}], "rt": 32962, "trial_id": "exp_instructions_no_distractor", "trial_type": "instructions", "trial_index": 1, "time_elapsed": 83247, "internal_node_id": "0.0-1.0"}}, {"uniqueid": "w97987237:a69696822", "current_trial": 2, "dateTime": 1664368851568, "trialdata": {"success": true, "trial_type": "fullscreen", "trial_index": 2, "time_elapsed": 86774, "internal_node_id": "0.0-2.0-0.0"}}, {"uniqueid": "w97987237:a69696822", "current_trial": 3, "dateTime": 1664369130784, "trialdata": {"view_history": [{"page_index": 0, "viewing_time": 72460}, {"page_index": 1, "viewing_time": 46847}, {"page_index": 2, "viewing_time": 77777}, {"page_index": 3, "viewing_time": 5976}, {"page_index": 4, "viewing_time": 76152}], "rt": 279213, "trial_id": "mouselab_instructions_1", "trial_type": "instructions", "trial_index": 3, "time_elapsed": 365990, "internal_node_id": "0.0-2.0-1.0"}}, {"uniqueid": "w97987237:a69696822", "current_trial": 4, "dateTime": 1664369181558, "trialdata": {"revealed_states": [], "num_clicks_accrued": [0, 0, 0, 0, 0, 0, 0, 0, 0, 0, 0, 0, 0], "stateRewards": ["", -10, 10, 10, 10, -10, 10, 10, 10, -10, -10, -10, 10], "withholdReward": false, "trial_id": "practice_1", "block": "test", "trialIndex": 0, "score": 9.5, "costs": -2.5, "simulationMode": [null, null, null], "rewards": [-10, 10, 10], "path": ["0", "0", "5", "6", "7"], "rt": [37877, 346, 1048], "actions": ["right", "right", "up"], "actionTimes": [42505, 43352, 44903], "queries": {"click": {"state": {"target": ["3", "1", "6", "5", "9", "10", "11", "12", "8", "7"], "time": [9611, 21514, 27881, 28761, 31313, 32017, 33937, 34841, 35873, 36730]}, "edge": {"target": [], "time": []}}, "mouseover": {"state": {"target": ["0", "5", "6", "3", "5", "5", "1", "0", "0", "5", "6", "5", "0", "9", "9", "10", "11", "12", "8", "7"], "time": [8650, 8761, 8860, 9345, 10329, 20522, 20890, 25444, 25895, 27463, 27584, 28397, 29365, 30642, 31083, 31745, 33551, 34637, 35570, 36504]}, "edge": {"target": [], "time": []}}, "mouseout": {"state": {"target": ["8", "8", "0", "0", "5", "6", "3", "5", "5", "1", "0", "0", "5", "6", "5", "0", "9", "9", "10", "5", "6", "5", "11", "10", "12", "8", "6", "7"], "time": [435, 3455, 4373, 8712, 8811, 9080, 10128, 10595, 20590, 25225, 25471, 27229, 27562, 28297, 29298, 30616, 30733, 31716, 32750, 32984, 33234, 33286, 34185, 34469, 35169, 36204, 36337, 36956]}, "edge": {"target": [], "time": []}}}, "displayed_time": "45.41", "trialTime": 50611, "trial_type": "mouselab-mdp", "trial_index": 4, "time_elapsed": 416763, "internal_node_id": "0.0-2.0-2.0-0.0"}}, {"uniqueid": "w97987237:a69696822", "current_trial": 5, "dateTime": 1664369205380, "trialdata": {"revealed_states": [], "num_clicks_accrued": [0, 0, 0, 0, 0, 0, 0, 0, 0, 0, 0, 0, 0], "stateRewards": ["", 10, -10, 10, 10, 10, 10, -10, -10, 10, -10, -10, -10], "withholdReward": false, "trial_id": "practice_2", "block": "test", "trialIndex": 1, "score": 11.5, "costs": -0.5, "simulationMode": [null, null, null], "rewards": [10, 10, -10], "path": ["0", "0", "5", "6", "7"], "rt": [8027, 1243, 523], "actions": ["right", "right", "up"], "actionTimes": [12918, 14664, 15678], "queries": {"click": {"state": {"target": ["11", "5"], "time": [8399, 11233]}, "edge": {"target": [], "time": []}}, "mouseover": {"state": {"target": ["5", "8", "9", "10", "11", "9", "9", "5", "8"], "time": [5389, 5551, 7553, 7577, 8204, 8888, 9422, 10773, 11713]}, "edge": {"target": [], "time": []}}, "mouseout": {"state": {"target": ["8", "0", "5", "8", "9", "10", "11", "9", "9", "5", "8"], "time": [4149, 5368, 5470, 5618, 7574, 7592, 8839, 9005, 10456, 11693, 11730]}, "edge": {"target": [], "time": []}}}, "displayed_time": "16.17", "trialTime": 23712, "trial_type": "mouselab-mdp", "trial_index": 5, "time_elapsed": 440586, "internal_node_id": "0.0-2.0-2.0-1.0"}}, {"uniqueid": "w97987237:a69696822", "current_trial": 6, "dateTime": 1664369486912, "trialdata": {"view_history": [{"page_index": 0, "viewing_time": 228287}, {"page_index": 1, "viewing_time": 42560}, {"page_index": 2, "viewing_time": 10680}], "rt": 281528, "trial_id": "mouselab_instructions_2_scarce", "trial_type": "instructions", "trial_index": 6, "time_elapsed": 722118, "internal_node_id": "0.0-2.0-3.0"}}, {"uniqueid": "w97987237:a69696822", "current_trial": 7, "dateTime": 1664369545986, "trialdata": {"rt": 59064, "response": {"Q0": "$-48 to $48", "Q1": "The cost is always $0.25.", "Q2": "The better I perform the higher my bonus will be.", "Q3": "No, the amount of cash at each node of the web may be different each time.", "Q4": "The values of the nodes walked through from start to finish.", "Q5": "No, the spider might forget to count the money on some rounds."}, "question_order": [0, 1, 2, 3, 4, 5], "correct": {"Q0": "$-48 to $48", "Q1": "The cost is always $0.25.", "Q2": "The better I perform the higher my bonus will be.", "Q3": "No, the amount of cash at each node of the web may be different each time.", "Q4": "The values of the nodes walked through from start to finish.", "Q5": "No, the spider might forget to count the money on some rounds."}, "trial_id": "mouselab_quiz_scarce", "trial_type": "survey-multi-choice", "trial_index": 7, "time_elapsed": 781192, "internal_node_id": "0.0-2.0-4.0"}}, {"uniqueid": "w97987237:a69696822", "current_trial": 8, "dateTime": 1664369600445, "trialdata": {"rt": 54441, "stimulus": "\n<h1> Get ready to start the game! </h1>\n\nThank you for reading the instructions. Get ready start with the first of 4 block(s) of this game.\n<br><br>\nIn this first block, you will complete 30 rounds of this game before moving on.\n<br><br>\nRemember, the more money the spider gets, the bigger your bonus will be!\n<br><br>\n<div style='text-align: center;'>Press <code>space</code> to begin.</div>\n\n<br><br>\n(If, at any point, the <code>space</code> key does not take you to the next page, click once on the text and try again.)", "response": " ", "trial_id": "mdp_ready_1", "trial_type": "html-keyboard-response", "trial_index": 8, "time_elapsed": 835651, "internal_node_id": "0.0-4.0-0.0"}}, {"uniqueid": "w97987237:a69696822", "current_trial": 9, "dateTime": 1664369620901, "trialdata": {"revealed_states": [], "num_clicks_accrued": [0, 0, 0, 0, 0, 0, 0, 0, 0, 0, 0, 0, 0], "stateRewards": ["", -2, 8, -48, -24, -2, 8, 48, -48, -4, 8, 24, 48], "withholdReward": false, "trial_id": "mdp_160707003673", "block": "test1", "trialIndex": 2, "score": 58.75, "costs": -0.25, "simulationMode": [null, null, null], "rewards": [-2, 8, 48], "path": ["0", "0", "5", "6", "7"], "rt": [8448, 537, 411], "actions": ["right", "right", "up"], "actionTimes": [12426, 13457, 14365], "queries": {"click": {"state": {"target": ["7"], "time": [10035]}, "edge": {"target": [], "time": []}}, "mouseover": {"state": {"target": ["8", "8", "6", "7", "6", "8"], "time": [7637, 8041, 8704, 8873, 10623, 10923]}, "edge": {"target": [], "time": []}}, "mouseout": {"state": {"target": ["0", "8", "8", "6", "7", "6", "8"], "time": [4150, 7729, 8641, 8754, 10506, 10756, 11024]}, "edge": {"target": [], "time": []}}}, "displayed_time": "14.85", "trialTime": 20355, "trial_type": "mouselab-mdp", "trial_index": 9, "time_elapsed": 856106, "internal_node_id": "0.0-4.0-1.0-0.0"}}, {"uniqueid": "w97987237:a69696822", "current_trial": 10, "dateTime": 1664369644524, "trialdata": {"revealed_states": [], "num_clicks_accrued": [0, 0, 0, 0, 0, 0, 0, 0, 0, 0, 0, 0, 0], "stateRewards": ["", 4, 4, 48, -24, -4, -8, 24, -24, 2, -8, -24, 24], "withholdReward": false, "trial_id": "mdp_933201675789", "block": "test1", "trialIndex": 3, "score": 21.75, "costs": -1.25, "simulationMode": [null, null, null], "rewards": [2, -8, 24], "path": ["0", "0", "9", "10", "12"], "rt": [14449, 109, 470], "actions": ["left", "left", "down"], "actionTimes": [19178, 19793, 20754], "queries": {"click": {"state": {"target": ["12", "11", "7", "8", "2"], "time": [8859, 11067, 12828, 13852, 16643]}, "edge": {"target": [], "time": []}}, "mouseover": {"state": {"target": ["9", "10", "10", "12", "12", "10", "11", "11", "2", "3", "7", "6", "8", "5", "2", "2"], "time": [5442, 5541, 8344, 8381, 8628, 10018, 10330, 10754, 11698, 11864, 12215, 13266, 13593, 15979, 16152, 16386]}, "edge": {"target": [], "time": []}}, "mouseout": {"state": {"target": ["8", "0", "9", "10", "10", "12", "12", "10", "11", "11", "2", "3", "7", "6", "8", "8", "5", "2", "2", "8"], "time": [3373, 5391, 5493, 6177, 8365, 8444, 9996, 10078, 10413, 11581, 11814, 11934, 13216, 13366, 14250, 15952, 16018, 16220, 16953, 17620]}, "edge": {"target": [], "time": []}}}, "displayed_time": "21.25", "trialTime": 23515, "trial_type": "mouselab-mdp", "trial_index": 10, "time_elapsed": 879730, "internal_node_id": "0.0-4.0-1.0-1.0"}}, {"uniqueid": "w97987237:a69696822", "current_trial": 11, "dateTime": 1664369659454, "trialdata": {"revealed_states": [], "num_clicks_accrued": [0, 0, 0, 0, 0, 0, 0, 0, 0, 0, 0, 0, 0], "stateRewards": ["", 4, 8, 24, 24, 2, -4, 48, -24, -4, 8, -24, 24], "withholdReward": true, "trial_id": "mdp_932292142091", "block": "test1", "trialIndex": 4, "score": 50.5, "costs": -0.5, "simulationMode": [null, null, null], "rewards": [2, -4, 48], "path": ["0", "0", "5", "6", "7"], "rt": [4935, 44, 237], "actions": ["right", "right", "up"], "actionTimes": [8039, 8576, 9303], "queries": {"click": {"state": {"target": ["2", "7"], "time": [5678, 6717]}, "edge": {"target": [], "time": []}}, "mouseover": {"state": {"target": ["2", "7", "7"], "time": [5351, 6085, 6469]}, "edge": {"target": [], "time": []}}, "mouseout": {"state": {"target": ["2", "7", "7"], "time": [6061, 6104, 7120]}, "edge": {"target": [], "time": []}}}, "displayed_time": "11.10", "trialTime": 14816, "trial_type": "mouselab-mdp", "trial_index": 11, "time_elapsed": 894660, "internal_node_id": "0.0-4.0-1.0-2.0"}}, {"uniqueid": "w97987237:a69696822", "current_trial": 12, "dateTime": 1664369671124, "trialdata": {"revealed_states": [], "num_clicks_accrued": [0, 0, 0, 0, 0, 0, 0, 0, 0, 0, 0, 0, 0], "stateRewards": ["", -2, 4, 24, 48, 2, 4, -48, -48, 2, 8, 48, -48], "withholdReward": false, "trial_id": "mdp_409609775558", "block": "test1", "trialIndex": 5, "score": 62, "costs": -1, "simulationMode": [null, null, null], "rewards": [2, 8, 48], "path": ["0", "0", "9", "10", "11"], "rt": [5502, 120, 31], "actions": ["left", "left", "up"], "actionTimes": [7447, 8065, 8595], "queries": {"click": {"state": {"target": ["7", "8", "12", "11"], "time": [3089, 4145, 5241, 6065]}, "edge": {"target": [], "time": []}}, "mouseover": {"state": {"target": ["0", "5", "6", "7", "6", "8", "12", "10", "11", "9"], "time": [2447, 2471, 2546, 2881, 3770, 3983, 5033, 5638, 5834, 6585]}, "edge": {"target": [], "time": []}}, "mouseout": {"state": {"target": ["6", "5", "0", "0", "5", "6", "7", "6", "8", "12", "10", "11", "9"], "time": [1362, 1428, 1695, 2468, 2496, 2781, 3748, 3849, 4499, 5617, 5682, 6519, 6651]}, "edge": {"target": [], "time": []}}}, "displayed_time": "9.95", "trialTime": 11569, "trial_type": "mouselab-mdp", "trial_index": 12, "time_elapsed": 906330, "internal_node_id": "0.0-4.0-1.0-3.0"}}, {"uniqueid": "w97987237:a69696822", "current_trial": 13, "dateTime": 1664369687728, "trialdata": {"revealed_states": [], "num_clicks_accrued": [0, 0, 0, 0, 0, 0, 0, 0, 0, 0, 0, 0, 0], "stateRewards": ["", -4, 8, 24, -24, -2, 4, -24, 48, -2, 8, -48, -24], "withholdReward": true, "trial_id": "mdp_799359103169", "block": "test1", "trialIndex": 6, "score": 54, "costs": -1, "simulationMode": [null, null, null], "rewards": [-2, 4, 48], "path": ["0", "0", "5", "6", "8"], "rt": [4492, 129, 300], "actions": ["right", "right", "down"], "actionTimes": [7930, 8562, 9367], "queries": {"click": {"state": {"target": ["11", "12", "7", "8"], "time": [4397, 5132, 5893, 6548]}, "edge": {"target": [], "time": []}}, "mouseover": {"state": {"target": ["11", "12", "5", "7", "6", "8"], "time": [4019, 4901, 5518, 5652, 6195, 6386]}, "edge": {"target": [], "time": []}}, "mouseout": {"state": {"target": ["0", "11", "12", "5", "7", "6", "8"], "time": [3834, 4684, 5452, 5568, 6169, 6268, 7037]}, "edge": {"target": [], "time": []}}}, "displayed_time": "11.44", "trialTime": 16480, "trial_type": "mouselab-mdp", "trial_index": 13, "time_elapsed": 922934, "internal_node_id": "0.0-4.0-1.0-4.0"}}, {"uniqueid": "w97987237:a69696822", "current_trial": 14, "dateTime": 1664369701357, "trialdata": {"revealed_states": [], "num_clicks_accrued": [0, 0, 0, 0, 0, 0, 0, 0, 0, 0, 0, 0, 0], "stateRewards": ["", -4, -8, -48, 48, -2, 8, 48, 48, -2, -4, -48, -48], "withholdReward": true, "trial_id": "mdp_752833580638", "block": "test1", "trialIndex": 7, "score": 58.5, "costs": -0.5, "simulationMode": [null, null, null], "rewards": [-2, 8, 48], "path": ["0", "0", "5", "6", "8"], "rt": [3236, 139, 550], "actions": ["right", "right", "down"], "actionTimes": [5502, 6131, 7175], "queries": {"click": {"state": {"target": ["6", "8"], "time": [3313, 3962]}, "edge": {"target": [], "time": []}}, "mouseover": {"state": {"target": ["6", "6", "8"], "time": [2778, 3060, 3712]}, "edge": {"target": [], "time": []}}, "mouseout": {"state": {"target": ["0", "6", "6", "8", "6"], "time": [2611, 2828, 3612, 4364, 4657]}, "edge": {"target": [], "time": []}}}, "displayed_time": "11.27", "trialTime": 13538, "trial_type": "mouselab-mdp", "trial_index": 14, "time_elapsed": 936563, "internal_node_id": "0.0-4.0-1.0-5.0"}}, {"uniqueid": "w97987237:a69696822", "current_trial": 15, "dateTime": 1664369715027, "trialdata": {"revealed_states": [], "num_clicks_accrued": [0, 0, 0, 0, 0, 0, 0, 0, 0, 0, 0, 0, 0], "stateRewards": ["", -4, -4, -24, 48, -4, -8, -24, 48, 2, 4, 48, 48], "withholdReward": true, "trial_id": "mdp_810954007398", "block": "test1", "trialIndex": 8, "score": 40.5, "costs": -0.5, "simulationMode": [null, null, null], "rewards": [-4, -8, 48], "path": ["0", "0", "5", "6", "8"], "rt": [3424, 145, 229], "actions": ["right", "right", "down"], "actionTimes": [5981, 6630, 7363], "queries": {"click": {"state": {"target": ["7", "8"], "time": [4035, 4690]}, "edge": {"target": [], "time": []}}, "mouseover": {"state": {"target": ["0", "7", "7", "6", "8"], "time": [3122, 3337, 3737, 4341, 4488]}, "edge": {"target": [], "time": []}}, "mouseout": {"state": {"target": ["0", "0", "7", "7", "6", "8", "8"], "time": [2018, 3287, 3363, 4321, 4387, 5139, 5256]}, "edge": {"target": [], "time": []}}}, "displayed_time": "10.56", "trialTime": 13552, "trial_type": "mouselab-mdp", "trial_index": 15, "time_elapsed": 950233, "internal_node_id": "0.0-4.0-1.0-6.0"}}, {"uniqueid": "w97987237:a69696822", "current_trial": 16, "dateTime": 1664369730610, "trialdata": {"revealed_states": [], "num_clicks_accrued": [0, 0, 0, 0, 0, 0, 0, 0, 0, 0, 0, 0, 0], "stateRewards": ["", -2, -4, 48, -24, -4, -4, -24, -24, -2, 4, -48, -24], "withholdReward": true, "trial_id": "mdp_410467837196", "block": "test1", "trialIndex": 9, "score": -28, "costs": -1, "simulationMode": [null, null, null], "rewards": [-4, -4, -24], "path": ["0", "0", "5", "6", "7"], "rt": [4603, 76, 1014], "actions": ["right", "right", "up"], "actionTimes": [7073, 7649, 9156], "queries": {"click": {"state": {"target": ["9", "10", "11", "12"], "time": [3216, 3976, 4616, 5216]}, "edge": {"target": [], "time": []}}, "mouseover": {"state": {"target": ["9", "10", "11", "12", "0", "5", "7"], "time": [2946, 3513, 4410, 5044, 5594, 5638, 5961]}, "edge": {"target": [], "time": []}}, "mouseout": {"state": {"target": ["8", "0", "9", "10", "11", "10", "12", "0", "5"], "time": [1707, 2925, 3492, 4310, 4910, 4960, 5527, 5615, 5677]}, "edge": {"target": [], "time": []}}}, "displayed_time": "11.47", "trialTime": 15477, "trial_type": "mouselab-mdp", "trial_index": 16, "time_elapsed": 965815, "internal_node_id": "0.0-4.0-1.0-7.0"}}, {"uniqueid": "w97987237:a69696822", "current_trial": 17, "dateTime": 1664369752383, "trialdata": {"revealed_states": [], "num_clicks_accrued": [0, 0, 0, 0, 0, 0, 0, 0, 0, 0, 0, 0, 0], "stateRewards": ["", 4, 8, 48, -48, -4, 8, -24, -24, -4, 8, 48, 48], "withholdReward": true, "trial_id": "mdp_377640328420", "block": "test1", "trialIndex": 10, "score": 56.75, "costs": -0.25, "simulationMode": [null, null, null], "rewards": [-4, 8, 48], "path": ["0", "0", "9", "10", "11"], "rt": [2760, 58, 57], "actions": ["left", "left", "up"], "actionTimes": [4967, 5524, 6090], "queries": {"click": {"state": {"target": ["11"], "time": [3653]}, "edge": {"target": [], "time": []}}, "mouseover": {"state": {"target": ["0", "9", "10", "11", "10", "9"], "time": [2518, 2619, 2745, 3420, 4137, 4397]}, "edge": {"target": [], "time": []}}, "mouseout": {"state": {"target": ["7", "0", "0", "0", "9", "10", "11", "10"], "time": [1450, 1585, 1867, 2551, 2719, 2852, 4087, 4372]}, "edge": {"target": [], "time": []}}}, "displayed_time": "11.21", "trialTime": 21679, "trial_type": "mouselab-mdp", "trial_index": 17, "time_elapsed": 987589, "internal_node_id": "0.0-4.0-1.0-8.0"}}, {"uniqueid": "w97987237:a69696822", "current_trial": 18, "dateTime": 1664369779304, "trialdata": {"revealed_states": [], "num_clicks_accrued": [0, 0, 0, 0, 0, 0, 0, 0, 0, 0, 0, 0, 0], "stateRewards": ["", 2, 4, 48, -24, 2, -8, -24, -24, 2, -8, -24, -48], "withholdReward": false, "trial_id": "mdp_274832552938", "block": "test1", "trialIndex": 11, "score": 56.25, "costs": -2.75, "simulationMode": [null, null, null], "rewards": [2, 4, 48], "path": ["0", "0", "1", "2", "3"], "rt": [20293, 169, 62], "actions": ["up", "up", "right"], "actionTimes": [22640, 23299, 23861], "queries": {"click": {"state": {"target": ["2", "7", "8", "12", "11", "1", "5", "6", "9", "10", "3"], "time": [5625, 7369, 8265, 9872, 10593, 16001, 17840, 18448, 19256, 20176, 21400]}, "edge": {"target": [], "time": []}}, "mouseover": {"state": {"target": ["0", "2", "1", "7", "6", "8", "12", "10", "11", "9", "9", "0", "1", "9", "10", "9", "1", "5", "6", "5", "6", "0", "9", "10", "3", "3"], "time": [3019, 5404, 6264, 7156, 7825, 8057, 9674, 10242, 10375, 10785, 11309, 12594, 12927, 14545, 14929, 15167, 15496, 16397, 16531, 17332, 18209, 18900, 19033, 19968, 20702, 21085]}, "edge": {"target": [], "time": []}}, "mouseout": {"state": {"target": ["9", "0", "2", "1", "7", "6", "8", "12", "10", "11", "9", "9", "0", "1", "9", "10", "9", "1", "5", "6", "5", "6", "5", "0", "9", "10", "9", "1", "3", "3", "2"], "time": [1616, 3836, 5888, 6606, 7775, 7907, 8524, 10191, 10325, 10759, 10841, 11743, 12616, 13811, 14629, 15146, 15212, 16347, 16464, 16831, 18182, 18716, 18851, 18966, 19584, 20319, 20468, 20601, 20952, 21620, 21869]}, "edge": {"target": [], "time": []}}}, "displayed_time": "24.36", "trialTime": 26828, "trial_type": "mouselab-mdp", "trial_index": 18, "time_elapsed": 1014510, "internal_node_id": "0.0-4.0-1.0-9.0"}}, {"uniqueid": "w97987237:a69696822", "current_trial": 19, "dateTime": 1664369794309, "trialdata": {"revealed_states": [], "num_clicks_accrued": [0, 0, 0, 0, 0, 0, 0, 0, 0, 0, 0, 0, 0], "stateRewards": ["", 4, -8, -48, 48, -2, 8, -48, 48, -2, -4, 24, -48], "withholdReward": true, "trial_id": "mdp_400558136089", "block": "test1", "trialIndex": 12, "score": 58.5, "costs": -0.5, "simulationMode": [null, null, null], "rewards": [-2, 8, 48], "path": ["0", "0", "5", "6", "8"], "rt": [4022, 160, 391], "actions": ["right", "right", "down"], "actionTimes": [6790, 7444, 8327], "queries": {"click": {"state": {"target": ["7", "8"], "time": [4578, 5562]}, "edge": {"target": [], "time": []}}, "mouseover": {"state": {"target": ["7", "7", "6", "8"], "time": [4137, 4371, 4925, 5033]}, "edge": {"target": [], "time": []}}, "mouseout": {"state": {"target": ["6", "5", "0", "7", "7", "6", "8"], "time": [1218, 1433, 3820, 4187, 4904, 5005, 5822]}, "edge": {"target": [], "time": []}}}, "displayed_time": "11.77", "trialTime": 14875, "trial_type": "mouselab-mdp", "trial_index": 19, "time_elapsed": 1029515, "internal_node_id": "0.0-4.0-1.0-10.0"}}, {"uniqueid": "w97987237:a69696822", "current_trial": 20, "dateTime": 1664369806378, "trialdata": {"revealed_states": [], "num_clicks_accrued": [0, 0, 0, 0, 0, 0, 0, 0, 0, 0, 0, 0, 0], "stateRewards": ["", 4, -8, 48, 24, 4, -4, 48, 48, -4, 8, -48, 24], "withholdReward": true, "trial_id": "mdp_303828806348", "block": "test1", "trialIndex": 13, "score": 52.75, "costs": -0.25, "simulationMode": [null, null, null], "rewards": [4, -4, 48], "path": ["0", "0", "5", "6", "7"], "rt": [2589, 82, 664], "actions": ["right", "right", "up"], "actionTimes": [4583, 5162, 6329], "queries": {"click": {"state": {"target": ["7"], "time": [3466]}, "edge": {"target": [], "time": []}}, "mouseover": {"state": {"target": ["5", "7", "8"], "time": [2442, 3298, 4085]}, "edge": {"target": [], "time": []}}, "mouseout": {"state": {"target": ["0", "5", "7"], "time": [2418, 2459, 3901]}, "edge": {"target": [], "time": []}}}, "displayed_time": "9.99", "trialTime": 11944, "trial_type": "mouselab-mdp", "trial_index": 20, "time_elapsed": 1041583, "internal_node_id": "0.0-4.0-1.0-11.0"}}, {"uniqueid": "w97987237:a69696822", "current_trial": 21, "dateTime": 1664369818850, "trialdata": {"revealed_states": [], "num_clicks_accrued": [0, 0, 0, 0, 0, 0, 0, 0, 0, 0, 0, 0, 0], "stateRewards": ["", 2, 8, 48, 24, -4, 4, -48, 24, 2, 8, 48, 48], "withholdReward": true, "trial_id": "mdp_367344599162", "block": "test1", "trialIndex": 14, "score": 62.75, "costs": -0.25, "simulationMode": [null, null, null], "rewards": [2, 8, 48], "path": ["0", "0", "9", "10", "11"], "rt": [2296, 161, 184], "actions": ["left", "left", "up"], "actionTimes": [3798, 4462, 5137], "queries": {"click": {"state": {"target": ["11"], "time": [2738]}, "edge": {"target": [], "time": []}}, "mouseover": {"state": {"target": ["11", "0"], "time": [2272, 3206]}, "edge": {"target": [], "time": []}}, "mouseout": {"state": {"target": ["8", "0", "11", "0", "0", "9", "11", "9"], "time": [995, 1805, 3106, 3228, 9779, 10063, 11581, 11630]}, "edge": {"target": [], "time": []}}}, "displayed_time": "10.50", "trialTime": 12343, "trial_type": "mouselab-mdp", "trial_index": 21, "time_elapsed": 1054055, "internal_node_id": "0.0-4.0-1.0-12.0"}}, {"uniqueid": "w97987237:a69696822", "current_trial": 22, "dateTime": 1664369836842, "trialdata": {"revealed_states": [], "num_clicks_accrued": [0, 0, 0, 0, 0, 0, 0, 0, 0, 0, 0, 0, 0], "stateRewards": ["", 2, 4, 48, -48, 2, 4, 24, -24, 2, -4, -24, -48], "withholdReward": true, "trial_id": "mdp_706591889062", "block": "test1", "trialIndex": 15, "score": 57, "costs": -2, "simulationMode": [null, null, null], "rewards": [2, 4, 48], "path": ["0", "0", "1", "2", "3"], "rt": [10365, 131, 110], "actions": ["up", "up", "right"], "actionTimes": [12181, 12804, 13417], "queries": {"click": {"state": {"target": ["7", "6", "8", "11", "12", "2", "1", "3"], "time": [3127, 4519, 5767, 7343, 8231, 9599, 10168, 11101]}, "edge": {"target": [], "time": []}}, "mouseover": {"state": {"target": ["7", "6", "6", "5", "8", "5", "5", "0", "9", "11", "10", "12", "0", "1", "2", "1", "3"], "time": [2653, 3770, 4254, 5159, 5472, 6273, 6547, 6605, 6740, 6903, 7595, 7710, 8859, 9276, 9375, 9910, 10761]}, "edge": {"target": [], "time": []}}, "mouseout": {"state": {"target": ["0", "0", "7", "6", "6", "5", "8", "5", "5", "0", "9", "11", "10", "12", "0", "1", "2", "1", "3", "2"], "time": [1317, 2269, 3720, 3937, 5138, 5405, 6139, 6523, 6567, 6619, 6766, 7574, 7640, 8525, 9223, 9326, 9843, 10527, 11344, 11578]}, "edge": {"target": [], "time": []}}}, "displayed_time": "13.91", "trialTime": 17854, "trial_type": "mouselab-mdp", "trial_index": 22, "time_elapsed": 1072048, "internal_node_id": "0.0-4.0-1.0-13.0"}}, {"uniqueid": "w97987237:a69696822", "current_trial": 23, "dateTime": 1664369859070, "trialdata": {"revealed_states": [], "num_clicks_accrued": [0, 0, 0, 0, 0, 0, 0, 0, 0, 0, 0, 0, 0], "stateRewards": ["", 4, -4, 48, -48, 2, 8, -48, 24, -2, -4, -24, 48], "withholdReward": true, "trial_id": "mdp_937564992306", "block": "test1", "trialIndex": 16, "score": 46, "costs": -1, "simulationMode": [null, null, null], "rewards": [-2, -4, 48], "path": ["0", "0", "9", "10", "12"], "rt": [5247, 106, 584], "actions": ["left", "left", "down"], "actionTimes": [7476, 8085, 9166], "queries": {"click": {"state": {"target": ["7", "8", "11", "12"], "time": [3389, 4481, 5657, 6306]}, "edge": {"target": [], "time": []}}, "mouseover": {"state": {"target": ["7", "6", "8", "9", "11", "10", "12", "0", "5"], "time": [3065, 3999, 4249, 5117, 5351, 5890, 6135, 6685, 6763]}, "edge": {"target": [], "time": []}}, "mouseout": {"state": {"target": ["1", "0", "7", "6", "8", "9", "11", "10", "12", "0"], "time": [1596, 2681, 3949, 4133, 4817, 5284, 5868, 6018, 6618, 6735]}, "edge": {"target": [], "time": []}}}, "displayed_time": "11.23", "trialTime": 22092, "trial_type": "mouselab-mdp", "trial_index": 23, "time_elapsed": 1094275, "internal_node_id": "0.0-4.0-1.0-14.0"}}, {"uniqueid": "w97987237:a69696822", "current_trial": 24, "dateTime": 1664369871990, "trialdata": {"revealed_states": [], "num_clicks_accrued": [0, 0, 0, 0, 0, 0, 0, 0, 0, 0, 0, 0, 0], "stateRewards": ["", 2, -8, -24, 48, -4, -8, 24, -48, 4, -8, -24, -24], "withholdReward": true, "trial_id": "mdp_928911266656", "block": "test1", "trialIndex": 17, "score": 45.75, "costs": -1.25, "simulationMode": [null, null, null], "rewards": [2, -8, 48], "path": ["0", "0", "1", "2", "4"], "rt": [7951, 99, 29], "actions": ["up", "up", "left"], "actionTimes": [9353, 9963, 10492], "queries": {"click": {"state": {"target": ["7", "8", "11", "12", "4"], "time": [2378, 3130, 5682, 6394, 8266]}, "edge": {"target": [], "time": []}}, "mouseover": {"state": {"target": ["5", "6", "7", "6", "8", "0", "9", "11", "10", "12", "1", "2", "4", "2", "3"], "time": [1833, 1850, 2162, 2746, 2929, 4898, 4940, 5432, 6053, 6132, 6883, 7651, 8051, 8578, 8667]}, "edge": {"target": [], "time": []}}, "mouseout": {"state": {"target": ["5", "0", "5", "6", "7", "6", "8", "0", "9", "11", "10", "12", "1", "2", "4", "2", "3"], "time": [1043, 1811, 1848, 1870, 2679, 2863, 3697, 4921, 4957, 6032, 6073, 6833, 6905, 7851, 8551, 8634, 10312]}, "edge": {"target": [], "time": []}}}, "displayed_time": "10.98", "trialTime": 12788, "trial_type": "mouselab-mdp", "trial_index": 24, "time_elapsed": 1107196, "internal_node_id": "0.0-4.0-1.0-15.0"}}, {"uniqueid": "w97987237:a69696822", "current_trial": 25, "dateTime": 1664369887351, "trialdata": {"revealed_states": [], "num_clicks_accrued": [0, 0, 0, 0, 0, 0, 0, 0, 0, 0, 0, 0, 0], "stateRewards": ["", -2, 8, 48, -24, 2, 4, -48, -24, -4, 8, -48, -48], "withholdReward": true, "trial_id": "mdp_539167561933", "block": "test1", "trialIndex": 18, "score": 57.5, "costs": -1.5, "simulationMode": [null, null, null], "rewards": [-2, 8, 48], "path": ["0", "0", "1", "2", "3"], "rt": [7861, 184, 38], "actions": ["up", "up", "right"], "actionTimes": [10349, 11028, 11565], "queries": {"click": {"state": {"target": ["4", "7", "11", "12", "8", "3"], "time": [3701, 4732, 5845, 6533, 7923, 9173]}, "edge": {"target": [], "time": []}}, "mouseover": {"state": {"target": ["1", "4", "2", "3", "7", "1", "11", "11", "10", "12", "8", "3"], "time": [3042, 3259, 4094, 4302, 4477, 5077, 5143, 5644, 6110, 6312, 7736, 8931]}, "edge": {"target": [], "time": []}}, "mouseout": {"state": {"target": ["1", "0", "1", "4", "2", "3", "7", "1", "11", "11", "10", "12", "8", "3", "7"], "time": [2123, 2976, 3063, 4009, 4276, 4375, 5027, 5096, 5156, 6061, 6211, 6895, 8197, 9515, 9565]}, "edge": {"target": [], "time": []}}}, "displayed_time": "12.06", "trialTime": 15232, "trial_type": "mouselab-mdp", "trial_index": 25, "time_elapsed": 1122557, "internal_node_id": "0.0-4.0-1.0-16.0"}}, {"uniqueid": "w97987237:a69696822", "current_trial": 26, "dateTime": 1664369900734, "trialdata": {"revealed_states": [], "num_clicks_accrued": [0, 0, 0, 0, 0, 0, 0, 0, 0, 0, 0, 0, 0], "stateRewards": ["", 2, 8, -24, -48, 2, 4, -24, 48, 2, -8, 48, -24], "withholdReward": true, "trial_id": "mdp_791659307216", "block": "test1", "trialIndex": 19, "score": 58.25, "costs": -0.75, "simulationMode": [null, null, null], "rewards": [2, 4, 48], "path": ["0", "0", "5", "6", "8"], "rt": [5074, 69, 9], "actions": ["right", "right", "down"], "actionTimes": [7775, 8348, 8855], "queries": {"click": {"state": {"target": ["3", "7", "8"], "time": [3653, 5229, 6373]}, "edge": {"target": [], "time": []}}, "mouseover": {"state": {"target": ["0", "3", "2", "7", "6", "8", "8"], "time": [3030, 3230, 4064, 5000, 5799, 5921, 6166]}, "edge": {"target": [], "time": []}}, "mouseout": {"state": {"target": ["8", "1", "0", "0", "0", "3", "2", "7", "6", "8", "8"], "time": [710, 1511, 1828, 2579, 3130, 3981, 4298, 5716, 5900, 5939, 6750]}, "edge": {"target": [], "time": []}}}, "displayed_time": "10.70", "trialTime": 13255, "trial_type": "mouselab-mdp", "trial_index": 26, "time_elapsed": 1135939, "internal_node_id": "0.0-4.0-1.0-17.0"}}, {"uniqueid": "w97987237:a69696822", "current_trial": 27, "dateTime": 1664369915172, "trialdata": {"revealed_states": [], "num_clicks_accrued": [0, 0, 0, 0, 0, 0, 0, 0, 0, 0, 0, 0, 0], "stateRewards": ["", -4, -4, -24, 48, 2, 4, -24, -48, -2, 4, 24, 24], "withholdReward": true, "trial_id": "mdp_360934723192", "block": "test1", "trialIndex": 20, "score": 43.75, "costs": -1.25, "simulationMode": [null, null, null], "rewards": [-4, -4, 48], "path": ["0", "0", "1", "2", "4"], "rt": [8629, 89, 81], "actions": ["up", "up", "left"], "actionTimes": [10351, 10941, 11515], "queries": {"click": {"state": {"target": ["11", "8", "7", "12", "4"], "time": [3348, 4916, 5884, 7308, 9236]}, "edge": {"target": [], "time": []}}, "mouseover": {"state": {"target": ["11", "1", "7", "7", "6", "8", "6", "7", "12", "12", "0", "1", "4", "2"], "time": [3166, 3733, 4101, 4425, 4572, 4735, 5245, 5535, 6286, 7120, 8038, 8523, 9022, 9639]}, "edge": {"target": [], "time": []}}, "mouseout": {"state": {"target": ["5", "0", "11", "1", "7", "7", "6", "8", "6", "7", "12", "12", "0", "1", "4", "2"], "time": [1181, 2243, 3633, 3834, 4404, 4551, 4617, 5219, 5435, 6203, 6307, 7687, 8472, 8545, 9472, 9706]}, "edge": {"target": [], "time": []}}}, "displayed_time": "12.02", "trialTime": 14317, "trial_type": "mouselab-mdp", "trial_index": 27, "time_elapsed": 1150378, "internal_node_id": "0.0-4.0-1.0-18.0"}}, {"uniqueid": "w97987237:a69696822", "current_trial": 28, "dateTime": 1664369928331, "trialdata": {"revealed_states": [], "num_clicks_accrued": [0, 0, 0, 0, 0, 0, 0, 0, 0, 0, 0, 0, 0], "stateRewards": ["", -4, -8, 48, 48, -4, 4, 48, -24, 4, 8, -24, -48], "withholdReward": false, "trial_id": "mdp_142906093415", "block": "test1", "trialIndex": 21, "score": 40.75, "costs": -0.25, "simulationMode": [null, null, null], "rewards": [-4, -8, 48], "path": ["0", "0", "1", "2", "4"], "rt": [2385, 146, 28], "actions": ["up", "up", "left"], "actionTimes": [4598, 5238, 5770], "queries": {"click": {"state": {"target": ["4"], "time": [3370]}, "edge": {"target": [], "time": []}}, "mouseover": {"state": {"target": ["1", "4", "3"], "time": [2796, 3046, 3668]}, "edge": {"target": [], "time": []}}, "mouseout": {"state": {"target": ["1", "0", "1", "4", "3"], "time": [1360, 1927, 2862, 3647, 3693]}, "edge": {"target": [], "time": []}}}, "displayed_time": "10.21", "trialTime": 13024, "trial_type": "mouselab-mdp", "trial_index": 28, "time_elapsed": 1163537, "internal_node_id": "0.0-4.0-1.0-19.0"}}, {"uniqueid": "w97987237:a69696822", "current_trial": 29, "dateTime": 1664369941604, "trialdata": {"revealed_states": [], "num_clicks_accrued": [0, 0, 0, 0, 0, 0, 0, 0, 0, 0, 0, 0, 0], "stateRewards": ["", 2, 4, 48, 48, 4, -8, 24, -48, -4, -8, -24, -48], "withholdReward": true, "trial_id": "mdp_343818007251", "block": "test1", "trialIndex": 22, "score": 58.75, "costs": -0.25, "simulationMode": [null, null, null], "rewards": [2, 4, 48], "path": ["0", "0", "1", "2", "4"], "rt": [2354, 56, 992], "actions": ["up", "up", "left"], "actionTimes": [4710, 5265, 6769], "queries": {"click": {"state": {"target": ["4"], "time": [3607]}, "edge": {"target": [], "time": []}}, "mouseover": {"state": {"target": ["4", "6"], "time": [3212, 4080]}, "edge": {"target": [], "time": []}}, "mouseout": {"state": {"target": ["5", "0", "0", "0", "4", "6", "8"], "time": [1627, 1643, 1877, 3079, 3864, 4102, 12558]}, "edge": {"target": [], "time": []}}}, "displayed_time": "10.36", "trialTime": 13168, "trial_type": "mouselab-mdp", "trial_index": 29, "time_elapsed": 1176810, "internal_node_id": "0.0-4.0-1.0-20.0"}}, {"uniqueid": "w97987237:a69696822", "current_trial": 30, "dateTime": 1664369975319, "trialdata": {"revealed_states": [], "num_clicks_accrued": [0, 0, 0, 0, 0, 0, 0, 0, 0, 0, 0, 0, 0], "stateRewards": ["", -4, -8, -48, 24, -4, -4, -24, -48, 2, -8, -24, -48], "withholdReward": false, "trial_id": "mdp_628181832088", "block": "test1", "trialIndex": 23, "score": 14, "costs": -3, "simulationMode": [null, null, null], "rewards": [-4, -8, 24], "path": ["0", "0", "1", "2", "4"], "rt": [28362, 136, 19], "actions": ["up", "up", "left"], "actionTimes": [30245, 30878, 31392], "queries": {"click": {"state": {"target": ["4", "7", "8", "12", "11", "3", "2", "10", "6", "5", "9", "1"], "time": [3139, 3955, 4611, 6667, 7379, 8501, 9675, 16499, 17660, 18251, 19139, 19715]}, "edge": {"target": [], "time": []}}, "mouseover": {"state": {"target": ["1", "4", "7", "6", "8", "12", "12", "10", "11", "1", "3", "2", "1", "0", "10", "9", "0", "5", "6", "6", "5", "0", "9", "1", "0"], "time": [2600, 2834, 3500, 4261, 4340, 5203, 6154, 7021, 7155, 7821, 8172, 9490, 10190, 10608, 16247, 16800, 16825, 16841, 16868, 17431, 18025, 18738, 18883, 19483, 20034]}, "edge": {"target": [], "time": []}}, "mouseout": {"state": {"target": ["8", "0", "1", "4", "7", "6", "8", "12", "12", "10", "11", "1", "3", "7", "2", "1", "0", "12", "10", "9", "0", "5", "6", "6", "5", "0", "9", "1", "0", "5", "6"], "time": [864, 1381, 2650, 3451, 4235, 4318, 4986, 5225, 6954, 7088, 7605, 8039, 8806, 9106, 9940, 10417, 10675, 15930, 16797, 16822, 16840, 16855, 16882, 17998, 18466, 18833, 19350, 19917, 21102, 21124, 21146]}, "edge": {"target": [], "time": []}}}, "displayed_time": "31.91", "trialTime": 33574, "trial_type": "mouselab-mdp", "trial_index": 30, "time_elapsed": 1210525, "internal_node_id": "0.0-4.0-1.0-21.0"}}, {"uniqueid": "w97987237:a69696822", "current_trial": 31, "dateTime": 1664369987136, "trialdata": {"revealed_states": [], "num_clicks_accrued": [0, 0, 0, 0, 0, 0, 0, 0, 0, 0, 0, 0, 0], "stateRewards": ["", 2, -8, 48, -24, 2, -4, 24, 48, 4, -4, 48, -24], "withholdReward": true, "trial_id": "mdp_656500928756", "block": "test1", "trialIndex": 24, "score": 52.75, "costs": -0.25, "simulationMode": [null, null, null], "rewards": [4, -4, 48], "path": ["0", "0", "9", "10", "11"], "rt": [2091, 50, 49], "actions": ["left", "left", "up"], "actionTimes": [4521, 5061, 5593], "queries": {"click": {"state": {"target": ["11"], "time": [3292]}, "edge": {"target": [], "time": []}}, "mouseover": {"state": {"target": ["11", "1"], "time": [2914, 3607]}, "edge": {"target": [], "time": []}}, "mouseout": {"state": {"target": ["12", "0", "11", "1"], "time": [1862, 2780, 3581, 3624]}, "edge": {"target": [], "time": []}}}, "displayed_time": "10.43", "trialTime": 11688, "trial_type": "mouselab-mdp", "trial_index": 31, "time_elapsed": 1222342, "internal_node_id": "0.0-4.0-1.0-22.0"}}, {"uniqueid": "w97987237:a69696822", "current_trial": 32, "dateTime": 1664370001484, "trialdata": {"revealed_states": [], "num_clicks_accrued": [0, 0, 0, 0, 0, 0, 0, 0, 0, 0, 0, 0, 0], "stateRewards": ["", 4, 4, 48, -48, -2, -8, -48, -24, 2, 4, -24, -48], "withholdReward": false, "trial_id": "mdp_239929662917", "block": "test1", "trialIndex": 25, "score": 59.5, "costs": -1.5, "simulationMode": [null, null, null], "rewards": [4, 4, 48], "path": ["0", "0", "1", "2", "3"], "rt": [6657, 139, 20], "actions": ["up", "up", "right"], "actionTimes": [8509, 9146, 9661], "queries": {"click": {"state": {"target": ["11", "7", "8", "12", "4", "3"], "time": [3211, 4195, 4995, 5859, 6723, 7426]}, "edge": {"target": [], "time": []}}, "mouseover": {"state": {"target": ["5", "9", "11", "1", "7", "6", "8", "12", "9", "4", "4", "2", "3"], "time": [2142, 2450, 3008, 3692, 4009, 4526, 4860, 5660, 6153, 6261, 6561, 6952, 7029]}, "edge": {"target": [], "time": []}}, "mouseout": {"state": {"target": ["0", "0", "5", "9", "11", "1", "7", "6", "8", "12", "9", "4", "4", "2", "3", "7", "6", "8"], "time": [1372, 2123, 2424, 2468, 3642, 3711, 4442, 4593, 5210, 6128, 6170, 6328, 6928, 6976, 7729, 12367, 12500, 12550]}, "edge": {"target": [], "time": []}}}, "displayed_time": "10.85", "trialTime": 14235, "trial_type": "mouselab-mdp", "trial_index": 32, "time_elapsed": 1236689, "internal_node_id": "0.0-4.0-1.0-23.0"}}, {"uniqueid": "w97987237:a69696822", "current_trial": 33, "dateTime": 1664370014137, "trialdata": {"revealed_states": [], "num_clicks_accrued": [0, 0, 0, 0, 0, 0, 0, 0, 0, 0, 0, 0, 0], "stateRewards": ["", -2, -4, -48, -48, 4, 8, 24, -48, 4, -8, 24, 24], "withholdReward": true, "trial_id": "mdp_749799219195", "block": "test1", "trialIndex": 26, "score": 23.75, "costs": -1.25, "simulationMode": [null, null, null], "rewards": [4, -8, 24], "path": ["0", "0", "9", "10", "12"], "rt": [6765, 234, 101], "actions": ["left", "left", "down"], "actionTimes": [8411, 9149, 9751], "queries": {"click": {"state": {"target": ["4", "7", "12", "11", "8"], "time": [2781, 3589, 4669, 5413, 6357]}, "edge": {"target": [], "time": []}}, "mouseover": {"state": {"target": ["1", "2", "4", "2", "7", "0", "12", "10", "11", "0", "8", "8"], "time": [2145, 2195, 2430, 3047, 3247, 4015, 4499, 4992, 5092, 5633, 5750, 6150]}, "edge": {"target": [], "time": []}}, "mouseout": {"state": {"target": ["0", "0", "1", "2", "4", "2", "7", "0", "12", "10", "11", "0", "8", "8"], "time": [1211, 2096, 2159, 2313, 2997, 3131, 3798, 4065, 4966, 5067, 5583, 5652, 5900, 6701]}, "edge": {"target": [], "time": []}}}, "displayed_time": "10.25", "trialTime": 12531, "trial_type": "mouselab-mdp", "trial_index": 33, "time_elapsed": 1249343, "internal_node_id": "0.0-4.0-1.0-24.0"}}, {"uniqueid": "w97987237:a69696822", "current_trial": 34, "dateTime": 1664370026754, "trialdata": {"revealed_states": [], "num_clicks_accrued": [0, 0, 0, 0, 0, 0, 0, 0, 0, 0, 0, 0, 0], "stateRewards": ["", -4, 8, -24, -48, 2, 8, -48, -24, -2, -4, 48, -48], "withholdReward": true, "trial_id": "mdp_599927291428", "block": "test1", "trialIndex": 27, "score": 46.25, "costs": -0.75, "simulationMode": [null, null, null], "rewards": [-2, -4, 48], "path": ["0", "0", "9", "10", "11"], "rt": [6619, 81, 15], "actions": ["left", "left", "up"], "actionTimes": [8941, 9528, 10046], "queries": {"click": {"state": {"target": ["4", "7", "11"], "time": [4407, 5551, 7807]}, "edge": {"target": [], "time": []}}, "mouseover": {"state": {"target": ["0", "1", "2", "4", "2", "3", "7", "7", "8", "9", "10", "11", "11", "10"], "time": [2541, 2863, 3047, 4198, 4782, 4887, 4982, 5332, 6333, 7017, 7056, 7301, 7585, 8056]}, "edge": {"target": [], "time": []}}, "mouseout": {"state": {"target": ["6", "5", "0", "0", "1", "2", "4", "2", "3", "7", "7", "8", "9", "10", "11", "11", "10"], "time": [1361, 1662, 2518, 2763, 2963, 3831, 4682, 4865, 4910, 5004, 5800, 6917, 7039, 7076, 7350, 8035, 8101]}, "edge": {"target": [], "time": []}}}, "displayed_time": "11.32", "trialTime": 12501, "trial_type": "mouselab-mdp", "trial_index": 34, "time_elapsed": 1261959, "internal_node_id": "0.0-4.0-1.0-25.0"}}, {"uniqueid": "w97987237:a69696822", "current_trial": 35, "dateTime": 1664370038764, "trialdata": {"revealed_states": [], "num_clicks_accrued": [0, 0, 0, 0, 0, 0, 0, 0, 0, 0, 0, 0, 0], "stateRewards": ["", -4, 4, -24, -24, -4, -8, 24, 48, 4, -4, 24, 48], "withholdReward": true, "trial_id": "mdp_175395325183", "block": "test1", "trialIndex": 28, "score": 40.5, "costs": -0.5, "simulationMode": [null, null, null], "rewards": [-4, -8, 48], "path": ["0", "0", "5", "6", "8"], "rt": [4392, 95, 432], "actions": ["right", "right", "down"], "actionTimes": [5960, 6545, 7467], "queries": {"click": {"state": {"target": ["11", "8"], "time": [3520, 4854]}, "edge": {"target": [], "time": []}}, "mouseover": {"state": {"target": ["1", "4", "11", "1", "6", "8"], "time": [2369, 2486, 3035, 3904, 4454, 4653]}, "edge": {"target": [], "time": []}}, "mouseout": {"state": {"target": ["0", "1", "4", "11", "1", "6", "8"], "time": [2035, 2419, 2969, 3820, 3970, 4520, 8767]}, "edge": {"target": [], "time": []}}}, "displayed_time": "10.57", "trialTime": 11888, "trial_type": "mouselab-mdp", "trial_index": 35, "time_elapsed": 1273969, "internal_node_id": "0.0-4.0-1.0-26.0"}}, {"uniqueid": "w97987237:a69696822", "current_trial": 36, "dateTime": 1664370056450, "trialdata": {"revealed_states": [], "num_clicks_accrued": [0, 0, 0, 0, 0, 0, 0, 0, 0, 0, 0, 0, 0], "stateRewards": ["", -2, -4, -24, -48, -2, 8, -48, 24, 4, -4, -24, -24], "withholdReward": false, "trial_id": "mdp_915304165774", "block": "test1", "trialIndex": 29, "score": 33.5, "costs": -1.5, "simulationMode": [null, null, null], "rewards": [-2, 8, 24], "path": ["0", "0", "5", "6", "8"], "rt": [10436, 491, 716], "actions": ["right", "right", "down"], "actionTimes": [12313, 13304, 14512], "queries": {"click": {"state": {"target": ["11", "3", "8", "12", "4", "7"], "time": [3370, 4402, 5522, 6210, 7137, 11090]}, "edge": {"target": [], "time": []}}, "mouseover": {"state": {"target": ["1", "4", "11", "1", "3", "2", "6", "8", "12", "9", "4", "0", "0", "7", "7"], "time": [2190, 2407, 3141, 3725, 4142, 4760, 5143, 5327, 5977, 6712, 6928, 7679, 7963, 10615, 10966]}, "edge": {"target": [], "time": []}}, "mouseout": {"state": {"target": ["5", "0", "1", "4", "11", "1", "3", "2", "6", "8", "12", "9", "4", "0", "0", "3", "7", "7"], "time": [1256, 2124, 2212, 2641, 3642, 3775, 4676, 5060, 5193, 5761, 6511, 6793, 7429, 7729, 8012, 10298, 10637, 11333]}, "edge": {"target": [], "time": []}}}, "displayed_time": "15.01", "trialTime": 17584, "trial_type": "mouselab-mdp", "trial_index": 36, "time_elapsed": 1291656, "internal_node_id": "0.0-4.0-1.0-27.0"}}, {"uniqueid": "w97987237:a69696822", "current_trial": 37, "dateTime": 1664370068774, "trialdata": {"revealed_states": [], "num_clicks_accrued": [0, 0, 0, 0, 0, 0, 0, 0, 0, 0, 0, 0, 0], "stateRewards": ["", -4, 4, -24, 48, -2, 8, -48, 24, 2, 4, 48, -48], "withholdReward": true, "trial_id": "mdp_366632183904", "block": "test1", "trialIndex": 30, "score": 52.75, "costs": -0.25, "simulationMode": [null, null, null], "rewards": [-4, 4, 48], "path": ["0", "0", "1", "2", "4"], "rt": [2319, 68, 879], "actions": ["up", "up", "left"], "actionTimes": [5006, 5574, 6954], "queries": {"click": {"state": {"target": ["4"], "time": [3886]}, "edge": {"target": [], "time": []}}, "mouseover": {"state": {"target": ["6", "7", "3", "2", "4", "1"], "time": [3193, 3236, 3326, 3437, 3644, 4111]}, "edge": {"target": [], "time": []}}, "mouseout": {"state": {"target": ["0", "6", "7", "3", "2", "4", "1", "5"], "time": [2861, 3221, 3276, 3415, 3594, 4037, 4132, 10585]}, "edge": {"target": [], "time": []}}}, "displayed_time": "10.69", "trialTime": 12176, "trial_type": "mouselab-mdp", "trial_index": 37, "time_elapsed": 1303979, "internal_node_id": "0.0-4.0-1.0-28.0"}}, {"uniqueid": "w97987237:a69696822", "current_trial": 38, "dateTime": 1664370081025, "trialdata": {"revealed_states": [], "num_clicks_accrued": [0, 0, 0, 0, 0, 0, 0, 0, 0, 0, 0, 0, 0], "stateRewards": ["", 2, 4, 48, -48, 2, -4, 48, 24, -2, -8, -24, 48], "withholdReward": true, "trial_id": "mdp_962424406744", "block": "test1", "trialIndex": 31, "score": 50.5, "costs": -0.5, "simulationMode": [null, null, null], "rewards": [2, -4, 48], "path": ["0", "0", "5", "6", "7"], "rt": [2874, 92, 165], "actions": ["right", "right", "up"], "actionTimes": [4772, 5357, 6014], "queries": {"click": {"state": {"target": ["4", "7"], "time": [2742, 3589]}, "edge": {"target": [], "time": []}}, "mouseover": {"state": {"target": ["1", "4", "7"], "time": [2357, 2451, 3352]}, "edge": {"target": [], "time": []}}, "mouseout": {"state": {"target": ["4", "4", "0", "1", "4", "7", "6"], "time": [799, 1016, 2335, 2373, 2935, 4070, 9734]}, "edge": {"target": [], "time": []}}}, "displayed_time": "9.90", "trialTime": 12106, "trial_type": "mouselab-mdp", "trial_index": 38, "time_elapsed": 1316231, "internal_node_id": "0.0-4.0-1.0-29.0"}}, {"uniqueid": "w97987237:a69696822", "current_trial": 39, "dateTime": 1664370089484, "trialdata": {"rt": 8452, "stimulus": "<h1> End of block! </h1>\n\nYou have reached the end of the block 1/4. If you need a short break, feel free to take one now before moving on.\n\n<br><br>\nIn the next block, you will complete another 30 rounds of this game.\n\n<br><br>\n<div style='text-align: center;'>Press <code>space</code> to begin.</div>\n<br><br>\n<div style='text-align: center;'>(If the experiment doesn't continue, try clicking on the text and then pressing <code>space</code>.)</div>", "response": " ", "trial_id": "mdp_ready_2", "trial_type": "html-keyboard-response", "trial_index": 39, "time_elapsed": 1324690, "internal_node_id": "0.0-4.0-2.0"}}, {"uniqueid": "w97987237:a69696822", "current_trial": 40, "dateTime": 1664370103205, "trialdata": {"revealed_states": [], "num_clicks_accrued": [0, 0, 0, 0, 0, 0, 0, 0, 0, 0, 0, 0, 0], "stateRewards": ["", -2, -8, 24, -24, 4, -8, 48, 48, -4, -8, -24, -48], "withholdReward": false, "trial_id": "mdp_286767261523", "block": "test2", "trialIndex": 32, "score": 48.5, "costs": -0.5, "simulationMode": [null, null, null], "rewards": [4, -8, 48], "path": ["0", "0", "5", "6", "7"], "rt": [3666, 148, 92], "actions": ["right", "right", "up"], "actionTimes": [5794, 6446, 7039], "queries": {"click": {"state": {"target": ["4", "7"], "time": [3655, 4678]}, "edge": {"target": [], "time": []}}, "mouseover": {"state": {"target": ["1", "4", "7"], "time": [2500, 3441, 4454]}, "edge": {"target": [], "time": []}}, "mouseout": {"state": {"target": ["6", "5", "0", "1", "4", "7", "7", "6", "8"], "time": [1182, 1633, 2452, 2618, 3986, 9965, 11727, 11793, 11844]}, "edge": {"target": [], "time": []}}}, "displayed_time": "11.13", "trialTime": 13582, "trial_type": "mouselab-mdp", "trial_index": 40, "time_elapsed": 1338411, "internal_node_id": "0.0-4.0-3.0-0.0"}}, {"uniqueid": "w97987237:a69696822", "current_trial": 41, "dateTime": 1664370113694, "trialdata": {"revealed_states": [], "num_clicks_accrued": [0, 0, 0, 0, 0, 0, 0, 0, 0, 0, 0, 0, 0], "stateRewards": ["", -4, -4, -24, -24, -2, 4, 48, -24, -2, -4, -24, 48], "withholdReward": true, "trial_id": "mdp_855903341564", "block": "test2", "trialIndex": 33, "score": 54.5, "costs": -0.5, "simulationMode": [null, null, null], "rewards": [-2, 4, 48], "path": ["0", "0", "5", "6", "7"], "rt": [3399, 113, 862], "actions": ["right", "right", "up"], "actionTimes": [4988, 5603, 6970], "queries": {"click": {"state": {"target": ["11", "7"], "time": [2797, 3694]}, "edge": {"target": [], "time": []}}, "mouseover": {"state": {"target": ["11", "1", "7", "6"], "time": [2610, 3294, 3494, 4311]}, "edge": {"target": [], "time": []}}, "mouseout": {"state": {"target": ["0", "11", "1", "7", "6"], "time": [1424, 3010, 3343, 3994, 4340]}, "edge": {"target": [], "time": []}}}, "displayed_time": "8.59", "trialTime": 10366, "trial_type": "mouselab-mdp", "trial_index": 41, "time_elapsed": 1348900, "internal_node_id": "0.0-4.0-3.0-1.0"}}, {"uniqueid": "w97987237:a69696822", "current_trial": 42, "dateTime": 1664370127647, "trialdata": {"revealed_states": [], "num_clicks_accrued": [0, 0, 0, 0, 0, 0, 0, 0, 0, 0, 0, 0, 0], "stateRewards": ["", 2, -4, 24, 24, 2, 4, 24, 24, -4, 8, 24, 48], "withholdReward": true, "trial_id": "mdp_268430387178", "block": "test2", "trialIndex": 34, "score": 55.5, "costs": -1.5, "simulationMode": [null, null, null], "rewards": [-4, 8, 48], "path": ["0", "0", "9", "10", "12"], "rt": [9012, 90, 90], "actions": ["left", "left", "down"], "actionTimes": [10519, 11104, 11686], "queries": {"click": {"state": {"target": ["8", "7", "4", "3", "11", "12"], "time": [2122, 2922, 4546, 5266, 8345, 9161]}, "edge": {"target": [], "time": []}}, "mouseover": {"state": {"target": ["8", "6", "7", "2", "2", "4", "3", "9", "11", "10", "12"], "time": [1861, 2628, 2728, 3446, 3863, 4337, 5032, 7467, 8183, 8662, 8984]}, "edge": {"target": [], "time": []}}, "mouseout": {"state": {"target": ["6", "5", "0", "8", "6", "7", "2", "2", "4", "3", "9", "11", "10", "12", "8"], "time": [843, 1093, 1710, 2579, 2662, 3246, 3530, 4314, 4946, 5882, 7517, 8634, 8851, 9468, 9802]}, "edge": {"target": [], "time": []}}}, "displayed_time": "12.18", "trialTime": 13829, "trial_type": "mouselab-mdp", "trial_index": 42, "time_elapsed": 1362853, "internal_node_id": "0.0-4.0-3.0-2.0"}}, {"uniqueid": "w97987237:a69696822", "current_trial": 43, "dateTime": 1664370139170, "trialdata": {"revealed_states": [], "num_clicks_accrued": [0, 0, 0, 0, 0, 0, 0, 0, 0, 0, 0, 0, 0], "stateRewards": ["", -2, 8, -48, -24, -2, 8, 48, -48, -4, 8, 24, 48], "withholdReward": true, "trial_id": "mdp_160707003673", "block": "test2", "trialIndex": 35, "score": 56, "costs": -1, "simulationMode": [null, null, null], "rewards": [-4, 8, 48], "path": ["0", "0", "9", "10", "12"], "rt": [5710, 168, 186], "actions": ["left", "left", "down"], "actionTimes": [7989, 8646, 9331], "queries": {"click": {"state": {"target": ["4", "8", "11", "12"], "time": [3365, 4261, 6109, 6861]}, "edge": {"target": [], "time": []}}, "mouseover": {"state": {"target": ["1", "4", "1", "8", "9", "11", "11", "10", "12"], "time": [2844, 3161, 3578, 4062, 4697, 5514, 5914, 6380, 6698]}, "edge": {"target": [], "time": []}}, "mouseout": {"state": {"target": ["8", "0", "1", "4", "1", "8", "9", "11", "11", "10", "12"], "time": [1025, 2009, 2867, 3528, 3729, 4563, 4724, 5580, 6331, 6565, 7349]}, "edge": {"target": [], "time": []}}}, "displayed_time": "10.28", "trialTime": 11388, "trial_type": "mouselab-mdp", "trial_index": 43, "time_elapsed": 1374376, "internal_node_id": "0.0-4.0-3.0-3.0"}}, {"uniqueid": "w97987237:a69696822", "current_trial": 44, "dateTime": 1664370161829, "trialdata": {"revealed_states": [], "num_clicks_accrued": [0, 0, 0, 0, 0, 0, 0, 0, 0, 0, 0, 0, 0], "stateRewards": ["", -2, -8, 48, 24, 2, 8, -48, 24, -4, 8, 48, 48], "withholdReward": true, "trial_id": "mdp_875436109858", "block": "test2", "trialIndex": 36, "score": 56.5, "costs": -0.5, "simulationMode": [null, null, null], "rewards": [-4, 8, 48], "path": ["0", "0", "9", "10", "11"], "rt": [4074, 116, 152], "actions": ["left", "left", "up"], "actionTimes": [17607, 18222, 18877], "queries": {"click": {"state": {"target": ["4", "11"], "time": [15529, 16427]}, "edge": {"target": [], "time": []}}, "mouseover": {"state": {"target": ["4", "11", "9"], "time": [14909, 16260, 16894]}, "edge": {"target": [], "time": []}}, "mouseout": {"state": {"target": ["12", "5", "0", "4", "11"], "time": [4198, 12939, 13941, 15876, 16728]}, "edge": {"target": [], "time": []}}}, "displayed_time": "21.53", "trialTime": 22555, "trial_type": "mouselab-mdp", "trial_index": 44, "time_elapsed": 1397035, "internal_node_id": "0.0-4.0-3.0-4.0"}}, {"uniqueid": "w97987237:a69696822", "current_trial": 45, "dateTime": 1664370174864, "trialdata": {"revealed_states": [], "num_clicks_accrued": [0, 0, 0, 0, 0, 0, 0, 0, 0, 0, 0, 0, 0], "stateRewards": ["", -4, -4, 24, -24, 4, 4, 24, 48, 4, -4, 48, -48], "withholdReward": true, "trial_id": "mdp_522385334882", "block": "test2", "trialIndex": 37, "score": 52.75, "costs": -0.25, "simulationMode": [null, null, null], "rewards": [4, -4, 48], "path": ["0", "0", "9", "10", "11"], "rt": [2325, 106, 112], "actions": ["left", "left", "up"], "actionTimes": [5110, 5717, 6324], "queries": {"click": {"state": {"target": ["11"], "time": [3897]}, "edge": {"target": [], "time": []}}, "mouseover": {"state": {"target": ["10", "3", "11"], "time": [3004, 3248, 3665]}, "edge": {"target": [], "time": []}}, "mouseout": {"state": {"target": ["9", "11", "11", "9", "0", "10", "3", "11"], "time": [1946, 1996, 2146, 2313, 2981, 3020, 3297, 4399]}, "edge": {"target": [], "time": []}}}, "displayed_time": "11.78", "trialTime": 12902, "trial_type": "mouselab-mdp", "trial_index": 45, "time_elapsed": 1410070, "internal_node_id": "0.0-4.0-3.0-5.0"}}, {"uniqueid": "w97987237:a69696822", "current_trial": 46, "dateTime": 1664370188894, "trialdata": {"revealed_states": [], "num_clicks_accrued": [0, 0, 0, 0, 0, 0, 0, 0, 0, 0, 0, 0, 0], "stateRewards": ["", -4, 8, 24, 24, -2, 8, -48, 48, 4, -8, 48, -48], "withholdReward": true, "trial_id": "mdp_295249220524", "block": "test2", "trialIndex": 38, "score": 48.5, "costs": -0.5, "simulationMode": [null, null, null], "rewards": [4, -8, 48], "path": ["0", "0", "9", "10", "11"], "rt": [3361, 141, 161], "actions": ["left", "left", "up"], "actionTimes": [7262, 7908, 8567], "queries": {"click": {"state": {"target": ["4", "11"], "time": [5070, 6110]}, "edge": {"target": [], "time": []}}, "mouseover": {"state": {"target": ["4", "11", "10", "12"], "time": [4820, 5888, 6393, 6538]}, "edge": {"target": [], "time": []}}, "mouseout": {"state": {"target": ["10", "12", "10", "9", "0", "0", "4", "11", "10"], "time": [982, 998, 1632, 1799, 2617, 4096, 5397, 6372, 6472]}, "edge": {"target": [], "time": []}}}, "displayed_time": "11.90", "trialTime": 13906, "trial_type": "mouselab-mdp", "trial_index": 46, "time_elapsed": 1424100, "internal_node_id": "0.0-4.0-3.0-6.0"}}, {"uniqueid": "w97987237:a69696822", "current_trial": 47, "dateTime": 1664370199873, "trialdata": {"revealed_states": [], "num_clicks_accrued": [0, 0, 0, 0, 0, 0, 0, 0, 0, 0, 0, 0, 0], "stateRewards": ["", 2, -8, 48, -24, 2, -4, 24, 48, 4, -4, 48, -24], "withholdReward": true, "trial_id": "mdp_656500928756", "block": "test2", "trialIndex": 39, "score": 52.5, "costs": -0.5, "simulationMode": [null, null, null], "rewards": [4, -4, 48], "path": ["0", "0", "9", "10", "11"], "rt": [4333, 195, 143], "actions": ["left", "left", "up"], "actionTimes": [5766, 6462, 7105], "queries": {"click": {"state": {"target": ["4", "11"], "time": [3033, 3784]}, "edge": {"target": [], "time": []}}, "mouseover": {"state": {"target": ["9", "11", "4", "11", "10", "12"], "time": [1835, 1901, 2472, 3570, 4187, 4287]}, "edge": {"target": [], "time": []}}, "mouseout": {"state": {"target": ["12", "9", "0", "9", "11", "4", "11", "10", "12"], "time": [767, 1034, 1735, 1862, 2119, 3454, 4087, 4254, 4321]}, "edge": {"target": [], "time": []}}}, "displayed_time": "9.43", "trialTime": 10822, "trial_type": "mouselab-mdp", "trial_index": 47, "time_elapsed": 1435078, "internal_node_id": "0.0-4.0-3.0-7.0"}}, {"uniqueid": "w97987237:a69696822", "current_trial": 48, "dateTime": 1664370212403, "trialdata": {"revealed_states": [], "num_clicks_accrued": [0, 0, 0, 0, 0, 0, 0, 0, 0, 0, 0, 0, 0], "stateRewards": ["", 4, 8, -48, 24, -2, 8, -48, -48, -4, 4, 48, -48], "withholdReward": true, "trial_id": "mdp_693807815190", "block": "test2", "trialIndex": 40, "score": 52.75, "costs": -0.25, "simulationMode": [null, null, null], "rewards": [-4, 4, 48], "path": ["0", "0", "9", "10", "11"], "rt": [2274, 118, 17], "actions": ["left", "left", "up"], "actionTimes": [4456, 5068, 5583], "queries": {"click": {"state": {"target": ["11"], "time": [3375]}, "edge": {"target": [], "time": []}}, "mouseover": {"state": {"target": ["11"], "time": [3119]}, "edge": {"target": [], "time": []}}, "mouseout": {"state": {"target": ["0", "11"], "time": [2802, 11550]}, "edge": {"target": [], "time": []}}}, "displayed_time": "10.18", "trialTime": 12375, "trial_type": "mouselab-mdp", "trial_index": 48, "time_elapsed": 1447609, "internal_node_id": "0.0-4.0-3.0-8.0"}}, {"uniqueid": "w97987237:a69696822", "current_trial": 49, "dateTime": 1664370224396, "trialdata": {"revealed_states": [], "num_clicks_accrued": [0, 0, 0, 0, 0, 0, 0, 0, 0, 0, 0, 0, 0], "stateRewards": ["", -2, 8, -24, 48, -4, 4, -48, 24, 4, -8, 48, -24], "withholdReward": true, "trial_id": "mdp_425320427962", "block": "test2", "trialIndex": 41, "score": 48.75, "costs": -0.25, "simulationMode": [null, null, null], "rewards": [4, -8, 48], "path": ["0", "0", "9", "10", "11"], "rt": [3463, 88, 53], "actions": ["left", "left", "up"], "actionTimes": [5045, 5632, 6181], "queries": {"click": {"state": {"target": ["11"], "time": [3906]}, "edge": {"target": [], "time": []}}, "mouseover": {"state": {"target": ["9", "10", "11", "11", "11"], "time": [2381, 2648, 2689, 3365, 3699]}, "edge": {"target": [], "time": []}}, "mouseout": {"state": {"target": ["0", "9", "10", "11", "11", "11", "12"], "time": [1964, 2581, 2671, 2730, 3432, 4149, 7786]}, "edge": {"target": [], "time": []}}}, "displayed_time": "9.58", "trialTime": 11850, "trial_type": "mouselab-mdp", "trial_index": 49, "time_elapsed": 1459602, "internal_node_id": "0.0-4.0-3.0-9.0"}}, {"uniqueid": "w97987237:a69696822", "current_trial": 50, "dateTime": 1664370239586, "trialdata": {"revealed_states": [], "num_clicks_accrued": [0, 0, 0, 0, 0, 0, 0, 0, 0, 0, 0, 0, 0], "stateRewards": ["", 4, 8, 48, 48, 4, 4, -24, -48, 4, 8, -48, -48], "withholdReward": false, "trial_id": "mdp_984548726931", "block": "test2", "trialIndex": 42, "score": 63.75, "costs": -1.25, "simulationMode": [null, null, null], "rewards": [4, 8, 48], "path": ["0", "0", "1", "2", "4"], "rt": [7408, 195, 62], "actions": ["up", "up", "left"], "actionTimes": [8669, 9359, 9911], "queries": {"click": {"state": {"target": ["7", "8", "12", "11", "4"], "time": [2984, 4064, 5256, 5960, 6736]}, "edge": {"target": [], "time": []}}, "mouseover": {"state": {"target": ["11", "7", "7", "6", "8", "12", "10", "11", "4"], "time": [2214, 2481, 2765, 3371, 3863, 5085, 5600, 5689, 6502]}, "edge": {"target": [], "time": []}}, "mouseout": {"state": {"target": ["0", "0", "11", "7", "7", "6", "8", "12", "10", "11", "4"], "time": [745, 1630, 2398, 2530, 3349, 3582, 4409, 5551, 5667, 6335, 7269]}, "edge": {"target": [], "time": []}}}, "displayed_time": "10.41", "trialTime": 15062, "trial_type": "mouselab-mdp", "trial_index": 50, "time_elapsed": 1474792, "internal_node_id": "0.0-4.0-3.0-10.0"}}, {"uniqueid": "w97987237:a69696822", "current_trial": 51, "dateTime": 1664370252532, "trialdata": {"revealed_states": [], "num_clicks_accrued": [0, 0, 0, 0, 0, 0, 0, 0, 0, 0, 0, 0, 0], "stateRewards": ["", -4, 8, 48, -48, 2, -4, 24, -24, -2, 4, -24, -24], "withholdReward": true, "trial_id": "mdp_804988042722", "block": "test2", "trialIndex": 43, "score": 55.5, "costs": -1.5, "simulationMode": [null, null, null], "rewards": [-4, 8, 48], "path": ["0", "0", "1", "2", "3"], "rt": [7239, 196, 170], "actions": ["up", "up", "right"], "actionTimes": [9548, 10247, 10921], "queries": {"click": {"state": {"target": ["4", "7", "8", "11", "12", "3"], "time": [3138, 4178, 4930, 6274, 6922, 8178]}, "edge": {"target": [], "time": []}}, "mouseover": {"state": {"target": ["1", "4", "7", "6", "8", "0", "9", "11", "10", "12", "9", "1", "3"], "time": [2657, 2775, 3550, 4617, 4768, 5268, 5294, 6086, 6536, 6753, 7470, 7637, 7837]}, "edge": {"target": [], "time": []}}, "mouseout": {"state": {"target": ["8", "5", "0", "1", "4", "7", "6", "8", "0", "9", "11", "10", "12", "9", "1", "3"], "time": [1480, 1530, 2633, 2674, 3416, 4567, 4684, 5185, 5291, 5312, 6469, 6653, 7339, 7538, 7687, 8605]}, "edge": {"target": [], "time": []}}}, "displayed_time": "11.42", "trialTime": 12794, "trial_type": "mouselab-mdp", "trial_index": 51, "time_elapsed": 1487737, "internal_node_id": "0.0-4.0-3.0-11.0"}}, {"uniqueid": "w97987237:a69696822", "current_trial": 52, "dateTime": 1664370269092, "trialdata": {"revealed_states": [], "num_clicks_accrued": [0, 0, 0, 0, 0, 0, 0, 0, 0, 0, 0, 0, 0], "stateRewards": ["", -4, 8, -48, -48, -2, -8, -24, -48, 2, -4, -48, 24], "withholdReward": true, "trial_id": "mdp_743906784415", "block": "test2", "trialIndex": 44, "score": 25.5, "costs": -1.5, "simulationMode": [null, null, null], "rewards": [2, -4, 24], "path": ["0", "0", "9", "10", "12"], "rt": [9750, 172, 865], "actions": ["left", "left", "down"], "actionTimes": [11256, 11924, 13286], "queries": {"click": {"state": {"target": ["11", "12", "7", "4", "3", "8"], "time": [3185, 4113, 5513, 6505, 7361, 8497]}, "edge": {"target": [], "time": []}}, "mouseover": {"state": {"target": ["11", "11", "12", "7", "7", "2", "4", "2", "3", "6", "8", "6", "5", "1"], "time": [2716, 2983, 3650, 4685, 5192, 5969, 6136, 6859, 7080, 7821, 8321, 9021, 9088, 9222]}, "edge": {"target": [], "time": []}}, "mouseout": {"state": {"target": ["5", "0", "11", "11", "12", "7", "7", "2", "4", "2", "3", "7", "6", "8", "6", "5", "1"], "time": [1124, 1982, 2739, 3417, 4301, 4818, 5802, 6068, 6837, 6902, 7537, 7654, 7904, 8972, 9054, 9105, 9456]}, "edge": {"target": [], "time": []}}}, "displayed_time": "13.79", "trialTime": 16425, "trial_type": "mouselab-mdp", "trial_index": 52, "time_elapsed": 1504298, "internal_node_id": "0.0-4.0-3.0-12.0"}}, {"uniqueid": "w97987237:a69696822", "current_trial": 53, "dateTime": 1664370282127, "trialdata": {"revealed_states": [], "num_clicks_accrued": [0, 0, 0, 0, 0, 0, 0, 0, 0, 0, 0, 0, 0], "stateRewards": ["", -2, 4, -24, 24, -4, -8, 24, -48, -4, -4, -48, -24], "withholdReward": true, "trial_id": "mdp_753137520419", "block": "test2", "trialIndex": 45, "score": 15.5, "costs": -1.5, "simulationMode": [null, null, null], "rewards": [-4, -8, 24], "path": ["0", "0", "5", "6", "7"], "rt": [8169, 162, 184], "actions": ["right", "right", "up"], "actionTimes": [9857, 10514, 11202], "queries": {"click": {"state": {"target": ["4", "7", "8", "11", "12", "3"], "time": [2410, 3362, 4146, 5250, 6061, 7138]}, "edge": {"target": [], "time": []}}, "mouseover": {"state": {"target": ["4", "7", "6", "8", "5", "11", "11", "10", "12", "9", "1", "3"], "time": [2251, 3282, 3716, 3916, 4467, 4818, 5068, 5462, 5886, 6352, 6436, 6820]}, "edge": {"target": [], "time": []}}, "mouseout": {"state": {"target": ["6", "5", "0", "0", "4", "7", "6", "8", "5", "11", "11", "10", "12", "9", "1", "3", "7"], "time": [1097, 1130, 1290, 1961, 2632, 3667, 3800, 4418, 4482, 4885, 5435, 5786, 6303, 6366, 6704, 7370, 7554]}, "edge": {"target": [], "time": []}}}, "displayed_time": "11.70", "trialTime": 12878, "trial_type": "mouselab-mdp", "trial_index": 53, "time_elapsed": 1517333, "internal_node_id": "0.0-4.0-3.0-13.0"}}, {"uniqueid": "w97987237:a69696822", "current_trial": 54, "dateTime": 1664370299376, "trialdata": {"revealed_states": [], "num_clicks_accrued": [0, 0, 0, 0, 0, 0, 0, 0, 0, 0, 0, 0, 0], "stateRewards": ["", -4, 8, -24, -48, 2, 8, -48, -24, -2, -4, 48, -48], "withholdReward": true, "trial_id": "mdp_599927291428", "block": "test2", "trialIndex": 46, "score": 46, "costs": -1, "simulationMode": [null, null, null], "rewards": [-2, -4, 48], "path": ["0", "0", "9", "10", "11"], "rt": [4623, 149, 170], "actions": ["left", "left", "up"], "actionTimes": [6115, 6757, 7429], "queries": {"click": {"state": {"target": ["4", "7", "8", "11"], "time": [2247, 3039, 3895, 5047]}, "edge": {"target": [], "time": []}}, "mouseover": {"state": {"target": ["4", "7", "6", "8", "9", "10", "11", "10"], "time": [2060, 2795, 3361, 3745, 4355, 4377, 4846, 5346]}, "edge": {"target": [], "time": []}}, "mouseout": {"state": {"target": ["6", "5", "0", "4", "7", "6", "8", "9", "10", "11", "10", "12"], "time": [858, 1125, 1844, 2477, 3244, 3390, 4228, 4375, 4579, 5296, 5470, 12254]}, "edge": {"target": [], "time": []}}}, "displayed_time": "10.49", "trialTime": 17092, "trial_type": "mouselab-mdp", "trial_index": 54, "time_elapsed": 1534582, "internal_node_id": "0.0-4.0-3.0-14.0"}}, {"uniqueid": "w97987237:a69696822", "current_trial": 55, "dateTime": 1664370314345, "trialdata": {"revealed_states": [], "num_clicks_accrued": [0, 0, 0, 0, 0, 0, 0, 0, 0, 0, 0, 0, 0], "stateRewards": ["", -2, -8, -24, -48, -2, -4, 48, -48, 4, 4, -48, 48], "withholdReward": true, "trial_id": "mdp_156977432949", "block": "test2", "trialIndex": 47, "score": 46.75, "costs": -0.25, "simulationMode": [null, null, null], "rewards": [-2, -4, 48], "path": ["0", "0", "5", "6", "7"], "rt": [2666, 60, 119], "actions": ["right", "right", "up"], "actionTimes": [4461, 5023, 5649], "queries": {"click": {"state": {"target": ["7"], "time": [2860]}, "edge": {"target": [], "time": []}}, "mouseover": {"state": {"target": ["5", "7", "7"], "time": [2157, 2233, 2617]}, "edge": {"target": [], "time": []}}, "mouseout": {"state": {"target": ["0", "5", "7", "7", "5"], "time": [2133, 2175, 2257, 3251, 13995]}, "edge": {"target": [], "time": []}}}, "displayed_time": "10.79", "trialTime": 14834, "trial_type": "mouselab-mdp", "trial_index": 55, "time_elapsed": 1549551, "internal_node_id": "0.0-4.0-3.0-15.0"}}, {"uniqueid": "w97987237:a69696822", "current_trial": 56, "dateTime": 1664370325609, "trialdata": {"revealed_states": [], "num_clicks_accrued": [0, 0, 0, 0, 0, 0, 0, 0, 0, 0, 0, 0, 0], "stateRewards": ["", -2, 4, 24, 48, 2, 4, -48, -48, 2, 8, 48, -48], "withholdReward": true, "trial_id": "mdp_409609775558", "block": "test2", "trialIndex": 48, "score": 62.25, "costs": -0.75, "simulationMode": [null, null, null], "rewards": [2, 8, 48], "path": ["0", "0", "9", "10", "11"], "rt": [3445, 28, 36], "actions": ["left", "left", "up"], "actionTimes": [4511, 5039, 5582], "queries": {"click": {"state": {"target": ["7", "8", "11"], "time": [1715, 2444, 3324]}, "edge": {"target": [], "time": []}}, "mouseover": {"state": {"target": ["5", "7", "6", "8", "0", "11", "11", "10", "12"], "time": [1280, 1530, 2054, 2248, 2681, 2849, 3132, 3565, 3749]}, "edge": {"target": [], "time": []}}, "mouseout": {"state": {"target": ["0", "5", "7", "6", "8", "0", "11", "11", "10", "12"], "time": [1230, 1347, 2031, 2164, 2631, 2702, 2948, 3516, 3666, 3816]}, "edge": {"target": [], "time": []}}}, "displayed_time": "10.06", "trialTime": 11098, "trial_type": "mouselab-mdp", "trial_index": 56, "time_elapsed": 1560815, "internal_node_id": "0.0-4.0-3.0-16.0"}}, {"uniqueid": "w97987237:a69696822", "current_trial": 57, "dateTime": 1664370337589, "trialdata": {"revealed_states": [], "num_clicks_accrued": [0, 0, 0, 0, 0, 0, 0, 0, 0, 0, 0, 0, 0], "stateRewards": ["", -2, -8, -24, -48, 4, -8, 48, 24, 2, 4, -48, -48], "withholdReward": false, "trial_id": "mdp_898082967464", "block": "test2", "trialIndex": 49, "score": 48.25, "costs": -0.75, "simulationMode": [null, null, null], "rewards": [4, -8, 48], "path": ["0", "0", "5", "6", "7"], "rt": [4118, 90, 58], "actions": ["right", "right", "up"], "actionTimes": [5296, 5881, 6443], "queries": {"click": {"state": {"target": ["4", "3", "7"], "time": [2271, 3398, 4118]}, "edge": {"target": [], "time": []}}, "mouseover": {"state": {"target": ["4", "2", "3", "3", "7", "5"], "time": [2071, 2738, 2854, 3172, 3906, 4740]}, "edge": {"target": [], "time": []}}, "mouseout": {"state": {"target": ["0", "4", "2", "3", "3", "7"], "time": [1620, 2621, 2805, 2938, 3589, 4373]}, "edge": {"target": [], "time": []}}}, "displayed_time": "9.18", "trialTime": 11840, "trial_type": "mouselab-mdp", "trial_index": 57, "time_elapsed": 1572795, "internal_node_id": "0.0-4.0-3.0-17.0"}}, {"uniqueid": "w97987237:a69696822", "current_trial": 58, "dateTime": 1664370351610, "trialdata": {"revealed_states": [], "num_clicks_accrued": [0, 0, 0, 0, 0, 0, 0, 0, 0, 0, 0, 0, 0], "stateRewards": ["", -4, -4, -24, 48, -4, -8, -24, 48, 2, 4, 48, 48], "withholdReward": false, "trial_id": "mdp_810954007398", "block": "test2", "trialIndex": 50, "score": 44.75, "costs": -0.25, "simulationMode": [null, null, null], "rewards": [-4, -4, 48], "path": ["0", "0", "1", "2", "4"], "rt": [2452, 188, 10], "actions": ["up", "up", "left"], "actionTimes": [4947, 5638, 6144], "queries": {"click": {"state": {"target": ["4"], "time": [3594]}, "edge": {"target": [], "time": []}}, "mouseover": {"state": {"target": ["1", "4"], "time": [2904, 3137]}, "edge": {"target": [], "time": []}}, "mouseout": {"state": {"target": ["5", "0", "0", "1", "4", "5"], "time": [1101, 1985, 2737, 2953, 3838, 11996]}, "edge": {"target": [], "time": []}}}, "displayed_time": "10.49", "trialTime": 13864, "trial_type": "mouselab-mdp", "trial_index": 58, "time_elapsed": 1586816, "internal_node_id": "0.0-4.0-3.0-18.0"}}, {"uniqueid": "w97987237:a69696822", "current_trial": 59, "dateTime": 1664370364497, "trialdata": {"revealed_states": [], "num_clicks_accrued": [0, 0, 0, 0, 0, 0, 0, 0, 0, 0, 0, 0, 0], "stateRewards": ["", -2, 8, 48, -24, 2, 4, -48, -24, -4, 8, -48, -48], "withholdReward": false, "trial_id": "mdp_539167561933", "block": "test2", "trialIndex": 51, "score": 57.5, "costs": -1.5, "simulationMode": [null, null, null], "rewards": [-2, 8, 48], "path": ["0", "0", "1", "2", "3"], "rt": [6811, 236, 120], "actions": ["up", "up", "right"], "actionTimes": [8072, 8810, 9427], "queries": {"click": {"state": {"target": ["4", "7", "11", "12", "8", "3"], "time": [2335, 3191, 4438, 5142, 6111, 7103]}, "edge": {"target": [], "time": []}}, "mouseover": {"state": {"target": ["1", "4", "1", "7", "2", "11", "10", "12", "8", "3"], "time": [1872, 2122, 2656, 2923, 3590, 4208, 4775, 4925, 5926, 6910]}, "edge": {"target": [], "time": []}}, "mouseout": {"state": {"target": ["0", "1", "4", "1", "7", "2", "4", "11", "10", "12", "8", "3"], "time": [1639, 1938, 2573, 2683, 3524, 3614, 3632, 4725, 4858, 5375, 6543, 7361]}, "edge": {"target": [], "time": []}}}, "displayed_time": "10.26", "trialTime": 12740, "trial_type": "mouselab-mdp", "trial_index": 59, "time_elapsed": 1599703, "internal_node_id": "0.0-4.0-3.0-19.0"}}, {"uniqueid": "w97987237:a69696822", "current_trial": 60, "dateTime": 1664370377112, "trialdata": {"revealed_states": [], "num_clicks_accrued": [0, 0, 0, 0, 0, 0, 0, 0, 0, 0, 0, 0, 0], "stateRewards": ["", 2, 8, 48, -48, -2, -4, -24, 24, 4, -4, 48, -48], "withholdReward": true, "trial_id": "mdp_105734044587", "block": "test2", "trialIndex": 52, "score": 62.75, "costs": -0.25, "simulationMode": [null, null, null], "rewards": [2, 8, 48], "path": ["0", "0", "1", "2", "3"], "rt": [2311, 167, 64], "actions": ["up", "up", "right"], "actionTimes": [4313, 4978, 5543], "queries": {"click": {"state": {"target": ["3"], "time": [3072]}, "edge": {"target": [], "time": []}}, "mouseover": {"state": {"target": ["3"], "time": [2849]}, "edge": {"target": [], "time": []}}, "mouseout": {"state": {"target": ["3"], "time": [3383]}, "edge": {"target": [], "time": []}}}, "displayed_time": "11.00", "trialTime": 12468, "trial_type": "mouselab-mdp", "trial_index": 60, "time_elapsed": 1612317, "internal_node_id": "0.0-4.0-3.0-20.0"}}, {"uniqueid": "w97987237:a69696822", "current_trial": 61, "dateTime": 1664370388872, "trialdata": {"revealed_states": [], "num_clicks_accrued": [0, 0, 0, 0, 0, 0, 0, 0, 0, 0, 0, 0, 0], "stateRewards": ["", -2, 8, 48, 48, 4, -8, -48, 48, 2, -4, -48, 48], "withholdReward": true, "trial_id": "mdp_132958048709", "block": "test2", "trialIndex": 53, "score": 48.5, "costs": -0.5, "simulationMode": [null, null, null], "rewards": [4, -8, 48], "path": ["0", "0", "5", "6", "8"], "rt": [3418, 140, 816], "actions": ["right", "right", "down"], "actionTimes": [6699, 7330, 8643], "queries": {"click": {"state": {"target": ["7", "8"], "time": [4661, 5540]}, "edge": {"target": [], "time": []}}, "mouseover": {"state": {"target": ["7", "6", "8", "5"], "time": [4511, 5079, 5311, 5830]}, "edge": {"target": [], "time": []}}, "mouseout": {"state": {"target": ["1", "0", "7", "6", "8", "5"], "time": [2859, 4164, 5012, 5244, 5779, 5845]}, "edge": {"target": [], "time": []}}}, "displayed_time": "10.28", "trialTime": 11594, "trial_type": "mouselab-mdp", "trial_index": 61, "time_elapsed": 1624078, "internal_node_id": "0.0-4.0-3.0-21.0"}}, {"uniqueid": "w97987237:a69696822", "current_trial": 62, "dateTime": 1664370409717, "trialdata": {"revealed_states": [], "num_clicks_accrued": [0, 0, 0, 0, 0, 0, 0, 0, 0, 0, 0, 0, 0], "stateRewards": ["", 2, 4, 48, -48, 2, -4, 48, 24, -2, -8, -24, 48], "withholdReward": false, "trial_id": "mdp_962424406744", "block": "test2", "trialIndex": 54, "score": 58.5, "costs": -0.5, "simulationMode": [null, null, null], "rewards": [2, 4, 48], "path": ["0", "0", "1", "2", "3"], "rt": [3317, 8150, 1691], "actions": ["up", "up", "right"], "actionTimes": [4846, 13500, 15684], "queries": {"click": {"state": {"target": ["4", "7"], "time": [2943, 3791]}, "edge": {"target": [], "time": []}}, "mouseover": {"state": {"target": ["1", "4", "2", "3", "7"], "time": [1897, 2703, 3238, 3327, 3554]}, "edge": {"target": [], "time": []}}, "mouseout": {"state": {"target": ["0", "9", "1", "4", "2", "3", "7", "3", "3", "3"], "time": [852, 1051, 1929, 3187, 3304, 3471, 4088, 9311, 10428, 11479]}, "edge": {"target": [], "time": []}}}, "displayed_time": "16.18", "trialTime": 20704, "trial_type": "mouselab-mdp", "trial_index": 62, "time_elapsed": 1644923, "internal_node_id": "0.0-4.0-3.0-22.0"}}, {"uniqueid": "w97987237:a69696822", "current_trial": 63, "dateTime": 1664370422751, "trialdata": {"revealed_states": [], "num_clicks_accrued": [0, 0, 0, 0, 0, 0, 0, 0, 0, 0, 0, 0, 0], "stateRewards": ["", 2, -4, -24, -48, -2, 8, -24, 48, -2, 8, 24, -48], "withholdReward": true, "trial_id": "mdp_566582551557", "block": "test2", "trialIndex": 55, "score": 58, "costs": -1, "simulationMode": [null, null, null], "rewards": [-2, 8, 48], "path": ["0", "0", "5", "6", "8"], "rt": [6617, 86, 159], "actions": ["right", "right", "down"], "actionTimes": [8356, 8940, 9597], "queries": {"click": {"state": {"target": ["4", "11", "7", "8"], "time": [3132, 3828, 6020, 7220]}, "edge": {"target": [], "time": []}}, "mouseover": {"state": {"target": ["9", "4", "11", "1", "1", "7", "6", "8"], "time": [1903, 2779, 3622, 4489, 4907, 5540, 6524, 6992]}, "edge": {"target": [], "time": []}}, "mouseout": {"state": {"target": ["9", "4", "11", "1", "1", "11", "7", "6", "8"], "time": [1956, 3521, 4163, 4658, 4931, 4947, 6458, 6791, 7592]}, "edge": {"target": [], "time": []}}}, "displayed_time": "10.74", "trialTime": 12935, "trial_type": "mouselab-mdp", "trial_index": 63, "time_elapsed": 1657957, "internal_node_id": "0.0-4.0-3.0-23.0"}}, {"uniqueid": "w97987237:a69696822", "current_trial": 64, "dateTime": 1664370437490, "trialdata": {"revealed_states": [], "num_clicks_accrued": [0, 0, 0, 0, 0, 0, 0, 0, 0, 0, 0, 0, 0], "stateRewards": ["", 2, -8, -24, -48, -2, -4, 48, 48, 4, 8, 48, 48], "withholdReward": false, "trial_id": "mdp_347285045422", "block": "test2", "trialIndex": 56, "score": 64.5, "costs": -0.5, "simulationMode": [null, null, null], "rewards": [4, 8, 48], "path": ["0", "0", "9", "10", "11"], "rt": [3332, 201, 77], "actions": ["left", "left", "up"], "actionTimes": [5875, 6571, 7147], "queries": {"click": {"state": {"target": ["4", "11"], "time": [3758, 4653]}, "edge": {"target": [], "time": []}}, "mouseover": {"state": {"target": ["4", "11"], "time": [3422, 4406]}, "edge": {"target": [], "time": []}}, "mouseout": {"state": {"target": ["0", "4", "11"], "time": [3072, 4123, 5090]}, "edge": {"target": [], "time": []}}}, "displayed_time": "10.54", "trialTime": 14596, "trial_type": "mouselab-mdp", "trial_index": 64, "time_elapsed": 1672696, "internal_node_id": "0.0-4.0-3.0-24.0"}}, {"uniqueid": "w97987237:a69696822", "current_trial": 65, "dateTime": 1664370449457, "trialdata": {"revealed_states": [], "num_clicks_accrued": [0, 0, 0, 0, 0, 0, 0, 0, 0, 0, 0, 0, 0], "stateRewards": ["", 4, 4, 24, -48, 2, -8, -24, -48, 4, 8, 48, 48], "withholdReward": true, "trial_id": "mdp_592471239511", "block": "test2", "trialIndex": 57, "score": 64, "costs": -1, "simulationMode": [null, null, null], "rewards": [4, 8, 48], "path": ["0", "0", "9", "10", "11"], "rt": [5042, 100, 343], "actions": ["left", "left", "up"], "actionTimes": [7628, 8229, 9072], "queries": {"click": {"state": {"target": ["4", "7", "8", "11"], "time": [3632, 4472, 5280, 6464]}, "edge": {"target": [], "time": []}}, "mouseover": {"state": {"target": ["4", "4", "2", "7", "7", "6", "8", "0", "11", "10", "9"], "time": [3112, 3429, 3869, 3946, 4280, 4797, 5048, 5682, 6199, 6915, 7016]}, "edge": {"target": [], "time": []}}, "mouseout": {"state": {"target": ["10", "9", "7", "5", "0", "4", "4", "2", "7", "7", "6", "8", "0", "11", "10", "9", "9"], "time": [1243, 1262, 1511, 1944, 2984, 3213, 3846, 3893, 3979, 4747, 4981, 5548, 5732, 6866, 6949, 7038, 10386]}, "edge": {"target": [], "time": []}}}, "displayed_time": "10.59", "trialTime": 11806, "trial_type": "mouselab-mdp", "trial_index": 65, "time_elapsed": 1684663, "internal_node_id": "0.0-4.0-3.0-25.0"}}, {"uniqueid": "w97987237:a69696822", "current_trial": 66, "dateTime": 1664370464480, "trialdata": {"revealed_states": [], "num_clicks_accrued": [0, 0, 0, 0, 0, 0, 0, 0, 0, 0, 0, 0, 0], "stateRewards": ["", -2, -4, -24, -48, -2, 8, -48, 24, 4, -4, -24, -24], "withholdReward": true, "trial_id": "mdp_915304165774", "block": "test2", "trialIndex": 58, "score": 33.5, "costs": -1.5, "simulationMode": [null, null, null], "rewards": [-2, 8, 24], "path": ["0", "0", "5", "6", "8"], "rt": [9589, 189, 648], "actions": ["right", "right", "down"], "actionTimes": [11172, 11853, 12995], "queries": {"click": {"state": {"target": ["4", "7", "8", "11", "12", "3"], "time": [2589, 3574, 4469, 5372, 5972, 6965]}, "edge": {"target": [], "time": []}}, "mouseover": {"state": {"target": ["1", "4", "2", "7", "7", "6", "8", "9", "11", "10", "12", "9", "2", "3", "1", "2", "1"], "time": [2028, 2360, 2878, 3028, 3295, 3918, 4020, 4996, 5062, 5636, 5719, 6417, 6715, 6754, 7532, 7749, 8233]}, "edge": {"target": [], "time": []}}, "mouseout": {"state": {"target": ["0", "1", "4", "2", "7", "7", "6", "8", "9", "11", "10", "12", "9", "2", "3", "1", "2"], "time": [1358, 2144, 2828, 2904, 3094, 3895, 3996, 4813, 5027, 5614, 5696, 6414, 6451, 6736, 7465, 7682, 7966]}, "edge": {"target": [], "time": []}}}, "displayed_time": "13.50", "trialTime": 14866, "trial_type": "mouselab-mdp", "trial_index": 66, "time_elapsed": 1699686, "internal_node_id": "0.0-4.0-3.0-26.0"}}, {"uniqueid": "w97987237:a69696822", "current_trial": 67, "dateTime": 1664370476345, "trialdata": {"revealed_states": [], "num_clicks_accrued": [0, 0, 0, 0, 0, 0, 0, 0, 0, 0, 0, 0, 0], "stateRewards": ["", -2, 8, 48, 24, 2, -8, -24, -48, -4, 8, -48, 24], "withholdReward": true, "trial_id": "mdp_224053025943", "block": "test2", "trialIndex": 59, "score": 57.5, "costs": -1.5, "simulationMode": [null, null, null], "rewards": [-2, 8, 48], "path": ["0", "0", "1", "2", "3"], "rt": [6380, 641, 14], "actions": ["up", "up", "right"], "actionTimes": [8251, 9390, 9897], "queries": {"click": {"state": {"target": ["4", "7", "8", "11", "12", "3"], "time": [2650, 3538, 4371, 5185, 5882, 7115]}, "edge": {"target": [], "time": []}}, "mouseover": {"state": {"target": ["4", "2", "3", "7", "6", "8", "0", "11", "11", "10", "12", "9", "2", "3"], "time": [2414, 2977, 3148, 3332, 3931, 4216, 4650, 4897, 5000, 5484, 5701, 6250, 6535, 6901]}, "edge": {"target": [], "time": []}}, "mouseout": {"state": {"target": ["1", "5", "5", "0", "4", "2", "3", "7", "6", "8", "0", "11", "11", "10", "12", "9", "2"], "time": [928, 995, 1368, 1612, 2948, 3065, 3175, 3882, 4015, 4583, 4700, 4920, 5434, 5634, 6201, 6300, 6835]}, "edge": {"target": [], "time": []}}}, "displayed_time": "10.41", "trialTime": 11719, "trial_type": "mouselab-mdp", "trial_index": 67, "time_elapsed": 1711551, "internal_node_id": "0.0-4.0-3.0-27.0"}}, {"uniqueid": "w97987237:a69696822", "current_trial": 68, "dateTime": 1664370490757, "trialdata": {"revealed_states": [], "num_clicks_accrued": [0, 0, 0, 0, 0, 0, 0, 0, 0, 0, 0, 0, 0], "stateRewards": ["", 2, -8, 24, -48, 2, 4, 48, -48, -2, -8, -48, 48], "withholdReward": false, "trial_id": "mdp_629420544881", "block": "test2", "trialIndex": 60, "score": 58.5, "costs": -0.5, "simulationMode": [null, null, null], "rewards": [2, 4, 48], "path": ["0", "0", "5", "6", "7"], "rt": [3463, 282, 83], "actions": ["right", "right", "up"], "actionTimes": [5040, 5823, 6407], "queries": {"click": {"state": {"target": ["4", "7"], "time": [2248, 3574]}, "edge": {"target": [], "time": []}}, "mouseover": {"state": {"target": ["4", "2", "3", "7", "6", "8"], "time": [2026, 2500, 2810, 3361, 3860, 4078]}, "edge": {"target": [], "time": []}}, "mouseout": {"state": {"target": ["3", "0", "4", "2", "3", "7", "6"], "time": [958, 1792, 2477, 2720, 2877, 3810, 3927]}, "edge": {"target": [], "time": []}}}, "displayed_time": "9.58", "trialTime": 14266, "trial_type": "mouselab-mdp", "trial_index": 68, "time_elapsed": 1725963, "internal_node_id": "0.0-4.0-3.0-28.0"}}, {"uniqueid": "w97987237:a69696822", "current_trial": 69, "dateTime": 1664370507716, "trialdata": {"revealed_states": [], "num_clicks_accrued": [0, 0, 0, 0, 0, 0, 0, 0, 0, 0, 0, 0, 0], "stateRewards": ["", 2, 4, 48, 48, 4, -8, 24, -48, -4, -8, -24, -48], "withholdReward": true, "trial_id": "mdp_343818007251", "block": "test2", "trialIndex": 61, "score": 58.75, "costs": -0.25, "simulationMode": [null, null, null], "rewards": [2, 4, 48], "path": ["0", "0", "1", "2", "4"], "rt": [1874, 214, 119], "actions": ["up", "up", "left"], "actionTimes": [4686, 5391, 6012], "queries": {"click": {"state": {"target": ["4"], "time": [3606]}, "edge": {"target": [], "time": []}}, "mouseover": {"state": {"target": ["4", "7"], "time": [3398, 3999]}, "edge": {"target": [], "time": []}}, "mouseout": {"state": {"target": ["8", "0", "4", "7"], "time": [2147, 2530, 3832, 4064]}, "edge": {"target": [], "time": []}}}, "displayed_time": "11.81", "trialTime": 16815, "trial_type": "mouselab-mdp", "trial_index": 69, "time_elapsed": 1742922, "internal_node_id": "0.0-4.0-3.0-29.0"}}, {"uniqueid": "w97987237:a69696822", "current_trial": 70, "dateTime": 1664370514522, "trialdata": {"rt": 6795, "stimulus": "<h1> End of block! </h1>\n\nYou have reached the end of the block 2/4. If you need a short break, feel free to take one now before moving on.\n\n<br><br>\nIn the next block, you will complete another 30 rounds of this game.\n\n<br><br>\n<div style='text-align: center;'>Press <code>space</code> to begin.</div>\n<br><br>\n<div style='text-align: center;'>(If the experiment doesn't continue, try clicking on the text and then pressing <code>space</code>.)</div>", "response": " ", "trial_id": "mdp_ready_3", "trial_type": "html-keyboard-response", "trial_index": 70, "time_elapsed": 1749728, "internal_node_id": "0.0-4.0-4.0"}}, {"uniqueid": "w97987237:a69696822", "current_trial": 71, "dateTime": 1664370526411, "trialdata": {"revealed_states": [], "num_clicks_accrued": [0, 0, 0, 0, 0, 0, 0, 0, 0, 0, 0, 0, 0], "stateRewards": ["", -2, -4, 48, 48, 2, 4, -48, 24, 4, -8, 24, -24], "withholdReward": true, "trial_id": "mdp_628613319495", "block": "test3", "trialIndex": 62, "score": 46.75, "costs": -0.25, "simulationMode": [null, null, null], "rewards": [-2, -4, 48], "path": ["0", "0", "1", "2", "4"], "rt": [2213, 133, 49], "actions": ["up", "up", "left"], "actionTimes": [4336, 4963, 5539], "queries": {"click": {"state": {"target": ["4"], "time": [3251]}, "edge": {"target": [], "time": []}}, "mouseover": {"state": {"target": ["1", "2", "4", "2"], "time": [2548, 2716, 3017, 3501]}, "edge": {"target": [], "time": []}}, "mouseout": {"state": {"target": ["6", "5", "0", "1", "2", "4", "2"], "time": [1331, 1397, 2532, 2615, 2745, 3451, 3550]}, "edge": {"target": [], "time": []}}}, "displayed_time": "10.12", "trialTime": 11738, "trial_type": "mouselab-mdp", "trial_index": 71, "time_elapsed": 1761617, "internal_node_id": "0.0-4.0-5.0-0.0"}}, {"uniqueid": "w97987237:a69696822", "current_trial": 72, "dateTime": 1664370540139, "trialdata": {"revealed_states": [], "num_clicks_accrued": [0, 0, 0, 0, 0, 0, 0, 0, 0, 0, 0, 0, 0], "stateRewards": ["", -4, -8, -24, 24, 2, 8, 24, 48, 2, 4, 24, -48], "withholdReward": true, "trial_id": "mdp_122352383932", "block": "test3", "trialIndex": 63, "score": 62, "costs": -1, "simulationMode": [null, null, null], "rewards": [2, 8, 48], "path": ["0", "0", "5", "6", "8"], "rt": [5810, 98, 431], "actions": ["right", "right", "down"], "actionTimes": [7566, 8159, 9095], "queries": {"click": {"state": {"target": ["7", "11", "12", "8"], "time": [2809, 4232, 5784, 6548]}, "edge": {"target": [], "time": []}}, "mouseover": {"state": {"target": ["3", "3", "7", "6", "0", "11", "9", "12", "12", "12", "8"], "time": [2079, 2345, 2545, 3145, 3646, 3980, 4615, 4713, 5081, 5548, 6332]}, "edge": {"target": [], "time": []}}, "mouseout": {"state": {"target": ["3", "3", "7", "6", "0", "11", "9", "12", "12", "12"], "time": [2104, 2394, 3095, 3279, 3668, 4447, 4640, 4797, 5130, 5982]}, "edge": {"target": [], "time": []}}}, "displayed_time": "9.76", "trialTime": 13583, "trial_type": "mouselab-mdp", "trial_index": 72, "time_elapsed": 1775344, "internal_node_id": "0.0-4.0-5.0-1.0"}}, {"uniqueid": "w97987237:a69696822", "current_trial": 73, "dateTime": 1664370554135, "trialdata": {"revealed_states": [], "num_clicks_accrued": [0, 0, 0, 0, 0, 0, 0, 0, 0, 0, 0, 0, 0], "stateRewards": ["", 4, 4, -48, -24, -2, -4, 48, 24, -4, 4, 24, -48], "withholdReward": true, "trial_id": "mdp_617383046444", "block": "test3", "trialIndex": 64, "score": 46.5, "costs": -0.5, "simulationMode": [null, null, null], "rewards": [-2, -4, 48], "path": ["0", "0", "5", "6", "7"], "rt": [4279, 189, 310], "actions": ["right", "right", "up"], "actionTimes": [7361, 8049, 8851], "queries": {"click": {"state": {"target": ["4", "7"], "time": [4811, 6098]}, "edge": {"target": [], "time": []}}, "mouseover": {"state": {"target": ["4", "7", "8"], "time": [4594, 5895, 6613]}, "edge": {"target": [], "time": []}}, "mouseout": {"state": {"target": ["8", "9", "0", "0", "4", "7", "8"], "time": [1033, 2091, 2225, 3726, 5095, 6346, 6696]}, "edge": {"target": [], "time": []}}}, "displayed_time": "12.08", "trialTime": 13847, "trial_type": "mouselab-mdp", "trial_index": 73, "time_elapsed": 1789341, "internal_node_id": "0.0-4.0-5.0-2.0"}}, {"uniqueid": "w97987237:a69696822", "current_trial": 74, "dateTime": 1664370577191, "trialdata": {"revealed_states": [], "num_clicks_accrued": [0, 0, 0, 0, 0, 0, 0, 0, 0, 0, 0, 0, 0], "stateRewards": ["", 4, -8, 24, 48, 2, 4, 48, 48, 2, 8, -48, -48], "withholdReward": false, "trial_id": "mdp_783704746330", "block": "test3", "trialIndex": 65, "score": 48.75, "costs": -0.25, "simulationMode": [null, null, null], "rewards": [4, -8, 48], "path": ["0", "0", "1", "2", "4"], "rt": [2091, 133, 35], "actions": ["up", "up", "left"], "actionTimes": [7242, 7875, 8410], "queries": {"click": {"state": {"target": ["4"], "time": [6096]}, "edge": {"target": [], "time": []}}, "mouseover": {"state": {"target": ["1", "4", "7"], "time": [5628, 5829, 6346]}, "edge": {"target": [], "time": []}}, "mouseout": {"state": {"target": ["6", "1", "0", "1", "4", "7"], "time": [3976, 4244, 5512, 5695, 6262, 6397]}, "edge": {"target": [], "time": []}}}, "displayed_time": "13.15", "trialTime": 22956, "trial_type": "mouselab-mdp", "trial_index": 74, "time_elapsed": 1812397, "internal_node_id": "0.0-4.0-5.0-3.0"}}, {"uniqueid": "w97987237:a69696822", "current_trial": 75, "dateTime": 1664370589260, "trialdata": {"revealed_states": [], "num_clicks_accrued": [0, 0, 0, 0, 0, 0, 0, 0, 0, 0, 0, 0, 0], "stateRewards": ["", -4, 8, -24, -24, 4, -8, 48, -24, -4, -8, -24, -48], "withholdReward": true, "trial_id": "mdp_391766721791", "block": "test3", "trialIndex": 66, "score": 48.5, "costs": -0.5, "simulationMode": [null, null, null], "rewards": [4, -8, 48], "path": ["0", "0", "5", "6", "7"], "rt": [3039, 71, 359], "actions": ["right", "right", "up"], "actionTimes": [5634, 6194, 7049], "queries": {"click": {"state": {"target": ["4", "7"], "time": [3550, 4445]}, "edge": {"target": [], "time": []}}, "mouseover": {"state": {"target": ["5", "4", "2", "7", "8"], "time": [2776, 3309, 3729, 4244, 4861]}, "edge": {"target": [], "time": []}}, "mouseout": {"state": {"target": ["7", "5", "0", "5", "4", "2", "7", "8"], "time": [1840, 1889, 2725, 2858, 3726, 3754, 4644, 5011]}, "edge": {"target": [], "time": []}}}, "displayed_time": "10.60", "trialTime": 11919, "trial_type": "mouselab-mdp", "trial_index": 75, "time_elapsed": 1824466, "internal_node_id": "0.0-4.0-5.0-4.0"}}, {"uniqueid": "w97987237:a69696822", "current_trial": 76, "dateTime": 1664370602106, "trialdata": {"revealed_states": [], "num_clicks_accrued": [0, 0, 0, 0, 0, 0, 0, 0, 0, 0, 0, 0, 0], "stateRewards": ["", -4, -8, 48, -24, 4, -8, 48, 48, -2, 4, -48, -24], "withholdReward": true, "trial_id": "mdp_925905402462", "block": "test3", "trialIndex": 67, "score": 48.75, "costs": -0.25, "simulationMode": [null, null, null], "rewards": [4, -8, 48], "path": ["0", "0", "5", "6", "7"], "rt": [1968, 86, 8], "actions": ["right", "right", "up"], "actionTimes": [4493, 5069, 5576], "queries": {"click": {"state": {"target": ["7"], "time": [3315]}, "edge": {"target": [], "time": []}}, "mouseover": {"state": {"target": ["7"], "time": [3037]}, "edge": {"target": [], "time": []}}, "mouseout": {"state": {"target": ["8", "6", "5", "0", "7", "8"], "time": [768, 1018, 1802, 2787, 3837, 10595]}, "edge": {"target": [], "time": []}}}, "displayed_time": "11.53", "trialTime": 12697, "trial_type": "mouselab-mdp", "trial_index": 76, "time_elapsed": 1837311, "internal_node_id": "0.0-4.0-5.0-5.0"}}, {"uniqueid": "w97987237:a69696822", "current_trial": 77, "dateTime": 1664370624691, "trialdata": {"revealed_states": [], "num_clicks_accrued": [0, 0, 0, 0, 0, 0, 0, 0, 0, 0, 0, 0, 0], "stateRewards": ["", 2, -8, 24, 24, 2, 4, -48, -48, 4, 4, -24, 48], "withholdReward": true, "trial_id": "mdp_985707010949", "block": "test3", "trialIndex": 68, "score": 59.75, "costs": -1.25, "simulationMode": [null, null, null], "rewards": [4, 4, 48], "path": ["0", "0", "9", "10", "12"], "rt": [10150, 149, 106], "actions": ["left", "left", "down"], "actionTimes": [11986, 12640, 13247], "queries": {"click": {"state": {"target": ["4", "7", "8", "11", "12"], "time": [4958, 5645, 6933, 9469, 10621]}, "edge": {"target": [], "time": []}}, "mouseover": {"state": {"target": ["0", "4", "7", "6", "8", "5", "3", "11", "10", "12", "9", "1"], "time": [2888, 3621, 5373, 6064, 6908, 7424, 8292, 9193, 9894, 10361, 11061, 11195]}, "edge": {"target": [], "time": []}}, "mouseout": {"state": {"target": ["0", "0", "4", "7", "6", "8", "5", "3", "11", "10", "12", "9", "1"], "time": [2253, 3187, 5206, 6040, 6190, 7375, 7438, 8317, 9794, 10116, 10976, 11111, 11244]}, "edge": {"target": [], "time": []}}}, "displayed_time": "13.74", "trialTime": 22436, "trial_type": "mouselab-mdp", "trial_index": 77, "time_elapsed": 1859897, "internal_node_id": "0.0-4.0-5.0-6.0"}}], "questiondata": {"params": {"CODE": "C6DMOQA6", "MIN_TIME": 7, "inspectCost": 0.25, "startTime": "Wed Sep 28 2022 14:39:19 GMT+0200 (South Africa Standard Time)", "bonusRate": 0.002, "variance": "2_4_24", "branching": "312"}}, "eventdata": [{"eventtype": "initialized", "value": null, "timestamp": 1664368758123, "interval": 0}, {"eventtype": "window_resize", "value": [1344, 751], "timestamp": 1664368758123, "interval": 0}, {"eventtype": "window_resize", "value": [1344, 751], "timestamp": 1664368758807, "interval": 684}, {"eventtype": "window_resize", "value": [1344, 840], "timestamp": 1664368814280, "interval": 55473}], "useragent": "Mozilla/5.0 (Windows NT 6.1) AppleWebKit/537.36 (KHTML, like Gecko) Chrome/105.0.0.0 Safari/537.36", "mode": "live", "id": "w97987237:a69696822", "status": "user data saved", "Beginhit": "2022-09-28 12:38:54.943144", "Beginexp": "2022-09-28 12:40:04.055601", "Endhit": null, "psiturkStatus": 2, "browser": "<redacted>", "platform": "windows", "language": "en-US"}