{"condition": 1, "counterbalance": 0, "assignmentId": "a69347970", "workerId": "w19508494", "hitId": "h43896040", "currenttrial": 137, "bonus": 0, "data": [{"uniqueid": "w19508494:a69347970", "current_trial": 0, "dateTime": 1664554933282, "trialdata": {"success": true, "trial_type": "fullscreen", "trial_index": 0, "time_elapsed": 3376, "internal_node_id": "0.0-0.0"}}, {"uniqueid": "w19508494:a69347970", "current_trial": 1, "dateTime": 1664554960767, "trialdata": {"view_history": [{"page_index": 0, "viewing_time": 27483}], "rt": 27483, "trial_id": "exp_instructions_no_distractor", "trial_type": "instructions", "trial_index": 1, "time_elapsed": 30861, "internal_node_id": "0.0-1.0"}}, {"uniqueid": "w19508494:a69347970", "current_trial": 2, "dateTime": 1664554963203, "trialdata": {"success": true, "trial_type": "fullscreen", "trial_index": 2, "time_elapsed": 33297, "internal_node_id": "0.0-2.0-0.0"}}, {"uniqueid": "w19508494:a69347970", "current_trial": 3, "dateTime": 1664555030066, "trialdata": {"view_history": [{"page_index": 0, "viewing_time": 31834}, {"page_index": 1, "viewing_time": 17470}, {"page_index": 2, "viewing_time": 5959}, {"page_index": 3, "viewing_time": 3295}, {"page_index": 4, "viewing_time": 8303}], "rt": 66862, "trial_id": "mouselab_instructions_1", "trial_type": "instructions", "trial_index": 3, "time_elapsed": 100160, "internal_node_id": "0.0-2.0-1.0"}}, {"uniqueid": "w19508494:a69347970", "current_trial": 4, "dateTime": 1664555044699, "trialdata": {"revealed_states": [], "num_clicks_accrued": [0, 0, 0, 0, 0, 0, 0, 0, 0, 0, 0, 0, 0], "stateRewards": ["", -10, 10, -10, 10, -10, -10, -10, 10, -10, 10, 10, -10], "withholdReward": false, "trial_id": "practice_1", "block": "test", "trialIndex": 0, "score": -8.75, "costs": -0.75, "simulationMode": [null, null, null], "rewards": [-10, 10, -10], "path": ["0", "0", "1", "2", "3"], "rt": [5783, 361, 586], "actions": ["up", "up", "right"], "actionTimes": [8066, 8925, 10011], "queries": {"click": {"state": {"target": ["9", "5", "1"], "time": [4810, 6600, 7086]}, "edge": {"target": [], "time": []}}, "mouseover": {"state": {"target": ["0", "9", "5", "1"], "time": [4273, 4461, 6212, 6915]}, "edge": {"target": [], "time": []}}, "mouseout": {"state": {"target": ["0", "9", "5", "1"], "time": [4291, 6091, 6873, 7248]}, "edge": {"target": [], "time": []}}}, "displayed_time": "10.51", "trialTime": 14507, "trial_type": "mouselab-mdp", "trial_index": 4, "time_elapsed": 114793, "internal_node_id": "0.0-2.0-2.0-0.0"}}, {"uniqueid": "w19508494:a69347970", "current_trial": 5, "dateTime": 1664555050393, "trialdata": {"revealed_states": [], "num_clicks_accrued": [0, 0, 0, 0, 0, 0, 0, 0, 0, 0, 0, 0, 0], "stateRewards": ["", -10, 10, 10, 10, -10, 10, 10, -10, 10, -10, -10, 10], "withholdReward": false, "trial_id": "practice_2", "block": "test", "trialIndex": 1, "score": 12, "costs": 0, "simulationMode": [null, null, null], "rewards": [10, -10, 10], "path": ["0", "0", "9", "10", "12"], "rt": [871, 204, 84], "actions": ["left", "left", "down"], "actionTimes": [2525, 3229, 3812], "queries": {"click": {"state": {"target": [], "time": []}, "edge": {"target": [], "time": []}}, "mouseover": {"state": {"target": [], "time": []}, "edge": {"target": [], "time": []}}, "mouseout": {"state": {"target": ["5", "0"], "time": [1430, 1764]}, "edge": {"target": [], "time": []}}}, "displayed_time": "4.32", "trialTime": 5668, "trial_type": "mouselab-mdp", "trial_index": 5, "time_elapsed": 120487, "internal_node_id": "0.0-2.0-2.0-1.0"}}, {"uniqueid": "w19508494:a69347970", "current_trial": 6, "dateTime": 1664555085701, "trialdata": {"view_history": [{"page_index": 0, "viewing_time": 22757}, {"page_index": 1, "viewing_time": 6818}, {"page_index": 2, "viewing_time": 5731}], "rt": 35307, "trial_id": "mouselab_instructions_2_scarce", "trial_type": "instructions", "trial_index": 6, "time_elapsed": 155795, "internal_node_id": "0.0-2.0-3.0"}}, {"uniqueid": "w19508494:a69347970", "current_trial": 7, "dateTime": 1664555117356, "trialdata": {"rt": 31653, "response": {"Q0": "$-48 to $48", "Q1": "The cost is always $0.25.", "Q2": "The better I perform the higher my bonus will be.", "Q3": "No, the amount of cash at each node of the web may be different each time.", "Q4": "The values of the nodes walked through from start to finish.", "Q5": "No, the spider might forget to count the money on some rounds."}, "question_order": [0, 1, 2, 3, 4, 5], "correct": {"Q0": "$-48 to $48", "Q1": "The cost is always $0.25.", "Q2": "The better I perform the higher my bonus will be.", "Q3": "No, the amount of cash at each node of the web may be different each time.", "Q4": "The values of the nodes walked through from start to finish.", "Q5": "No, the spider might forget to count the money on some rounds."}, "trial_id": "mouselab_quiz_scarce", "trial_type": "survey-multi-choice", "trial_index": 7, "time_elapsed": 187450, "internal_node_id": "0.0-2.0-4.0"}}, {"uniqueid": "w19508494:a69347970", "current_trial": 8, "dateTime": 1664555123087, "trialdata": {"rt": 5727, "stimulus": "\n<h1> Get ready to start the game! </h1>\n\nThank you for reading the instructions. Get ready start with the first of 4 block(s) of this game.\n<br><br>\nIn this first block, you will complete 30 rounds of this game before moving on.\n<br><br>\nRemember, the more money the spider gets, the bigger your bonus will be!\n<br><br>\n<div style='text-align: center;'>Press <code>space</code> to begin.</div>\n\n<br><br>\n(If, at any point, the <code>space</code> key does not take you to the next page, click once on the text and try again.)", "response": " ", "trial_id": "mdp_ready_1", "trial_type": "html-keyboard-response", "trial_index": 8, "time_elapsed": 193181, "internal_node_id": "0.0-4.0-0.0"}}, {"uniqueid": "w19508494:a69347970", "current_trial": 9, "dateTime": 1664555134656, "trialdata": {"revealed_states": [], "num_clicks_accrued": [0, 0, 0, 0, 0, 0, 0, 0, 0, 0, 0, 0, 0], "stateRewards": ["", -4, 8, -48, -48, -2, -8, -24, -48, 2, -4, -48, 24], "withholdReward": true, "trial_id": "mdp_743906784415", "block": "test1", "trialIndex": 2, "score": 26, "costs": -1, "simulationMode": [null, null, null], "rewards": [2, -4, 24], "path": ["0", "0", "9", "10", "12"], "rt": [3026, 383, 96], "actions": ["left", "left", "down"], "actionTimes": [4454, 5336, 5933], "queries": {"click": {"state": {"target": ["9", "10", "11", "12"], "time": [1939, 2376, 2751, 3154]}, "edge": {"target": [], "time": []}}, "mouseover": {"state": {"target": ["9", "10", "11", "12"], "time": [1703, 2098, 2613, 3019]}, "edge": {"target": [], "time": []}}, "mouseout": {"state": {"target": ["5", "0", "9", "10", "11", "10", "12"], "time": [1176, 1661, 2061, 2558, 2861, 2940, 3382]}, "edge": {"target": [], "time": []}}}, "displayed_time": "10.43", "trialTime": 11539, "trial_type": "mouselab-mdp", "trial_index": 9, "time_elapsed": 204750, "internal_node_id": "0.0-4.0-1.0-0.0"}}, {"uniqueid": "w19508494:a69347970", "current_trial": 10, "dateTime": 1664555146093, "trialdata": {"revealed_states": [], "num_clicks_accrued": [0, 0, 0, 0, 0, 0, 0, 0, 0, 0, 0, 0, 0], "stateRewards": ["", -2, 8, 48, 48, 2, 4, -48, 24, -4, -8, 48, 24], "withholdReward": true, "trial_id": "mdp_572910394648", "block": "test1", "trialIndex": 3, "score": 40, "costs": -1, "simulationMode": [null, null, null], "rewards": [-4, -8, 48], "path": ["0", "0", "9", "10", "11"], "rt": [2955, 124, 119], "actions": ["left", "left", "up"], "actionTimes": [4020, 4644, 5263], "queries": {"click": {"state": {"target": ["9", "10", "11", "12"], "time": [1505, 1870, 2191, 2730]}, "edge": {"target": [], "time": []}}, "mouseover": {"state": {"target": ["9", "10", "11", "12"], "time": [1296, 1702, 2090, 2417]}, "edge": {"target": [], "time": []}}, "mouseout": {"state": {"target": ["0", "9", "10", "11", "10", "12"], "time": [1241, 1647, 2035, 2302, 2375, 2908]}, "edge": {"target": [], "time": []}}}, "displayed_time": "10.06", "trialTime": 11410, "trial_type": "mouselab-mdp", "trial_index": 10, "time_elapsed": 216187, "internal_node_id": "0.0-4.0-1.0-1.0"}}, {"uniqueid": "w19508494:a69347970", "current_trial": 11, "dateTime": 1664555160723, "trialdata": {"revealed_states": [], "num_clicks_accrued": [0, 0, 0, 0, 0, 0, 0, 0, 0, 0, 0, 0, 0], "stateRewards": ["", 4, 4, 24, -48, 2, -8, -24, -48, 4, 8, 48, 48], "withholdReward": false, "trial_id": "mdp_592471239511", "block": "test1", "trialIndex": 4, "score": 64, "costs": -1, "simulationMode": [null, null, null], "rewards": [4, 8, 48], "path": ["0", "0", "9", "10", "11"], "rt": [2189, 44, 12], "actions": ["left", "left", "up"], "actionTimes": [2821, 3363, 3877], "queries": {"click": {"state": {"target": ["9", "10", "11", "12"], "time": [1116, 1428, 1721, 2130]}, "edge": {"target": [], "time": []}}, "mouseover": {"state": {"target": ["9", "10", "11", "12"], "time": [822, 1265, 1586, 1932]}, "edge": {"target": [], "time": []}}, "mouseout": {"state": {"target": ["0", "0", "9", "10", "11", "10", "12", "12"], "time": [174, 798, 1222, 1544, 1828, 1883, 4683, 4992]}, "edge": {"target": [], "time": []}}}, "displayed_time": "8.63", "trialTime": 14604, "trial_type": "mouselab-mdp", "trial_index": 11, "time_elapsed": 230817, "internal_node_id": "0.0-4.0-1.0-2.0"}}, {"uniqueid": "w19508494:a69347970", "current_trial": 12, "dateTime": 1664555171157, "trialdata": {"revealed_states": [], "num_clicks_accrued": [0, 0, 0, 0, 0, 0, 0, 0, 0, 0, 0, 0, 0], "stateRewards": ["", -4, 8, 24, -24, 4, 8, -24, -48, 2, 4, 24, -24], "withholdReward": true, "trial_id": "mdp_782187007008", "block": "test1", "trialIndex": 5, "score": 32, "costs": -3, "simulationMode": [null, null, null], "rewards": [2, 4, 24], "path": ["0", "0", "9", "10", "11"], "rt": [5915, 12, 353], "actions": ["left", "left", "up"], "actionTimes": [6695, 7208, 8063], "queries": {"click": {"state": {"target": ["5", "6", "7", "8", "1", "2", "4", "3", "9", "10", "11", "12"], "time": [1296, 1659, 1977, 2416, 3088, 3440, 3819, 4148, 4859, 5266, 5564, 5899]}, "edge": {"target": [], "time": []}}, "mouseover": {"state": {"target": ["5", "6", "7", "8", "0", "1", "2", "4", "3", "9", "10", "11", "12"], "time": [1104, 1474, 1849, 2189, 2770, 2940, 3310, 3722, 3989, 4558, 5164, 5462, 5795]}, "edge": {"target": [], "time": []}}, "mouseout": {"state": {"target": ["0", "5", "6", "7", "6", "8", "5", "0", "1", "2", "4", "2", "3", "1", "9", "10", "11", "10", "12"], "time": [1074, 1437, 1795, 2092, 2152, 2704, 2758, 2783, 3262, 3595, 3916, 3971, 4292, 4370, 5043, 5419, 5667, 5752, 6068]}, "edge": {"target": [], "time": []}}}, "displayed_time": "8.78", "trialTime": 10403, "trial_type": "mouselab-mdp", "trial_index": 12, "time_elapsed": 241251, "internal_node_id": "0.0-4.0-1.0-3.0"}}, {"uniqueid": "w19508494:a69347970", "current_trial": 13, "dateTime": 1664555181910, "trialdata": {"revealed_states": [], "num_clicks_accrued": [0, 0, 0, 0, 0, 0, 0, 0, 0, 0, 0, 0, 0], "stateRewards": ["", 4, 4, 48, -48, -2, -8, -48, -24, 2, 4, -24, -48], "withholdReward": false, "trial_id": "mdp_239929662917", "block": "test1", "trialIndex": 6, "score": 58, "costs": -3, "simulationMode": [null, null, null], "rewards": [4, 4, 48], "path": ["0", "0", "1", "2", "3"], "rt": [4781, 32, 4], "actions": ["up", "up", "right"], "actionTimes": [5911, 6444, 6950], "queries": {"click": {"state": {"target": ["9", "10", "11", "12", "5", "6", "7", "8", "1", "2", "4", "3"], "time": [1546, 1819, 2103, 2433, 3067, 3420, 3698, 4011, 4467, 4798, 5068, 5355]}, "edge": {"target": [], "time": []}}, "mouseover": {"state": {"target": ["9", "10", "11", "12", "5", "6", "7", "8", "1", "2", "4", "3"], "time": [1388, 1673, 1976, 2303, 2927, 3242, 3606, 3873, 4212, 4648, 4939, 5212]}, "edge": {"target": [], "time": []}}, "mouseout": {"state": {"target": ["0", "0", "9", "10", "11", "10", "12", "5", "6", "7", "6", "8", "5", "1", "2", "4", "2", "3", "7", "6"], "time": [830, 1364, 1642, 1933, 2218, 2267, 2564, 3200, 3576, 3800, 3848, 4139, 4182, 4600, 4903, 5151, 5194, 5497, 9417, 9660]}, "edge": {"target": [], "time": []}}}, "displayed_time": "10.13", "trialTime": 10725, "trial_type": "mouselab-mdp", "trial_index": 13, "time_elapsed": 252004, "internal_node_id": "0.0-4.0-1.0-4.0"}}, {"uniqueid": "w19508494:a69347970", "current_trial": 14, "dateTime": 1664555192219, "trialdata": {"revealed_states": [], "num_clicks_accrued": [0, 0, 0, 0, 0, 0, 0, 0, 0, 0, 0, 0, 0], "stateRewards": ["", 4, 4, 48, -48, -2, 4, 48, -48, -4, 4, -24, -24], "withholdReward": true, "trial_id": "mdp_753324812898", "block": "test1", "trialIndex": 7, "score": 53, "costs": -2, "simulationMode": [null, null, null], "rewards": [-2, 4, 48], "path": ["0", "0", "5", "6", "7"], "rt": [3767, 376, 66], "actions": ["right", "right", "up"], "actionTimes": [4387, 5265, 5834], "queries": {"click": {"state": {"target": ["9", "10", "11", "12", "5", "6", "7", "8"], "time": [1054, 1355, 1592, 1878, 2809, 3049, 3311, 3614]}, "edge": {"target": [], "time": []}}, "mouseover": {"state": {"target": ["0", "9", "10", "11", "12", "5", "5", "6", "7", "8"], "time": [847, 889, 1235, 1501, 1780, 2453, 2713, 2938, 3222, 3483]}, "edge": {"target": [], "time": []}}, "mouseout": {"state": {"target": ["8", "0", "0", "9", "10", "11", "10", "12", "5", "5", "6", "7", "6", "8"], "time": [99, 301, 859, 1180, 1471, 1701, 1756, 2023, 2513, 2913, 3186, 3410, 3459, 3853]}, "edge": {"target": [], "time": []}}}, "displayed_time": "9.62", "trialTime": 10281, "trial_type": "mouselab-mdp", "trial_index": 14, "time_elapsed": 262313, "internal_node_id": "0.0-4.0-1.0-5.0"}}, {"uniqueid": "w19508494:a69347970", "current_trial": 15, "dateTime": 1664555201762, "trialdata": {"revealed_states": [], "num_clicks_accrued": [0, 0, 0, 0, 0, 0, 0, 0, 0, 0, 0, 0, 0], "stateRewards": ["", -2, -8, 24, -48, -4, 8, -48, -24, 4, 8, -24, 24], "withholdReward": true, "trial_id": "mdp_940444641142", "block": "test1", "trialIndex": 8, "score": 17.5, "costs": -1.5, "simulationMode": [null, null, null], "rewards": [-2, -8, 24], "path": ["0", "0", "1", "2", "3"], "rt": [4351, 33, 5], "actions": ["up", "up", "right"], "actionTimes": [5060, 5596, 6101], "queries": {"click": {"state": {"target": ["9", "11", "12", "5", "7", "8"], "time": [1155, 2486, 2900, 3642, 4017, 4353]}, "edge": {"target": [], "time": []}}, "mouseover": {"state": {"target": ["9", "11", "10", "10", "11", "10", "12", "5", "6", "7", "6", "8"], "time": [903, 1411, 2017, 2175, 2278, 2696, 2751, 3381, 3811, 3890, 4151, 4229]}, "edge": {"target": [], "time": []}}, "mouseout": {"state": {"target": ["0", "9", "11", "10", "10", "11", "10", "12", "5", "6", "7", "6", "8"], "time": [902, 1357, 1987, 2060, 2248, 2666, 2732, 3036, 3775, 3848, 4132, 4187, 4514]}, "edge": {"target": [], "time": []}}}, "displayed_time": "8.71", "trialTime": 9517, "trial_type": "mouselab-mdp", "trial_index": 15, "time_elapsed": 271856, "internal_node_id": "0.0-4.0-1.0-6.0"}}, {"uniqueid": "w19508494:a69347970", "current_trial": 16, "dateTime": 1664555213870, "trialdata": {"revealed_states": [], "num_clicks_accrued": [0, 0, 0, 0, 0, 0, 0, 0, 0, 0, 0, 0, 0], "stateRewards": ["", 4, -8, 24, 48, 2, -4, 48, 48, 4, -8, 48, 48], "withholdReward": true, "trial_id": "mdp_962498334245", "block": "test1", "trialIndex": 9, "score": 48.25, "costs": -0.75, "simulationMode": [null, null, null], "rewards": [4, -8, 48], "path": ["0", "0", "9", "10", "12"], "rt": [1793, 82, 38], "actions": ["left", "left", "down"], "actionTimes": [2748, 3332, 3870], "queries": {"click": {"state": {"target": ["9", "11", "12"], "time": [1348, 1730, 2101]}, "edge": {"target": [], "time": []}}, "mouseover": {"state": {"target": ["0", "9", "11", "10", "12"], "time": [1092, 1135, 1571, 1874, 1971]}, "edge": {"target": [], "time": []}}, "mouseout": {"state": {"target": ["8", "5", "0", "9", "11", "10", "12"], "time": [547, 577, 1111, 1468, 1850, 1923, 2268]}, "edge": {"target": [], "time": []}}}, "displayed_time": "9.96", "trialTime": 12076, "trial_type": "mouselab-mdp", "trial_index": 16, "time_elapsed": 283964, "internal_node_id": "0.0-4.0-1.0-7.0"}}, {"uniqueid": "w19508494:a69347970", "current_trial": 17, "dateTime": 1664555224507, "trialdata": {"revealed_states": [], "num_clicks_accrued": [0, 0, 0, 0, 0, 0, 0, 0, 0, 0, 0, 0, 0], "stateRewards": ["", -4, 8, -24, -24, 2, 4, 48, 48, -2, 4, 24, -48], "withholdReward": true, "trial_id": "mdp_397308196941", "block": "test1", "trialIndex": 10, "score": 57.5, "costs": -1.5, "simulationMode": [null, null, null], "rewards": [2, 4, 48], "path": ["0", "0", "5", "6", "7"], "rt": [3095, 53, 282], "actions": ["right", "right", "up"], "actionTimes": [3618, 4169, 4950], "queries": {"click": {"state": {"target": ["9", "11", "12", "5", "7", "8"], "time": [935, 1300, 1598, 2378, 2750, 3075]}, "edge": {"target": [], "time": []}}, "mouseover": {"state": {"target": ["9", "11", "10", "12", "5", "5", "6", "7", "6", "8"], "time": [765, 1183, 1426, 1492, 1898, 2238, 2535, 2644, 2892, 2959]}, "edge": {"target": [], "time": []}}, "mouseout": {"state": {"target": ["0", "9", "11", "10", "12", "5", "5", "6", "7", "6", "8"], "time": [723, 1110, 1401, 1456, 1741, 2153, 2492, 2589, 2874, 2928, 3207]}, "edge": {"target": [], "time": []}}}, "displayed_time": "8.53", "trialTime": 10610, "trial_type": "mouselab-mdp", "trial_index": 17, "time_elapsed": 294601, "internal_node_id": "0.0-4.0-1.0-8.0"}}, {"uniqueid": "w19508494:a69347970", "current_trial": 18, "dateTime": 1664555233917, "trialdata": {"revealed_states": [], "num_clicks_accrued": [0, 0, 0, 0, 0, 0, 0, 0, 0, 0, 0, 0, 0], "stateRewards": ["", 4, -8, -24, 24, 2, -4, 24, 24, 2, -4, 48, 48], "withholdReward": true, "trial_id": "mdp_457607480918", "block": "test1", "trialIndex": 11, "score": 50.25, "costs": -0.75, "simulationMode": [null, null, null], "rewards": [2, -4, 48], "path": ["0", "0", "9", "10", "11"], "rt": [1922, 42, 64], "actions": ["left", "left", "up"], "actionTimes": [2568, 3113, 3681], "queries": {"click": {"state": {"target": ["11", "12", "9"], "time": [1104, 1420, 1790]}, "edge": {"target": [], "time": []}}, "mouseover": {"state": {"target": ["9", "10", "11", "10", "12", "9"], "time": [829, 908, 1017, 1229, 1289, 1671]}, "edge": {"target": [], "time": []}}, "mouseout": {"state": {"target": ["8", "0", "9", "10", "11", "10", "12", "9"], "time": [320, 805, 859, 926, 1199, 1265, 1586, 1956]}, "edge": {"target": [], "time": []}}}, "displayed_time": "8.65", "trialTime": 9381, "trial_type": "mouselab-mdp", "trial_index": 18, "time_elapsed": 304011, "internal_node_id": "0.0-4.0-1.0-9.0"}}, {"uniqueid": "w19508494:a69347970", "current_trial": 19, "dateTime": 1664555243789, "trialdata": {"revealed_states": [], "num_clicks_accrued": [0, 0, 0, 0, 0, 0, 0, 0, 0, 0, 0, 0, 0], "stateRewards": ["", 2, -4, 24, 24, 4, -4, -24, 24, -4, -4, 48, 48], "withholdReward": true, "trial_id": "mdp_566306223773", "block": "test1", "trialIndex": 12, "score": 43.5, "costs": -1.5, "simulationMode": [null, null, null], "rewards": [-4, -4, 48], "path": ["0", "0", "9", "10", "11"], "rt": [2881, 52, 29], "actions": ["left", "left", "up"], "actionTimes": [3282, 3836, 4365], "queries": {"click": {"state": {"target": ["11", "9", "12", "5", "7", "8"], "time": [908, 1196, 1470, 2039, 2289, 2582]}, "edge": {"target": [], "time": []}}, "mouseover": {"state": {"target": ["9", "11", "9", "12", "5", "7", "6", "8"], "time": [560, 797, 1094, 1354, 1809, 2185, 2427, 2487]}, "edge": {"target": [], "time": []}}, "mouseout": {"state": {"target": ["0", "9", "11", "9", "12", "5", "7", "6", "8"], "time": [536, 584, 1021, 1306, 1651, 2136, 2402, 2457, 2754]}, "edge": {"target": [], "time": []}}}, "displayed_time": "9.40", "trialTime": 9845, "trial_type": "mouselab-mdp", "trial_index": 19, "time_elapsed": 313883, "internal_node_id": "0.0-4.0-1.0-10.0"}}, {"uniqueid": "w19508494:a69347970", "current_trial": 20, "dateTime": 1664555253702, "trialdata": {"revealed_states": [], "num_clicks_accrued": [0, 0, 0, 0, 0, 0, 0, 0, 0, 0, 0, 0, 0], "stateRewards": ["", -2, 4, -24, 48, 4, -8, 48, -48, 2, -8, 48, 24], "withholdReward": true, "trial_id": "mdp_501111216502", "block": "test1", "trialIndex": 13, "score": 46.25, "costs": -0.75, "simulationMode": [null, null, null], "rewards": [2, -8, 48], "path": ["0", "0", "9", "10", "11"], "rt": [1998, 90, 68], "actions": ["left", "left", "up"], "actionTimes": [2438, 3026, 3592], "queries": {"click": {"state": {"target": ["11", "9", "12"], "time": [925, 1205, 1752]}, "edge": {"target": [], "time": []}}, "mouseover": {"state": {"target": ["9", "11", "9", "12", "12"], "time": [609, 827, 1070, 1367, 1609]}, "edge": {"target": [], "time": []}}, "mouseout": {"state": {"target": ["0", "9", "11", "9", "12", "12"], "time": [585, 651, 1033, 1324, 1415, 1894]}, "edge": {"target": [], "time": []}}}, "displayed_time": "9.44", "trialTime": 9886, "trial_type": "mouselab-mdp", "trial_index": 20, "time_elapsed": 323796, "internal_node_id": "0.0-4.0-1.0-11.0"}}, {"uniqueid": "w19508494:a69347970", "current_trial": 21, "dateTime": 1664555262469, "trialdata": {"revealed_states": [], "num_clicks_accrued": [0, 0, 0, 0, 0, 0, 0, 0, 0, 0, 0, 0, 0], "stateRewards": ["", 2, -8, -24, 48, 4, -8, -24, -24, 2, 8, -24, 24], "withholdReward": true, "trial_id": "mdp_480787552818", "block": "test1", "trialIndex": 14, "score": 44.75, "costs": -2.25, "simulationMode": [null, null, null], "rewards": [2, -8, 48], "path": ["0", "0", "1", "2", "4"], "rt": [3879, 3, 364], "actions": ["up", "up", "left"], "actionTimes": [4220, 4723, 5592], "queries": {"click": {"state": {"target": ["11", "9", "12", "5", "7", "8", "1", "3", "4"], "time": [774, 1040, 1300, 1740, 2007, 2311, 2920, 3225, 3524]}, "edge": {"target": [], "time": []}}, "mouseover": {"state": {"target": ["9", "11", "9", "12", "5", "7", "6", "8", "1", "3", "2", "4"], "time": [501, 634, 931, 1192, 1562, 1919, 2149, 2265, 2731, 3119, 3355, 3398]}, "edge": {"target": [], "time": []}}, "mouseout": {"state": {"target": ["0", "9", "11", "9", "12", "5", "7", "6", "8", "8", "1", "3", "2", "4"], "time": [471, 562, 877, 1156, 1398, 1859, 2125, 2180, 2507, 2622, 3016, 3337, 3380, 3749]}, "edge": {"target": [], "time": []}}}, "displayed_time": "8.34", "trialTime": 8739, "trial_type": "mouselab-mdp", "trial_index": 21, "time_elapsed": 332563, "internal_node_id": "0.0-4.0-1.0-12.0"}}, {"uniqueid": "w19508494:a69347970", "current_trial": 22, "dateTime": 1664555272307, "trialdata": {"revealed_states": [], "num_clicks_accrued": [0, 0, 0, 0, 0, 0, 0, 0, 0, 0, 0, 0, 0], "stateRewards": ["", -4, -8, 48, 24, 4, -8, 24, -48, -2, -8, 24, -48], "withholdReward": true, "trial_id": "mdp_952038635544", "block": "test1", "trialIndex": 15, "score": 38.75, "costs": -2.25, "simulationMode": [null, null, null], "rewards": [-4, -8, 48], "path": ["0", "0", "1", "2", "3"], "rt": [3938, 387, 34], "actions": ["up", "up", "right"], "actionTimes": [4342, 5230, 5768], "queries": {"click": {"state": {"target": ["9", "11", "12", "5", "7", "8", "1", "3", "4"], "time": [876, 1139, 1432, 1959, 2245, 2549, 3103, 3400, 3716]}, "edge": {"target": [], "time": []}}, "mouseover": {"state": {"target": ["9", "9", "11", "10", "12", "5", "7", "6", "8", "1", "3", "2", "4"], "time": [576, 770, 1031, 1273, 1346, 1800, 2158, 2388, 2443, 2843, 3267, 3528, 3576]}, "edge": {"target": [], "time": []}}, "mouseout": {"state": {"target": ["5", "9", "9", "11", "10", "12", "5", "7", "6", "8", "5", "1", "3", "2", "4", "1"], "time": [85, 600, 988, 1249, 1304, 1601, 2097, 2370, 2419, 2752, 2795, 3213, 3503, 3552, 3843, 3910]}, "edge": {"target": [], "time": []}}}, "displayed_time": "9.41", "trialTime": 9809, "trial_type": "mouselab-mdp", "trial_index": 22, "time_elapsed": 342401, "internal_node_id": "0.0-4.0-1.0-13.0"}}, {"uniqueid": "w19508494:a69347970", "current_trial": 23, "dateTime": 1664555282439, "trialdata": {"revealed_states": [], "num_clicks_accrued": [0, 0, 0, 0, 0, 0, 0, 0, 0, 0, 0, 0, 0], "stateRewards": ["", 2, -8, 24, 24, 2, 4, -48, -48, 4, 4, -24, 48], "withholdReward": true, "trial_id": "mdp_985707010949", "block": "test1", "trialIndex": 16, "score": 60.25, "costs": -0.75, "simulationMode": [null, null, null], "rewards": [4, 4, 48], "path": ["0", "0", "9", "10", "12"], "rt": [1758, 57, 39], "actions": ["left", "left", "down"], "actionTimes": [2545, 3105, 3645], "queries": {"click": {"state": {"target": ["9", "11", "12"], "time": [1041, 1306, 1570]}, "edge": {"target": [], "time": []}}, "mouseover": {"state": {"target": ["9", "11", "10", "12", "5"], "time": [891, 1206, 1430, 1503, 1878]}, "edge": {"target": [], "time": []}}, "mouseout": {"state": {"target": ["9", "11", "10", "12", "5"], "time": [1151, 1400, 1466, 1691, 2018]}, "edge": {"target": [], "time": []}}}, "displayed_time": "9.79", "trialTime": 10105, "trial_type": "mouselab-mdp", "trial_index": 23, "time_elapsed": 352533, "internal_node_id": "0.0-4.0-1.0-14.0"}}, {"uniqueid": "w19508494:a69347970", "current_trial": 24, "dateTime": 1664555292309, "trialdata": {"revealed_states": [], "num_clicks_accrued": [0, 0, 0, 0, 0, 0, 0, 0, 0, 0, 0, 0, 0], "stateRewards": ["", -4, 4, -48, -48, -4, 8, -24, 24, 2, -4, 48, 48], "withholdReward": true, "trial_id": "mdp_821566905048", "block": "test1", "trialIndex": 17, "score": 50.25, "costs": -0.75, "simulationMode": [null, null, null], "rewards": [2, -4, 48], "path": ["0", "0", "9", "10", "11"], "rt": [1565, 16, 318], "actions": ["left", "left", "up"], "actionTimes": [1920, 2440, 3263], "queries": {"click": {"state": {"target": ["9", "11", "12"], "time": [726, 1009, 1334]}, "edge": {"target": [], "time": []}}, "mouseover": {"state": {"target": ["9", "11", "10", "12"], "time": [520, 908, 1139, 1230]}, "edge": {"target": [], "time": []}}, "mouseout": {"state": {"target": ["0", "9", "11", "10", "12", "12"], "time": [490, 829, 1114, 1187, 1460, 9369]}, "edge": {"target": [], "time": []}}}, "displayed_time": "9.36", "trialTime": 9842, "trial_type": "mouselab-mdp", "trial_index": 24, "time_elapsed": 362403, "internal_node_id": "0.0-4.0-1.0-15.0"}}, {"uniqueid": "w19508494:a69347970", "current_trial": 25, "dateTime": 1664555302047, "trialdata": {"revealed_states": [], "num_clicks_accrued": [0, 0, 0, 0, 0, 0, 0, 0, 0, 0, 0, 0, 0], "stateRewards": ["", -4, -4, 24, -24, 4, 4, 24, 48, 4, -4, 48, -48], "withholdReward": true, "trial_id": "mdp_522385334882", "block": "test1", "trialIndex": 18, "score": 52.25, "costs": -0.75, "simulationMode": [null, null, null], "rewards": [4, -4, 48], "path": ["0", "0", "9", "10", "11"], "rt": [1468, 2, 251], "actions": ["left", "left", "up"], "actionTimes": [1714, 2216, 2974], "queries": {"click": {"state": {"target": ["9", "11", "12"], "time": [585, 869, 1157]}, "edge": {"target": [], "time": []}}, "mouseover": {"state": {"target": ["9", "11", "10", "12"], "time": [431, 807, 1025, 1079]}, "edge": {"target": [], "time": []}}, "mouseout": {"state": {"target": ["0", "9", "11", "10", "12"], "time": [413, 710, 989, 1061, 9631]}, "edge": {"target": [], "time": []}}}, "displayed_time": "9.25", "trialTime": 9703, "trial_type": "mouselab-mdp", "trial_index": 25, "time_elapsed": 372141, "internal_node_id": "0.0-4.0-1.0-16.0"}}, {"uniqueid": "w19508494:a69347970", "current_trial": 26, "dateTime": 1664555311804, "trialdata": {"revealed_states": [], "num_clicks_accrued": [0, 0, 0, 0, 0, 0, 0, 0, 0, 0, 0, 0, 0], "stateRewards": ["", -2, 8, 24, -48, -4, -8, -24, -48, -4, 8, -24, 48], "withholdReward": true, "trial_id": "mdp_464339499860", "block": "test1", "trialIndex": 19, "score": 55.5, "costs": -1.5, "simulationMode": [null, null, null], "rewards": [-4, 8, 48], "path": ["0", "0", "9", "10", "12"], "rt": [2723, 407, 63], "actions": ["left", "left", "down"], "actionTimes": [3086, 3991, 4556], "queries": {"click": {"state": {"target": ["9", "11", "12", "5", "7", "8"], "time": [728, 1022, 1284, 2023, 2330, 2616]}, "edge": {"target": [], "time": []}}, "mouseover": {"state": {"target": ["9", "11", "10", "12", "0", "5", "7", "6", "8"], "time": [638, 923, 1148, 1208, 1657, 1814, 2208, 2469, 2535]}, "edge": {"target": [], "time": []}}, "mouseout": {"state": {"target": ["0", "9", "11", "10", "12", "0", "5", "7", "6", "8"], "time": [529, 838, 1123, 1190, 1451, 1675, 2135, 2444, 2499, 5784]}, "edge": {"target": [], "time": []}}}, "displayed_time": "9.36", "trialTime": 9728, "trial_type": "mouselab-mdp", "trial_index": 26, "time_elapsed": 381898, "internal_node_id": "0.0-4.0-1.0-17.0"}}, {"uniqueid": "w19508494:a69347970", "current_trial": 27, "dateTime": 1664555321541, "trialdata": {"revealed_states": [], "num_clicks_accrued": [0, 0, 0, 0, 0, 0, 0, 0, 0, 0, 0, 0, 0], "stateRewards": ["", 4, -4, 48, 24, 2, -8, 24, -48, -2, -4, -48, -48], "withholdReward": false, "trial_id": "mdp_655302318695", "block": "test1", "trialIndex": 20, "score": 50.75, "costs": -2.25, "simulationMode": [null, null, null], "rewards": [4, -4, 48], "path": ["0", "0", "1", "2", "3"], "rt": [4133, 77, 65], "actions": ["up", "up", "right"], "actionTimes": [4464, 5042, 5606], "queries": {"click": {"state": {"target": ["9", "11", "12", "5", "7", "8", "1", "3", "4"], "time": [675, 985, 1273, 1821, 2157, 2426, 3323, 3602, 3926]}, "edge": {"target": [], "time": []}}, "mouseover": {"state": {"target": ["9", "11", "10", "12", "0", "5", "7", "6", "8", "1", "3", "2", "4"], "time": [517, 880, 1135, 1201, 1462, 1729, 2032, 2286, 2347, 3214, 3522, 3729, 3789]}, "edge": {"target": [], "time": []}}, "mouseout": {"state": {"target": ["0", "9", "11", "10", "12", "0", "5", "7", "6", "8", "8", "1", "3", "2", "4", "1"], "time": [481, 807, 1105, 1171, 1365, 1474, 1971, 2262, 2317, 2578, 2983, 3438, 3705, 3765, 4056, 4104]}, "edge": {"target": [], "time": []}}}, "displayed_time": "8.33", "trialTime": 9706, "trial_type": "mouselab-mdp", "trial_index": 27, "time_elapsed": 391634, "internal_node_id": "0.0-4.0-1.0-18.0"}}, {"uniqueid": "w19508494:a69347970", "current_trial": 28, "dateTime": 1664555331866, "trialdata": {"revealed_states": [], "num_clicks_accrued": [0, 0, 0, 0, 0, 0, 0, 0, 0, 0, 0, 0, 0], "stateRewards": ["", -4, 8, 24, 24, -2, 8, -48, 48, 4, -8, 48, -48], "withholdReward": true, "trial_id": "mdp_295249220524", "block": "test1", "trialIndex": 21, "score": 48.25, "costs": -0.75, "simulationMode": [null, null, null], "rewards": [4, -8, 48], "path": ["0", "0", "9", "10", "11"], "rt": [1623, 56, 11], "actions": ["left", "left", "up"], "actionTimes": [2328, 2887, 3400], "queries": {"click": {"state": {"target": ["9", "11", "12"], "time": [1023, 1362, 1683]}, "edge": {"target": [], "time": []}}, "mouseover": {"state": {"target": ["9", "11", "10", "12"], "time": [910, 1249, 1522, 1601]}, "edge": {"target": [], "time": []}}, "mouseout": {"state": {"target": ["5", "5", "0", "9", "11", "10", "12"], "time": [225, 370, 867, 1164, 1497, 1558, 1795]}, "edge": {"target": [], "time": []}}}, "displayed_time": "9.71", "trialTime": 10298, "trial_type": "mouselab-mdp", "trial_index": 28, "time_elapsed": 401960, "internal_node_id": "0.0-4.0-1.0-19.0"}}, {"uniqueid": "w19508494:a69347970", "current_trial": 29, "dateTime": 1664555341945, "trialdata": {"revealed_states": [], "num_clicks_accrued": [0, 0, 0, 0, 0, 0, 0, 0, 0, 0, 0, 0, 0], "stateRewards": ["", -4, 8, -24, -24, 4, -8, 48, -24, -4, -8, -24, -48], "withholdReward": true, "trial_id": "mdp_391766721791", "block": "test1", "trialIndex": 22, "score": 47.75, "costs": -1.25, "simulationMode": [null, null, null], "rewards": [4, -8, 48], "path": ["0", "0", "5", "6", "7"], "rt": [3612, 113, 6], "actions": ["right", "right", "up"], "actionTimes": [4308, 4921, 5426], "queries": {"click": {"state": {"target": ["11", "12", "4", "3", "7"], "time": [1337, 1735, 2202, 2686, 3148]}, "edge": {"target": [], "time": []}}, "mouseover": {"state": {"target": ["9", "11", "10", "12", "9", "4", "2", "3", "7", "6", "8"], "time": [850, 1214, 1505, 1577, 1917, 2032, 2359, 2450, 2971, 3335, 3505]}, "edge": {"target": [], "time": []}}, "mouseout": {"state": {"target": ["9", "11", "10", "12", "9", "4", "2", "3", "7", "6", "8"], "time": [1050, 1474, 1541, 1868, 1923, 2329, 2408, 2911, 3293, 3384, 3814]}, "edge": {"target": [], "time": []}}}, "displayed_time": "9.70", "trialTime": 10051, "trial_type": "mouselab-mdp", "trial_index": 29, "time_elapsed": 412039, "internal_node_id": "0.0-4.0-1.0-20.0"}}, {"uniqueid": "w19508494:a69347970", "current_trial": 30, "dateTime": 1664555351862, "trialdata": {"revealed_states": [], "num_clicks_accrued": [0, 0, 0, 0, 0, 0, 0, 0, 0, 0, 0, 0, 0], "stateRewards": ["", 4, -8, -48, 48, -2, 8, -48, 48, -2, -4, 24, -48], "withholdReward": false, "trial_id": "mdp_400558136089", "block": "test1", "trialIndex": 23, "score": 58, "costs": -1, "simulationMode": [null, null, null], "rewards": [-2, 8, 48], "path": ["0", "0", "5", "6", "8"], "rt": [2865, 25, 12], "actions": ["right", "right", "down"], "actionTimes": [3236, 3764, 4279], "queries": {"click": {"state": {"target": ["11", "12", "7", "8"], "time": [734, 1200, 1877, 2324]}, "edge": {"target": [], "time": []}}, "mouseover": {"state": {"target": ["9", "11", "10", "12", "6", "7", "6", "8", "6", "6"], "time": [521, 587, 884, 963, 1527, 1787, 2054, 2151, 2557, 2696]}, "edge": {"target": [], "time": []}}, "mouseout": {"state": {"target": ["8", "5", "0", "9", "11", "10", "12", "6", "7", "6", "8", "6", "6"], "time": [36, 169, 472, 539, 854, 927, 1363, 1727, 2024, 2090, 2527, 2569, 9545]}, "edge": {"target": [], "time": []}}}, "displayed_time": "9.37", "trialTime": 9887, "trial_type": "mouselab-mdp", "trial_index": 30, "time_elapsed": 421956, "internal_node_id": "0.0-4.0-1.0-21.0"}}, {"uniqueid": "w19508494:a69347970", "current_trial": 31, "dateTime": 1664555362367, "trialdata": {"revealed_states": [], "num_clicks_accrued": [0, 0, 0, 0, 0, 0, 0, 0, 0, 0, 0, 0, 0], "stateRewards": ["", -4, -8, 24, 48, 2, -4, -24, 24, -4, 8, 48, 48], "withholdReward": false, "trial_id": "mdp_496672670022", "block": "test1", "trialIndex": 24, "score": 56, "costs": -1, "simulationMode": [null, null, null], "rewards": [-4, 8, 48], "path": ["0", "0", "9", "10", "11"], "rt": [3492, 79, 318], "actions": ["left", "left", "up"], "actionTimes": [3883, 4461, 5281], "queries": {"click": {"state": {"target": ["11", "12", "10", "9"], "time": [944, 1358, 2930, 3301]}, "edge": {"target": [], "time": []}}, "mouseover": {"state": {"target": ["9", "11", "10", "12", "10", "10", "9"], "time": [587, 733, 1109, 1187, 2466, 2769, 3121]}, "edge": {"target": [], "time": []}}, "mouseout": {"state": {"target": ["5", "0", "9", "11", "10", "12", "10", "10", "9"], "time": [109, 557, 618, 1078, 1151, 1515, 2721, 3060, 3418]}, "edge": {"target": [], "time": []}}}, "displayed_time": "8.39", "trialTime": 10476, "trial_type": "mouselab-mdp", "trial_index": 31, "time_elapsed": 432460, "internal_node_id": "0.0-4.0-1.0-22.0"}}, {"uniqueid": "w19508494:a69347970", "current_trial": 32, "dateTime": 1664555372623, "trialdata": {"revealed_states": [], "num_clicks_accrued": [0, 0, 0, 0, 0, 0, 0, 0, 0, 0, 0, 0, 0], "stateRewards": ["", 4, -4, 48, -48, -2, -8, -24, 48, -2, 4, 24, -24], "withholdReward": true, "trial_id": "mdp_507290896735", "block": "test1", "trialIndex": 25, "score": 41.5, "costs": -1.5, "simulationMode": [null, null, null], "rewards": [-2, -8, 48], "path": ["0", "0", "5", "6", "8"], "rt": [3761, 65, 39], "actions": ["right", "right", "down"], "actionTimes": [4734, 5300, 5837], "queries": {"click": {"state": {"target": ["11", "12", "7", "8", "5", "6"], "time": [1313, 1802, 2403, 2918, 3709, 4085]}, "edge": {"target": [], "time": []}}, "mouseover": {"state": {"target": ["11", "10", "12", "7", "6", "8", "5", "6"], "time": [1168, 1453, 1532, 2265, 2635, 2732, 3392, 3877]}, "edge": {"target": [], "time": []}}, "mouseout": {"state": {"target": ["5", "11", "10", "12", "7", "6", "8", "5", "6", "8"], "time": [713, 1429, 1489, 1992, 2586, 2683, 3320, 3847, 4211, 9805]}, "edge": {"target": [], "time": []}}}, "displayed_time": "9.97", "trialTime": 10229, "trial_type": "mouselab-mdp", "trial_index": 32, "time_elapsed": 442717, "internal_node_id": "0.0-4.0-1.0-23.0"}}, {"uniqueid": "w19508494:a69347970", "current_trial": 33, "dateTime": 1664555382308, "trialdata": {"revealed_states": [], "num_clicks_accrued": [0, 0, 0, 0, 0, 0, 0, 0, 0, 0, 0, 0, 0], "stateRewards": ["", -4, 4, 24, 24, 4, -8, 48, -48, -2, -8, 24, 24], "withholdReward": true, "trial_id": "mdp_395264223239", "block": "test1", "trialIndex": 26, "score": 48, "costs": -1, "simulationMode": [null, null, null], "rewards": [4, -8, 48], "path": ["0", "0", "5", "6", "7"], "rt": [2935, 100, 23], "actions": ["right", "right", "up"], "actionTimes": [3264, 3865, 4388], "queries": {"click": {"state": {"target": ["7", "8", "5", "6"], "time": [778, 1223, 2148, 2749]}, "edge": {"target": [], "time": []}}, "mouseover": {"state": {"target": ["5", "6", "7", "6", "8", "5", "6", "6"], "time": [481, 523, 644, 923, 1051, 1917, 2269, 2545]}, "edge": {"target": [], "time": []}}, "mouseout": {"state": {"target": ["5", "0", "5", "6", "7", "6", "8", "8", "5", "6", "6"], "time": [135, 450, 511, 572, 899, 984, 1360, 1863, 2250, 2329, 2838]}, "edge": {"target": [], "time": []}}}, "displayed_time": "9.33", "trialTime": 9650, "trial_type": "mouselab-mdp", "trial_index": 33, "time_elapsed": 452402, "internal_node_id": "0.0-4.0-1.0-24.0"}}, {"uniqueid": "w19508494:a69347970", "current_trial": 34, "dateTime": 1664555391004, "trialdata": {"revealed_states": [], "num_clicks_accrued": [0, 0, 0, 0, 0, 0, 0, 0, 0, 0, 0, 0, 0], "stateRewards": ["", 4, -8, -48, -24, 2, -8, -48, 48, -4, 8, 48, -48], "withholdReward": true, "trial_id": "mdp_605757196263", "block": "test1", "trialIndex": 27, "score": 56.25, "costs": -0.75, "simulationMode": [null, null, null], "rewards": [-4, 8, 48], "path": ["0", "0", "9", "10", "11"], "rt": [2100, 34, 55], "actions": ["left", "left", "up"], "actionTimes": [2450, 2987, 3541], "queries": {"click": {"state": {"target": ["11", "10", "9"], "time": [746, 1452, 1788]}, "edge": {"target": [], "time": []}}, "mouseover": {"state": {"target": ["9", "11", "10", "10", "9"], "time": [505, 559, 947, 1341, 1608]}, "edge": {"target": [], "time": []}}, "mouseout": {"state": {"target": ["5", "0", "9", "11", "10", "10", "9"], "time": [123, 480, 517, 905, 1014, 1572, 1929]}, "edge": {"target": [], "time": []}}}, "displayed_time": "8.35", "trialTime": 8668, "trial_type": "mouselab-mdp", "trial_index": 34, "time_elapsed": 461098, "internal_node_id": "0.0-4.0-1.0-25.0"}}, {"uniqueid": "w19508494:a69347970", "current_trial": 35, "dateTime": 1664555399767, "trialdata": {"revealed_states": [], "num_clicks_accrued": [0, 0, 0, 0, 0, 0, 0, 0, 0, 0, 0, 0, 0], "stateRewards": ["", -4, 4, -24, 24, 2, 4, -24, 48, -4, 8, -48, 48], "withholdReward": false, "trial_id": "mdp_422109108860", "block": "test1", "trialIndex": 28, "score": 56, "costs": -1, "simulationMode": [null, null, null], "rewards": [-4, 8, 48], "path": ["0", "0", "9", "10", "12"], "rt": [2550, 361, 118], "actions": ["left", "left", "down"], "actionTimes": [2844, 3708, 4327], "queries": {"click": {"state": {"target": ["11", "12", "9", "10"], "time": [729, 1240, 1858, 2201]}, "edge": {"target": [], "time": []}}, "mouseover": {"state": {"target": ["9", "11", "10", "12", "9", "10"], "time": [456, 613, 922, 1129, 1674, 2044]}, "edge": {"target": [], "time": []}}, "mouseout": {"state": {"target": ["0", "9", "11", "10", "12", "9", "10", "9"], "time": [174, 480, 868, 1038, 1389, 1995, 2304, 8056]}, "edge": {"target": [], "time": []}}}, "displayed_time": "8.29", "trialTime": 8734, "trial_type": "mouselab-mdp", "trial_index": 35, "time_elapsed": 469861, "internal_node_id": "0.0-4.0-1.0-26.0"}}, {"uniqueid": "w19508494:a69347970", "current_trial": 36, "dateTime": 1664555408466, "trialdata": {"revealed_states": [], "num_clicks_accrued": [0, 0, 0, 0, 0, 0, 0, 0, 0, 0, 0, 0, 0], "stateRewards": ["", -2, -8, 48, 24, 2, 4, 24, -24, -2, -4, 48, -48], "withholdReward": false, "trial_id": "mdp_411152402386", "block": "test1", "trialIndex": 29, "score": 46, "costs": -1, "simulationMode": [null, null, null], "rewards": [-2, -4, 48], "path": ["0", "0", "9", "10", "11"], "rt": [2414, 55, 9], "actions": ["left", "left", "up"], "actionTimes": [2671, 3227, 3739], "queries": {"click": {"state": {"target": ["11", "12", "10", "9"], "time": [770, 1220, 1553, 1755]}, "edge": {"target": [], "time": []}}, "mouseover": {"state": {"target": ["0", "9", "11", "10", "12", "10", "9"], "time": [487, 523, 632, 917, 1057, 1432, 1651]}, "edge": {"target": [], "time": []}}, "mouseout": {"state": {"target": ["0", "0", "9", "11", "10", "12", "10", "9"], "time": [69, 499, 547, 887, 978, 1378, 1626, 1917]}, "edge": {"target": [], "time": []}}}, "displayed_time": "8.26", "trialTime": 8669, "trial_type": "mouselab-mdp", "trial_index": 36, "time_elapsed": 478560, "internal_node_id": "0.0-4.0-1.0-27.0"}}, {"uniqueid": "w19508494:a69347970", "current_trial": 37, "dateTime": 1664555417159, "trialdata": {"revealed_states": [], "num_clicks_accrued": [0, 0, 0, 0, 0, 0, 0, 0, 0, 0, 0, 0, 0], "stateRewards": ["", 2, 4, 48, 48, 4, -8, 24, -48, -4, -8, -24, -48], "withholdReward": true, "trial_id": "mdp_343818007251", "block": "test1", "trialIndex": 30, "score": 57.25, "costs": -1.75, "simulationMode": [null, null, null], "rewards": [2, 4, 48], "path": ["0", "0", "1", "2", "3"], "rt": [4476, 44, 30], "actions": ["up", "up", "right"], "actionTimes": [4807, 5353, 5885], "queries": {"click": {"state": {"target": ["11", "12", "7", "8", "3", "1", "2"], "time": [950, 1511, 2072, 2655, 3285, 3959, 4214]}, "edge": {"target": [], "time": []}}, "mouseover": {"state": {"target": ["9", "11", "10", "12", "6", "7", "6", "8", "6", "3", "1", "2"], "time": [618, 800, 1151, 1297, 1842, 1957, 2333, 2460, 2982, 3127, 3745, 4115]}, "edge": {"target": [], "time": []}}, "mouseout": {"state": {"target": ["0", "9", "11", "10", "12", "6", "7", "6", "8", "6", "3", "1", "2"], "time": [588, 654, 1091, 1255, 1685, 1897, 2291, 2394, 2963, 3006, 3666, 4066, 4309]}, "edge": {"target": [], "time": []}}}, "displayed_time": "8.33", "trialTime": 8664, "trial_type": "mouselab-mdp", "trial_index": 37, "time_elapsed": 487253, "internal_node_id": "0.0-4.0-1.0-28.0"}}, {"uniqueid": "w19508494:a69347970", "current_trial": 38, "dateTime": 1664555427465, "trialdata": {"revealed_states": [], "num_clicks_accrued": [0, 0, 0, 0, 0, 0, 0, 0, 0, 0, 0, 0, 0], "stateRewards": ["", -4, -8, 48, -48, 2, -4, 48, -24, 2, -8, -48, -48], "withholdReward": false, "trial_id": "mdp_624553692913", "block": "test1", "trialIndex": 31, "score": 49.75, "costs": -1.25, "simulationMode": [null, null, null], "rewards": [2, -4, 48], "path": ["0", "0", "5", "6", "7"], "rt": [2871, 97, 23], "actions": ["right", "right", "up"], "actionTimes": [3366, 3965, 4490], "queries": {"click": {"state": {"target": ["11", "12", "7", "5", "6"], "time": [928, 1420, 1911, 2619, 2894]}, "edge": {"target": [], "time": []}}, "mouseover": {"state": {"target": ["9", "11", "10", "12", "6", "7", "6", "8", "5", "6"], "time": [654, 733, 1139, 1242, 1709, 1818, 2115, 2230, 2491, 2769]}, "edge": {"target": [], "time": []}}, "mouseout": {"state": {"target": ["3", "1", "9", "11", "10", "12", "6", "7", "6", "8", "5", "6", "5", "0", "9", "12"], "time": [91, 224, 666, 1097, 1188, 1569, 1769, 2079, 2163, 2418, 2739, 8212, 8236, 8248, 8266, 9206]}, "edge": {"target": [], "time": []}}}, "displayed_time": "9.49", "trialTime": 10272, "trial_type": "mouselab-mdp", "trial_index": 38, "time_elapsed": 497559, "internal_node_id": "0.0-4.0-1.0-29.0"}}, {"uniqueid": "w19508494:a69347970", "current_trial": 39, "dateTime": 1664555432891, "trialdata": {"rt": 5425, "stimulus": "<h1> End of block! </h1>\n\nYou have reached the end of the block 1/4. If you need a short break, feel free to take one now before moving on.\n\n<br><br>\nIn the next block, you will complete another 30 rounds of this game.\n\n<br><br>\n<div style='text-align: center;'>Press <code>space</code> to begin.</div>\n<br><br>\n<div style='text-align: center;'>(If the experiment doesn't continue, try clicking on the text and then pressing <code>space</code>.)</div>", "response": " ", "trial_id": "mdp_ready_2", "trial_type": "html-keyboard-response", "trial_index": 39, "time_elapsed": 502985, "internal_node_id": "0.0-4.0-2.0"}}, {"uniqueid": "w19508494:a69347970", "current_trial": 40, "dateTime": 1664555445967, "trialdata": {"revealed_states": [], "num_clicks_accrued": [0, 0, 0, 0, 0, 0, 0, 0, 0, 0, 0, 0, 0], "stateRewards": ["", -4, -4, -48, 48, -4, -8, -24, -48, -2, 8, 48, 24], "withholdReward": false, "trial_id": "mdp_365393526663", "block": "test2", "trialIndex": 32, "score": 58.25, "costs": -0.75, "simulationMode": [null, null, null], "rewards": [-2, 8, 48], "path": ["0", "0", "9", "10", "11"], "rt": [2156, 64, 48], "actions": ["left", "left", "up"], "actionTimes": [2768, 3341, 3889], "queries": {"click": {"state": {"target": ["11", "10", "9"], "time": [1066, 2179, 2400]}, "edge": {"target": [], "time": []}}, "mouseover": {"state": {"target": ["9", "11", "10", "12", "10", "9"], "time": [773, 895, 1204, 1349, 1925, 2276]}, "edge": {"target": [], "time": []}}, "mouseout": {"state": {"target": ["5", "9", "11", "10", "12", "10", "9", "0", "5", "12", "0", "5", "0"], "time": [240, 828, 1173, 1252, 1877, 2252, 2810, 3064, 4525, 5107, 12185, 12295, 12361]}, "edge": {"target": [], "time": []}}}, "displayed_time": "8.61", "trialTime": 13045, "trial_type": "mouselab-mdp", "trial_index": 40, "time_elapsed": 516061, "internal_node_id": "0.0-4.0-3.0-0.0"}}, {"uniqueid": "w19508494:a69347970", "current_trial": 41, "dateTime": 1664555455656, "trialdata": {"revealed_states": [], "num_clicks_accrued": [0, 0, 0, 0, 0, 0, 0, 0, 0, 0, 0, 0, 0], "stateRewards": ["", 4, -8, 48, -24, -4, 4, 24, 24, -2, -4, 24, 24], "withholdReward": true, "trial_id": "mdp_542168715839", "block": "test2", "trialIndex": 33, "score": 47.75, "costs": -1.25, "simulationMode": [null, null, null], "rewards": [4, -8, 48], "path": ["0", "0", "1", "2", "3"], "rt": [3767, 17, 15], "actions": ["up", "up", "right"], "actionTimes": [4146, 4663, 5177], "queries": {"click": {"state": {"target": ["11", "12", "7", "8", "3"], "time": [840, 1310, 1979, 2434, 2981]}, "edge": {"target": [], "time": []}}, "mouseover": {"state": {"target": ["9", "11", "10", "12", "5", "7", "6", "8", "6", "3", "4", "4", "1"], "time": [524, 749, 1009, 1155, 1676, 1882, 2161, 2270, 2724, 2834, 3264, 3458, 3603]}, "edge": {"target": [], "time": []}}, "mouseout": {"state": {"target": ["0", "9", "11", "10", "12", "5", "7", "6", "8", "6", "7", "3", "4", "4", "1", "5"], "time": [500, 531, 973, 1070, 1494, 1767, 2124, 2209, 2712, 2749, 2767, 3179, 3313, 3512, 4476, 7385]}, "edge": {"target": [], "time": []}}}, "displayed_time": "9.38", "trialTime": 9662, "trial_type": "mouselab-mdp", "trial_index": 41, "time_elapsed": 525750, "internal_node_id": "0.0-4.0-3.0-1.0"}}, {"uniqueid": "w19508494:a69347970", "current_trial": 42, "dateTime": 1664555465421, "trialdata": {"revealed_states": [], "num_clicks_accrued": [0, 0, 0, 0, 0, 0, 0, 0, 0, 0, 0, 0, 0], "stateRewards": ["", 4, -8, 48, -24, 4, -4, -48, -48, 4, -4, 24, 24], "withholdReward": true, "trial_id": "mdp_221562928904", "block": "test2", "trialIndex": 34, "score": 47.75, "costs": -1.25, "simulationMode": [null, null, null], "rewards": [4, -8, 48], "path": ["0", "0", "1", "2", "3"], "rt": [2884, 119, 108], "actions": ["up", "up", "right"], "actionTimes": [3301, 3922, 4529], "queries": {"click": {"state": {"target": ["11", "12", "8", "7", "3"], "time": [774, 1291, 1803, 2246, 2718]}, "edge": {"target": [], "time": []}}, "mouseover": {"state": {"target": ["9", "11", "10", "12", "8", "8", "6", "7", "3", "2", "1"], "time": [560, 608, 966, 1111, 1578, 1649, 1972, 2099, 2632, 2954, 3117]}, "edge": {"target": [], "time": []}}, "mouseout": {"state": {"target": ["0", "0", "9", "11", "10", "12", "8", "8", "6", "7", "3", "2", "1", "5"], "time": [172, 535, 572, 929, 1020, 1438, 1596, 1935, 1978, 2499, 2911, 3045, 4844, 5160]}, "edge": {"target": [], "time": []}}}, "displayed_time": "9.42", "trialTime": 9736, "trial_type": "mouselab-mdp", "trial_index": 42, "time_elapsed": 535515, "internal_node_id": "0.0-4.0-3.0-2.0"}}, {"uniqueid": "w19508494:a69347970", "current_trial": 43, "dateTime": 1664555475147, "trialdata": {"revealed_states": [], "num_clicks_accrued": [0, 0, 0, 0, 0, 0, 0, 0, 0, 0, 0, 0, 0], "stateRewards": ["", -2, 4, 24, 48, 2, 4, -48, -48, 2, 8, 48, -48], "withholdReward": true, "trial_id": "mdp_409609775558", "block": "test2", "trialIndex": 35, "score": 62.25, "costs": -0.75, "simulationMode": [null, null, null], "rewards": [2, 8, 48], "path": ["0", "0", "9", "10", "11"], "rt": [1955, 726, 125], "actions": ["left", "left", "up"], "actionTimes": [2331, 3556, 4180], "queries": {"click": {"state": {"target": ["11", "10", "9"], "time": [918, 1434, 1737]}, "edge": {"target": [], "time": []}}, "mouseover": {"state": {"target": ["0", "9", "11", "10", "9", "0"], "time": [444, 599, 812, 1139, 1569, 1987]}, "edge": {"target": [], "time": []}}, "mouseout": {"state": {"target": ["5", "0", "9", "11", "10", "9", "0"], "time": [30, 533, 618, 1084, 1533, 1951, 4763]}, "edge": {"target": [], "time": []}}}, "displayed_time": "9.38", "trialTime": 9696, "trial_type": "mouselab-mdp", "trial_index": 43, "time_elapsed": 545241, "internal_node_id": "0.0-4.0-3.0-3.0"}}, {"uniqueid": "w19508494:a69347970", "current_trial": 44, "dateTime": 1664555484790, "trialdata": {"revealed_states": [], "num_clicks_accrued": [0, 0, 0, 0, 0, 0, 0, 0, 0, 0, 0, 0, 0], "stateRewards": ["", 2, 4, 48, 24, -2, -8, 24, 24, -2, 4, -48, 24], "withholdReward": true, "trial_id": "mdp_130849500124", "block": "test2", "trialIndex": 36, "score": 57.5, "costs": -1.5, "simulationMode": [null, null, null], "rewards": [2, 4, 48], "path": ["0", "0", "1", "2", "3"], "rt": [3641, 152, 125], "actions": ["up", "up", "right"], "actionTimes": [3975, 4631, 5258], "queries": {"click": {"state": {"target": ["11", "12", "4", "3", "1", "2"], "time": [1132, 1693, 2388, 2837, 3430, 3702]}, "edge": {"target": [], "time": []}}, "mouseover": {"state": {"target": ["0", "9", "11", "10", "12", "0", "4", "2", "3", "7", "1", "2"], "time": [478, 515, 860, 1357, 1557, 1915, 2293, 2581, 2684, 3109, 3315, 3606]}, "edge": {"target": [], "time": []}}, "mouseout": {"state": {"target": ["0", "0", "9", "11", "10", "12", "0", "4", "2", "3", "7", "1", "2", "5"], "time": [284, 489, 806, 1321, 1430, 1836, 1927, 2551, 2654, 3042, 3188, 3557, 3939, 5975]}, "edge": {"target": [], "time": []}}}, "displayed_time": "9.33", "trialTime": 9612, "trial_type": "mouselab-mdp", "trial_index": 44, "time_elapsed": 554884, "internal_node_id": "0.0-4.0-3.0-4.0"}}, {"uniqueid": "w19508494:a69347970", "current_trial": 45, "dateTime": 1664555494348, "trialdata": {"revealed_states": [], "num_clicks_accrued": [0, 0, 0, 0, 0, 0, 0, 0, 0, 0, 0, 0, 0], "stateRewards": ["", 2, 4, -48, 48, -4, 8, -48, -24, -4, -4, 48, 48], "withholdReward": true, "trial_id": "mdp_613582696541", "block": "test2", "trialIndex": 37, "score": 44.25, "costs": -0.75, "simulationMode": [null, null, null], "rewards": [-4, -4, 48], "path": ["0", "0", "9", "10", "11"], "rt": [1622, 1, 52], "actions": ["left", "left", "up"], "actionTimes": [1882, 2382, 2942], "queries": {"click": {"state": {"target": ["11", "10", "9"], "time": [736, 1314, 1574]}, "edge": {"target": [], "time": []}}, "mouseover": {"state": {"target": ["9", "11", "10", "10", "9"], "time": [478, 684, 950, 1175, 1453]}, "edge": {"target": [], "time": []}}, "mouseout": {"state": {"target": ["0", "9", "11", "10", "10", "9"], "time": [441, 490, 920, 999, 1417, 2678]}, "edge": {"target": [], "time": []}}}, "displayed_time": "9.26", "trialTime": 9526, "trial_type": "mouselab-mdp", "trial_index": 45, "time_elapsed": 564441, "internal_node_id": "0.0-4.0-3.0-5.0"}}, {"uniqueid": "w19508494:a69347970", "current_trial": 46, "dateTime": 1664555506250, "trialdata": {"revealed_states": [], "num_clicks_accrued": [0, 0, 0, 0, 0, 0, 0, 0, 0, 0, 0, 0, 0], "stateRewards": ["", -4, 4, 48, 24, -4, 4, -24, 48, -2, -8, 24, -48], "withholdReward": true, "trial_id": "mdp_261501605436", "block": "test2", "trialIndex": 38, "score": 51.5, "costs": -1.5, "simulationMode": [null, null, null], "rewards": [-4, 4, 48], "path": ["0", "0", "1", "2", "3"], "rt": [3408, 14, 67], "actions": ["up", "up", "right"], "actionTimes": [3709, 4227, 4801], "queries": {"click": {"state": {"target": ["11", "12", "4", "3", "1", "2"], "time": [757, 1315, 1992, 2398, 3175, 3434]}, "edge": {"target": [], "time": []}}, "mouseover": {"state": {"target": ["9", "11", "10", "12", "9", "4", "2", "3", "7", "1", "2"], "time": [540, 618, 976, 1085, 1582, 1879, 2176, 2231, 2613, 2928, 3327]}, "edge": {"target": [], "time": []}}, "mouseout": {"state": {"target": ["0", "9", "11", "10", "12", "9", "4", "2", "3", "7", "1", "2", "5", "12"], "time": [521, 564, 952, 1018, 1534, 1588, 2152, 2206, 2558, 2734, 3285, 3685, 5994, 6480]}, "edge": {"target": [], "time": []}}}, "displayed_time": "9.30", "trialTime": 11873, "trial_type": "mouselab-mdp", "trial_index": 46, "time_elapsed": 576344, "internal_node_id": "0.0-4.0-3.0-6.0"}}, {"uniqueid": "w19508494:a69347970", "current_trial": 47, "dateTime": 1664555516745, "trialdata": {"revealed_states": [], "num_clicks_accrued": [0, 0, 0, 0, 0, 0, 0, 0, 0, 0, 0, 0, 0], "stateRewards": ["", -4, 8, 24, -48, -4, -8, -24, 24, 2, -4, -48, 24], "withholdReward": true, "trial_id": "mdp_898449441629", "block": "test2", "trialIndex": 39, "score": 30, "costs": -3, "simulationMode": [null, null, null], "rewards": [-4, 8, 24], "path": ["0", "0", "1", "2", "3"], "rt": [6500, 33, 94], "actions": ["up", "up", "right"], "actionTimes": [6972, 7507, 8102], "queries": {"click": {"state": {"target": ["11", "12", "4", "3", "7", "8", "5", "6", "1", "2", "9", "10"], "time": [882, 1266, 1675, 2041, 2395, 2771, 4018, 4358, 4832, 5148, 5679, 6016]}, "edge": {"target": [], "time": []}}, "mouseover": {"state": {"target": ["11", "10", "12", "9", "4", "2", "3", "7", "6", "8", "5", "6", "1", "2", "9", "10"], "time": [783, 1043, 1147, 1431, 1534, 1795, 1843, 2231, 2571, 2680, 3426, 4219, 4637, 5049, 5565, 5898]}, "edge": {"target": [], "time": []}}, "mouseout": {"state": {"target": ["0", "11", "10", "12", "9", "4", "2", "3", "7", "6", "8", "5", "6", "5", "1", "2", "1", "9", "10"], "time": [583, 1013, 1092, 1407, 1449, 1777, 1825, 2177, 2528, 2637, 3201, 4171, 4528, 4595, 4995, 5292, 5401, 5837, 6322]}, "edge": {"target": [], "time": []}}}, "displayed_time": "9.47", "trialTime": 10465, "trial_type": "mouselab-mdp", "trial_index": 47, "time_elapsed": 586839, "internal_node_id": "0.0-4.0-3.0-7.0"}}, {"uniqueid": "w19508494:a69347970", "current_trial": 48, "dateTime": 1664555527275, "trialdata": {"revealed_states": [], "num_clicks_accrued": [0, 0, 0, 0, 0, 0, 0, 0, 0, 0, 0, 0, 0], "stateRewards": ["", 2, 4, -48, -24, 2, 8, 24, 48, -2, 4, 48, -48], "withholdReward": true, "trial_id": "mdp_551894842204", "block": "test2", "trialIndex": 40, "score": 54.25, "costs": -0.75, "simulationMode": [null, null, null], "rewards": [-2, 4, 48], "path": ["0", "0", "9", "10", "11"], "rt": [1844, 46, 39], "actions": ["left", "left", "up"], "actionTimes": [2377, 2922, 3463], "queries": {"click": {"state": {"target": ["11", "10", "9"], "time": [965, 1918, 2177]}, "edge": {"target": [], "time": []}}, "mouseover": {"state": {"target": ["11", "10", "12", "10", "9"], "time": [827, 1148, 1221, 1518, 2033]}, "edge": {"target": [], "time": []}}, "mouseout": {"state": {"target": ["0", "11", "10", "12", "10", "9", "10"], "time": [718, 1118, 1185, 1409, 2009, 3349, 3385]}, "edge": {"target": [], "time": []}}}, "displayed_time": "9.53", "trialTime": 10501, "trial_type": "mouselab-mdp", "trial_index": 48, "time_elapsed": 597369, "internal_node_id": "0.0-4.0-3.0-8.0"}}, {"uniqueid": "w19508494:a69347970", "current_trial": 49, "dateTime": 1664555537017, "trialdata": {"revealed_states": [], "num_clicks_accrued": [0, 0, 0, 0, 0, 0, 0, 0, 0, 0, 0, 0, 0], "stateRewards": ["", -4, 4, -24, 48, 2, 4, -48, 24, 4, -8, -24, 24], "withholdReward": true, "trial_id": "mdp_740130150937", "block": "test2", "trialIndex": 41, "score": 51.75, "costs": -1.25, "simulationMode": [null, null, null], "rewards": [-4, 4, 48], "path": ["0", "0", "1", "2", "4"], "rt": [2730, 135, 101], "actions": ["up", "up", "left"], "actionTimes": [3216, 3860, 4463], "queries": {"click": {"state": {"target": ["11", "12", "4", "1", "2"], "time": [1044, 1428, 1846, 2386, 2622]}, "edge": {"target": [], "time": []}}, "mouseover": {"state": {"target": ["9", "11", "10", "12", "9", "4", "2", "3", "1", "2"], "time": [755, 918, 1215, 1306, 1609, 1700, 2003, 2076, 2294, 2506]}, "edge": {"target": [], "time": []}}, "mouseout": {"state": {"target": ["0", "9", "11", "10", "12", "9", "4", "2", "3", "1", "2", "2"], "time": [724, 833, 1173, 1264, 1567, 1621, 1979, 2046, 2215, 2476, 2894, 3270]}, "edge": {"target": [], "time": []}}}, "displayed_time": "9.49", "trialTime": 9716, "trial_type": "mouselab-mdp", "trial_index": 49, "time_elapsed": 607111, "internal_node_id": "0.0-4.0-3.0-9.0"}}, {"uniqueid": "w19508494:a69347970", "current_trial": 50, "dateTime": 1664555546709, "trialdata": {"revealed_states": [], "num_clicks_accrued": [0, 0, 0, 0, 0, 0, 0, 0, 0, 0, 0, 0, 0], "stateRewards": ["", 2, -8, 24, -24, -2, 8, -48, -48, 2, -8, -24, -48], "withholdReward": false, "trial_id": "mdp_744278669205", "block": "test2", "trialIndex": 42, "score": 21, "costs": -2, "simulationMode": [null, null, null], "rewards": [2, -8, 24], "path": ["0", "0", "1", "2", "3"], "rt": [4329, 124, 70], "actions": ["up", "up", "right"], "actionTimes": [4742, 5368, 5939], "queries": {"click": {"state": {"target": ["11", "12", "4", "3", "7", "8", "1", "2"], "time": [820, 1230, 1731, 2130, 2559, 2948, 3879, 4176]}, "edge": {"target": [], "time": []}}, "mouseover": {"state": {"target": ["11", "10", "12", "9", "4", "2", "3", "7", "6", "8", "5", "1", "2"], "time": [644, 1001, 1110, 1426, 1605, 1898, 1971, 2377, 2710, 2844, 3462, 3741, 4050]}, "edge": {"target": [], "time": []}}, "mouseout": {"state": {"target": ["11", "10", "12", "9", "4", "2", "3", "7", "6", "8", "8", "5", "1", "2", "1", "0", "0"], "time": [959, 1062, 1389, 1438, 1874, 1935, 2298, 2674, 2789, 3123, 3359, 3480, 4002, 4341, 4438, 6159, 7632]}, "edge": {"target": [], "time": []}}}, "displayed_time": "9.41", "trialTime": 9660, "trial_type": "mouselab-mdp", "trial_index": 50, "time_elapsed": 616803, "internal_node_id": "0.0-4.0-3.0-10.0"}}, {"uniqueid": "w19508494:a69347970", "current_trial": 51, "dateTime": 1664555556335, "trialdata": {"revealed_states": [], "num_clicks_accrued": [0, 0, 0, 0, 0, 0, 0, 0, 0, 0, 0, 0, 0], "stateRewards": ["", -4, 8, -24, 48, 2, -8, 24, 48, 2, -8, -24, -48], "withholdReward": true, "trial_id": "mdp_493778446445", "block": "test2", "trialIndex": 43, "score": 55.75, "costs": -1.25, "simulationMode": [null, null, null], "rewards": [-4, 8, 48], "path": ["0", "0", "1", "2", "4"], "rt": [2500, 143, 24], "actions": ["up", "up", "left"], "actionTimes": [2841, 3488, 4011], "queries": {"click": {"state": {"target": ["11", "12", "4", "1", "2"], "time": [828, 1250, 1658, 2292, 2550]}, "edge": {"target": [], "time": []}}, "mouseover": {"state": {"target": ["9", "11", "10", "12", "9", "4", "2", "3", "1", "2"], "time": [533, 702, 1072, 1127, 1417, 1545, 1805, 1860, 2163, 2429]}, "edge": {"target": [], "time": []}}, "mouseout": {"state": {"target": ["0", "9", "11", "10", "12", "9", "4", "2", "3", "1", "2", "5", "6"], "time": [144, 575, 1029, 1108, 1375, 1423, 1787, 1835, 2102, 2387, 2781, 7351, 9338]}, "edge": {"target": [], "time": []}}}, "displayed_time": "9.34", "trialTime": 9593, "trial_type": "mouselab-mdp", "trial_index": 51, "time_elapsed": 626428, "internal_node_id": "0.0-4.0-3.0-11.0"}}, {"uniqueid": "w19508494:a69347970", "current_trial": 52, "dateTime": 1664555568443, "trialdata": {"revealed_states": [], "num_clicks_accrued": [0, 0, 0, 0, 0, 0, 0, 0, 0, 0, 0, 0, 0], "stateRewards": ["", 2, -4, -24, 24, 2, 8, 48, 48, 2, -8, 48, -24], "withholdReward": false, "trial_id": "mdp_330392242530", "block": "test2", "trialIndex": 44, "score": 46.25, "costs": -0.75, "simulationMode": [null, null, null], "rewards": [2, -8, 48], "path": ["0", "0", "9", "10", "11"], "rt": [1962, 11, 143], "actions": ["left", "left", "up"], "actionTimes": [2316, 2834, 3481], "queries": {"click": {"state": {"target": ["11", "10", "9"], "time": [979, 1727, 2017]}, "edge": {"target": [], "time": []}}, "mouseover": {"state": {"target": ["11", "11", "10", "12", "10", "9"], "time": [701, 865, 1162, 1356, 1550, 1847]}, "edge": {"target": [], "time": []}}, "mouseout": {"state": {"target": ["5", "11", "11", "10", "12", "10", "9", "12"], "time": [10, 804, 1119, 1222, 1507, 1816, 4295, 4980]}, "edge": {"target": [], "time": []}}}, "displayed_time": "8.36", "trialTime": 12077, "trial_type": "mouselab-mdp", "trial_index": 52, "time_elapsed": 638537, "internal_node_id": "0.0-4.0-3.0-12.0"}}, {"uniqueid": "w19508494:a69347970", "current_trial": 53, "dateTime": 1664555578868, "trialdata": {"revealed_states": [], "num_clicks_accrued": [0, 0, 0, 0, 0, 0, 0, 0, 0, 0, 0, 0, 0], "stateRewards": ["", 4, -8, -24, 48, -4, 8, -24, -48, -4, -4, 24, 48], "withholdReward": true, "trial_id": "mdp_282352776624", "block": "test2", "trialIndex": 45, "score": 44, "costs": -1, "simulationMode": [null, null, null], "rewards": [-4, -4, 48], "path": ["0", "0", "9", "10", "12"], "rt": [1969, 154, 46], "actions": ["left", "left", "down"], "actionTimes": [2427, 3091, 3637], "queries": {"click": {"state": {"target": ["11", "12", "9", "10"], "time": [884, 1247, 1910, 2222]}, "edge": {"target": [], "time": []}}, "mouseover": {"state": {"target": ["9", "11", "10", "12", "9", "9", "10"], "time": [615, 779, 1058, 1136, 1409, 1712, 2064]}, "edge": {"target": [], "time": []}}, "mouseout": {"state": {"target": ["0", "9", "11", "10", "12", "9", "9", "10", "9", "9", "10", "10", "9"], "time": [391, 627, 1027, 1100, 1379, 1427, 2027, 2500, 2718, 3791, 3864, 4203, 5070]}, "edge": {"target": [], "time": []}}}, "displayed_time": "9.46", "trialTime": 10392, "trial_type": "mouselab-mdp", "trial_index": 53, "time_elapsed": 648962, "internal_node_id": "0.0-4.0-3.0-13.0"}}, {"uniqueid": "w19508494:a69347970", "current_trial": 54, "dateTime": 1664555587557, "trialdata": {"revealed_states": [], "num_clicks_accrued": [0, 0, 0, 0, 0, 0, 0, 0, 0, 0, 0, 0, 0], "stateRewards": ["", 4, -8, -24, 24, 2, -4, 24, 24, 2, -4, 48, 48], "withholdReward": false, "trial_id": "mdp_457607480918", "block": "test2", "trialIndex": 46, "score": 50.25, "costs": -0.75, "simulationMode": [null, null, null], "rewards": [2, -4, 48], "path": ["0", "0", "9", "10", "11"], "rt": [1479, 127, 104], "actions": ["left", "left", "up"], "actionTimes": [1895, 2525, 3131], "queries": {"click": {"state": {"target": ["11", "10", "9"], "time": [853, 1429, 1715]}, "edge": {"target": [], "time": []}}, "mouseover": {"state": {"target": ["9", "11", "10", "12", "10", "9"], "time": [608, 705, 984, 1099, 1317, 1608]}, "edge": {"target": [], "time": []}}, "mouseout": {"state": {"target": ["0", "9", "11", "10", "12", "10", "9"], "time": [358, 626, 953, 1038, 1275, 1553, 2268]}, "edge": {"target": [], "time": []}}}, "displayed_time": "8.42", "trialTime": 8662, "trial_type": "mouselab-mdp", "trial_index": 54, "time_elapsed": 657651, "internal_node_id": "0.0-4.0-3.0-14.0"}}, {"uniqueid": "w19508494:a69347970", "current_trial": 55, "dateTime": 1664555597457, "trialdata": {"revealed_states": [], "num_clicks_accrued": [0, 0, 0, 0, 0, 0, 0, 0, 0, 0, 0, 0, 0], "stateRewards": ["", -4, -8, -48, 48, -2, 8, 48, 48, -2, -4, -48, -48], "withholdReward": false, "trial_id": "mdp_752833580638", "block": "test2", "trialIndex": 47, "score": 39.75, "costs": -1.25, "simulationMode": [null, null, null], "rewards": [-4, -8, 48], "path": ["0", "0", "1", "2", "4"], "rt": [2341, 129, 95], "actions": ["up", "up", "left"], "actionTimes": [2662, 3295, 3891], "queries": {"click": {"state": {"target": ["11", "12", "4", "1", "2"], "time": [767, 1153, 1600, 2096, 2369]}, "edge": {"target": [], "time": []}}, "mouseover": {"state": {"target": ["9", "11", "10", "12", "9", "4", "2", "2", "1", "2"], "time": [493, 687, 935, 1020, 1323, 1493, 1753, 1935, 2020, 2262]}, "edge": {"target": [], "time": []}}, "mouseout": {"state": {"target": ["0", "9", "11", "10", "12", "9", "4", "2", "2", "1", "2"], "time": [41, 517, 905, 941, 1280, 1341, 1723, 1789, 1947, 2220, 2638]}, "edge": {"target": [], "time": []}}}, "displayed_time": "9.32", "trialTime": 9871, "trial_type": "mouselab-mdp", "trial_index": 55, "time_elapsed": 667551, "internal_node_id": "0.0-4.0-3.0-15.0"}}, {"uniqueid": "w19508494:a69347970", "current_trial": 56, "dateTime": 1664555607380, "trialdata": {"revealed_states": [], "num_clicks_accrued": [0, 0, 0, 0, 0, 0, 0, 0, 0, 0, 0, 0, 0], "stateRewards": ["", -4, 4, -24, 48, -2, 8, -48, 24, 2, 4, 48, -48], "withholdReward": true, "trial_id": "mdp_366632183904", "block": "test2", "trialIndex": 48, "score": 58.25, "costs": -0.75, "simulationMode": [null, null, null], "rewards": [2, 4, 48], "path": ["0", "0", "9", "10", "11"], "rt": [1578, 139, 152], "actions": ["left", "left", "up"], "actionTimes": [1968, 2608, 3263], "queries": {"click": {"state": {"target": ["11", "10", "9"], "time": [853, 1400, 1650]}, "edge": {"target": [], "time": []}}, "mouseover": {"state": {"target": ["9", "11", "10", "10", "9"], "time": [571, 777, 1044, 1335, 1553]}, "edge": {"target": [], "time": []}}, "mouseout": {"state": {"target": ["0", "9", "11", "10", "10", "9", "10", "10"], "time": [541, 589, 1001, 1092, 1523, 6844, 6875, 7735]}, "edge": {"target": [], "time": []}}}, "displayed_time": "9.39", "trialTime": 9891, "trial_type": "mouselab-mdp", "trial_index": 56, "time_elapsed": 677474, "internal_node_id": "0.0-4.0-3.0-16.0"}}, {"uniqueid": "w19508494:a69347970", "current_trial": 57, "dateTime": 1664555617156, "trialdata": {"revealed_states": [], "num_clicks_accrued": [0, 0, 0, 0, 0, 0, 0, 0, 0, 0, 0, 0, 0], "stateRewards": ["", 2, -8, 48, -24, -4, -8, -24, 48, -2, 4, 24, -48], "withholdReward": true, "trial_id": "mdp_186932504904", "block": "test2", "trialIndex": 49, "score": 45.5, "costs": -1.5, "simulationMode": [null, null, null], "rewards": [2, -8, 48], "path": ["0", "0", "1", "2", "3"], "rt": [3326, 149, 30], "actions": ["up", "up", "right"], "actionTimes": [3652, 4310, 4840], "queries": {"click": {"state": {"target": ["11", "12", "4", "3", "1", "2"], "time": [854, 1283, 2195, 2551, 3118, 3394]}, "edge": {"target": [], "time": []}}, "mouseover": {"state": {"target": ["9", "11", "10", "12", "4", "2", "4", "2", "3", "7", "1", "2"], "time": [530, 784, 1039, 1136, 1912, 1972, 2093, 2342, 2397, 2754, 3016, 3288]}, "edge": {"target": [], "time": []}}, "mouseout": {"state": {"target": ["0", "9", "11", "10", "12", "4", "2", "4", "2", "3", "7", "1", "2", "1", "11", "10"], "time": [512, 578, 990, 1099, 1499, 1948, 2063, 2318, 2372, 2712, 2912, 3251, 3645, 4821, 5093, 6766]}, "edge": {"target": [], "time": []}}}, "displayed_time": "9.33", "trialTime": 9747, "trial_type": "mouselab-mdp", "trial_index": 57, "time_elapsed": 687250, "internal_node_id": "0.0-4.0-3.0-17.0"}}, {"uniqueid": "w19508494:a69347970", "current_trial": 58, "dateTime": 1664555627268, "trialdata": {"revealed_states": [], "num_clicks_accrued": [0, 0, 0, 0, 0, 0, 0, 0, 0, 0, 0, 0, 0], "stateRewards": ["", 4, -8, 24, 48, -2, -4, -48, 24, 2, 4, -48, -24], "withholdReward": true, "trial_id": "mdp_749974461966", "block": "test2", "trialIndex": 50, "score": 47.75, "costs": -1.25, "simulationMode": [null, null, null], "rewards": [4, -8, 48], "path": ["0", "0", "1", "2", "4"], "rt": [2390, 155, 93], "actions": ["up", "up", "left"], "actionTimes": [2725, 3387, 3979], "queries": {"click": {"state": {"target": ["11", "12", "4", "1", "2"], "time": [787, 1206, 1652, 2238, 2509]}, "edge": {"target": [], "time": []}}, "mouseover": {"state": {"target": ["9", "11", "10", "12", "9", "4", "2", "3", "1", "2"], "time": [528, 595, 977, 1062, 1377, 1541, 1807, 1856, 2159, 2407]}, "edge": {"target": [], "time": []}}, "mouseout": {"state": {"target": ["0", "9", "11", "10", "12", "9", "4", "2", "3", "1", "2", "0"], "time": [189, 541, 928, 1025, 1341, 1395, 1777, 1837, 2074, 2365, 2800, 9007]}, "edge": {"target": [], "time": []}}}, "displayed_time": "8.34", "trialTime": 10076, "trial_type": "mouselab-mdp", "trial_index": 58, "time_elapsed": 697362, "internal_node_id": "0.0-4.0-3.0-18.0"}}, {"uniqueid": "w19508494:a69347970", "current_trial": 59, "dateTime": 1664555636307, "trialdata": {"revealed_states": [], "num_clicks_accrued": [0, 0, 0, 0, 0, 0, 0, 0, 0, 0, 0, 0, 0], "stateRewards": ["", -2, -4, -24, -48, -4, -8, -48, 24, -4, -8, -24, -48], "withholdReward": true, "trial_id": "mdp_475782454549", "block": "test2", "trialIndex": 51, "score": 14, "costs": -3, "simulationMode": [null, null, null], "rewards": [-4, -8, 24], "path": ["0", "0", "5", "6", "8"], "rt": [5150, 29, 114], "actions": ["right", "right", "down"], "actionTimes": [5662, 6190, 6802], "queries": {"click": {"state": {"target": ["11", "12", "4", "3", "7", "8", "5", "6", "1", "2", "9", "10"], "time": [1038, 1414, 1796, 2174, 2553, 2941, 3664, 3974, 4571, 4845, 5188, 5461]}, "edge": {"target": [], "time": []}}, "mouseover": {"state": {"target": ["9", "10", "11", "10", "12", "9", "4", "2", "3", "7", "6", "8", "5", "6", "1", "2", "9", "10"], "time": [742, 779, 954, 1173, 1263, 1567, 1676, 1942, 2003, 2367, 2718, 2839, 3397, 3864, 4451, 4754, 5088, 5360]}, "edge": {"target": [], "time": []}}, "mouseout": {"state": {"target": ["0", "9", "10", "11", "10", "12", "9", "4", "2", "3", "7", "6", "8", "5", "6", "5", "1", "2", "1", "9", "10", "9", "9"], "time": [724, 767, 833, 1142, 1227, 1530, 1579, 1924, 1973, 2318, 2676, 2779, 3336, 3791, 4160, 4227, 4700, 4954, 5003, 5324, 7476, 8573, 8658]}, "edge": {"target": [], "time": []}}}, "displayed_time": "8.51", "trialTime": 9013, "trial_type": "mouselab-mdp", "trial_index": 59, "time_elapsed": 706401, "internal_node_id": "0.0-4.0-3.0-19.0"}}, {"uniqueid": "w19508494:a69347970", "current_trial": 60, "dateTime": 1664555646044, "trialdata": {"revealed_states": [], "num_clicks_accrued": [0, 0, 0, 0, 0, 0, 0, 0, 0, 0, 0, 0, 0], "stateRewards": ["", 4, 8, 24, 24, 2, -4, 48, -24, -4, 8, -24, 24], "withholdReward": true, "trial_id": "mdp_932292142091", "block": "test2", "trialIndex": 52, "score": 49.5, "costs": -1.5, "simulationMode": [null, null, null], "rewards": [2, -4, 48], "path": ["0", "0", "5", "6", "7"], "rt": [2755, 151, 38], "actions": ["right", "right", "up"], "actionTimes": [3172, 3824, 4365], "queries": {"click": {"state": {"target": ["11", "12", "4", "3", "7", "8"], "time": [957, 1349, 1789, 2165, 2583, 3001]}, "edge": {"target": [], "time": []}}, "mouseover": {"state": {"target": ["9", "11", "10", "12", "4", "2", "3", "7", "6", "8"], "time": [618, 794, 1109, 1206, 1672, 1939, 2066, 2388, 2727, 2830]}, "edge": {"target": [], "time": []}}, "mouseout": {"state": {"target": ["0", "9", "11", "10", "12", "4", "2", "3", "7", "6", "8", "8", "8"], "time": [600, 648, 1073, 1157, 1472, 1915, 1976, 2321, 2697, 2788, 5333, 5630, 9442]}, "edge": {"target": [], "time": []}}}, "displayed_time": "9.42", "trialTime": 9705, "trial_type": "mouselab-mdp", "trial_index": 60, "time_elapsed": 716138, "internal_node_id": "0.0-4.0-3.0-20.0"}}, {"uniqueid": "w19508494:a69347970", "current_trial": 61, "dateTime": 1664555655747, "trialdata": {"revealed_states": [], "num_clicks_accrued": [0, 0, 0, 0, 0, 0, 0, 0, 0, 0, 0, 0, 0], "stateRewards": ["", 4, -8, -48, 24, 4, 4, -24, -24, 2, 4, -48, 24], "withholdReward": true, "trial_id": "mdp_626971397185", "block": "test2", "trialIndex": 53, "score": 32.5, "costs": -2.5, "simulationMode": [null, null, null], "rewards": [2, 4, 24], "path": ["0", "0", "9", "10", "12"], "rt": [5864, 29, 45], "actions": ["left", "left", "down"], "actionTimes": [6181, 6709, 7258], "queries": {"click": {"state": {"target": ["11", "12", "4", "3", "7", "8", "9", "10", "1", "2"], "time": [777, 1244, 1833, 2325, 2772, 3279, 4297, 4661, 5030, 5303]}, "edge": {"target": [], "time": []}}, "mouseover": {"state": {"target": ["9", "11", "10", "12", "9", "4", "2", "3", "7", "6", "8", "9", "10", "1", "2"], "time": [474, 534, 946, 1080, 1425, 1625, 2007, 2140, 2589, 2995, 3092, 3959, 4480, 4886, 5195]}, "edge": {"target": [], "time": []}}, "mouseout": {"state": {"target": ["0", "9", "11", "10", "12", "9", "4", "2", "3", "7", "6", "8", "9", "10", "9", "1", "2", "1", "5"], "time": [134, 492, 904, 1019, 1383, 1455, 1983, 2086, 2510, 2946, 3044, 3601, 4419, 4771, 4825, 5153, 5516, 8498, 9631]}, "edge": {"target": [], "time": []}}}, "displayed_time": "9.32", "trialTime": 9670, "trial_type": "mouselab-mdp", "trial_index": 61, "time_elapsed": 725841, "internal_node_id": "0.0-4.0-3.0-21.0"}}, {"uniqueid": "w19508494:a69347970", "current_trial": 62, "dateTime": 1664555665338, "trialdata": {"revealed_states": [], "num_clicks_accrued": [0, 0, 0, 0, 0, 0, 0, 0, 0, 0, 0, 0, 0], "stateRewards": ["", 2, 4, -48, -48, 4, 4, -48, -48, -2, -8, 48, -24], "withholdReward": false, "trial_id": "mdp_175327338412", "block": "test2", "trialIndex": 54, "score": 42.25, "costs": -0.75, "simulationMode": [null, null, null], "rewards": [-2, -8, 48], "path": ["0", "0", "9", "10", "11"], "rt": [1606, 135, 131], "actions": ["left", "left", "up"], "actionTimes": [1899, 2539, 3171], "queries": {"click": {"state": {"target": ["11", "10", "9"], "time": [635, 1279, 1493]}, "edge": {"target": [], "time": []}}, "mouseover": {"state": {"target": ["9", "11", "10", "10", "10", "9"], "time": [441, 489, 828, 908, 1168, 1404]}, "edge": {"target": [], "time": []}}, "mouseout": {"state": {"target": ["0", "9", "11", "10", "10", "10", "9", "0"], "time": [416, 453, 804, 859, 914, 1374, 1846, 3731]}, "edge": {"target": [], "time": []}}}, "displayed_time": "9.29", "trialTime": 9555, "trial_type": "mouselab-mdp", "trial_index": 62, "time_elapsed": 735432, "internal_node_id": "0.0-4.0-3.0-22.0"}}, {"uniqueid": "w19508494:a69347970", "current_trial": 63, "dateTime": 1664555674871, "trialdata": {"revealed_states": [], "num_clicks_accrued": [0, 0, 0, 0, 0, 0, 0, 0, 0, 0, 0, 0, 0], "stateRewards": ["", -4, -8, 48, 48, -4, 4, 48, -24, 4, 8, -24, -48], "withholdReward": true, "trial_id": "mdp_142906093415", "block": "test2", "trialIndex": 55, "score": 39.75, "costs": -1.25, "simulationMode": [null, null, null], "rewards": [-4, -8, 48], "path": ["0", "0", "1", "2", "4"], "rt": [2290, 127, 108], "actions": ["up", "up", "left"], "actionTimes": [2496, 3125, 3736], "queries": {"click": {"state": {"target": ["11", "12", "4", "1", "2"], "time": [656, 1051, 1472, 2032, 2284]}, "edge": {"target": [], "time": []}}, "mouseover": {"state": {"target": ["9", "11", "10", "12", "9", "4", "2", "3", "1", "2"], "time": [434, 501, 858, 943, 1210, 1331, 1634, 1695, 1949, 2173]}, "edge": {"target": [], "time": []}}, "mouseout": {"state": {"target": ["0", "9", "11", "10", "12", "9", "4", "2", "3", "1", "2", "3"], "time": [34, 446, 822, 907, 1167, 1216, 1616, 1664, 1871, 2143, 2565, 2622]}, "edge": {"target": [], "time": []}}}, "displayed_time": "9.21", "trialTime": 9500, "trial_type": "mouselab-mdp", "trial_index": 63, "time_elapsed": 744965, "internal_node_id": "0.0-4.0-3.0-23.0"}}, {"uniqueid": "w19508494:a69347970", "current_trial": 64, "dateTime": 1664555683592, "trialdata": {"revealed_states": [], "num_clicks_accrued": [0, 0, 0, 0, 0, 0, 0, 0, 0, 0, 0, 0, 0], "stateRewards": ["", 4, -8, 24, 48, 2, 4, 48, 48, 2, 8, -48, -48], "withholdReward": false, "trial_id": "mdp_783704746330", "block": "test2", "trialIndex": 56, "score": 47.75, "costs": -1.25, "simulationMode": [null, null, null], "rewards": [4, -8, 48], "path": ["0", "0", "1", "2", "4"], "rt": [2458, 111, 102], "actions": ["up", "up", "left"], "actionTimes": [2928, 3541, 4144], "queries": {"click": {"state": {"target": ["11", "12", "4", "1", "2"], "time": [849, 1279, 1799, 2458, 2712]}, "edge": {"target": [], "time": []}}, "mouseover": {"state": {"target": ["9", "11", "10", "12", "4", "2", "3", "1", "2"], "time": [617, 750, 1041, 1144, 1664, 1962, 2023, 2350, 2617]}, "edge": {"target": [], "time": []}}, "mouseout": {"state": {"target": ["9", "11", "10", "12", "4", "2", "3", "1", "2", "5"], "time": [635, 993, 1096, 1423, 1944, 1993, 2241, 2568, 3035, 8356]}, "edge": {"target": [], "time": []}}}, "displayed_time": "8.47", "trialTime": 8688, "trial_type": "mouselab-mdp", "trial_index": 64, "time_elapsed": 753686, "internal_node_id": "0.0-4.0-3.0-24.0"}}, {"uniqueid": "w19508494:a69347970", "current_trial": 65, "dateTime": 1664555693046, "trialdata": {"revealed_states": [], "num_clicks_accrued": [0, 0, 0, 0, 0, 0, 0, 0, 0, 0, 0, 0, 0], "stateRewards": ["", -2, -4, 48, -24, 2, -4, -24, -48, 2, 8, -48, -24], "withholdReward": true, "trial_id": "mdp_238243948191", "block": "test2", "trialIndex": 57, "score": 45.5, "costs": -1.5, "simulationMode": [null, null, null], "rewards": [-2, -4, 48], "path": ["0", "0", "1", "2", "3"], "rt": [2779, 146, 5], "actions": ["up", "up", "right"], "actionTimes": [3011, 3662, 4168], "queries": {"click": {"state": {"target": ["11", "12", "4", "3", "1", "2"], "time": [663, 1058, 1482, 1843, 2515, 2777]}, "edge": {"target": [], "time": []}}, "mouseover": {"state": {"target": ["9", "11", "10", "12", "9", "4", "2", "3", "7", "1", "2"], "time": [448, 582, 836, 939, 1218, 1345, 1624, 1672, 2042, 2357, 2685]}, "edge": {"target": [], "time": []}}, "mouseout": {"state": {"target": ["0", "9", "11", "10", "12", "9", "4", "2", "3", "7", "1", "2"], "time": [12, 473, 800, 891, 1182, 1230, 1600, 1648, 1975, 2273, 2636, 3066]}, "edge": {"target": [], "time": []}}}, "displayed_time": "9.23", "trialTime": 9423, "trial_type": "mouselab-mdp", "trial_index": 65, "time_elapsed": 763140, "internal_node_id": "0.0-4.0-3.0-25.0"}}, {"uniqueid": "w19508494:a69347970", "current_trial": 66, "dateTime": 1664555701680, "trialdata": {"revealed_states": [], "num_clicks_accrued": [0, 0, 0, 0, 0, 0, 0, 0, 0, 0, 0, 0, 0], "stateRewards": ["", 2, -4, 48, -48, 2, 4, -24, 24, -4, -8, 24, -48], "withholdReward": true, "trial_id": "mdp_238810765895", "block": "test2", "trialIndex": 58, "score": 49.5, "costs": -1.5, "simulationMode": [null, null, null], "rewards": [2, -4, 48], "path": ["0", "0", "1", "2", "3"], "rt": [3101, 117, 49], "actions": ["up", "up", "right"], "actionTimes": [3444, 4068, 4618], "queries": {"click": {"state": {"target": ["11", "12", "4", "3", "1", "2"], "time": [994, 1407, 1881, 2320, 2977, 3223]}, "edge": {"target": [], "time": []}}, "mouseover": {"state": {"target": ["11", "11", "10", "12", "9", "4", "2", "3", "7", "1", "2"], "time": [545, 811, 1163, 1248, 1593, 1745, 2090, 2151, 2563, 2866, 3120]}, "edge": {"target": [], "time": []}}, "mouseout": {"state": {"target": ["5", "11", "11", "10", "12", "9", "4", "2", "3", "7", "1", "2", "7", "7", "6", "8"], "time": [6, 587, 1120, 1205, 1557, 1623, 2060, 2127, 2508, 2763, 3084, 3508, 5223, 7132, 7254, 8120]}, "edge": {"target": [], "time": []}}}, "displayed_time": "8.34", "trialTime": 8602, "trial_type": "mouselab-mdp", "trial_index": 66, "time_elapsed": 771774, "internal_node_id": "0.0-4.0-3.0-26.0"}}, {"uniqueid": "w19508494:a69347970", "current_trial": 67, "dateTime": 1664555712241, "trialdata": {"revealed_states": [], "num_clicks_accrued": [0, 0, 0, 0, 0, 0, 0, 0, 0, 0, 0, 0, 0], "stateRewards": ["", 2, -8, 24, 24, 2, 4, -48, -48, 4, 4, -24, 48], "withholdReward": false, "trial_id": "mdp_985707010949", "block": "test2", "trialIndex": 59, "score": 60, "costs": -1, "simulationMode": [null, null, null], "rewards": [4, 4, 48], "path": ["0", "0", "9", "10", "12"], "rt": [2007, 678, 93], "actions": ["left", "left", "down"], "actionTimes": [2447, 3629, 4225], "queries": {"click": {"state": {"target": ["11", "12", "9", "10"], "time": [810, 1249, 1965, 2229]}, "edge": {"target": [], "time": []}}, "mouseover": {"state": {"target": ["11", "10", "12", "9", "10"], "time": [690, 1023, 1108, 1835, 2132]}, "edge": {"target": [], "time": []}}, "mouseout": {"state": {"target": ["0", "11", "10", "12", "9", "10", "9", "0"], "time": [562, 986, 1065, 1386, 2095, 2441, 5059, 10289]}, "edge": {"target": [], "time": []}}}, "displayed_time": "9.44", "trialTime": 10525, "trial_type": "mouselab-mdp", "trial_index": 67, "time_elapsed": 782335, "internal_node_id": "0.0-4.0-3.0-27.0"}}, {"uniqueid": "w19508494:a69347970", "current_trial": 68, "dateTime": 1664555721854, "trialdata": {"revealed_states": [], "num_clicks_accrued": [0, 0, 0, 0, 0, 0, 0, 0, 0, 0, 0, 0, 0], "stateRewards": ["", 4, 4, -24, -48, 2, 4, 24, -48, 2, 4, 24, 24], "withholdReward": true, "trial_id": "mdp_223558518218", "block": "test2", "trialIndex": 60, "score": 32, "costs": -3, "simulationMode": [null, null, null], "rewards": [2, 4, 24], "path": ["0", "0", "9", "10", "11"], "rt": [5898, 103, 85], "actions": ["left", "left", "up"], "actionTimes": [6209, 6811, 7399], "queries": {"click": {"state": {"target": ["11", "12", "4", "3", "7", "8", "5", "6", "9", "10", "1", "2"], "time": [746, 1183, 1648, 2041, 2413, 2779, 3389, 3681, 4152, 4377, 4867, 5126]}, "edge": {"target": [], "time": []}}, "mouseover": {"state": {"target": ["9", "11", "10", "12", "9", "4", "2", "3", "7", "6", "8", "5", "6", "0", "9", "10", "1", "2"], "time": [502, 653, 927, 1054, 1375, 1502, 1805, 1878, 2242, 2556, 2641, 3211, 3562, 3841, 3871, 4290, 4671, 5017]}, "edge": {"target": [], "time": []}}, "mouseout": {"state": {"target": ["0", "9", "11", "10", "12", "9", "4", "2", "3", "7", "6", "8", "5", "6", "5", "0", "9", "10", "9", "1", "2", "5"], "time": [138, 532, 878, 1011, 1326, 1382, 1781, 1841, 2188, 2514, 2599, 3114, 3526, 3793, 3829, 3859, 4259, 4508, 4587, 4981, 5326, 9211]}, "edge": {"target": [], "time": []}}}, "displayed_time": "9.31", "trialTime": 9582, "trial_type": "mouselab-mdp", "trial_index": 68, "time_elapsed": 791948, "internal_node_id": "0.0-4.0-3.0-28.0"}}, {"uniqueid": "w19508494:a69347970", "current_trial": 69, "dateTime": 1664555730560, "trialdata": {"revealed_states": [], "num_clicks_accrued": [0, 0, 0, 0, 0, 0, 0, 0, 0, 0, 0, 0, 0], "stateRewards": ["", 2, 8, -48, 48, -4, -8, 24, 24, -2, -8, 24, -24], "withholdReward": true, "trial_id": "mdp_910248289075", "block": "test2", "trialIndex": 61, "score": 61.75, "costs": -1.25, "simulationMode": [null, null, null], "rewards": [2, 8, 48], "path": ["0", "0", "1", "2", "4"], "rt": [2371, 80, 27], "actions": ["up", "up", "left"], "actionTimes": [2669, 3259, 3786], "queries": {"click": {"state": {"target": ["11", "12", "4", "1", "2"], "time": [711, 1147, 1603, 2204, 2446]}, "edge": {"target": [], "time": []}}, "mouseover": {"state": {"target": ["11", "10", "12", "9", "4", "2", "3", "1", "2"], "time": [522, 886, 995, 1310, 1479, 1752, 1813, 2128, 2346]}, "edge": {"target": [], "time": []}}, "mouseout": {"state": {"target": ["0", "11", "10", "12", "9", "4", "2", "3", "1", "2", "5"], "time": [13, 849, 934, 1267, 1328, 1728, 1783, 2055, 2310, 2740, 6989]}, "edge": {"target": [], "time": []}}}, "displayed_time": "8.30", "trialTime": 8672, "trial_type": "mouselab-mdp", "trial_index": 69, "time_elapsed": 800654, "internal_node_id": "0.0-4.0-3.0-29.0"}}, {"uniqueid": "w19508494:a69347970", "current_trial": 70, "dateTime": 1664555732796, "trialdata": {"rt": 2234, "stimulus": "<h1> End of block! </h1>\n\nYou have reached the end of the block 2/4. If you need a short break, feel free to take one now before moving on.\n\n<br><br>\nIn the next block, you will complete another 30 rounds of this game.\n\n<br><br>\n<div style='text-align: center;'>Press <code>space</code> to begin.</div>\n<br><br>\n<div style='text-align: center;'>(If the experiment doesn't continue, try clicking on the text and then pressing <code>space</code>.)</div>", "response": " ", "trial_id": "mdp_ready_3", "trial_type": "html-keyboard-response", "trial_index": 70, "time_elapsed": 802890, "internal_node_id": "0.0-4.0-4.0"}}, {"uniqueid": "w19508494:a69347970", "current_trial": 71, "dateTime": 1664555742549, "trialdata": {"revealed_states": [], "num_clicks_accrued": [0, 0, 0, 0, 0, 0, 0, 0, 0, 0, 0, 0, 0], "stateRewards": ["", -2, 8, 48, 48, 2, 4, -48, 24, -4, -8, 48, 24], "withholdReward": true, "trial_id": "mdp_572910394648", "block": "test3", "trialIndex": 62, "score": 40.25, "costs": -0.75, "simulationMode": [null, null, null], "rewards": [-4, -8, 48], "path": ["0", "0", "9", "10", "11"], "rt": [1964, 114, 99], "actions": ["left", "left", "up"], "actionTimes": [2485, 3101, 3699], "queries": {"click": {"state": {"target": ["11", "10", "9"], "time": [971, 1655, 1916]}, "edge": {"target": [], "time": []}}, "mouseover": {"state": {"target": ["9", "11", "10", "12", "10", "9"], "time": [726, 902, 1144, 1254, 1587, 1811]}, "edge": {"target": [], "time": []}}, "mouseout": {"state": {"target": ["5", "0", "9", "11", "10", "12", "10", "9"], "time": [223, 435, 744, 1108, 1187, 1460, 1775, 8108]}, "edge": {"target": [], "time": []}}}, "displayed_time": "9.52", "trialTime": 9726, "trial_type": "mouselab-mdp", "trial_index": 71, "time_elapsed": 812643, "internal_node_id": "0.0-4.0-5.0-0.0"}}, {"uniqueid": "w19508494:a69347970", "current_trial": 72, "dateTime": 1664555751050, "trialdata": {"revealed_states": [], "num_clicks_accrued": [0, 0, 0, 0, 0, 0, 0, 0, 0, 0, 0, 0, 0], "stateRewards": ["", -2, 4, -24, 48, 4, -8, 48, -48, 2, -8, 48, 24], "withholdReward": false, "trial_id": "mdp_501111216502", "block": "test3", "trialIndex": 63, "score": 46.25, "costs": -0.75, "simulationMode": [null, null, null], "rewards": [2, -8, 48], "path": ["0", "0", "9", "10", "11"], "rt": [1444, 86, 50], "actions": ["left", "left", "up"], "actionTimes": [1677, 2263, 2815], "queries": {"click": {"state": {"target": ["11", "10", "9"], "time": [723, 1239, 1493]}, "edge": {"target": [], "time": []}}, "mouseover": {"state": {"target": ["9", "11", "10", "12", "10", "9"], "time": [455, 667, 891, 988, 1146, 1370]}, "edge": {"target": [], "time": []}}, "mouseout": {"state": {"target": ["0", "9", "11", "10", "12", "10", "9"], "time": [406, 473, 855, 946, 1097, 1340, 7540]}, "edge": {"target": [], "time": []}}}, "displayed_time": "8.23", "trialTime": 8470, "trial_type": "mouselab-mdp", "trial_index": 72, "time_elapsed": 821144, "internal_node_id": "0.0-4.0-5.0-1.0"}}, {"uniqueid": "w19508494:a69347970", "current_trial": 73, "dateTime": 1664555760634, "trialdata": {"revealed_states": [], "num_clicks_accrued": [0, 0, 0, 0, 0, 0, 0, 0, 0, 0, 0, 0, 0], "stateRewards": ["", -2, 8, 24, -48, -4, -8, -24, -48, -4, 8, -24, 48], "withholdReward": true, "trial_id": "mdp_464339499860", "block": "test3", "trialIndex": 64, "score": 56, "costs": -1, "simulationMode": [null, null, null], "rewards": [-4, 8, 48], "path": ["0", "0", "9", "10", "12"], "rt": [1807, 71, 31], "actions": ["left", "left", "down"], "actionTimes": [2119, 2691, 3221], "queries": {"click": {"state": {"target": ["11", "12", "9", "10"], "time": [757, 1122, 1724, 1953]}, "edge": {"target": [], "time": []}}, "mouseover": {"state": {"target": ["9", "11", "10", "12", "9", "9", "10"], "time": [468, 668, 934, 1019, 1304, 1595, 1868]}, "edge": {"target": [], "time": []}}, "mouseout": {"state": {"target": ["0", "0", "9", "11", "10", "12", "9", "9", "10", "9"], "time": [29, 425, 480, 904, 977, 1256, 1322, 1831, 3625, 3722]}, "edge": {"target": [], "time": []}}}, "displayed_time": "9.31", "trialTime": 9553, "trial_type": "mouselab-mdp", "trial_index": 73, "time_elapsed": 830728, "internal_node_id": "0.0-4.0-5.0-2.0"}}, {"uniqueid": "w19508494:a69347970", "current_trial": 74, "dateTime": 1664555770102, "trialdata": {"revealed_states": [], "num_clicks_accrued": [0, 0, 0, 0, 0, 0, 0, 0, 0, 0, 0, 0, 0], "stateRewards": ["", 2, -4, 48, 24, 2, 8, 24, 24, -2, 4, 24, 24], "withholdReward": true, "trial_id": "mdp_813974524300", "block": "test3", "trialIndex": 65, "score": 49.5, "costs": -1.5, "simulationMode": [null, null, null], "rewards": [2, -4, 48], "path": ["0", "0", "1", "2", "3"], "rt": [3026, 110, 416], "actions": ["up", "up", "right"], "actionTimes": [3222, 3833, 4751], "queries": {"click": {"state": {"target": ["11", "12", "4", "3", "1", "2"], "time": [640, 1045, 1557, 1920, 2514, 2796]}, "edge": {"target": [], "time": []}}, "mouseover": {"state": {"target": ["9", "10", "11", "10", "12", "9", "4", "2", "3", "7", "1", "2"], "time": [390, 432, 535, 856, 959, 1232, 1500, 1705, 1783, 2129, 2408, 2668]}, "edge": {"target": [], "time": []}}, "mouseout": {"state": {"target": ["0", "9", "10", "11", "10", "12", "9", "4", "2", "3", "7", "1", "2", "5"], "time": [75, 408, 438, 814, 917, 1190, 1274, 1668, 1747, 2062, 2293, 2632, 3044, 7311]}, "edge": {"target": [], "time": []}}}, "displayed_time": "9.20", "trialTime": 9434, "trial_type": "mouselab-mdp", "trial_index": 74, "time_elapsed": 840196, "internal_node_id": "0.0-4.0-5.0-3.0"}}, {"uniqueid": "w19508494:a69347970", "current_trial": 75, "dateTime": 1664555779671, "trialdata": {"revealed_states": [], "num_clicks_accrued": [0, 0, 0, 0, 0, 0, 0, 0, 0, 0, 0, 0, 0], "stateRewards": ["", 4, -4, 48, 24, 2, -8, 24, -48, -2, -4, -48, -48], "withholdReward": true, "trial_id": "mdp_655302318695", "block": "test3", "trialIndex": 66, "score": 51.5, "costs": -1.5, "simulationMode": [null, null, null], "rewards": [4, -4, 48], "path": ["0", "0", "1", "2", "3"], "rt": [2870, 163, 74], "actions": ["up", "up", "right"], "actionTimes": [3230, 3896, 4474], "queries": {"click": {"state": {"target": ["11", "12", "4", "3", "1", "2"], "time": [748, 1242, 1738, 2157, 2803, 3064]}, "edge": {"target": [], "time": []}}, "mouseover": {"state": {"target": ["11", "10", "12", "9", "4", "2", "3", "7", "1", "2"], "time": [563, 951, 1054, 1405, 1569, 1896, 1969, 2460, 2648, 2945]}, "edge": {"target": [], "time": []}}, "mouseout": {"state": {"target": ["11", "10", "12", "9", "4", "2", "3", "7", "1", "2"], "time": [920, 1005, 1369, 1430, 1878, 1932, 2326, 2563, 2902, 5030]}, "edge": {"target": [], "time": []}}}, "displayed_time": "9.36", "trialTime": 9527, "trial_type": "mouselab-mdp", "trial_index": 75, "time_elapsed": 849765, "internal_node_id": "0.0-4.0-5.0-4.0"}}, {"uniqueid": "w19508494:a69347970", "current_trial": 76, "dateTime": 1664555788162, "trialdata": {"revealed_states": [], "num_clicks_accrued": [0, 0, 0, 0, 0, 0, 0, 0, 0, 0, 0, 0, 0], "stateRewards": ["", 4, -8, -48, 48, -2, 8, -48, 48, -2, -4, 24, -48], "withholdReward": true, "trial_id": "mdp_400558136089", "block": "test3", "trialIndex": 67, "score": 47.75, "costs": -1.25, "simulationMode": [null, null, null], "rewards": [4, -8, 48], "path": ["0", "0", "1", "2", "4"], "rt": [2286, 64, 34], "actions": ["up", "up", "left"], "actionTimes": [2560, 3127, 3662], "queries": {"click": {"state": {"target": ["11", "12", "4", "1", "2"], "time": [697, 1110, 1537, 2065, 2320]}, "edge": {"target": [], "time": []}}, "mouseover": {"state": {"target": ["9", "11", "10", "12", "9", "4", "2", "3", "2", "1", "2"], "time": [475, 572, 888, 991, 1275, 1421, 1706, 1766, 1948, 2009, 2191]}, "edge": {"target": [], "time": []}}, "mouseout": {"state": {"target": ["0", "9", "11", "10", "12", "9", "4", "2", "3", "2", "1", "2", "5", "0"], "time": [49, 494, 833, 942, 1239, 1287, 1681, 1736, 1918, 1954, 2154, 2597, 7978, 8372]}, "edge": {"target": [], "time": []}}}, "displayed_time": "8.28", "trialTime": 8458, "trial_type": "mouselab-mdp", "trial_index": 76, "time_elapsed": 858256, "internal_node_id": "0.0-4.0-5.0-5.0"}}, {"uniqueid": "w19508494:a69347970", "current_trial": 77, "dateTime": 1664555796917, "trialdata": {"revealed_states": [], "num_clicks_accrued": [0, 0, 0, 0, 0, 0, 0, 0, 0, 0, 0, 0, 0], "stateRewards": ["", -2, 8, 48, 48, 4, -8, -48, 48, 2, -4, -48, 48], "withholdReward": true, "trial_id": "mdp_132958048709", "block": "test3", "trialIndex": 68, "score": 50, "costs": -1, "simulationMode": [null, null, null], "rewards": [2, -4, 48], "path": ["0", "0", "9", "10", "12"], "rt": [1821, 114, 59], "actions": ["left", "left", "down"], "actionTimes": [2173, 2789, 3352], "queries": {"click": {"state": {"target": ["11", "12", "9", "10"], "time": [731, 1135, 1751, 1993]}, "edge": {"target": [], "time": []}}, "mouseover": {"state": {"target": ["11", "10", "12", "9", "9", "10"], "time": [554, 942, 1021, 1336, 1639, 1881]}, "edge": {"target": [], "time": []}}, "mouseout": {"state": {"target": ["11", "10", "12", "9", "9", "10", "10", "11", "10"], "time": [899, 984, 1293, 1348, 1851, 4130, 8039, 8245, 8317]}, "edge": {"target": [], "time": []}}}, "displayed_time": "8.35", "trialTime": 8728, "trial_type": "mouselab-mdp", "trial_index": 77, "time_elapsed": 867011, "internal_node_id": "0.0-4.0-5.0-6.0"}}, {"uniqueid": "w19508494:a69347970", "current_trial": 78, "dateTime": 1664555806640, "trialdata": {"revealed_states": [], "num_clicks_accrued": [0, 0, 0, 0, 0, 0, 0, 0, 0, 0, 0, 0, 0], "stateRewards": ["", -2, 4, 48, -24, 2, 8, 24, 48, 2, 4, -24, -48], "withholdReward": false, "trial_id": "mdp_892412058587", "block": "test3", "trialIndex": 69, "score": 53.5, "costs": -1.5, "simulationMode": [null, null, null], "rewards": [-2, 4, 48], "path": ["0", "0", "1", "2", "3"], "rt": [3217, 79, 34], "actions": ["up", "up", "right"], "actionTimes": [3526, 4112, 4649], "queries": {"click": {"state": {"target": ["12", "11", "4", "3", "1", "2"], "time": [859, 1331, 1749, 2410, 2977, 3260]}, "edge": {"target": [], "time": []}}, "mouseover": {"state": {"target": ["9", "10", "12", "10", "11", "4", "2", "3", "7", "1", "2"], "time": [482, 585, 791, 1057, 1136, 1627, 1888, 2173, 2609, 2888, 3131]}, "edge": {"target": [], "time": []}}, "mouseout": {"state": {"target": ["0", "9", "10", "12", "10", "11", "4", "2", "3", "7", "1", "2", "3", "3", "1", "0"], "time": [463, 506, 657, 1021, 1100, 1475, 1869, 1924, 2572, 2791, 3088, 3476, 3682, 5069, 5421, 6748]}, "edge": {"target": [], "time": []}}}, "displayed_time": "8.31", "trialTime": 9689, "trial_type": "mouselab-mdp", "trial_index": 78, "time_elapsed": 876734, "internal_node_id": "0.0-4.0-5.0-7.0"}}, {"uniqueid": "w19508494:a69347970", "current_trial": 79, "dateTime": 1664555816915, "trialdata": {"revealed_states": [], "num_clicks_accrued": [0, 0, 0, 0, 0, 0, 0, 0, 0, 0, 0, 0, 0], "stateRewards": ["", 2, 4, 24, 48, -2, 8, 24, -24, -4, -4, 48, 48], "withholdReward": false, "trial_id": "mdp_753439303214", "block": "test3", "trialIndex": 70, "score": 58.25, "costs": -0.75, "simulationMode": [null, null, null], "rewards": [2, 4, 48], "path": ["0", "0", "1", "2", "4"], "rt": [1722, 97, 51], "actions": ["up", "up", "left"], "actionTimes": [2034, 2640, 3193], "queries": {"click": {"state": {"target": ["4", "1", "2"], "time": [892, 1561, 1836]}, "edge": {"target": [], "time": []}}, "mouseover": {"state": {"target": ["1", "2", "4", "2", "3", "1", "2"], "time": [518, 615, 779, 1076, 1124, 1457, 1712]}, "edge": {"target": [], "time": []}}, "mouseout": {"state": {"target": ["1", "2", "4", "2", "3", "1", "2"], "time": [566, 742, 1057, 1100, 1409, 1663, 3663]}, "edge": {"target": [], "time": []}}}, "displayed_time": "9.31", "trialTime": 10243, "trial_type": "mouselab-mdp", "trial_index": 79, "time_elapsed": 887009, "internal_node_id": "0.0-4.0-5.0-8.0"}}, {"uniqueid": "w19508494:a69347970", "current_trial": 80, "dateTime": 1664555825445, "trialdata": {"revealed_states": [], "num_clicks_accrued": [0, 0, 0, 0, 0, 0, 0, 0, 0, 0, 0, 0, 0], "stateRewards": ["", 2, -4, 24, 48, -2, 4, -48, -48, -4, 4, 24, -24], "withholdReward": true, "trial_id": "mdp_900363662757", "block": "test3", "trialIndex": 71, "score": 50.25, "costs": -0.75, "simulationMode": [null, null, null], "rewards": [2, -4, 48], "path": ["0", "0", "1", "2", "4"], "rt": [1639, 162, 311], "actions": ["up", "up", "left"], "actionTimes": [1914, 2580, 3390], "queries": {"click": {"state": {"target": ["4", "1", "2"], "time": [784, 1408, 1674]}, "edge": {"target": [], "time": []}}, "mouseover": {"state": {"target": ["1", "4", "2", "3", "1", "2"], "time": [509, 691, 927, 981, 1248, 1557]}, "edge": {"target": [], "time": []}}, "mouseout": {"state": {"target": ["0", "1", "4", "2", "3", "1", "2"], "time": [58, 575, 902, 963, 987, 1515, 1993]}, "edge": {"target": [], "time": []}}}, "displayed_time": "8.28", "trialTime": 8503, "trial_type": "mouselab-mdp", "trial_index": 80, "time_elapsed": 895539, "internal_node_id": "0.0-4.0-5.0-9.0"}}, {"uniqueid": "w19508494:a69347970", "current_trial": 81, "dateTime": 1664555834475, "trialdata": {"revealed_states": [], "num_clicks_accrued": [0, 0, 0, 0, 0, 0, 0, 0, 0, 0, 0, 0, 0], "stateRewards": ["", -4, -4, 24, 48, 4, -4, -24, 24, -4, -4, 24, 24], "withholdReward": true, "trial_id": "mdp_357725458160", "block": "test3", "trialIndex": 72, "score": 43.75, "costs": -1.25, "simulationMode": [null, null, null], "rewards": [-4, -4, 48], "path": ["0", "0", "1", "2", "4"], "rt": [2928, 44, 42], "actions": ["up", "up", "left"], "actionTimes": [3137, 3684, 4227], "queries": {"click": {"state": {"target": ["11", "12", "4", "1", "2"], "time": [628, 1016, 1468, 2470, 2708]}, "edge": {"target": [], "time": []}}, "mouseover": {"state": {"target": ["9", "11", "10", "12", "9", "4", "2", "3", "2", "1", "2"], "time": [409, 530, 797, 863, 1215, 1360, 1615, 1670, 2173, 2391, 2627]}, "edge": {"target": [], "time": []}}, "mouseout": {"state": {"target": ["0", "9", "11", "10", "12", "9", "4", "2", "3", "2", "1", "2"], "time": [4, 433, 748, 833, 1172, 1251, 1591, 1646, 1882, 2354, 2579, 2924]}, "edge": {"target": [], "time": []}}}, "displayed_time": "8.21", "trialTime": 8997, "trial_type": "mouselab-mdp", "trial_index": 81, "time_elapsed": 904569, "internal_node_id": "0.0-4.0-5.0-10.0"}}, {"uniqueid": "w19508494:a69347970", "current_trial": 82, "dateTime": 1664555844619, "trialdata": {"revealed_states": [], "num_clicks_accrued": [0, 0, 0, 0, 0, 0, 0, 0, 0, 0, 0, 0, 0], "stateRewards": ["", 2, -4, -24, -24, -2, -8, -48, 24, -4, -8, 24, 24], "withholdReward": true, "trial_id": "mdp_521351546461", "block": "test3", "trialIndex": 73, "score": 16.5, "costs": -2.5, "simulationMode": [null, null, null], "rewards": [-2, -8, 24], "path": ["0", "0", "5", "6", "8"], "rt": [6213, 124, 116], "actions": ["right", "right", "down"], "actionTimes": [6835, 7461, 8077], "queries": {"click": {"state": {"target": ["11", "12", "4", "3", "7", "8", "10", "9", "5", "6"], "time": [950, 1374, 1869, 2247, 2616, 2986, 4137, 4462, 5037, 5355]}, "edge": {"target": [], "time": []}}, "mouseover": {"state": {"target": ["9", "11", "10", "12", "9", "4", "2", "3", "7", "6", "8", "9", "10", "9", "0", "5", "6"], "time": [724, 779, 1106, 1209, 1524, 1779, 2003, 2106, 2482, 2773, 2921, 3542, 3597, 4318, 4640, 4748, 5185]}, "edge": {"target": [], "time": []}}, "mouseout": {"state": {"target": ["0", "9", "11", "10", "12", "9", "4", "2", "3", "7", "6", "8", "8", "9", "10", "9", "0", "5", "6"], "time": [694, 736, 1082, 1160, 1494, 1548, 1973, 2057, 2403, 2742, 2821, 3173, 3360, 3579, 4282, 4603, 4700, 5160, 8391]}, "edge": {"target": [], "time": []}}}, "displayed_time": "8.62", "trialTime": 10116, "trial_type": "mouselab-mdp", "trial_index": 82, "time_elapsed": 914712, "internal_node_id": "0.0-4.0-5.0-11.0"}}, {"uniqueid": "w19508494:a69347970", "current_trial": 83, "dateTime": 1664555854406, "trialdata": {"revealed_states": [], "num_clicks_accrued": [0, 0, 0, 0, 0, 0, 0, 0, 0, 0, 0, 0, 0], "stateRewards": ["", -4, -8, 48, 24, 4, -8, 24, -48, -2, -8, 24, -48], "withholdReward": true, "trial_id": "mdp_952038635544", "block": "test3", "trialIndex": 74, "score": 39.5, "costs": -1.5, "simulationMode": [null, null, null], "rewards": [-4, -8, 48], "path": ["0", "0", "1", "2", "3"], "rt": [3120, 125, 87], "actions": ["up", "up", "right"], "actionTimes": [4665, 5289, 5875], "queries": {"click": {"state": {"target": ["11", "12", "4", "3", "1", "2"], "time": [2111, 2546, 3007, 3390, 4116, 4474]}, "edge": {"target": [], "time": []}}, "mouseover": {"state": {"target": ["9", "11", "10", "12", "9", "1", "4", "2", "3", "7", "1", "2"], "time": [1854, 1993, 2290, 2357, 2708, 2775, 2945, 3150, 3211, 3581, 3993, 4393]}, "edge": {"target": [], "time": []}}, "mouseout": {"state": {"target": ["3", "1", "0", "9", "11", "10", "12", "