{"condition": 1, "counterbalance": 0, "assignmentId": "a82667834", "workerId": "w39265423", "hitId": "h82781755", "currenttrial": 137, "bonus": 0, "data": [{"uniqueid": "w39265423:a82667834", "current_trial": 0, "dateTime": 1664555059691, "trialdata": {"success": true, "trial_type": "fullscreen", "trial_index": 0, "time_elapsed": 5514, "internal_node_id": "0.0-0.0"}}, {"uniqueid": "w39265423:a82667834", "current_trial": 1, "dateTime": 1664555083682, "trialdata": {"view_history": [{"page_index": 0, "viewing_time": 23985}], "rt": 23985, "trial_id": "exp_instructions_no_distractor", "trial_type": "instructions", "trial_index": 1, "time_elapsed": 29505, "internal_node_id": "0.0-1.0"}}, {"uniqueid": "w39265423:a82667834", "current_trial": 2, "dateTime": 1664555087130, "trialdata": {"success": true, "trial_type": "fullscreen", "trial_index": 2, "time_elapsed": 32953, "internal_node_id": "0.0-2.0-0.0"}}, {"uniqueid": "w39265423:a82667834", "current_trial": 3, "dateTime": 1664555204379, "trialdata": {"view_history": [{"page_index": 0, "viewing_time": 47409}, {"page_index": 1, "viewing_time": 31747}, {"page_index": 2, "viewing_time": 12672}, {"page_index": 3, "viewing_time": 6429}, {"page_index": 4, "viewing_time": 18991}], "rt": 117248, "trial_id": "mouselab_instructions_1", "trial_type": "instructions", "trial_index": 3, "time_elapsed": 150202, "internal_node_id": "0.0-2.0-1.0"}}, {"uniqueid": "w39265423:a82667834", "current_trial": 4, "dateTime": 1664555235811, "trialdata": {"revealed_states": [], "num_clicks_accrued": [0, 0, 0, 0, 0, 0, 0, 0, 0, 0, 0, 0, 0], "stateRewards": ["", 10, -10, 10, 10, 10, -10, -10, -10, -10, 10, -10, 10], "withholdReward": false, "trial_id": "practice_1", "block": "test", "trialIndex": 0, "score": 10, "costs": -2, "simulationMode": [null, null, null], "rewards": [10, -10, 10], "path": ["0", "0", "1", "2", "3"], "rt": [20112, 296, 211], "actions": ["up", "up", "right"], "actionTimes": [22320, 23113, 23827], "queries": {"click": {"state": {"target": ["1", "2", "9", "5", "6", "7", "8", "3"], "time": [6557, 9288, 12957, 14759, 16424, 18822, 19759, 20646]}, "edge": {"target": [], "time": []}}, "mouseover": {"state": {"target": ["1", "2", "4", "9", "10", "9", "0", "5", "8", "6", "7", "8", "3"], "time": [3083, 7983, 10035, 10666, 11199, 12516, 14066, 14216, 15383, 15832, 18167, 19449, 20533]}, "edge": {"target": [], "time": []}}, "mouseout": {"state": {"target": ["1", "2", "4", "9", "10", "9", "9", "0", "5", "8", "6", "7", "6", "8", "2", "3", "3", "3"], "time": [7565, 9682, 10533, 11083, 12299, 13536, 14016, 14150, 15215, 15699, 18099, 19283, 19366, 20149, 20450, 21049, 25656, 27749]}, "edge": {"target": [], "time": []}}}, "displayed_time": "24.32", "trialTime": 31048, "trial_type": "mouselab-mdp", "trial_index": 4, "time_elapsed": 181633, "internal_node_id": "0.0-2.0-2.0-0.0"}}, {"uniqueid": "w39265423:a82667834", "current_trial": 5, "dateTime": 1664555255775, "trialdata": {"revealed_states": [], "num_clicks_accrued": [0, 0, 0, 0, 0, 0, 0, 0, 0, 0, 0, 0, 0], "stateRewards": ["", -10, -10, 10, -10, 10, -10, 10, -10, 10, -10, -10, -10], "withholdReward": false, "trial_id": "practice_2", "block": "test", "trialIndex": 1, "score": 9.75, "costs": -2.25, "simulationMode": [null, null, null], "rewards": [10, -10, 10], "path": ["0", "0", "5", "6", "7"], "rt": [14530, 92, 106], "actions": ["right", "right", "up"], "actionTimes": [16195, 16796, 17393], "queries": {"click": {"state": {"target": ["9", "10", "5", "6", "1", "2", "12", "11", "7"], "time": [5528, 6870, 8536, 9153, 10804, 11304, 13156, 13699, 14424]}, "edge": {"target": [], "time": []}}, "mouseover": {"state": {"target": ["9", "10", "9", "10", "5", "6", "1", "2", "12", "11", "0", "7", "8"], "time": [2305, 2937, 5347, 6570, 7821, 9020, 10554, 11204, 13037, 13620, 14087, 14287, 14962]}, "edge": {"target": [], "time": []}}, "mouseout": {"state": {"target": ["3", "2", "1", "0", "9", "10", "9", "10", "5", "6", "5", "1", "2", "2", "1", "9", "12", "10", "11", "10", "9", "0", "5", "7", "6", "8", "5"], "time": [1070, 1153, 1237, 1669, 2537, 5070, 6203, 7154, 8970, 9354, 10287, 11104, 11553, 11703, 12287, 12354, 13437, 13570, 13903, 13986, 14070, 14120, 14170, 14621, 14737, 18220, 18587]}, "edge": {"target": [], "time": []}}}, "displayed_time": "17.90", "trialTime": 19884, "trial_type": "mouselab-mdp", "trial_index": 5, "time_elapsed": 201598, "internal_node_id": "0.0-2.0-2.0-1.0"}}, {"uniqueid": "w39265423:a82667834", "current_trial": 6, "dateTime": 1664555309490, "trialdata": {"view_history": [{"page_index": 0, "viewing_time": 25987}, {"page_index": 1, "viewing_time": 14071}, {"page_index": 2, "viewing_time": 13654}], "rt": 53712, "trial_id": "mouselab_instructions_2_scarce", "trial_type": "instructions", "trial_index": 6, "time_elapsed": 255313, "internal_node_id": "0.0-2.0-3.0"}}, {"uniqueid": "w39265423:a82667834", "current_trial": 7, "dateTime": 1664555355395, "trialdata": {"rt": 45898, "response": {"Q0": "$-48 to $48", "Q1": "The cost is always $0.25.", "Q2": "The better I perform the higher my bonus will be.", "Q3": "No, the amount of cash at each node of the web may be different each time.", "Q4": "The values of the nodes walked through from start to finish.", "Q5": "No, the spider might forget to count the money on some rounds."}, "question_order": [0, 1, 2, 3, 4, 5], "correct": {"Q0": "$-48 to $48", "Q1": "The cost is always $0.25.", "Q2": "The better I perform the higher my bonus will be.", "Q3": "No, the amount of cash at each node of the web may be different each time.", "Q4": "The values of the nodes walked through from start to finish.", "Q5": "No, the spider might forget to count the money on some rounds."}, "trial_id": "mouselab_quiz_scarce", "trial_type": "survey-multi-choice", "trial_index": 7, "time_elapsed": 301217, "internal_node_id": "0.0-2.0-4.0"}}, {"uniqueid": "w39265423:a82667834", "current_trial": 8, "dateTime": 1664555366478, "trialdata": {"rt": 11073, "stimulus": "\n<h1> Get ready to start the game! </h1>\n\nThank you for reading the instructions. Get ready start with the first of 4 block(s) of this game.\n<br><br>\nIn this first block, you will complete 30 rounds of this game before moving on.\n<br><br>\nRemember, the more money the spider gets, the bigger your bonus will be!\n<br><br>\n<div style='text-align: center;'>Press <code>space</code> to begin.</div>\n\n<br><br>\n(If, at any point, the <code>space</code> key does not take you to the next page, click once on the text and try again.)", "response": " ", "trial_id": "mdp_ready_1", "trial_type": "html-keyboard-response", "trial_index": 8, "time_elapsed": 312299, "internal_node_id": "0.0-4.0-0.0"}}, {"uniqueid": "w39265423:a82667834", "current_trial": 9, "dateTime": 1664555385551, "trialdata": {"revealed_states": [], "num_clicks_accrued": [0, 0, 0, 0, 0, 0, 0, 0, 0, 0, 0, 0, 0], "stateRewards": ["", 2, 8, -24, -48, 2, 4, -24, 48, 2, -8, 48, -24], "withholdReward": true, "trial_id": "mdp_791659307216", "block": "test1", "trialIndex": 2, "score": 57, "costs": -2, "simulationMode": [null, null, null], "rewards": [2, 4, 48], "path": ["0", "0", "5", "6", "8"], "rt": [14305, 333, 183], "actions": ["right", "right", "down"], "actionTimes": [15478, 16310, 16993], "queries": {"click": {"state": {"target": ["10", "2", "1", "3", "4", "6", "7", "8"], "time": [2934, 4138, 5143, 6815, 7989, 11571, 12444, 13299]}, "edge": {"target": [], "time": []}}, "mouseover": {"state": {"target": ["9", "10", "9", "2", "1", "1", "3", "4", "5", "6", "7", "5", "8", "5"], "time": [2477, 2660, 3728, 3994, 4377, 4877, 6444, 7460, 9893, 10960, 12327, 12827, 13193, 14077]}, "edge": {"target": [], "time": []}}, "mouseout": {"state": {"target": ["0", "9", "10", "9", "2", "1", "1", "3", "2", "4", "1", "5", "6", "6", "7", "5", "8"], "time": [1745, 2576, 3327, 3761, 4312, 4496, 5443, 7260, 7377, 8261, 9610, 10843, 11776, 12261, 12610, 13111, 13527]}, "edge": {"target": [], "time": []}}}, "displayed_time": "17.49", "trialTime": 18982, "trial_type": "mouselab-mdp", "trial_index": 9, "time_elapsed": 331373, "internal_node_id": "0.0-4.0-1.0-0.0"}}, {"uniqueid": "w39265423:a82667834", "current_trial": 10, "dateTime": 1664555396474, "trialdata": {"revealed_states": [], "num_clicks_accrued": [0, 0, 0, 0, 0, 0, 0, 0, 0, 0, 0, 0, 0], "stateRewards": ["", 2, -8, 48, -24, 2, 8, 24, -24, 4, -4, -48, -48], "withholdReward": true, "trial_id": "mdp_130946197263", "block": "test1", "trialIndex": 3, "score": 45.75, "costs": -1.25, "simulationMode": [null, null, null], "rewards": [2, -8, 48], "path": ["0", "0", "1", "2", "3"], "rt": [6489, 92, 91], "actions": ["up", "up", "right"], "actionTimes": [7534, 8130, 8712], "queries": {"click": {"state": {"target": ["10", "6", "2", "3", "1"], "time": [2268, 4008, 4700, 5398, 6284]}, "edge": {"target": [], "time": []}}, "mouseover": {"state": {"target": ["10", "12", "9", "5", "6", "5", "2", "3", "1"], "time": [2021, 2704, 3455, 3688, 3821, 4237, 4504, 5271, 6188]}, "edge": {"target": [], "time": []}}, "mouseout": {"state": {"target": ["5", "5", "0", "10", "12", "9", "5", "6", "5", "2", "3", "1"], "time": [270, 771, 887, 2604, 3354, 3538, 3787, 4204, 4254, 5004, 5538, 6471]}, "edge": {"target": [], "time": []}}}, "displayed_time": "9.21", "trialTime": 10850, "trial_type": "mouselab-mdp", "trial_index": 10, "time_elapsed": 342297, "internal_node_id": "0.0-4.0-1.0-1.0"}}, {"uniqueid": "w39265423:a82667834", "current_trial": 11, "dateTime": 1664555405990, "trialdata": {"revealed_states": [], "num_clicks_accrued": [0, 0, 0, 0, 0, 0, 0, 0, 0, 0, 0, 0, 0], "stateRewards": ["", 2, -8, 48, -24, -4, -8, -24, 48, -2, 4, 24, -48], "withholdReward": true, "trial_id": "mdp_186932504904", "block": "test1", "trialIndex": 4, "score": 30.25, "costs": -0.75, "simulationMode": [null, null, null], "rewards": [-2, 4, 24], "path": ["0", "0", "9", "10", "11"], "rt": [4121, 30, 74], "actions": ["left", "left", "up"], "actionTimes": [5052, 5590, 6168], "queries": {"click": {"state": {"target": ["10", "11", "9"], "time": [1660, 2572, 3470]}, "edge": {"target": [], "time": []}}, "mouseover": {"state": {"target": ["10", "11", "9"], "time": [1559, 2426, 3409]}, "edge": {"target": [], "time": []}}, "mouseout": {"state": {"target": ["10", "11", "10", "9"], "time": [1959, 2726, 2992, 3709]}, "edge": {"target": [], "time": []}}}, "displayed_time": "8.93", "trialTime": 9421, "trial_type": "mouselab-mdp", "trial_index": 11, "time_elapsed": 351813, "internal_node_id": "0.0-4.0-1.0-2.0"}}, {"uniqueid": "w39265423:a82667834", "current_trial": 12, "dateTime": 1664555416621, "trialdata": {"revealed_states": [], "num_clicks_accrued": [0, 0, 0, 0, 0, 0, 0, 0, 0, 0, 0, 0, 0], "stateRewards": ["", 4, 4, -24, -48, -4, 4, -48, 24, 4, -8, -48, 48], "withholdReward": true, "trial_id": "mdp_566768794366", "block": "test1", "trialIndex": 5, "score": 46.75, "costs": -2.25, "simulationMode": [null, null, null], "rewards": [4, -8, 48], "path": ["0", "0", "9", "10", "12"], "rt": [6945, 63, 79], "actions": ["left", "left", "down"], "actionTimes": [7621, 8185, 8752], "queries": {"click": {"state": {"target": ["5", "6", "7", "2", "4", "3", "12", "10", "9"], "time": [1266, 1667, 2289, 3207, 4075, 4645, 5652, 6389, 6728]}, "edge": {"target": [], "time": []}}, "mouseover": {"state": {"target": ["5", "6", "7", "2", "1", "4", "3", "1", "10", "12", "10", "10", "9"], "time": [1072, 1538, 2156, 3106, 3539, 3923, 4522, 5138, 5395, 5588, 5955, 6272, 6622]}, "edge": {"target": [], "time": []}}, "mouseout": {"state": {"target": ["0", "5", "6", "7", "5", "2", "1", "4", "3", "1", "10", "12", "10", "10", "9"], "time": [1038, 1488, 2055, 2456, 2772, 3422, 3555, 4272, 4805, 5188, 5538, 5922, 6039, 6572, 6955]}, "edge": {"target": [], "time": []}}}, "displayed_time": "9.24", "trialTime": 10548, "trial_type": "mouselab-mdp", "trial_index": 12, "time_elapsed": 362444, "internal_node_id": "0.0-4.0-1.0-3.0"}}, {"uniqueid": "w39265423:a82667834", "current_trial": 13, "dateTime": 1664555426687, "trialdata": {"revealed_states": [], "num_clicks_accrued": [0, 0, 0, 0, 0, 0, 0, 0, 0, 0, 0, 0, 0], "stateRewards": ["", 2, 8, 24, -48, 4, 8, 24, 24, 4, -8, 48, 48], "withholdReward": true, "trial_id": "mdp_646103824875", "block": "test1", "trialIndex": 6, "score": 38.25, "costs": -0.75, "simulationMode": [null, null, null], "rewards": [2, 8, 24], "path": ["0", "0", "1", "2", "3"], "rt": [5483, 64, 76], "actions": ["up", "up", "right"], "actionTimes": [6760, 7339, 7902], "queries": {"click": {"state": {"target": ["2", "4", "3"], "time": [2029, 3398, 3918]}, "edge": {"target": [], "time": []}}, "mouseover": {"state": {"target": ["1", "2", "4", "1", "3", "1", "5"], "time": [1692, 1925, 3292, 3709, 3809, 4642, 5992]}, "edge": {"target": [], "time": []}}, "mouseout": {"state": {"target": ["0", "1", "2", "4", "1", "3", "1", "5"], "time": [1575, 1892, 2358, 3609, 3742, 4109, 5958, 9075]}, "edge": {"target": [], "time": []}}}, "displayed_time": "9.28", "trialTime": 9984, "trial_type": "mouselab-mdp", "trial_index": 13, "time_elapsed": 372510, "internal_node_id": "0.0-4.0-1.0-4.0"}}, {"uniqueid": "w39265423:a82667834", "current_trial": 14, "dateTime": 1664555438295, "trialdata": {"revealed_states": [], "num_clicks_accrued": [0, 0, 0, 0, 0, 0, 0, 0, 0, 0, 0, 0, 0], "stateRewards": ["", -2, 8, -48, 48, -4, -8, 24, 24, -2, -4, 48, -48], "withholdReward": false, "trial_id": "mdp_867247318592", "block": "test1", "trialIndex": 7, "score": 58, "costs": -1, "simulationMode": [null, null, null], "rewards": [-2, 8, 48], "path": ["0", "0", "1", "2", "4"], "rt": [3678, 76, 117], "actions": ["up", "up", "left"], "actionTimes": [5903, 6489, 7096], "queries": {"click": {"state": {"target": ["2", "3", "4", "1"], "time": [3204, 3781, 4369, 5058]}, "edge": {"target": [], "time": []}}, "mouseover": {"state": {"target": ["1", "2", "3", "4", "1"], "time": [2894, 3078, 3661, 4211, 4995]}, "edge": {"target": [], "time": []}}, "mouseout": {"state": {"target": ["5", "0", "1", "2", "3", "2", "4", "1"], "time": [1896, 2778, 3012, 3528, 3961, 4195, 4578, 5328]}, "edge": {"target": [], "time": []}}}, "displayed_time": "11.23", "trialTime": 11528, "trial_type": "mouselab-mdp", "trial_index": 14, "time_elapsed": 384118, "internal_node_id": "0.0-4.0-1.0-5.0"}}, {"uniqueid": "w39265423:a82667834", "current_trial": 15, "dateTime": 1664555450912, "trialdata": {"revealed_states": [], "num_clicks_accrued": [0, 0, 0, 0, 0, 0, 0, 0, 0, 0, 0, 0, 0], "stateRewards": ["", -2, -4, -24, -24, 4, 8, 24, 24, -2, 8, 48, 48], "withholdReward": false, "trial_id": "mdp_620787912291", "block": "test1", "trialIndex": 8, "score": 39.25, "costs": -1.75, "simulationMode": [null, null, null], "rewards": [4, 8, 24], "path": ["0", "0", "5", "6", "7"], "rt": [5505, 43, 16], "actions": ["right", "right", "up"], "actionTimes": [7591, 8149, 8671], "queries": {"click": {"state": {"target": ["1", "2", "4", "3", "6", "7", "5"], "time": [2729, 3247, 3649, 4449, 5668, 6499, 7241]}, "edge": {"target": [], "time": []}}, "mouseover": {"state": {"target": ["1", "2", "4", "3", "5", "6", "5", "7", "5"], "time": [2621, 3089, 3555, 4022, 4771, 5576, 6173, 6439, 7155]}, "edge": {"target": [], "time": []}}, "mouseout": {"state": {"target": ["0", "1", "2", "4", "3", "5", "6", "5", "7", "6", "5"], "time": [1471, 3039, 3438, 3871, 4589, 5155, 5922, 6305, 6690, 6805, 7472]}, "edge": {"target": [], "time": []}}}, "displayed_time": "11.09", "trialTime": 12538, "trial_type": "mouselab-mdp", "trial_index": 15, "time_elapsed": 396735, "internal_node_id": "0.0-4.0-1.0-6.0"}}, {"uniqueid": "w39265423:a82667834", "current_trial": 16, "dateTime": 1664555461404, "trialdata": {"revealed_states": [], "num_clicks_accrued": [0, 0, 0, 0, 0, 0, 0, 0, 0, 0, 0, 0, 0], "stateRewards": ["", 2, -8, -24, 48, 4, -8, -24, -24, 2, 8, -24, 24], "withholdReward": true, "trial_id": "mdp_480787552818", "block": "test1", "trialIndex": 9, "score": 38, "costs": -1, "simulationMode": [null, null, null], "rewards": [2, 8, 24], "path": ["0", "0", "9", "10", "12"], "rt": [2610, 19, 429], "actions": ["left", "left", "down"], "actionTimes": [3786, 4300, 5226], "queries": {"click": {"state": {"target": ["9", "10", "11", "12"], "time": [1615, 2263, 2581, 3092]}, "edge": {"target": [], "time": []}}, "mouseover": {"state": {"target": ["9", "10", "11", "12"], "time": [1480, 1947, 2513, 3014]}, "edge": {"target": [], "time": []}}, "mouseout": {"state": {"target": ["0", "9", "10", "11", "10", "12"], "time": [1414, 1864, 2480, 2797, 2963, 3463]}, "edge": {"target": [], "time": []}}}, "displayed_time": "9.18", "trialTime": 10405, "trial_type": "mouselab-mdp", "trial_index": 16, "time_elapsed": 407227, "internal_node_id": "0.0-4.0-1.0-7.0"}}, {"uniqueid": "w39265423:a82667834", "current_trial": 17, "dateTime": 1664555476207, "trialdata": {"revealed_states": [], "num_clicks_accrued": [0, 0, 0, 0, 0, 0, 0, 0, 0, 0, 0, 0, 0], "stateRewards": ["", -2, -8, 48, 24, 4, -8, 24, 48, 4, -4, 24, -48], "withholdReward": true, "trial_id": "mdp_871576155740", "block": "test1", "trialIndex": 10, "score": 47.75, "costs": -1.25, "simulationMode": [null, null, null], "rewards": [4, -8, 48], "path": ["0", "0", "5", "6", "8"], "rt": [5202, 32, 405], "actions": ["right", "right", "down"], "actionTimes": [5953, 6515, 7438], "queries": {"click": {"state": {"target": ["2", "10", "6", "8", "5"], "time": [1249, 2338, 2912, 4766, 5607]}, "edge": {"target": [], "time": []}}, "mouseover": {"state": {"target": ["1", "2", "1", "10", "9", "0", "5", "6", "8", "5"], "time": [1066, 1132, 1482, 2216, 2566, 2665, 2732, 2782, 4598, 5465]}, "edge": {"target": [], "time": []}}, "mouseout": {"state": {"target": ["9", "0", "1", "2", "1", "10", "9", "0", "5", "6", "8", "5"], "time": [465, 1033, 1098, 1449, 1782, 2515, 2632, 2715, 2765, 3098, 5115, 5849]}, "edge": {"target": [], "time": []}}}, "displayed_time": "9.75", "trialTime": 14743, "trial_type": "mouselab-mdp", "trial_index": 17, "time_elapsed": 422030, "internal_node_id": "0.0-4.0-1.0-8.0"}}, {"uniqueid": "w39265423:a82667834", "current_trial": 18, "dateTime": 1664555487537, "trialdata": {"revealed_states": [], "num_clicks_accrued": [0, 0, 0, 0, 0, 0, 0, 0, 0, 0, 0, 0, 0], "stateRewards": ["", -4, -8, -48, 48, -2, -8, -48, -24, 4, 8, 24, -48], "withholdReward": true, "trial_id": "mdp_509977295685", "block": "test1", "trialIndex": 11, "score": 39.5, "costs": -1.5, "simulationMode": [null, null, null], "rewards": [4, 8, 24], "path": ["0", "0", "9", "10", "11"], "rt": [3774, 1, 486], "actions": ["left", "left", "up"], "actionTimes": [5488, 6007, 7008], "queries": {"click": {"state": {"target": ["2", "10", "6", "12", "11", "9"], "time": [2296, 2893, 3449, 4045, 4434, 5182]}, "edge": {"target": [], "time": []}}, "mouseover": {"state": {"target": ["1", "2", "9", "10", "9", "0", "5", "6", "12", "11", "9"], "time": [2038, 2222, 2671, 2738, 3089, 3155, 3222, 3289, 3872, 4372, 5138]}, "edge": {"target": [], "time": []}}, "mouseout": {"state": {"target": ["0", "1", "2", "9", "10", "9", "0", "5", "6", "12", "10", "11", "10", "9"], "time": [1621, 2155, 2538, 2688, 3055, 3122, 3188, 3255, 3622, 4289, 4338, 4638, 4722, 7271]}, "edge": {"target": [], "time": []}}}, "displayed_time": "9.71", "trialTime": 11245, "trial_type": "mouselab-mdp", "trial_index": 18, "time_elapsed": 433359, "internal_node_id": "0.0-4.0-1.0-9.0"}}, {"uniqueid": "w39265423:a82667834", "current_trial": 19, "dateTime": 1664555497896, "trialdata": {"revealed_states": [], "num_clicks_accrued": [0, 0, 0, 0, 0, 0, 0, 0, 0, 0, 0, 0, 0], "stateRewards": ["", 2, 8, 48, 24, 2, 8, 48, 48, -2, -4, -24, -48], "withholdReward": true, "trial_id": "mdp_717636349175", "block": "test1", "trialIndex": 12, "score": 38.25, "costs": -0.75, "simulationMode": [null, null, null], "rewards": [2, 8, 24], "path": ["0", "0", "1", "2", "4"], "rt": [2038, 38, 24], "actions": ["up", "up", "left"], "actionTimes": [3556, 4102, 4637], "queries": {"click": {"state": {"target": ["2", "4", "1"], "time": [2061, 2646, 3244]}, "edge": {"target": [], "time": []}}, "mouseover": {"state": {"target": ["1", "2", "4", "1"], "time": [1864, 1980, 2580, 2930]}, "edge": {"target": [], "time": []}}, "mouseout": {"state": {"target": ["0", "1", "2", "4", "1"], "time": [1780, 1913, 2230, 2846, 3630]}, "edge": {"target": [], "time": []}}}, "displayed_time": "9.52", "trialTime": 10279, "trial_type": "mouselab-mdp", "trial_index": 19, "time_elapsed": 443718, "internal_node_id": "0.0-4.0-1.0-10.0"}}, {"uniqueid": "w39265423:a82667834", "current_trial": 20, "dateTime": 1664555508591, "trialdata": {"revealed_states": [], "num_clicks_accrued": [0, 0, 0, 0, 0, 0, 0, 0, 0, 0, 0, 0, 0], "stateRewards": ["", 4, -4, 48, -48, 4, -4, 24, -24, 4, 8, -24, -48], "withholdReward": true, "trial_id": "mdp_433630527224", "block": "test1", "trialIndex": 13, "score": 51, "costs": -2, "simulationMode": [null, null, null], "rewards": [4, -4, 48], "path": ["0", "0", "1", "2", "3"], "rt": [6537, 83, 82], "actions": ["up", "up", "right"], "actionTimes": [7746, 8357, 8957], "queries": {"click": {"state": {"target": ["10", "11", "12", "9", "2", "4", "3", "1"], "time": [1798, 2489, 2923, 3375, 4269, 4943, 6751, 7517]}, "edge": {"target": [], "time": []}}, "mouseover": {"state": {"target": ["0", "9", "10", "11", "12", "9", "1", "2", "4", "1", "3", "1"], "time": [1274, 1508, 1641, 2358, 2874, 3275, 4007, 4157, 4757, 5241, 5574, 7357]}, "edge": {"target": [], "time": []}}, "mouseout": {"state": {"target": ["0", "0", "9", "10", "11", "10", "12", "9", "1", "2", "4", "1", "3", "1"], "time": [1123, 1474, 1557, 2141, 2657, 2824, 3174, 3690, 4057, 4457, 5124, 5324, 6907, 9674]}, "edge": {"target": [], "time": []}}}, "displayed_time": "10.21", "trialTime": 10619, "trial_type": "mouselab-mdp", "trial_index": 20, "time_elapsed": 454414, "internal_node_id": "0.0-4.0-1.0-11.0"}}, {"uniqueid": "w39265423:a82667834", "current_trial": 21, "dateTime": 1664555518952, "trialdata": {"revealed_states": [], "num_clicks_accrued": [0, 0, 0, 0, 0, 0, 0, 0, 0, 0, 0, 0, 0], "stateRewards": ["", -2, -4, -24, -48, 2, -8, -24, -24, 4, -8, 48, 48], "withholdReward": true, "trial_id": "mdp_950599994674", "block": "test1", "trialIndex": 14, "score": 47.75, "costs": -1.25, "simulationMode": [null, null, null], "rewards": [4, -8, 48], "path": ["0", "0", "9", "10", "11"], "rt": [3848, 6, 68], "actions": ["left", "left", "up"], "actionTimes": [4634, 5157, 5735], "queries": {"click": {"state": {"target": ["6", "2", "10", "11", "9"], "time": [1268, 1879, 2470, 3420, 4396]}, "edge": {"target": [], "time": []}}, "mouseover": {"state": {"target": ["5", "6", "5", "1", "2", "1", "9", "10", "11", "9"], "time": [1050, 1184, 1533, 1667, 1784, 2117, 2217, 2367, 3350, 4067]}, "edge": {"target": [], "time": []}}, "mouseout": {"state": {"target": ["0", "0", "5", "6", "5", "1", "2", "1", "9", "10", "10", "11", "10", "9"], "time": [202, 1017, 1134, 1483, 1583, 1734, 2067, 2150, 2283, 2767, 3301, 3583, 3701, 4585]}, "edge": {"target": [], "time": []}}}, "displayed_time": "9.79", "trialTime": 10273, "trial_type": "mouselab-mdp", "trial_index": 21, "time_elapsed": 464775, "internal_node_id": "0.0-4.0-1.0-12.0"}}, {"uniqueid": "w39265423:a82667834", "current_trial": 22, "dateTime": 1664555528395, "trialdata": {"revealed_states": [], "num_clicks_accrued": [0, 0, 0, 0, 0, 0, 0, 0, 0, 0, 0, 0, 0], "stateRewards": ["", -4, -8, 48, 48, -4, 4, 48, -24, 4, 8, -24, -48], "withholdReward": true, "trial_id": "mdp_142906093415", "block": "test1", "trialIndex": 15, "score": 51.25, "costs": -1.75, "simulationMode": [null, null, null], "rewards": [-4, 4, 48], "path": ["0", "0", "5", "6", "7"], "rt": [6343, 32, 32], "actions": ["right", "right", "up"], "actionTimes": [6989, 7524, 8074], "queries": {"click": {"state": {"target": ["6", "2", "10", "11", "12", "7", "5"], "time": [1385, 2694, 3276, 3882, 4592, 6003, 6742]}, "edge": {"target": [], "time": []}}, "mouseover": {"state": {"target": ["5", "6", "6", "2", "1", "5", "2", "10", "11", "12", "5", "7", "5"], "time": [958, 1042, 1326, 1724, 1958, 2025, 2624, 3158, 3791, 4508, 5724, 5875, 6675]}, "edge": {"target": [], "time": []}}, "mouseout": {"state": {"target": ["0", "5", "6", "6", "2", "1", "5", "6", "2", "10", "11", "10", "12", "5", "7", "6", "6", "5"], "time": [925, 992, 1191, 1542, 1924, 1992, 2058, 2208, 2941, 3741, 4108, 4391, 4825, 5775, 6175, 6308, 6575, 7641]}, "edge": {"target": [], "time": []}}}, "displayed_time": "8.65", "trialTime": 9357, "trial_type": "mouselab-mdp", "trial_index": 22, "time_elapsed": 474218, "internal_node_id": "0.0-4.0-1.0-13.0"}}, {"uniqueid": "w39265423:a82667834", "current_trial": 23, "dateTime": 1664555538118, "trialdata": {"revealed_states": [], "num_clicks_accrued": [0, 0, 0, 0, 0, 0, 0, 0, 0, 0, 0, 0, 0], "stateRewards": ["", 2, -4, 24, 24, 2, 4, 24, 24, -4, 8, 24, 48], "withholdReward": true, "trial_id": "mdp_268430387178", "block": "test1", "trialIndex": 16, "score": 34.25, "costs": -0.75, "simulationMode": [null, null, null], "rewards": [2, 4, 24], "path": ["0", "0", "5", "6", "7"], "rt": [3914, 34, 71], "actions": ["right", "right", "up"], "actionTimes": [5064, 5604, 6191], "queries": {"click": {"state": {"target": ["5", "6", "7"], "time": [1824, 3048, 4268]}, "edge": {"target": [], "time": []}}, "mouseover": {"state": {"target": ["5", "6", "7", "6", "0", "9", "10", "9", "7", "8", "8"], "time": [1703, 2069, 2520, 2953, 3385, 3419, 3736, 3919, 4171, 4586, 4869]}, "edge": {"target": [], "time": []}}, "mouseout": {"state": {"target": ["5", "6", "7", "6", "5", "0", "9", "10", "9", "7", "6", "8", "8"], "time": [2036, 2419, 2886, 3336, 3369, 3402, 3453, 3902, 3952, 4502, 4569, 4603, 7019]}, "edge": {"target": [], "time": []}}}, "displayed_time": "9.15", "trialTime": 9641, "trial_type": "mouselab-mdp", "trial_index": 23, "time_elapsed": 483941, "internal_node_id": "0.0-4.0-1.0-14.0"}}, {"uniqueid": "w39265423:a82667834", "current_trial": 24, "dateTime": 1664555547808, "trialdata": {"revealed_states": [], "num_clicks_accrued": [0, 0, 0, 0, 0, 0, 0, 0, 0, 0, 0, 0, 0], "stateRewards": ["", -4, 8, -24, 48, 2, -8, 24, 48, 2, -8, -24, -48], "withholdReward": true, "trial_id": "mdp_493778446445", "block": "test1", "trialIndex": 17, "score": 56.25, "costs": -0.75, "simulationMode": [null, null, null], "rewards": [-4, 8, 48], "path": ["0", "0", "1", "2", "4"], "rt": [2104, 13, 14], "actions": ["up", "up", "left"], "actionTimes": [3402, 3925, 4442], "queries": {"click": {"state": {"target": ["2", "4", "1"], "time": [1692, 2450, 3130]}, "edge": {"target": [], "time": []}}, "mouseover": {"state": {"target": ["1", "2", "4", "1"], "time": [1427, 1644, 2360, 2995]}, "edge": {"target": [], "time": []}}, "mouseout": {"state": {"target": ["3", "1", "2", "4", "1"], "time": [861, 1544, 1894, 2661, 3995]}, "edge": {"target": [], "time": []}}}, "displayed_time": "9.30", "trialTime": 9606, "trial_type": "mouselab-mdp", "trial_index": 24, "time_elapsed": 493631, "internal_node_id": "0.0-4.0-1.0-15.0"}}, {"uniqueid": "w39265423:a82667834", "current_trial": 25, "dateTime": 1664555557840, "trialdata": {"revealed_states": [], "num_clicks_accrued": [0, 0, 0, 0, 0, 0, 0, 0, 0, 0, 0, 0, 0], "stateRewards": ["", -2, 8, 48, 48, 2, 4, -48, 24, -4, -8, 48, 24], "withholdReward": false, "trial_id": "mdp_572910394648", "block": "test1", "trialIndex": 18, "score": 58.25, "costs": -0.75, "simulationMode": [null, null, null], "rewards": [-2, 8, 48], "path": ["0", "0", "1", "2", "4"], "rt": [1720, 48, 138], "actions": ["up", "up", "left"], "actionTimes": [2430, 2986, 3627], "queries": {"click": {"state": {"target": ["2", "4", "1"], "time": [1119, 1594, 2211]}, "edge": {"target": [], "time": []}}, "mouseover": {"state": {"target": ["0", "1", "2", "4", "1"], "time": [716, 921, 1054, 1505, 2105]}, "edge": {"target": [], "time": []}}, "mouseout": {"state": {"target": ["0", "1", "2", "4", "1", "0"], "time": [837, 954, 1338, 1821, 2671, 7404]}, "edge": {"target": [], "time": []}}}, "displayed_time": "9.71", "trialTime": 9948, "trial_type": "mouselab-mdp", "trial_index": 25, "time_elapsed": 503663, "internal_node_id": "0.0-4.0-1.0-16.0"}}, {"uniqueid": "w39265423:a82667834", "current_trial": 26, "dateTime": 1664555571616, "trialdata": {"revealed_states": [], "num_clicks_accrued": [0, 0, 0, 0, 0, 0, 0, 0, 0, 0, 0, 0, 0], "stateRewards": ["", -4, 4, -24, -24, -4, -8, 24, 48, 4, -4, 24, 48], "withholdReward": false, "trial_id": "mdp_175395325183", "block": "test1", "trialIndex": 19, "score": 50.25, "costs": -2.75, "simulationMode": [null, null, null], "rewards": [4, -4, 48], "path": ["0", "0", "9", "10", "12"], "rt": [10174, 57, 30], "actions": ["left", "left", "down"], "actionTimes": [10801, 11372, 11928], "queries": {"click": {"state": {"target": ["2", "4", "3", "10", "11", "6", "7", "8", "5", "12", "9"], "time": [1229, 1643, 2158, 3148, 3395, 5087, 5445, 7038, 8004, 9891, 10323]}, "edge": {"target": [], "time": []}}, "mouseover": {"state": {"target": ["1", "2", "4", "3", "1", "10", "10", "11", "12", "0", "5", "6", "7", "8", "5", "9", "12", "9"], "time": [965, 1114, 1581, 2081, 2665, 2781, 3031, 3331, 4298, 4565, 4598, 4948, 5398, 5933, 7814, 9298, 9798, 10247]}, "edge": {"target": [], "time": []}}, "mouseout": {"state": {"target": ["1", "2", "4", "2", "3", "1", "10", "10", "11", "10", "12", "0", "5", "6", "7", "6", "8", "5", "10", "9", "12", "9"], "time": [1031, 1448, 1914, 2031, 2365, 2699, 2798, 3298, 3548, 3798, 4465, 4581, 4632, 5349, 5598, 5748, 7314, 8198, 8998, 9715, 10115, 10482]}, "edge": {"target": [], "time": []}}}, "displayed_time": "12.42", "trialTime": 13700, "trial_type": "mouselab-mdp", "trial_index": 26, "time_elapsed": 517438, "internal_node_id": "0.0-4.0-1.0-17.0"}}, {"uniqueid": "w39265423:a82667834", "current_trial": 27, "dateTime": 1664555584491, "trialdata": {"revealed_states": [], "num_clicks_accrued": [0, 0, 0, 0, 0, 0, 0, 0, 0, 0, 0, 0, 0], "stateRewards": ["", 2, -4, 48, 24, 2, 8, 24, 24, -2, 4, 24, 24], "withholdReward": true, "trial_id": "mdp_813974524300", "block": "test1", "trialIndex": 20, "score": 48.5, "costs": -2.5, "simulationMode": [null, null, null], "rewards": [2, -4, 48], "path": ["0", "0", "1", "2", "3"], "rt": [8461, 34, 27], "actions": ["up", "up", "right"], "actionTimes": [9259, 9815, 10358], "queries": {"click": {"state": {"target": ["2", "10", "6", "7", "8", "12", "11", "4", "3", "1"], "time": [1237, 2161, 2709, 3209, 4247, 5875, 6697, 7614, 8201, 8853]}, "edge": {"target": [], "time": []}}, "mouseover": {"state": {"target": ["1", "2", "10", "9", "5", "6", "7", "8", "5", "0", "9", "12", "11", "9", "4", "3", "1"], "time": [1080, 1163, 2080, 2330, 2447, 2563, 3146, 3646, 5230, 5363, 5514, 5780, 6348, 7097, 7563, 8097, 8747]}, "edge": {"target": [], "time": []}}, "mouseout": {"state": {"target": ["9", "0", "1", "2", "10", "9", "5", "6", "6", "7", "6", "8", "8", "5", "0", "9", "12", "10", "11", "10", "9", "4", "2", "3", "1"], "time": [530, 1030, 1113, 1446, 2313, 2364, 2480, 2947, 3130, 3414, 3564, 4463, 4830, 5330, 5463, 5596, 6114, 6280, 6897, 7030, 7264, 7930, 8030, 8381, 9080]}, "edge": {"target": [], "time": []}}}, "displayed_time": "10.86", "trialTime": 12807, "trial_type": "mouselab-mdp", "trial_index": 27, "time_elapsed": 530314, "internal_node_id": "0.0-4.0-1.0-18.0"}}, {"uniqueid": "w39265423:a82667834", "current_trial": 28, "dateTime": 1664555593742, "trialdata": {"revealed_states": [], "num_clicks_accrued": [0, 0, 0, 0, 0, 0, 0, 0, 0, 0, 0, 0, 0], "stateRewards": ["", -2, 4, 24, 48, 2, 4, -48, -48, 2, 8, 48, -48], "withholdReward": true, "trial_id": "mdp_409609775558", "block": "test1", "trialIndex": 21, "score": 54, "costs": -1, "simulationMode": [null, null, null], "rewards": [-2, 4, 48], "path": ["0", "0", "1", "2", "4"], "rt": [2779, 11, 349], "actions": ["up", "up", "left"], "actionTimes": [3721, 4250, 5105], "queries": {"click": {"state": {"target": ["2", "3", "4", "1"], "time": [1575, 1990, 2667, 3481]}, "edge": {"target": [], "time": []}}, "mouseover": {"state": {"target": ["1", "2", "3", "4", "1"], "time": [1255, 1321, 1822, 2638, 3355]}, "edge": {"target": [], "time": []}}, "mouseout": {"state": {"target": ["0", "1", "2", "3", "4", "1"], "time": [1238, 1288, 1755, 2171, 2855, 6828]}, "edge": {"target": [], "time": []}}}, "displayed_time": "8.94", "trialTime": 9167, "trial_type": "mouselab-mdp", "trial_index": 28, "time_elapsed": 539565, "internal_node_id": "0.0-4.0-1.0-19.0"}}, {"uniqueid": "w39265423:a82667834", "current_trial": 29, "dateTime": 1664555602869, "trialdata": {"revealed_states": [], "num_clicks_accrued": [0, 0, 0, 0, 0, 0, 0, 0, 0, 0, 0, 0, 0], "stateRewards": ["", 4, 4, 48, -48, -2, 4, 48, -48, -4, 4, -24, -24], "withholdReward": true, "trial_id": "mdp_753324812898", "block": "test1", "trialIndex": 22, "score": 59.25, "costs": -1.75, "simulationMode": [null, null, null], "rewards": [4, 4, 48], "path": ["0", "0", "1", "2", "3"], "rt": [5789, 24, 309], "actions": ["up", "up", "right"], "actionTimes": [6409, 6932, 7734], "queries": {"click": {"state": {"target": ["10", "11", "12", "4", "3", "2", "1"], "time": [1428, 2234, 2705, 3500, 4596, 5698, 6037]}, "edge": {"target": [], "time": []}}, "mouseover": {"state": {"target": ["0", "11", "10", "11", "12", "9", "4", "2", "3", "1", "2", "1"], "time": [627, 1075, 1391, 2208, 2624, 3024, 3308, 3707, 3982, 5524, 5608, 5941]}, "edge": {"target": [], "time": []}}, "mouseout": {"state": {"target": ["1", "0", "11", "10", "10", "11", "10", "12", "9", "4", "2", "3", "1", "2", "1"], "time": [391, 674, 1341, 1774, 2125, 2374, 2524, 2924, 3058, 3658, 3824, 4741, 5558, 5874, 6241]}, "edge": {"target": [], "time": []}}}, "displayed_time": "8.62", "trialTime": 9046, "trial_type": "mouselab-mdp", "trial_index": 29, "time_elapsed": 548692, "internal_node_id": "0.0-4.0-1.0-20.0"}}, {"uniqueid": "w39265423:a82667834", "current_trial": 30, "dateTime": 1664555612180, "trialdata": {"revealed_states": [], "num_clicks_accrued": [0, 0, 0, 0, 0, 0, 0, 0, 0, 0, 0, 0, 0], "stateRewards": ["", -4, -8, -48, -48, 4, -8, 48, 48, 2, 8, 48, 24], "withholdReward": false, "trial_id": "mdp_880437222492", "block": "test1", "trialIndex": 23, "score": 61.75, "costs": -1.25, "simulationMode": [null, null, null], "rewards": [2, 8, 48], "path": ["0", "0", "9", "10", "11"], "rt": [2924, 87, 99], "actions": ["left", "left", "up"], "actionTimes": [3761, 4340, 4935], "queries": {"click": {"state": {"target": ["3", "4", "11", "10", "9"], "time": [1269, 1829, 2360, 3154, 3440]}, "edge": {"target": [], "time": []}}, "mouseover": {"state": {"target": ["3", "1", "4", "11", "10", "9"], "time": [1136, 1586, 1736, 2219, 2552, 3369]}, "edge": {"target": [], "time": []}}, "mouseout": {"state": {"target": ["0", "3", "1", "4", "11", "10", "9", "9"], "time": [985, 1469, 1636, 2002, 2503, 3302, 3853, 5336]}, "edge": {"target": [], "time": []}}}, "displayed_time": "8.85", "trialTime": 9235, "trial_type": "mouselab-mdp", "trial_index": 30, "time_elapsed": 558002, "internal_node_id": "0.0-4.0-1.0-21.0"}}, {"uniqueid": "w39265423:a82667834", "current_trial": 31, "dateTime": 1664555621674, "trialdata": {"revealed_states": [], "num_clicks_accrued": [0, 0, 0, 0, 0, 0, 0, 0, 0, 0, 0, 0, 0], "stateRewards": ["", 4, -4, 48, 24, 2, 4, 24, -24, 2, 4, 24, 48], "withholdReward": true, "trial_id": "mdp_736351885282", "block": "test1", "trialIndex": 24, "score": 58, "costs": -1, "simulationMode": [null, null, null], "rewards": [2, 4, 48], "path": ["0", "0", "9", "10", "12"], "rt": [3554, 108, 457], "actions": ["left", "left", "down"], "actionTimes": [4712, 5309, 6274], "queries": {"click": {"state": {"target": ["11", "12", "9", "10"], "time": [1598, 2661, 3658, 3891]}, "edge": {"target": [], "time": []}}, "mouseover": {"state": {"target": ["9", "11", "10", "12", "9", "9", "10"], "time": [1367, 1450, 1883, 2334, 3334, 3550, 3817]}, "edge": {"target": [], "time": []}}, "mouseout": {"state": {"target": ["9", "9", "0", "9", "11", "10", "12", "9", "9", "10"], "time": [166, 867, 1317, 1400, 1817, 2200, 2867, 3367, 3767, 4167]}, "edge": {"target": [], "time": []}}}, "displayed_time": "9.16", "trialTime": 9411, "trial_type": "mouselab-mdp", "trial_index": 31, "time_elapsed": 567497, "internal_node_id": "0.0-4.0-1.0-22.0"}}, {"uniqueid": "w39265423:a82667834", "current_trial": 32, "dateTime": 1664555632742, "trialdata": {"revealed_states": [], "num_clicks_accrued": [0, 0, 0, 0, 0, 0, 0, 0, 0, 0, 0, 0, 0], "stateRewards": ["", -4, -4, 24, -48, 2, 4, -24, -48, -2, -8, -24, 24], "withholdReward": true, "trial_id": "mdp_565569130486", "block": "test1", "trialIndex": 25, "score": 18.5, "costs": -2.5, "simulationMode": [null, null, null], "rewards": [-4, -4, 24], "path": ["0", "0", "1", "2", "3"], "rt": [7718, 66, 49], "actions": ["up", "up", "right"], "actionTimes": [8409, 8990, 9556], "queries": {"click": {"state": {"target": ["12", "11", "4", "3", "7", "8", "10", "2", "1", "9"], "time": [1083, 1615, 2375, 2947, 3593, 3906, 5314, 6377, 6924, 7725]}, "edge": {"target": [], "time": []}}, "mouseover": {"state": {"target": ["12", "10", "11", "1", "2", "4", "2", "3", "7", "6", "8", "5", "1", "9", "10", "9", "1", "2", "1", "9", "9"], "time": [989, 1473, 1540, 2073, 2206, 2306, 2589, 2839, 3540, 3756, 3823, 4357, 4640, 4890, 5206, 5607, 5924, 6223, 6623, 7306, 7523]}, "edge": {"target": [], "time": []}}, "mouseout": {"state": {"target": ["12", "0", "12", "10", "11", "1", "2", "4", "2", "3", "7", "6", "8", "5", "1", "9", "10", "9", "1", "2", "1", "9", "9", "1"], "time": [472, 823, 1439, 1506, 1923, 2140, 2222, 2540, 2722, 3106, 3723, 3789, 4306, 4390, 4656, 5156, 5490, 5873, 5956, 6556, 7173, 7372, 8156, 8939]}, "edge": {"target": [], "time": []}}}, "displayed_time": "10.09", "trialTime": 11002, "trial_type": "mouselab-mdp", "trial_index": 32, "time_elapsed": 578565, "internal_node_id": "0.0-4.0-1.0-23.0"}}, {"uniqueid": "w39265423:a82667834", "current_trial": 33, "dateTime": 1664555643079, "trialdata": {"revealed_states": [], "num_clicks_accrued": [0, 0, 0, 0, 0, 0, 0, 0, 0, 0, 0, 0, 0], "stateRewards": ["", -2, -4, 48, 48, 2, 4, -48, 24, 4, -8, 24, -24], "withholdReward": false, "trial_id": "mdp_628613319495", "block": "test1", "trialIndex": 26, "score": 45.75, "costs": -1.25, "simulationMode": [null, null, null], "rewards": [-2, -4, 48], "path": ["0", "0", "1", "2", "4"], "rt": [3544, 59, 127], "actions": ["up", "up", "left"], "actionTimes": [4516, 5097, 5715], "queries": {"click": {"state": {"target": ["11", "12", "4", "2", "1"], "time": [1442, 1906, 2668, 3728, 3967]}, "edge": {"target": [], "time": []}}, "mouseover": {"state": {"target": ["0", "11", "10", "12", "1", "2", "4", "2", "2", "1", "2", "1"], "time": [983, 1371, 1671, 1888, 2321, 2388, 2571, 2855, 3171, 3421, 3655, 3921]}, "edge": {"target": [], "time": []}}, "mouseout": {"state": {"target": ["1", "0", "11", "10", "12", "1", "2", "4", "2", "2", "1", "2", "1", "1", "0", "0"], "time": [571, 1087, 1621, 1804, 2188, 2355, 2489, 2804, 2938, 3188, 3605, 3872, 4271, 6588, 6638, 8038]}, "edge": {"target": [], "time": []}}}, "displayed_time": "9.97", "trialTime": 10254, "trial_type": "mouselab-mdp", "trial_index": 33, "time_elapsed": 588902, "internal_node_id": "0.0-4.0-1.0-24.0"}}, {"uniqueid": "w39265423:a82667834", "current_trial": 34, "dateTime": 1664555654021, "trialdata": {"revealed_states": [], "num_clicks_accrued": [0, 0, 0, 0, 0, 0, 0, 0, 0, 0, 0, 0, 0], "stateRewards": ["", -4, -4, -24, 48, -4, -8, -24, 48, 2, 4, 48, 48], "withholdReward": true, "trial_id": "mdp_810954007398", "block": "test1", "trialIndex": 27, "score": 56.25, "costs": -2.75, "simulationMode": [null, null, null], "rewards": [2, 4, 48], "path": ["0", "0", "9", "10", "12"], "rt": [7471, 41, 399], "actions": ["left", "left", "down"], "actionTimes": [8282, 8851, 9776], "queries": {"click": {"state": {"target": ["4", "1", "2", "3", "7", "8", "5", "6", "12", "10", "9"], "time": [1410, 2111, 2311, 3562, 4288, 4809, 5654, 5919, 6653, 7306, 8019]}, "edge": {"target": [], "time": []}}, "mouseover": {"state": {"target": ["1", "4", "1", "2", "3", "7", "6", "8", "5", "6", "0", "9", "12", "10", "11", "10", "9"], "time": [1076, 1276, 1859, 2259, 3493, 4226, 4493, 4660, 5542, 5910, 6293, 6376, 6543, 6860, 7026, 7226, 7926]}, "edge": {"target": [], "time": []}}, "mouseout": {"state": {"target": ["1", "0", "1", "4", "1", "2", "1", "3", "7", "6", "8", "5", "6", "5", "0", "9", "12", "10", "11", "10", "10", "9"], "time": [459, 959, 1126, 1593, 2226, 2476, 2760, 3777, 4443, 4559, 4995, 5810, 6110, 6260, 6343, 6443, 6793, 6926, 7160, 7443, 7827, 10310]}, "edge": {"target": [], "time": []}}}, "displayed_time": "10.29", "trialTime": 10850, "trial_type": "mouselab-mdp", "trial_index": 34, "time_elapsed": 599843, "internal_node_id": "0.0-4.0-1.0-25.0"}}, {"uniqueid": "w39265423:a82667834", "current_trial": 35, "dateTime": 1664555664060, "trialdata": {"revealed_states": [], "num_clicks_accrued": [0, 0, 0, 0, 0, 0, 0, 0, 0, 0, 0, 0, 0], "stateRewards": ["", -2, 4, -48, -48, 4, 4, 48, -48, 2, 8, 24, 48], "withholdReward": false, "trial_id": "mdp_686771069745", "block": "test1", "trialIndex": 28, "score": 61.75, "costs": -1.25, "simulationMode": [null, null, null], "rewards": [2, 8, 48], "path": ["0", "0", "9", "10", "12"], "rt": [3621, 119, 49], "actions": ["left", "left", "down"], "actionTimes": [4341, 4950, 5514], "queries": {"click": {"state": {"target": ["4", "11", "12", "9", "10"], "time": [1140, 1795, 2842, 3679, 3952]}, "edge": {"target": [], "time": []}}, "mouseover": {"state": {"target": ["4", "11", "10", "12", "9", "10"], "time": [1048, 1715, 1998, 2114, 3498, 3881]}, "edge": {"target": [], "time": []}}, "mouseout": {"state": {"target": ["9", "4", "11", "10", "12", "9", "10"], "time": [531, 1365, 1965, 2048, 3048, 3815, 4148]}, "edge": {"target": [], "time": []}}}, "displayed_time": "9.72", "trialTime": 9944, "trial_type": "mouselab-mdp", "trial_index": 35, "time_elapsed": 609883, "internal_node_id": "0.0-4.0-1.0-26.0"}}, {"uniqueid": "w39265423:a82667834", "current_trial": 36, "dateTime": 1664555675636, "trialdata": {"revealed_states": [], "num_clicks_accrued": [0, 0, 0, 0, 0, 0, 0, 0, 0, 0, 0, 0, 0], "stateRewards": ["", -2, -4, -48, -48, 4, 8, 24, -48, 4, -8, 24, 24], "withholdReward": true, "trial_id": "mdp_749799219195", "block": "test1", "trialIndex": 29, "score": 38.5, "costs": -2.5, "simulationMode": [null, null, null], "rewards": [4, 8, 24], "path": ["0", "0", "5", "6", "7"], "rt": [6840, 3, 40], "actions": ["right", "right", "up"], "actionTimes": [7560, 8057, 8614], "queries": {"click": {"state": {"target": ["8", "7", "3", "4", "11", "12", "9", "10", "6", "5"], "time": [1262, 1991, 2559, 3003, 3488, 3899, 5079, 5299, 6733, 7073]}, "edge": {"target": [], "time": []}}, "mouseover": {"state": {"target": ["5", "6", "8", "6", "7", "7", "3", "4", "11", "10", "12", "9", "10", "5", "6", "5"], "time": [1003, 1070, 1203, 1570, 1637, 1870, 2470, 2937, 3370, 3671, 3753, 4770, 5237, 6337, 6603, 6937]}, "edge": {"target": [], "time": []}}, "mouseout": {"state": {"target": ["0", "5", "6", "8", "6", "7", "7", "3", "4", "11", "10", "12", "9", "10", "9", "5", "6", "5"], "time": [953, 1037, 1155, 1537, 1603, 1653, 2203, 2720, 3205, 3637, 3703, 4186, 5203, 5520, 6003, 6537, 6870, 7321]}, "edge": {"target": [], "time": []}}}, "displayed_time": "9.72", "trialTime": 11493, "trial_type": "mouselab-mdp", "trial_index": 36, "time_elapsed": 621459, "internal_node_id": "0.0-4.0-1.0-27.0"}}, {"uniqueid": "w39265423:a82667834", "current_trial": 37, "dateTime": 1664555686202, "trialdata": {"revealed_states": [], "num_clicks_accrued": [0, 0, 0, 0, 0, 0, 0, 0, 0, 0, 0, 0, 0], "stateRewards": ["", -2, 8, -24, 24, -4, -8, -24, 48, -2, -8, -48, 48], "withholdReward": true, "trial_id": "mdp_238332601315", "block": "test1", "trialIndex": 30, "score": 40.5, "costs": -2.5, "simulationMode": [null, null, null], "rewards": [-2, -8, 48], "path": ["0", "0", "9", "10", "12"], "rt": [5899, 430, 85], "actions": ["left", "left", "down"], "actionTimes": [6962, 7896, 8484], "queries": {"click": {"state": {"target": ["4", "3", "11", "12", "9", "10", "7", "8", "6", "5"], "time": [1472, 1987, 2464, 2766, 3699, 3889, 5059, 5466, 5850, 6065]}, "edge": {"target": [], "time": []}}, "mouseover": {"state": {"target": ["1", "4", "3", "1", "11", "10", "12", "0", "5", "9", "9", "10", "0", "5", "6", "7", "6", "8", "6", "5"], "time": [1248, 1414, 1931, 2214, 2381, 2664, 2714, 3048, 3164, 3398, 3581, 3848, 4232, 4331, 4636, 4981, 5264, 5415, 5765, 6014]}, "edge": {"target": [], "time": []}}, "mouseout": {"state": {"target": ["0", "1", "4", "3", "1", "11", "10", "12", "0", "5", "9", "9", "10", "9", "0", "5", "6", "7", "6", "8", "6", "5"], "time": [1164, 1281, 1715, 2165, 2248, 2648, 2697, 2981, 3081, 3264, 3448, 3814, 4097, 4198, 4281, 4514, 4932, 5214, 5348, 5714, 5965, 6298]}, "edge": {"target": [], "time": []}}}, "displayed_time": "10.06", "trialTime": 10469, "trial_type": "mouselab-mdp", "trial_index": 37, "time_elapsed": 632025, "internal_node_id": "0.0-4.0-1.0-28.0"}}, {"uniqueid": "w39265423:a82667834", "current_trial": 38, "dateTime": 1664555696646, "trialdata": {"revealed_states": [], "num_clicks_accrued": [0, 0, 0, 0, 0, 0, 0, 0, 0, 0, 0, 0, 0], "stateRewards": ["", -2, 8, 48, -24, 2, 4, -48, -24, -4, 8, -48, -48], "withholdReward": false, "trial_id": "mdp_539167561933", "block": "test1", "trialIndex": 31, "score": 57.25, "costs": -1.75, "simulationMode": [null, null, null], "rewards": [-2, 8, 48], "path": ["0", "0", "1", "2", "3"], "rt": [4663, 550, 103], "actions": ["up", "up", "right"], "actionTimes": [5799, 6845, 7464], "queries": {"click": {"state": {"target": ["4", "11", "8", "7", "3", "1", "2"], "time": [1579, 2183, 3022, 3460, 3949, 4741, 4958]}, "edge": {"target": [], "time": []}}, "mouseover": {"state": {"target": ["4", "11", "10", "12", "8", "7", "3", "1", "1", "1", "2", "9"], "time": [1528, 2043, 2344, 2477, 2927, 3361, 3894, 4211, 4460, 4660, 4894, 5294]}, "edge": {"target": [], "time": []}}, "mouseout": {"state": {"target": ["0", "4", "11", "10", "12", "8", "7", "3", "1", "1", "1", "2", "1", "9"], "time": [1043, 1810, 2310, 2395, 2727, 3244, 3677, 4161, 4294, 4543, 4860, 5127, 5210, 5410]}, "edge": {"target": [], "time": []}}}, "displayed_time": "10.14", "trialTime": 10360, "trial_type": "mouselab-mdp", "trial_index": 38, "time_elapsed": 642469, "internal_node_id": "0.0-4.0-1.0-29.0"}}, {"uniqueid": "w39265423:a82667834", "current_trial": 39, "dateTime": 1664555703860, "trialdata": {"rt": 7211, "stimulus": "<h1> End of block! </h1>\n\nYou have reached the end of the block 1/4. If you need a short break, feel free to take one now before moving on.\n\n<br><br>\nIn the next block, you will complete another 30 rounds of this game.\n\n<br><br>\n<div style='text-align: center;'>Press <code>space</code> to begin.</div>\n<br><br>\n<div style='text-align: center;'>(If the experiment doesn't continue, try clicking on the text and then pressing <code>space</code>.)</div>", "response": " ", "trial_id": "mdp_ready_2", "trial_type": "html-keyboard-response", "trial_index": 39, "time_elapsed": 649683, "internal_node_id": "0.0-4.0-2.0"}}, {"uniqueid": "w39265423:a82667834", "current_trial": 40, "dateTime": 1664555716279, "trialdata": {"revealed_states": [], "num_clicks_accrued": [0, 0, 0, 0, 0, 0, 0, 0, 0, 0, 0, 0, 0], "stateRewards": ["", 2, 8, -48, 24, -2, 4, 48, 48, -2, -8, 48, 24], "withholdReward": false, "trial_id": "mdp_157355418411", "block": "test2", "trialIndex": 32, "score": 52.75, "costs": -2.25, "simulationMode": [null, null, null], "rewards": [-2, 4, 48], "path": ["0", "0", "5", "6", "7"], "rt": [8371, 484, 25], "actions": ["right", "right", "up"], "actionTimes": [9135, 10146, 10687], "queries": {"click": {"state": {"target": ["4", "11", "10", "9", "7", "6", "5", "2", "3"], "time": [1182, 2064, 3062, 3365, 4227, 4818, 5019, 7268, 8362]}, "edge": {"target": [], "time": []}}, "mouseover": {"state": {"target": ["4", "11", "10", "12", "10", "9", "0", "5", "7", "6", "6", "5", "1", "2", "1", "1", "3", "1"], "time": [1095, 1995, 2278, 2621, 2995, 3312, 3845, 3878, 4112, 4428, 4712, 4978, 6845, 6961, 7445, 7861, 8278, 8788]}, "edge": {"target": [], "time": []}}, "mouseout": {"state": {"target": ["0", "4", "11", "10", "12", "10", "9", "0", "5", "7", "6", "6", "5", "5", "1", "2", "1", "1", "3", "1"], "time": [912, 1428, 2228, 2378, 2945, 3245, 3545, 3863, 3895, 4379, 4478, 4928, 5345, 6779, 6861, 7428, 7512, 7962, 8545, 9095]}, "edge": {"target": [], "time": []}}}, "displayed_time": "11.18", "trialTime": 12310, "trial_type": "mouselab-mdp", "trial_index": 40, "time_elapsed": 662102, "internal_node_id": "0.0-4.0-3.0-0.0"}}, {"uniqueid": "w39265423:a82667834", "current_trial": 41, "dateTime": 1664555725296, "trialdata": {"revealed_states": [], "num_clicks_accrued": [0, 0, 0, 0, 0, 0, 0, 0, 0, 0, 0, 0, 0], "stateRewards": ["", 2, 4, -48, 48, -4, 8, -48, -24, -4, -4, 48, 48], "withholdReward": false, "trial_id": "mdp_613582696541", "block": "test2", "trialIndex": 33, "score": 58.25, "costs": -0.75, "simulationMode": [null, null, null], "rewards": [2, 4, 48], "path": ["0", "0", "1", "2", "4"], "rt": [2213, 69, 34], "actions": ["up", "up", "left"], "actionTimes": [2847, 3426, 3962], "queries": {"click": {"state": {"target": ["4", "2", "1"], "time": [1387, 2221, 2459]}, "edge": {"target": [], "time": []}}, "mouseover": {"state": {"target": ["1", "2", "4", "2", "1"], "time": [973, 1057, 1174, 2140, 2391]}, "edge": {"target": [], "time": []}}, "mouseout": {"state": {"target": ["0", "1", "2", "4", "2"], "time": [890, 1040, 1123, 1640, 2374]}, "edge": {"target": [], "time": []}}}, "displayed_time": "8.64", "trialTime": 8923, "trial_type": "mouselab-mdp", "trial_index": 41, "time_elapsed": 671119, "internal_node_id": "0.0-4.0-3.0-1.0"}}, {"uniqueid": "w39265423:a82667834", "current_trial": 42, "dateTime": 1664555735534, "trialdata": {"revealed_states": [], "num_clicks_accrued": [0, 0, 0, 0, 0, 0, 0, 0, 0, 0, 0, 0, 0], "stateRewards": ["", -2, -8, 24, -48, -4, 8, -48, -24, 4, 8, -24, 24], "withholdReward": true, "trial_id": "mdp_940444641142", "block": "test2", "trialIndex": 34, "score": 38.75, "costs": -2.25, "simulationMode": [null, null, null], "rewards": [4, 8, 24], "path": ["0", "0", "9", "10", "12"], "rt": [6986, 20, 190], "actions": ["left", "left", "down"], "actionTimes": [7602, 8139, 8826], "queries": {"click": {"state": {"target": ["4", "3", "7", "8", "11", "12", "10", "9", "2"], "time": [1028, 1614, 2590, 2949, 3603, 4279, 5141, 5453, 6224]}, "edge": {"target": [], "time": []}}, "mouseover": {"state": {"target": ["4", "1", "3", "1", "7", "6", "8", "9", "11", "10", "12", "10", "9", "1", "2", "1"], "time": [953, 1352, 1535, 2168, 2519, 2752, 2902, 3335, 3552, 3802, 3919, 5052, 5319, 5835, 6019, 6502]}, "edge": {"target": [], "time": []}}, "mouseout": {"state": {"target": ["1", "0", "4", "1", "3", "1", "7", "6", "8", "9", "11", "10", "12", "10", "9", "1", "2", "1", "9", "9"], "time": [435, 802, 1203, 1418, 1768, 2268, 2720, 2819, 3235, 3385, 3752, 3853, 4752, 5302, 5786, 5902, 6436, 6785, 8518, 9203]}, "edge": {"target": [], "time": []}}}, "displayed_time": "9.62", "trialTime": 10156, "trial_type": "mouselab-mdp", "trial_index": 42, "time_elapsed": 681357, "internal_node_id": "0.0-4.0-3.0-2.0"}}, {"uniqueid": "w39265423:a82667834", "current_trial": 43, "dateTime": 1664555746106, "trialdata": {"revealed_states": [], "num_clicks_accrued": [0, 0, 0, 0, 0, 0, 0, 0, 0, 0, 0, 0, 0], "stateRewards": ["", -4, 8, 24, -24, -2, 4, -24, 48, -2, 8, -48, -24], "withholdReward": true, "trial_id": "mdp_799359103169", "block": "test2", "trialIndex": 35, "score": 53, "costs": -2, "simulationMode": [null, null, null], "rewards": [-2, 4, 48], "path": ["0", "0", "5", "6", "8"], "rt": [5247, 439, 72], "actions": ["right", "right", "down"], "actionTimes": [5879, 6831, 7397], "queries": {"click": {"state": {"target": ["12", "11", "4", "3", "7", "8", "5", "6"], "time": [1118, 1825, 2142, 2584, 3096, 3463, 4164, 4437]}, "edge": {"target": [], "time": []}}, "mouseover": {"state": {"target": ["9", "10", "12", "10", "11", "11", "4", "2", "3", "7", "6", "8", "5", "6", "0"], "time": [808, 941, 1074, 1358, 1424, 1741, 2075, 2374, 2491, 2974, 3308, 3375, 4042, 4375, 4909]}, "edge": {"target": [], "time": []}}, "mouseout": {"state": {"target": ["9", "0", "9", "10", "12", "10", "11", "11", "4", "2", "3", "7", "6", "8", "5", "6", "5", "0"], "time": [474, 558, 841, 1008, 1325, 1391, 1475, 2008, 2342, 2424, 2774, 3275, 3342, 3842, 4308, 4625, 4691, 4975]}, "edge": {"target": [], "time": []}}}, "displayed_time": "8.63", "trialTime": 10483, "trial_type": "mouselab-mdp", "trial_index": 43, "time_elapsed": 691929, "internal_node_id": "0.0-4.0-3.0-3.0"}}, {"uniqueid": "w39265423:a82667834", "current_trial": 44, "dateTime": 1664555762961, "trialdata": {"revealed_states": [], "num_clicks_accrued": [0, 0, 0, 0, 0, 0, 0, 0, 0, 0, 0, 0, 0], "stateRewards": ["", 2, 4, 48, 24, -4, 8, 48, 48, 2, -4, -48, -24], "withholdReward": true, "trial_id": "mdp_822099887466", "block": "test2", "trialIndex": 36, "score": 55, "costs": -2, "simulationMode": [null, null, null], "rewards": [-4, 8, 48], "path": ["0", "0", "5", "6", "8"], "rt": [9840, 66, 120], "actions": ["right", "right", "down"], "actionTimes": [10709, 11274, 11910], "queries": {"click": {"state": {"target": ["4", "3", "2", "1", "10", "6", "8", "5"], "time": [1406, 1894, 2675, 2937, 5536, 6473, 7412, 8332]}, "edge": {"target": [], "time": []}}, "mouseover": {"state": {"target": ["1", "2", "4", "2", "3", "2", "1", "11", "10", "11", "10", "9", "0", "5", "6", "8", "5"], "time": [1124, 1206, 1373, 1690, 1757, 2607, 2857, 3491, 4207, 5073, 5490, 6091, 6124, 6158, 6224, 7373, 8223]}, "edge": {"target": [], "time": []}}, "mouseout": {"state": {"target": ["0", "1", "2", "4", "2", "3", "2", "1", "11", "10", "11", "10", "9", "0", "5", "6", "6", "8", "6"], "time": [790, 1174, 1290, 1623, 1740, 2091, 2823, 3373, 3882, 4840, 5423, 6040, 6107, 6157, 6191, 7041, 7340, 7657, 7890]}, "edge": {"target": [], "time": []}}}, "displayed_time": "12.41", "trialTime": 16770, "trial_type": "mouselab-mdp", "trial_index": 44, "time_elapsed": 708783, "internal_node_id": "0.0-4.0-3.0-4.0"}}, {"uniqueid": "w39265423:a82667834", "current_trial": 45, "dateTime": 1664555776733, "trialdata": {"revealed_states": [], "num_clicks_accrued": [0, 0, 0, 0, 0, 0, 0, 0, 0, 0, 0, 0, 0], "stateRewards": ["", 4, 8, -48, 24, -2, 8, -48, -48, -4, 4, 48, -48], "withholdReward": true, "trial_id": "mdp_693807815190", "block": "test2", "trialIndex": 37, "score": 51, "costs": -2, "simulationMode": [null, null, null], "rewards": [-4, 4, 48], "path": ["0", "0", "9", "10", "11"], "rt": [8427, 82, 55], "actions": ["left", "left", "up"], "actionTimes": [11416, 12030, 12602], "queries": {"click": {"state": {"target": ["4", "3", "11", "10", "9", "7", "8", "12"], "time": [3872, 4323, 4873, 5592, 5885, 7097, 7701, 9447]}, "edge": {"target": [], "time": []}}, "mouseover": {"state": {"target": ["1", "4", "2", "3", "1", "11", "10", "12", "10", "9", "0", "5", "6", "7", "6", "8", "6", "5", "0", "12"], "time": [3348, 3463, 4114, 4180, 4597, 4697, 5063, 5130, 5513, 5814, 6464, 6530, 6630, 6914, 7347, 7631, 7930, 8597, 8713, 8847]}, "edge": {"target": [], "time": []}}, "mouseout": {"state": {"target": ["5", "8", "8", "8", "0", "1", "4", "2", "3", "1", "11", "10", "12", "10", "9", "0", "5", "6", "7", "6", "8", "6", "5", "0", "12"], "time": [863, 1230, 1930, 2130, 2746, 3397, 4081, 4147, 4563, 4630, 5030, 5096, 5430, 5763, 6131, 6497, 6581, 6763, 7280, 7547, 7864, 8514, 8697, 8730, 13430]}, "edge": {"target": [], "time": []}}}, "displayed_time": "13.11", "trialTime": 13682, "trial_type": "mouselab-mdp", "trial_index": 45, "time_elapsed": 722555, "internal_node_id": "0.0-4.0-3.0-5.0"}}, {"uniqueid": "w39265423:a82667834", "current_trial": 46, "dateTime": 1664555788986, "trialdata": {"revealed_states": [], "num_clicks_accrued": [0, 0, 0, 0, 0, 0, 0, 0, 0, 0, 0, 0, 0], "stateRewards": ["", -4, 8, 24, -24, 4, 8, -24, -48, 2, 4, 24, -24], "withholdReward": true, "trial_id": "mdp_782187007008", "block": "test2", "trialIndex": 38, "score": 32.5, "costs": -2.5, "simulationMode": [null, null, null], "rewards": [2, 4, 24], "path": ["0", "0", "9", "10", "11"], "rt": [8802, 15, 44], "actions": ["left", "left", "up"], "actionTimes": [9595, 10103, 10667], "queries": {"click": {"state": {"target": ["11", "12", "4", "3", "7", "8", "9", "2", "1", "10"], "time": [1296, 1756, 2251, 2613, 3139, 3472, 5007, 6023, 6791, 7818]}, "edge": {"target": [], "time": []}}, "mouseover": {"state": {"target": ["11", "10", "12", "9", "4", "2", "3", "7", "6", "8", "0", "9", "10", "1", "2", "1", "10"], "time": [1238, 1620, 1754, 2070, 2170, 2488, 2603, 3087, 3354, 3437, 4687, 4937, 5321, 5754, 5937, 6703, 7438]}, "edge": {"target": [], "time": []}}, "mouseout": {"state": {"target": ["0", "11", "10", "12", "9", "4", "2", "3", "7", "6", "8", "0", "9", "10", "9", "1", "2", "9", "1", "9", "10", "9"], "time": [920, 1570, 1687, 2037, 2087, 2437, 2537, 2903, 3337, 3403, 3787, 4871, 5221, 5603, 5687, 5870, 6187, 6603, 7154, 7320, 8037, 11512]}, "edge": {"target": [], "time": []}}}, "displayed_time": "11.15", "trialTime": 12176, "trial_type": "mouselab-mdp", "trial_index": 46, "time_elapsed": 734809, "internal_node_id": "0.0-4.0-3.0-6.0"}}, {"uniqueid": "w39265423:a82667834", "current_trial": 47, "dateTime": 1664555800425, "trialdata": {"revealed_states": [], "num_clicks_accrued": [0, 0, 0, 0, 0, 0, 0, 0, 0, 0, 0, 0, 0], "stateRewards": ["", 4, 8, 48, -48, -4, 8, -24, -24, -4, 8, 48, 48], "withholdReward": true, "trial_id": "mdp_377640328420", "block": "test2", "trialIndex": 39, "score": 64, "costs": -1, "simulationMode": [null, null, null], "rewards": [4, 8, 48], "path": ["0", "0", "1", "2", "3"], "rt": [2890, 25, 94], "actions": ["up", "up", "right"], "actionTimes": [5727, 6284, 6871], "queries": {"click": {"state": {"target": ["4", "3", "2", "1"], "time": [3338, 3878, 4855, 5144]}, "edge": {"target": [], "time": []}}, "mouseover": {"state": {"target": ["4", "3", "1", "1", "2", "1"], "time": [3143, 3776, 4093, 4476, 4793, 5059]}, "edge": {"target": [], "time": []}}, "mouseout": {"state": {"target": ["4", "3", "1", "1", "2", "1", "0"], "time": [3626, 4060, 4126, 4543, 4993, 5393, 7693]}, "edge": {"target": [], "time": []}}}, "displayed_time": "10.84", "trialTime": 11353, "trial_type": "mouselab-mdp", "trial_index": 47, "time_elapsed": 746248, "internal_node_id": "0.0-4.0-3.0-7.0"}}, {"uniqueid": "w39265423:a82667834", "current_trial": 48, "dateTime": 1664555810113, "trialdata": {"revealed_states": [], "num_clicks_accrued": [0, 0, 0, 0, 0, 0, 0, 0, 0, 0, 0, 0, 0], "stateRewards": ["", -2, -8, 48, 24, 2, 8, -48, 24, -4, 8, 48, 48], "withholdReward": false, "trial_id": "mdp_875436109858", "block": "test2", "trialIndex": 40, "score": 54.75, "costs": -2.25, "simulationMode": [null, null, null], "rewards": [-4, 8, 48], "path": ["0", "0", "9", "10", "12"], "rt": [6175, 13, 24], "actions": ["left", "left", "down"], "actionTimes": [6792, 7330, 7859], "queries": {"click": {"state": {"target": ["12", "10", "9", "8", "7", "4", "3", "2", "1"], "time": [1013, 1717, 1992, 3197, 3931, 4807, 5389, 5977, 6245]}, "edge": {"target": [], "time": []}}, "mouseover": {"state": {"target": ["9", "12", "10", "11", "10", "9", "0", "5", "8", "6", "7", "5", "3", "2", "4", "2", "3", "2", "1"], "time": [850, 1011, 1283, 1400, 1617, 1883, 2650, 2767, 3116, 3800, 3867, 4250, 4416, 4567, 4733, 5050, 5350, 5901, 6183]}, "edge": {"target": [], "time": []}}, "mouseout": {"state": {"target": ["0", "9", "12", "10", "11", "10", "9", "9", "0", "5", "8", "6", "7", "5", "3", "2", "4", "2", "3", "2", "1", "9"], "time": [783, 901, 1249, 1333, 1550, 1816, 2234, 2600, 2717, 2834, 3467, 3833, 4116, 4283, 4434, 4650, 5000, 5133, 5567, 6151, 6516, 6683]}, "edge": {"target": [], "time": []}}}, "displayed_time": "8.62", "trialTime": 9615, "trial_type": "mouselab-mdp", "trial_index": 48, "time_elapsed": 755936, "internal_node_id": "0.0-4.0-3.0-8.0"}}, {"uniqueid": "w39265423:a82667834", "current_trial": 49, "dateTime": 1664555820411, "trialdata": {"revealed_states": [], "num_clicks_accrued": [0, 0, 0, 0, 0, 0, 0, 0, 0, 0, 0, 0, 0], "stateRewards": ["", 2, 8, 48, 24, -4, 4, -48, 24, 2, 8, 48, 48], "withholdReward": true, "trial_id": "mdp_367344599162", "block": "test2", "trialIndex": 41, "score": 62, "costs": -1, "simulationMode": [null, null, null], "rewards": [2, 8, 48], "path": ["0", "0", "1", "2", "3"], "rt": [2715, 40, 46], "actions": ["up", "up", "right"], "actionTimes": [3640, 4185, 4723], "queries": {"click": {"state": {"target": ["4", "3", "2", "1"], "time": [1480, 2119, 2937, 3265]}, "edge": {"target": [], "time": []}}, "mouseover": {"state": {"target": ["1", "4", "3", "1", "1", "2", "1"], "time": [1244, 1393, 1993, 2344, 2793, 2860, 3193]}, "edge": {"target": [], "time": []}}, "mouseout": {"state": {"target": ["9", "1", "4", "3", "1", "1", "2", "1", "0"], "time": [460, 1293, 1760, 2277, 2410, 2811, 3160, 5644, 5727]}, "edge": {"target": [], "time": []}}}, "displayed_time": "9.93", "trialTime": 10190, "trial_type": "mouselab-mdp", "trial_index": 49, "time_elapsed": 766234, "internal_node_id": "0.0-4.0-3.0-9.0"}}, {"uniqueid": "w39265423:a82667834", "current_trial": 50, "dateTime": 1664555829827, "trialdata": {"revealed_states": [], "num_clicks_accrued": [0, 0, 0, 0, 0, 0, 0, 0, 0, 0, 0, 0, 0], "stateRewards": ["", 2, -8, 24, -48, 2, 4, 48, -48, -2, -8, -48, 48], "withholdReward": false, "trial_id": "mdp_629420544881", "block": "test2", "trialIndex": 42, "score": 56.75, "costs": -2.25, "simulationMode": [null, null, null], "rewards": [2, 4, 48], "path": ["0", "0", "5", "6", "7"], "rt": [5472, 131, 165], "actions": ["right", "right", "up"], "actionTimes": [6093, 6740, 7393], "queries": {"click": {"state": {"target": ["4", "3", "11", "12", "10", "9", "6", "5", "7"], "time": [1132, 1773, 2327, 2650, 3538, 3758, 4482, 4975, 5379]}, "edge": {"target": [], "time": []}}, "mouseover": {"state": {"target": ["4", "2", "3", "1", "11", "10", "12", "5", "0", "9", "10", "9", "0", "5", "6", "6", "5", "7"], "time": [1059, 1425, 1575, 2009, 2258, 2526, 2642, 3025, 3276, 3326, 3475, 3692, 4026, 4060, 4142, 4391, 4659, 5242]}, "edge": {"target": [], "time": []}}, "mouseout": {"state": {"target": ["0", "4", "2", "3", "1", "11", "10", "12", "5", "0", "9", "10", "9", "0", "5", "6", "6", "5", "7", "6", "6"], "time": [793, 1376, 1491, 1942, 2042, 2493, 2576, 2892, 3259, 3309, 3359, 3636, 3992, 4059, 4109, 4159, 4626, 5159, 5559, 5692, 8425]}, "edge": {"target": [], "time": []}}}, "displayed_time": "8.62", "trialTime": 9321, "trial_type": "mouselab-mdp", "trial_index": 50, "time_elapsed": 775649, "internal_node_id": "0.0-4.0-3.0-10.0"}}, {"uniqueid": "w39265423:a82667834", "current_trial": 51, "dateTime": 1664555841689, "trialdata": {"revealed_states": [], "num_clicks_accrued": [0, 0, 0, 0, 0, 0, 0, 0, 0, 0, 0, 0, 0], "stateRewards": ["", -4, 8, -24, -24, 4, -8, 48, -24, -4, -8, -24, -48], "withholdReward": true, "trial_id": "mdp_391766721791", "block": "test2", "trialIndex": 43, "score": 46.25, "costs": -2.75, "simulationMode": [null, null, null], "rewards": [4, -8, 48], "path": ["0", "0", "5", "6", "7"], "rt": [8557, 47, 78], "actions": ["right", "right", "up"], "actionTimes": [9169, 9704, 10285], "queries": {"click": {"state": {"target": ["4", "8", "7", "5", "6", "10", "11", "12", "3", "2", "1"], "time": [1016, 1937, 2392, 3408, 3678, 4564, 6061, 6431, 7426, 7712, 8125]}, "edge": {"target": [], "time": []}}, "mouseover": {"state": {"target": ["4", "2", "3", "6", "8", "6", "7", "0", "5", "6", "0", "9", "10", "9", "11", "12", "1", "3", "2", "1", "9", "0"], "time": [974, 1389, 1456, 1756, 1873, 2173, 2240, 2740, 3206, 3623, 4089, 4191, 4423, 5059, 5858, 6424, 6906, 7206, 7656, 8023, 8607, 8940]}, "edge": {"target": [], "time": []}}, "mouseout": {"state": {"target": ["0", "4", "2", "3", "6", "8", "6", "7", "0", "5", "6", "5", "0", "9", "10", "9", "11", "10", "12", "10", "1", "3", "2", "1", "9", "0", "5", "6", "8"], "time": [439, 1373, 1423, 1640, 1840, 2140, 2207, 2573, 2823, 3573, 3856, 4023, 4140, 4256, 4840, 5723, 6223, 6340, 6606, 6689, 6923, 7590, 7957, 8456, 8640, 8957, 9007, 9056, 11223]}, "edge": {"target": [], "time": []}}}, "displayed_time": "10.77", "trialTime": 11765, "trial_type": "mouselab-mdp", "trial_index": 51, "time_elapsed": 787512, "internal_node_id": "0.0-4.0-3.0-11.0"}}, {"uniqueid": "w39265423:a82667834", "current_trial": 52, "dateTime": 1664555853784, "trialdata": {"revealed_states": [], "num_clicks_accrued": [0, 0, 0, 0, 0, 0, 0, 0, 0, 0, 0, 0, 0], "stateRewards": ["", -4, 8, -24, 48, 2, -8, 24, 48, 2, -8, -24, -48], "withholdReward": true, "trial_id": "mdp_493778446445", "block": "test2", "trialIndex": 44, "score": 54.75, "costs": -2.25, "simulationMode": [null, null, null], "rewards": [-4, 8, 48], "path": ["0", "0", "1", "2", "4"], "rt": [9367, 31, 65], "actions": ["up", "up", "left"], "actionTimes": [9989, 10535, 11103], "queries": {"click": {"state": {"target": ["4", "2", "1", "7", "8", "5", "6", "12", "11"], "time": [1096, 1826, 2097, 3400, 4114, 4952, 5292, 8226, 8649]}, "edge": {"target": [], "time": []}}, "mouseover": {"state": {"target": ["1", "4", "1", "1", "2", "1", "3", "7", "8", "5", "6", "12", "10", "11", "10"], "time": [937, 1005, 1520, 1653, 1787, 2054, 2670, 3320, 3987, 4696, 5204, 8170, 8503, 8637, 8887]}, "edge": {"target": [], "time": []}}, "mouseout": {"state": {"target": ["0", "1", "4", "1", "1", "2", "1", "1", "3", "7", "8", "5", "6", "12", "10", "11", "10", "1"], "time": [836, 954, 1287, 1587, 1687, 1988, 2354, 2553, 2803, 3587, 4287, 5170, 5503, 8471, 8587, 8820, 9070, 9654]}, "edge": {"target": [], "time": []}}}, "displayed_time": "11.60", "trialTime": 12007, "trial_type": "mouselab-mdp", "trial_index": 52, "time_elapsed": 799607, "internal_node_id": "0.0-4.0-3.0-12.0"}}, {"uniqueid": "w39265423:a82667834", "current_trial": 53, "dateTime": 1664555863868, "trialdata": {"revealed_states": [], "num_clicks_accrued": [0, 0, 0, 0, 0, 0, 0, 0, 0, 0, 0, 0, 0], "stateRewards": ["", -2, 8, -48, 48, -4, 8, -24, 24, 4, -4, 24, -48], "withholdReward": true, "trial_id": "mdp_904238083902", "block": "test2", "trialIndex": 45, "score": 57.5, "costs": -1.5, "simulationMode": [null, null, null], "rewards": [-2, 8, 48], "path": ["0", "0", "1", "2", "4"], "rt": [6418, 15, 63], "actions": ["up", "up", "left"], "actionTimes": [6970, 7493, 8073], "queries": {"click": {"state": {"target": ["4", "2", "1", "10", "6", "5"], "time": [930, 1662, 1970, 3809, 4785, 5707]}, "edge": {"target": [], "time": []}}, "mouseover": {"state": {"target": ["4", "2", "2", "1", "3", "10", "10", "9", "0", "5", "6", "5", "8"], "time": [860, 1276, 1545, 1893, 2509, 3276, 3692, 4243, 4359, 4409, 4443, 5243, 6110]}, "edge": {"target": [], "time": []}}, "mouseout": {"state": {"target": ["1", "4", "2", "2", "1", "3", "1", "10", "10", "9", "0", "5", "6", "5", "8", "5"], "time": [360, 1209, 1476, 1810, 2426, 2709, 2943, 3610, 4126, 4343, 4393, 4427, 5109, 5910, 6310, 6410]}, "edge": {"target": [], "time": []}}}, "displayed_time": "9.55", "trialTime": 9996, "trial_type": "mouselab-mdp", "trial_index": 53, "time_elapsed": 809691, "internal_node_id": "0.0-4.0-3.0-13.0"}}, {"uniqueid": "w39265423:a82667834", "current_trial": 54, "dateTime": 1664555873807, "trialdata": {"revealed_states": [], "num_clicks_accrued": [0, 0, 0, 0, 0, 0, 0, 0, 0, 0, 0, 0, 0], "stateRewards": ["", 2, -8, -24, -48, -2, -4, 48, 48, 4, 8, 48, 48], "withholdReward": true, "trial_id": "mdp_347285045422", "block": "test2", "trialIndex": 46, "score": 63, "costs": -2, "simulationMode": [null, null, null], "rewards": [4, 8, 48], "path": ["0", "0", "9", "10", "11"], "rt": [4921, 45, 22], "actions": ["left", "left", "up"], "actionTimes": [5590, 6138, 6665], "queries": {"click": {"state": {"target": ["4", "3", "7", "6", "5", "10", "9", "11"], "time": [1145, 1648, 2111, 2785, 3155, 4115, 4406, 4845]}, "edge": {"target": [], "time": []}}, "mouseover": {"state": {"target": ["1", "4", "2", "3", "7", "6", "8", "6", "5", "10", "9", "11"], "time": [1009, 1059, 1425, 1526, 2009, 2292, 2359, 2710, 3042, 4026, 4325, 4759]}, "edge": {"target": [], "time": []}}, "mouseout": {"state": {"target": ["1", "4", "2", "3", "7", "6", "8", "6", "5", "10", "9", "10", "11", "10"], "time": [1026, 1375, 1493, 1842, 2276, 2342, 2625, 2959, 3426, 4276, 4592, 4725, 5025, 5198]}, "edge": {"target": [], "time": []}}}, "displayed_time": "9.67", "trialTime": 9852, "trial_type": "mouselab-mdp", "trial_index": 54, "time_elapsed": 819630, "internal_node_id": "0.0-4.0-3.0-14.0"}}, {"uniqueid": "w39265423:a82667834", "current_trial": 55, "dateTime": 1664555886388, "trialdata": {"revealed_states": [], "num_clicks_accrued": [0, 0, 0, 0, 0, 0, 0, 0, 0, 0, 0, 0, 0], "stateRewards": ["", 2, 4, -48, 24, -4, -4, -24, 24, 2, -4, 24, -24], "withholdReward": true, "trial_id": "mdp_163600331068", "block": "test2", "trialIndex": 47, "score": 32.5, "costs": -2.5, "simulationMode": [null, null, null], "rewards": [2, 4, 24], "path": ["0", "0", "1", "2", "4"], "rt": [9203, 57, 90], "actions": ["up", "up", "left"], "actionTimes": [10075, 10623, 11238], "queries": {"click": {"state": {"target": ["4", "11", "12", "7", "8", "3", "2", "1", "10", "6"], "time": [1344, 2021, 2473, 3054, 3469, 4003, 5291, 6258, 7823, 9443]}, "edge": {"target": [], "time": []}}, "mouseover": {"state": {"target": ["4", "11", "10", "12", "5", "7", "6", "8", "3", "2", "1", "9", "10", "9", "5", "6", "5"], "time": [1265, 1965, 2299, 2449, 2882, 2949, 3282, 3399, 3899, 5232, 5649, 7465, 7732, 8082, 9265, 9349, 9699]}, "edge": {"target": [], "time": []}}, "mouseout": {"state": {"target": ["9", "9", "0", "4", "11", "10", "12", "5", "7", "6", "8", "3", "2", "1", "1", "9", "10", "9", "5", "6", "5"], "time": [215, 515, 965, 1599, 2199, 2332, 2699, 2899, 3232, 3349, 3648, 4216, 5465, 6498, 6683, 7649, 8032, 8333, 9316, 9665, 9749]}, "edge": {"target": [], "time": []}}}, "displayed_time": "11.73", "trialTime": 12456, "trial_type": "mouselab-mdp", "trial_index": 55, "time_elapsed": 832211, "internal_node_id": "0.0-4.0-3.0-15.0"}}, {"uniqueid": "w39265423:a82667834", "current_trial": 56, "dateTime": 1664555897871, "trialdata": {"revealed_states": [], "num_clicks_accrued": [0, 0, 0, 0, 0, 0, 0, 0, 0, 0, 0, 0, 0], "stateRewards": ["", -4, 4, -48, -48, -4, 8, -24, 24, 2, -4, 48, 48], "withholdReward": true, "trial_id": "mdp_821566905048", "block": "test2", "trialIndex": 48, "score": 48.75, "costs": -2.25, "simulationMode": [null, null, null], "rewards": [2, -4, 48], "path": ["0", "0", "9", "10", "12"], "rt": [6798, 447, 63], "actions": ["left", "left", "down"], "actionTimes": [7727, 8689, 9239], "queries": {"click": {"state": {"target": ["4", "3", "11", "12", "10", "9", "6", "7", "8"], "time": [1378, 1828, 2533, 3026, 3524, 3871, 5195, 5631, 6147]}, "edge": {"target": [], "time": []}}, "mouseover": {"state": {"target": ["4", "2", "3", "1", "11", "10", "12", "10", "9", "0", "5", "7", "6", "7", "8", "5", "0"], "time": [1359, 1625, 1775, 2125, 2442, 2759, 2842, 3459, 3792, 4192, 4275, 4392, 5125, 5576, 6058, 6608, 6892]}, "edge": {"target": [], "time": []}}, "mouseout": {"state": {"target": ["5", "0", "4", "2", "3", "1", "11", "10", "12", "10", "9", "0", "5", "7", "6", "7", "6", "8", "5", "0"], "time": [626, 1042, 1592, 1642, 2076, 2159, 2709, 2792, 3375, 3725, 4159, 4242, 4325, 5092, 5526, 5793, 5992, 6409, 6859, 6909]}, "edge": {"target": [], "time": []}}}, "displayed_time": "9.93", "trialTime": 11399, "trial_type": "mouselab-mdp", "trial_index": 56, "time_elapsed": 843694, "internal_node_id": "0.0-4.0-3.0-16.0"}}, {"uniqueid": "w39265423:a82667834", "current_trial": 57, "dateTime": 1664555913457, "trialdata": {"revealed_states": [], "num_clicks_accrued": [0, 0, 0, 0, 0, 0, 0, 0, 0, 0, 0, 0, 0], "stateRewards": ["", -2, 8, 24, -48, -4, -8, -24, -48, -4, 8, -24, 48], "withholdReward": true, "trial_id": "mdp_464339499860", "block": "test2", "trialIndex": 49, "score": 32.5, "costs": -2.5, "simulationMode": [null, null, null], "rewards": [-2, 8, 24], "path": ["0", "0", "1", "2", "3"], "rt": [9125, 1409, 145], "actions": ["up", "up", "right"], "actionTimes": [11165, 13086, 13739], "queries": {"click": {"state": {"target": ["4", "11", "12", "10", "9", "7", "8", "2", "1", "3"], "time": [3011, 3756, 4269, 5364, 5770, 6794, 7220, 8765, 9272, 9740]}, "edge": {"target": [], "time": []}}, "mouseover": {"state": {"target": ["0", "4", "11", "10", "12", "9", "10", "9", "5", "6", "7", "6", "8", "6", "3", "2", "1", "3"], "time": [2444, 2844, 3478, 3927, 4010, 4911, 5261, 5745, 6311, 6444, 6694, 6978, 7177, 7516, 8294, 8678, 9177, 9544]}, "edge": {"target": [], "time": []}}, "mouseout": {"state": {"target": ["0", "0", "4", "11", "10", "12", "9", "10", "9", "5", "6", "7", "6", "8", "6", "3", "2", "1", "3"], "time": [1844, 2611, 3211, 3910, 3978, 4444, 5227, 5561, 6044, 6360, 6560, 6946, 7077, 7444, 7844, 8610, 9044, 9478, 9927]}, "edge": {"target": [], "time": []}}}, "displayed_time": "14.23", "trialTime": 15486, "trial_type": "mouselab-mdp", "trial_index": 57, "time_elapsed": 859279, "internal_node_id": "0.0-4.0-3.0-17.0"}}, {"uniqueid": "w39265423:a82667834", "current_trial": 58, "dateTime": 1664555923569, "trialdata": {"revealed_states": [], "num_clicks_accrued": [0, 0, 0, 0, 0, 0, 0, 0, 0, 0, 0, 0, 0], "stateRewards": ["", -2, -8, 48, 24, 4, -8, 24, 48, 4, -4, 24, -48], "withholdReward": false, "trial_id": "mdp_871576155740", "block": "test2", "trialIndex": 50, "score": 46.5, "costs": -2.5, "simulationMode": [null, null, null], "rewards": [4, -8, 48], "path": ["0", "0", "5", "6", "8"], "rt": [6326, 64, 87], "actions": ["right", "right", "down"], "actionTimes": [7074, 7671, 8262], "queries": {"click": {"state": {"target": ["4", "11", "12", "7", "8", "5", "6", "3", "2", "1"], "time": [1285, 1874, 2752, 3194, 3601, 4411, 4728, 5828, 6299, 6581]}, "edge": {"target": [], "time": []}}, "mouseover": {"state": {"target": ["4", "11", "10", "12", "0", "5", "7", "6", "8", "5", "6", "3", "1", "2", "1"], "time": [1275, 1775, 2174, 2612, 3008, 3025, 3091, 3408, 3474, 4357, 4658, 5774, 6157, 6240, 6507]}, "edge": {"target": [], "time": []}}, "mouseout": {"state": {"target": ["5", "0", "4", "11", "10", "12", "0", "5", "7", "6", "8", "5", "6", "5", "3", "1", "2", "1"], "time": [391, 691, 1541, 2125, 2241, 2924, 3024, 3041, 3374, 3440, 3941, 4625, 4991, 5324, 6008, 6190, 6440, 6824]}, "edge": {"target": [], "time": []}}}, "displayed_time": "9.75", "trialTime": 10029, "trial_type": "mouselab-mdp", "trial_index": 58, "time_elapsed": 869392, "internal_node_id": "0.0-4.0-3.0-18.0"}}, {"uniqueid": "w39265423:a82667834", "current_trial": 59, "dateTime": 1664555933691, "trialdata": {"revealed_states": [], "num_clicks_accrued": [0, 0, 0, 0, 0, 0, 0, 0, 0, 0, 0, 0, 0], "stateRewards": ["", 2, 4, 48, -48, 2, 4, 24, -24, 2, -4, -24, -48], "withholdReward": true, "trial_id": "mdp_706591889062", "block": "test2", "trialIndex": 51, "score": 57, "costs": -2, "simulationMode": [null, null, null], "rewards": [2, 4, 48], "path": ["0", "0", "1", "2", "3"], "rt": [4722, 53, 48], "actions": ["up", "up", "right"], "actionTimes": [5582, 6123, 6686], "queries": {"click": {"state": {"target": ["4", "11", "12", "7", "8", "3", "2", "1"], "time": [1476, 1953, 2620, 3099, 3389, 3935, 5055, 5358]}, "edge": {"target": [], "time": []}}, "mouseover": {"state": {"target": ["4", "11", "10", "12", "5", "7", "6", "8", "3", "2", "1", "2", "1"], "time": [1387, 1836, 2153, 2279, 2886, 2986, 3286, 3336, 3870, 4570, 4603, 5003, 5270]}, "edge": {"target": [], "time": []}}, "mouseout": {"state": {"target": ["4", "11", "10", "12", "5", "7", "6", "8", "3", "2", "1", "2", "1"], "time": [1770, 2103, 2203, 2787, 2903, 3253, 3320, 3670, 4253, 4586, 4953, 5220, 5536]}, "edge": {"target": [], "time": []}}}, "displayed_time": "9.86", "trialTime": 10029, "trial_type": "mouselab-mdp", "trial_index": 59, "time_elapsed": 879514, "internal_node_id": "0.0-4.0-3.0-19.0"}}, {"uniqueid": "w39265423:a82667834", "current_trial": 60, "dateTime": 1664555942878, "trialdata": {"revealed_states": [], "num_clicks_accrued": [0, 0, 0, 0, 0, 0, 0, 0, 0, 0, 0, 0, 0], "stateRewards": ["", 2, 4, 48, -48, 2, 8, -24, 48, 4, 8, 48, -48], "withholdReward": true, "trial_id": "mdp_110142964375", "block": "test2", "trialIndex": 52, "score": 58.25, "costs": -0.75, "simulationMode": [null, null, null], "rewards": [2, 4, 48], "path": ["0", "0", "1", "2", "3"], "rt": [2065, 489, 97], "actions": ["up", "up", "right"], "actionTimes": [2660, 3662, 4270], "queries": {"click": {"state": {"target": ["3", "1", "2"], "time": [1014, 1729, 1953]}, "edge": {"target": [], "time": []}}, "mouseover": {"state": {"target": ["1", "3", "1", "2"], "time": [822, 905, 1538, 1873]}, "edge": {"target": [], "time": []}}, "mouseout": {"state": {"target": ["0", "1", "3", "1", "2", "1", "1", "1"], "time": [756, 856, 1289, 1840, 2139, 3500, 5790, 8477]}, "edge": {"target": [], "time": []}}}, "displayed_time": "8.60", "trialTime": 9102, "trial_type": "mouselab-mdp", "trial_index": 60, "time_elapsed": 888701, "internal_node_id": "0.0-4.0-3.0-20.0"}}, {"uniqueid": "w39265423:a82667834", "current_trial": 61, "dateTime": 1664555958991, "trialdata": {"revealed_states": [], "num_clicks_accrued": [0, 0, 0, 0, 0, 0, 0, 0, 0, 0, 0, 0, 0], "stateRewards": ["", -2, -4, -48, 48, -2, -4, 24, 48, -4, -8, -24, 24], "withholdReward": true, "trial_id": "mdp_917590390609", "block": "test2", "trialIndex": 53, "score": 44.75, "costs": -2.25, "simulationMode": [null, null, null], "rewards": [-2, -4, 48], "path": ["0", "0", "5", "6", "8"], "rt": [9490, 85, 53], "actions": ["right", "right", "down"], "actionTimes": [12787, 13379, 13946], "queries": {"click": {"state": {"target": ["4", "2", "1", "11", "12", "6", "7", "8", "5"], "time": [3729, 4723, 4976, 5751, 6220, 7595, 8021, 8424, 9086]}, "edge": {"target": [], "time": []}}, "mouseover": {"state": {"target": ["4", "2", "1", "11", "10", "12", "9", "0", "5", "6", "7", "8", "5"], "time": [3693, 4426, 4909, 5693, 5993, 6143, 7093, 7160, 7193, 7243, 7943, 8343, 9010]}, "edge": {"target": [], "time": []}}, "mouseout": {"state": {"target": ["1", "0", "4", "2", "1", "11", "10", "12", "9", "0", "5", "6", "7", "6", "8", "5", "5", "1"], "time": [1276, 3476, 4177, 4876, 5476, 5926, 6076, 6493, 7143, 7176, 7226, 7843, 8193, 8293, 8710, 9309, 9526, 11743]}, "edge": {"target": [], "time": []}}}, "displayed_time": "14.44", "trialTime": 16019, "trial_type": "mouselab-mdp", "trial_index": 61, "time_elapsed": 904814, "internal_node_id": "0.0-4.0-3.0-21.0"}}, {"uniqueid": "w39265423:a82667834", "current_trial": 62, "dateTime": 1664555972224, "trialdata": {"revealed_states": [], "num_clicks_accrued": [0, 0, 0, 0, 0, 0, 0, 0, 0, 0, 0, 0, 0], "stateRewards": ["", 4, -4, 24, 48, 4, 8, -24, -24, -2, 4, 48, 48], "withholdReward": true, "trial_id": "mdp_624998450453", "block": "test2", "trialIndex": 54, "score": 53, "costs": -2, "simulationMode": [null, null, null], "rewards": [-2, 4, 48], "path": ["0", "0", "9", "10", "11"], "rt": [8800, 437, 87], "actions": ["left", "left", "up"], "actionTimes": [9598, 10554, 11155], "queries": {"click": {"state": {"target": ["4", "2", "1", "7", "8", "10", "11", "9"], "time": [1239, 2237, 2517, 3525, 4082, 5234, 5770, 6794]}, "edge": {"target": [], "time": []}}, "mouseover": {"state": {"target": ["4", "2", "2", "1", "6", "7", "6", "8", "5", "0", "9", "10", "11", "9"], "time": [1200, 1950, 2182, 2466, 3249, 3466, 3798, 4065, 4682, 4782, 4832, 4932, 5498, 6483]}, "edge": {"target": [], "time": []}}, "mouseout": {"state": {"target": ["0", "1", "4", "2", "2", "1", "6", "7", "6", "8", "5", "0", "9", "10", "11", "10", "9"], "time": [49, 615, 1566, 2082, 2399, 2732, 3415, 3715, 3932, 4332, 4765, 4798, 4866, 5433, 5949, 6332, 7316]}, "edge": {"target": [], "time": []}}}, "displayed_time": "11.67", "trialTime": 13142, "trial_type": "mouselab-mdp", "trial_index": 62, "time_elapsed": 918047, "internal_node_id": "0.0-4.0-3.0-22.0"}}, {"uniqueid": "w39265423:a82667834", "current_trial": 63, "dateTime": 1664556002539, "trialdata": {"revealed_states": [], "num_clicks_accrued": [0, 0, 0, 0, 0, 0, 0, 0, 0, 0, 0, 0, 0], "stateRewards": ["", 2, -8, 24, -24, -2, 8, -48, -48, 2, -8, -24, -48], "withholdReward": true, "trial_id": "mdp_744278669205", "block": "test2", "trialIndex": 55, "score": 21.5, "costs": -1.5, "simulationMode": [null, null, null], "rewards": [2, -8, 24], "path": ["0", "0", "1", "2", "3"], "rt": [5903, 19, 89], "actions": ["up", "up", "right"], "actionTimes": [27752, 28285, 28888], "queries": {"click": {"state": {"target": ["4", "3", "7", "8", "11", "12"], "time": [22786, 23481, 24122, 24591, 25334, 25649]}, "edge": {"target": [], "time": []}}, "mouseover": {"state": {"target": ["1", "2", "4", "4", "2", "3", "7", "6", "8", "10", "11", "10", "12", "9", "1"], "time": [22332, 22365, 22499, 22698, 23198, 23432, 23965, 24365, 24465, 24965, 25265, 25532, 25615, 26065, 26415]}, "edge": {"target": [], "time": []}}, "mouseout": {"state": {"target": ["0", "0", "1", "2", "4", "4", "2", "3", "7", "6", "8", "10", "11", "10", "12", "9"], "time": [848, 22181, 22348, 22399, 22515, 23132, 23299, 23732, 24331, 24432, 24815, 25016, 25498, 25565, 25981, 26099]}, "edge": {"target": [], "time": []}}}, "displayed_time": "29.85", "trialTime": 30223, "trial_type": "mouselab-mdp", "trial_index": 63, "time_elapsed": 948362, "internal_node_id": "0.0-4.0-3.0-23.0"}}, {"uniqueid": "w39265423:a82667834", "current_trial": 64, "dateTime": 1664556012757, "trialdata": {"revealed_states": [], "num_clicks_accrued": [0, 0, 0, 0, 0, 0, 0, 0, 0, 0, 0, 0, 0], "stateRewards": ["", 2, -4, -24, 24, 2, 8, 48, 48, 2, -8, 48, -24], "withholdReward": true, "trial_id": "mdp_330392242530", "block": "test2", "trialIndex": 56, "score": 61, "costs": -2, "simulationMode": [null, null, null], "rewards": [2, 8, 48], "path": ["0", "0", "5", "6", "7"], "rt": [6221, 18, 56], "actions": ["right", "right", "up"], "actionTimes": [7017, 7541, 8112], "queries": {"click": {"state": {"target": ["4", "3", "11", "10", "9", "6", "7", "5"], "time": [1191, 1836, 2446, 3162, 3573, 4516, 5268, 5891]}, "edge": {"target": [], "time": []}}, "mouseover": {"state": {"target": ["1", "4", "3", "11", "10", "12", "10", "9", "5", "6", "7", "6", "5", "7", "5"], "time": [955, 1089, 1739, 2373, 2622, 2772, 3156, 3522, 3939, 4006, 4122, 4406, 4889, 5190, 5806]}, "edge": {"target": [], "time": []}}, "mouseout": {"state": {"target": ["1", "1", "4", "3", "11", "10", "12", "10", "9", "5", "6", "7", "6", "5", "7", "6", "5"], "time": [456, 989, 1373, 2006, 2589, 2672, 2939, 3456, 3806, 3972, 4039, 4305, 4806, 5141, 5440, 5589, 6106]}, "edge": {"target": [], "time": []}}}, "displayed_time": "8.80", "trialTime": 10114, "trial_type": "mouselab-mdp", "trial_index": 64, "time_elapsed": 958580, "internal_node_id": "0.0-4.0-3.0-24.0"}}, {"uniqueid": "w39265423:a82667834", "current_trial": 65, "dateTime": 1664556022833, "trialdata": {"revealed_states": [], "num_clicks_accrued": [0, 0, 0, 0, 0, 0, 0, 0, 0, 0, 0, 0, 0], "stateRewards": ["", -2, 8, -48, 48, -4, -8, 24, 24, -2, -4, 48, -48], "withholdReward": false, "trial_id": "mdp_867247318592", "block": "test2", "trialIndex": 57, "score": 57.75, "costs": -1.25, "simulationMode": [null, null, null], "rewards": [-2, 8, 48], "path": ["0", "0", "1", "2", "4"], "rt": [3791, 71, 82], "actions": ["up", "up", "left"], "actionTimes": [4543, 5121, 5697], "queries": {"click": {"state": {"target": ["4", "2", "1", "6", "10"], "time": [1146, 1788, 2139, 3426, 3926]}, "edge": {"target": [], "time": []}}, "mouseover": {"state": {"target": ["4", "2", "1", "6", "5", "0", "9", "10"], "time": [1099, 1749, 2065, 3365, 3582, 3615, 3666, 3765]}, "edge": {"target": [], "time": []}}, "mouseout": {"state": {"target": ["0", "4", "2", "1", "6", "5", "0", "9", "10"], "time": [865, 1365, 1948, 2649, 3548, 3598, 3649, 3699, 4215]}, "edge": {"target": [], "time": []}}}, "displayed_time": "9.75", "trialTime": 9967, "trial_type": "mouselab-mdp", "trial_index": 65, "time_elapsed": 968656, "internal_node_id": "0.0-4.0-3.0-25.0"}}, {"uniqueid": "w39265423:a82667834", "current_trial": 66, "dateTime": 1664556033616, "trialdata": {"revealed_states": [], "num_clicks_accrued": [0, 0, 0, 0, 0, 0, 0, 0, 0, 0, 0, 0, 0], "stateRewards": ["", -2, -4, -48, -48, 4, 8, 24, -48, 4, -8, 24, 24], "withholdReward": false, "trial_id": "mdp_749799219195", "block": "test2", "trialIndex": 58, "score": 38.5, "costs": -2.5, "simulationMode": [null, null, null], "rewards": [4, 8, 24], "path": ["0", "0", "5", "6", "7"], "rt": [6945, 426, 82], "actions": ["right", "right", "up"], "actionTimes": [7583, 8499, 9072], "queries": {"click": {"state": {"target": ["4", "3", "11", "12", "7", "8", "10", "9", "6", "5"], "time": [1424, 1934, 2516, 2991, 3674, 4422, 5516, 6028, 6556, 7216]}, "edge": {"target": [], "time": []}}, "mouseover": {"state": {"target": ["4", "2", "3", "1", "11", "10", "12", "5", "7", "6", "8", "9", "10", "9", "0", "5", "6", "5"], "time": [1323, 1772, 1822, 2189, 2305, 2739, 2822, 3422, 3589, 3872, 4339, 5272, 5489, 5789, 6222, 6289, 6406, 6872]}, "edge": {"target": [], "time": []}}, "mouseout": {"state": {"target": ["0", "4", "2", "3", "1", "11", "10", "12", "5", "7", "6", "8", "9", "10", "9", "0", "5", "6", "5"], "time": [772, 1722, 1805, 2155, 2222, 2723, 2789, 3272, 3472, 3823, 3955, 4739, 5340, 5656, 6189, 6272, 6356, 6722, 7405]}, "edge": {"target": [], "time": []}}}, "displayed_time": "9.64", "trialTime": 10657, "trial_type": "mouselab-mdp", "trial_index": 66, "time_elapsed": 979439, "internal_node_id": "0.0-4.0-3.0-26.0"}}, {"uniqueid": "w39265423:a82667834", "current_trial": 67, "dateTime": 1664556043540, "trialdata": {"revealed_states": [], "num_clicks_accrued": [0, 0, 0, 0, 0, 0, 0, 0, 0, 0, 0, 0, 0], "stateRewards": ["", 2, 8, -48, 48, -4, -8, 24, 24, -2, -8, 24, -24], "withholdReward": false, "trial_id": "mdp_910248289075", "block": "test2", "trialIndex": 59, "score": 62.25, "costs": -0.75, "simulationMode": [null, null, null], "rewards": [2, 8, 48], "path": ["0", "0", "1", "2", "4"], "rt": [1965, 95, 93], "actions": ["up", "up", "left"], "actionTimes": [2551, 3139, 3721], "queries": {"click": {"state": {"target": ["4", "2", "1"], "time": [1024, 1767, 2117]}, "edge": {"target": [], "time": []}}, "mouseover": {"state": {"target": ["4", "2", "1"], "time": [944, 1710, 2027]}, "edge": {"target": [], "time": []}}, "mouseout": {"state": {"target": ["0", "4", "2", "1", "0"], "time": [727, 1243, 1977, 4161, 4294]}, "edge": {"target": [], "time": []}}}, "displayed_time": "9.59", "trialTime": 9819, "trial_type": "mouselab-mdp", "trial_index": 67, "time_elapsed": 989363, "internal_node_id": "0.0-4.0-3.0-27.0"}}, {"uniqueid": "w39265423:a82667834", "current_trial": 68, "dateTime": 1664556053006, "trialdata": {"revealed_states": [], "num_clicks_accrued": [0, 0, 0, 0, 0, 0, 0, 0, 0, 0, 0, 0, 0], "stateRewards": ["", -4, -8, 48, -24, 4, -8, 48, 48, -2, 4, -48, -24], "withholdReward": true, "trial_id": "mdp_925905402462", "block": "test2", "trialIndex": 60, "score": 46.5, "costs": -2.5, "simulationMode": [null, null, null], "rewards": [4, -8, 48], "path": ["0", "0", "5", "6", "7"], "rt": [5895, 68, 96], "actions": ["right", "right", "up"], "actionTimes": [6476, 7049, 7642], "queries": {"click": {"state": {"target": ["4", "3", "2", "1", "11", "12", "7", "8", "5", "6"], "time": [1214, 1716, 2557, 2908, 3443, 3898, 4732, 5038, 5573, 5853]}, "edge": {"target": [], "time": []}}, "mouseover": {"state": {"target": ["4", "2", "3", "1", "2", "1", "11", "10", "12", "0", "5", "7", "7", "6", "8", "5", "6"], "time": [1162, 1529, 1645, 1962, 2495, 2879, 3412, 3697, 3863, 4179, 4228, 4312, 4678, 4912, 4989, 5495, 5761]}, "edge": {"target": [], "time": []}}, "mouseout": {"state": {"target": ["0", "4", "2", "3", "1", "2", "1", "11", "10", "12", "0", "5", "7", "7", "6", "8", "5", "6"], "time": [695, 1479, 1579, 1929, 1996, 2829, 3112, 3662, 3796, 4096, 4212, 4262, 4328, 4895, 4945, 5263, 5712, 6112]}, "edge": {"target": [], "time": []}}}, "displayed_time": "8.58", "trialTime": 9370, "trial_type": "mouselab-mdp", "trial_index": 68, "time_elapsed": 998829, "internal_node_id": "0.0-4.0-3.0-28.0"}}, {"uniqueid": "w39265423:a82667834", "current_trial": 69, "dateTime": 1664556063470, "trialdata": {"revealed_states": [], "num_clicks_accrued": [0, 0, 0, 0, 0, 0, 0, 0, 0, 0, 0, 0, 0], "stateRewards": ["", 2, 4, -48, 24, -4, 4, -24, 48, -2, -8, -48, 48], "withholdReward": true, "trial_id": "mdp_424193661731", "block": "test2", "trialIndex": 61, "score": 50.5, "costs": -2.5, "simulationMode": [null, null, null], "rewards": [-4, 4, 48], "path": ["0", "0", "5", "6", "8"], "rt": [7384, 73, 109], "actions": ["right", "right", "down"], "actionTimes": [8120, 8710, 9312], "queries": {"click": {"state": {"target": ["4", "3", "7", "8", "6", "5", "11", "12", "10", "9"], "time": [1340, 1813, 2299, 3393, 5194, 6067, 6699, 7067, 7362, 7700]}, "edge": {"target": [], "time": []}}, "mouseover": {"state": {"target": ["1", "2", "4", "2", "3", "7", "6", "8", "8", "11", "5", "6", "5", "0", "9", "5", "5", "0", "9", "11", "10", "12", "10", "9"], "time": [1069, 1153, 1270, 1586, 1703, 2219, 2504, 2638, 3039, 4553, 5003, 5070, 5370, 5404, 5486, 5669, 5936, 6236, 6286, 6669, 6936, 7003, 7287, 7620]}, "edge": {"target": [], "time": []}}, "mouseout": {"state": {"target": ["5", "1", "2", "4", "2", "3", "7", "6", "8", "8", "11", "5", "6", "5", "0", "9", "5", "5", "0", "9", "11", "10", "12", "10", "9"], "time": [519, 1120, 1186, 1553, 1637, 2003, 2470, 2553, 2921, 3653, 4887, 5036, 5353, 5403, 5454, 5553, 5704, 6219, 6269, 6336, 6919, 6970, 7236, 7586, 7953]}, "edge": {"target": [], "time": []}}}, "displayed_time": "9.84", "trialTime": 10341, "trial_type": "mouselab-mdp", "trial_index": 69, "time_elapsed": 1009292, "internal_node_id": "0.0-4.0-3.0-29.0"}}, {"uniqueid": "w39265423:a82667834", "current_trial": 70, "dateTime": 1664556069821, "trialdata": {"rt": 6347, "stimulus": "<h1> End of block! </h1>\n\nYou have reached the end of the block 2/4. If you need a short break, feel free to take one now before moving on.\n\n<br><br>\nIn the next block, you will complete another 30 rounds of this game.\n\n<br><br>\n<div style='text-align: center;'>Press <code>space</code> to begin.</div>\n<br><br>\n<div style='text-align: center;'>(If the experiment doesn't continue, try clicking on the text and then pressing <code>space</code>.)</div>", "response": " ", "trial_id": "mdp_ready_3", "trial_type": "html-keyboard-response", "trial_index": 70, "time_elapsed": 1015643, "internal_node_id": "0.0-4.0-4.0"}}, {"uniqueid": "w39265423:a82667834", "current_trial": 71, "dateTime": 1664556080420, "trialdata": {"revealed_states": [], "num_clicks_accrued": [0, 0, 0, 0, 0, 0, 0, 0, 0, 0, 0, 0, 0], "stateRewards": ["", -4, -4, -24, 24, -4, 4, -24, 48, -2, 4, 48, -48], "withholdReward": false, "trial_id": "mdp_774757609669", "block": "test3", "trialIndex": 62, "score": 52.5, "costs": -2.5, "simulationMode": [null, null, null], "rewards": [-2, 4, 48], "path": ["0", "0", "9", "10", "11"], "rt": [7382, 45, 63], "actions": ["left", "left", "up"], "actionTimes": [8288, 8846, 9397], "queries": {"click": {"state": {"target": ["4", "3", "7", "8", "12", "11", "10", "6", "5", "9"], "time": [1606, 2206, 2737, 3268, 3879, 4569, 5619, 6134, 7055, 7686]}, "edge": {"target": [], "time": []}}, "mouseover": {"state": {"target": ["4", "2", "3", "7", "6", "8", "10", "12", "10", "11", "10", "9", "10", "9", "0", "5", "6", "5", "5", "9"], "time": [1433, 1983, 2100, 2567, 2950, 3133, 3534, 3800, 4067, 4466, 4767, 5016, 5201, 5766, 5801, 5846, 5884, 6333, 6950, 7617]}, "edge": {"target": [], "time": []}}, "mouseout": {"state": {"target": ["4", "2", "3", "7", "6", "8", "10", "12", "10", "11", "10", "9", "10", "9", "0", "5", "6", "5", "5", "9", "0"], "time": [1950, 2016, 2484, 2901, 3017, 3416, 3700, 4016, 4117, 4750, 4784, 5066, 5750, 5800, 5845, 5867, 6300, 6350, 7219, 7867, 10116]}, "edge": {"target": [], "time": []}}}, "displayed_time": "9.92", "trialTime": 10489, "trial_type": "mouselab-mdp", "trial_index": 71, "time_elapsed": 1026243, "internal_node_id": "0.0-4.0-5.0-0.0"}}, {"uniqueid": "w39265423:a82667834", "current_trial": 72, "dateTime": 1664556091296, "trialdata": {"revealed_states": [], "num_clicks_accrued": [0, 0, 0, 0, 0, 0, 0, 0, 0, 0, 0, 0, 0], "stateRewards": ["", 4, 4, -48, -24, -2, -4, 48, 24, -4, 4, 24, -48], "withholdReward": true, "trial_id": "mdp_617383046444", "block": "test3", "trialIndex": 63, "score": 45, "costs": -2, "simulationMode": [null, null, null], "rewards": [-2, -4, 48], "path": ["0", "0", "5", "6", "7"], "rt": [6417, 68, 17], "actions": ["right", "right", "up"], "actionTimes": [7033, 7593, 8138], "queries": {"click": {"state": {"target": ["4", "3", "7", "8", "6", "11", "12", "10"], "time": [983, 1556, 2176, 2639, 3965, 5346, 5921, 6215]}, "edge": {"target": [], "time": []}}, "mouseover": {"state": {"target": ["4", "2", "3", "5", "6", "7", "6", "8", "5", "9", "10", "9", "0", "5", "6", "5", "0", "9", "9", "9", "11", "10", "12", "10", "5"], "time": [938, 1354, 1488, 1905, 1954, 2121, 2338, 2388, 2904, 3088, 3171, 3438, 3504, 3554, 3922, 4171, 4204, 4254, 4621, 4838, 4954, 5538, 5737, 6121, 6722]}, "edge": {"target": [], "time": []}}, "mouseout": {"state": {"target": ["0", "4", "2", "3", "5", "6", "7", "6", "8", "5", "9", "10", "9", "0", "5", "6", "5", "0", "9", "9", "9", "11", "10", "12", "10", "5"], "time": [771, 1288, 1421, 1821, 1921, 1988, 2321, 2371, 2854, 2938, 3138, 3371, 3487, 3538, 3605, 4138, 4188, 4221, 4305, 4671, 4871, 5505, 5638, 6054, 6454, 6738]}, "edge": {"target": [], "time": []}}}, "displayed_time": "9.62", "trialTime": 10786, "trial_type": "mouselab-mdp", "trial_index": 72, "time_elapsed": 1037119, "internal_node_id": "0.0-4.0-5.0-1.0"}}, {"uniqueid": "w39265423:a82667834", "current_trial": 73, "dateTime": 1664556103872, "trialdata": {"revealed_states": [], "num_clicks_accrued": [0, 0, 0, 0, 0, 0, 0, 0, 0, 0, 0, 0, 0], "stateRewards": ["", 2, 8, 48, -48, -2, -4, -24, 24, 4, -4, 48, -48], "withholdReward": true, "trial_id": "mdp_105734044587", "block": "test3", "trialIndex": 64, "score": 61, "costs": -2, "simulationMode": [null, null, null], "rewards": [2, 8, 48], "path": ["0", "0", "1", "2", "3"], "rt": [6750, 34, 109], "actions": ["up", "up", "right"], "actionTimes": [9849, 10382, 11007], "queries": {"click": {"state": {"target": ["4", "3", "8", "7", "11", "12", "10", "2"], "time": [3800, 4606, 5808, 6341, 6987, 7389, 8021, 8701]}, "edge": {"target": [], "time": []}}, "mouseover": {"state": {"target": ["1", "4", "2", "3", "7", "6", "8", "6", "7", "5", "0", "9", "10", "11", "10", "12", "10", "9", "1", "2", "1"], "time": [3432, 3715, 4214, 4347, 5047, 5597, 5680, 6114, 6297, 6564, 6631, 6716, 6780, 6914, 7263, 7330, 7731, 8314, 8480, 8597, 9014]}, "edge": {"target": [], "time": []}}, "mouseout": {"state": {"target": ["6", "6", "5", "0", "1", "4", "2", "3", "7", "6", "8", "6", "7", "5", "0", "9", "10", "11", "10", "12", "10", "9", "1", "2"], "time": [1664, 1747, 2613, 2764, 3464, 4130, 4297, 4748, 5264, 5614, 6063, 6214, 6497, 6615, 6680, 6747, 6814, 7231, 7297, 7630, 8264, 8347, 8530, 8947]}, "edge": {"target": [], "time": []}}}, "displayed_time": "12.10", "trialTime": 12488, "trial_type": "mouselab-mdp", "trial_index": 73, "time_elapsed": 1049695, "internal_node_id": "0.0-4.0-5.0-2.0"}}, {"uniqueid": "w39265423:a82667834", "current_trial": 74, "dateTime": 1664556113965, "trialdata": {"revealed_states": [], "num_clicks_accrued": [0, 0, 0, 0, 0, 0, 0, 0, 0, 0, 0, 0, 0], "stateRewards": ["", 2, 8, 48, 24, -4, 4, -48, 24, 2, 8, 48, 48], "withholdReward": true, "trial_id": "mdp_367344599162", "block": "test3", "trialIndex": 65, "score": 61.25, "costs": -1.75, "simulationMode": [null, null, null], "rewards": [2, 8, 48], "path": ["0", "0", "9", "10", "12"], "rt": [6934, 131, 44], "actions": ["left", "left", "down"], "actionTimes": [7767, 8404, 8950], "queries": {"click": {"state": {"target": ["4", "10", "6", "7", "8", "12", "9"], "time": [1257, 2845, 3524, 4785, 5132, 5901, 6839]}, "edge": {"target": [], "time": []}}, "mouseover": {"state": {"target": ["1", "4", "1", "10", "9", "5", "6", "6", "5", "7", "8", "12", "9"], "time": [1022, 1138, 1907, 2523, 3039, 3172, 3205, 3256, 4189, 4705, 5072, 5772, 6691]}, "edge": {"target": [], "time": []}}, "mouseout": {"state": {"target": ["1", "1", "4", "1", "10", "9", "5", "6", "6", "5", "6", "7", "6", "8", "12", "10", "10", "9"], "time": [622, 1040, 1556, 2005, 3023, 3089, 3189, 3223, 3839, 4372, 4556, 4939, 5023, 5422, 6172, 6389, 6639, 8289]}, "edge": {"target": [], "time": []}}}, "displayed_time": "9.84", "trialTime": 10005, "trial_type": "mouselab-mdp", "trial_index": 74, "time_elapsed": 1059788, "internal_node_id": "0.0-4.0-5.0-3.0"}}, {"uniqueid": "w39265423:a82667834", "current_trial": 75, "dateTime": 1664556123754, "trialdata": {"revealed_states": [], "num_clicks_accrued": [0, 0, 0, 0, 0, 0, 0, 0, 0, 0, 0, 0, 0], "stateRewards": ["", 4, 8, 48, 48, 4, 4, -24, -48, 4, 8, -48, -48], "withholdReward": true, "trial_id": "mdp_984548726931", "block": "test3", "trialIndex": 66, "score": 63, "costs": -2, "simulationMode": [null, null, null], "rewards": [4, 8, 48], "path": ["0", "0", "1", "2", "4"], "rt": [6818, 205, 64], "actions": ["up", "up", "left"], "actionTimes": [7504, 8221, 8794], "queries": {"click": {"state": {"target": ["12", "11", "4", "3", "2", "6", "7", "8"], "time": [1271, 1693, 2336, 2907, 4750, 6031, 6683, 7109]}, "edge": {"target": [], "time": []}}, "mouseover": {"state": {"target": ["9", "12", "10", "11", "1", "4", "2", "3", "1", "2", "5", "6", "7", "8", "5"], "time": [864, 1149, 1513, 1580, 2080, 2231, 2547, 2614, 4197, 4680, 5063, 5430, 6630, 7014, 7397]}, "edge": {"target": [], "time": []}}, "mouseout": {"state": {"target": ["9", "9", "12", "10", "11", "1", "4", "2", "3", "1", "2", "5", "6", "7", "6", "8", "5"], "time": [447, 896, 1463, 1547, 1896, 2113, 2514, 2580, 3114, 4313, 4913, 5130, 6596, 6821, 6897, 7313, 8163]}, "edge": {"target": [], "time": []}}}, "displayed_time": "9.69", "trialTime": 9703, "trial_type": "mouselab-mdp", "trial_index": 75, "time_elapsed": 1069577, "internal_node_id": "0.0-4.0-5.0-4.0"}}, {"uniqueid": "w39265423:a82667834", "current_trial": 76, "dateTime": 1664556135620, "trialdata": {"revealed_states": [], "num_clicks_accrued": [0, 0, 0, 0, 0, 0, 0, 0, 0, 0, 0, 0, 0], "stateRewards": ["", 4, -8, -48, 48, -2, 8, -48, 48, -2, -4, 24, -48], "withholdReward": false, "trial_id": "mdp_400558136089", "block": "test3", "trialIndex": 67, "score": 57, "costs": -2, "simulationMode": [null, null, null], "rewards": [-2, 8, 48], "path": ["0", "0", "5", "6", "8"], "rt": [8661, 4, 239], "actions": ["right", "right", "down"], "actionTimes": [9668, 10164, 10936], "queries": {"click": {"state": {"target": ["4", "2", "1", "7", "6", "8", "5", "10"], "time": [1557, 2333, 2661, 3921, 5232, 6374, 7320, 9267]}, "edge": {"target": [], "time": []}}, "mouseover": {"state": {"target": ["1", "2", "4", "1", "2", "1", "6", "6", "7", "6", "8", "6", "6", "5", "0", "8", "8", "5", "0", "9", "10"], "time": [1227, 1345, 1477, 2044, 2277, 2527, 3478, 3594, 3827, 4210, 4395, 4977, 5161, 5494, 5612, 5910, 6261, 7080, 7945, 8061, 9178]}, "edge": {"target": [], "time": []}}, "mouseout": {"state": {"target": ["1", "2", "4", "1", "2", "1", "6", "6", "7", "6", "8", "6", "6", "5", "0", "8", "8", "5", "5", "0", "9", "10"], "time": [1294, 1410, 1794, 2227, 2495, 3160, 3527, 3761, 4177, 4277, 4895, 5010, 5461, 5544, 5827, 5993, 6594, 7645, 7877, 8010, 8160, 9461]}, "edge": {"target": [], "time": []}}}, "displayed_time": "11.43", "trialTime": 11766, "trial_type": "mouselab-mdp", "trial_index": 76, "time_elapsed": 1081443, "internal_node_id": "0.0-4.0-5.0-5.0"}}, {"uniqueid": "w39265423:a82667834", "current_trial": 77, "dateTime": 1664556145702, "trialdata": {"revealed_states": [], "num_clicks_accrued": [0, 0, 0, 0, 0, 0, 0, 0, 0, 0, 0, 0, 0], "stateRewards": ["", 4, -8, -24, 48, -4, 8, -24, -48, -4, -4, 24, 48], "withholdReward": true, "trial_id": "mdp_28235277662