{"condition": 0, "counterbalance": 0, "assignmentId": "a50076028", "workerId": "w12738678", "hitId": "h92780171", "currenttrial": 959, "bonus": 0, "data": [{"uniqueid": "w12738678:a50076028", "current_trial": 0, "dateTime": 1664555730611, "trialdata": {"success": true, "trial_type": "fullscreen", "trial_index": 0, "time_elapsed": 21956, "internal_node_id": "0.0-0.0"}}, {"uniqueid": "w12738678:a50076028", "current_trial": 1, "dateTime": 1664555779080, "trialdata": {"view_history": [{"page_index": 0, "viewing_time": 48459}], "rt": 48462, "trial_id": "exp_instructions_distractor", "trial_type": "instructions", "trial_index": 1, "time_elapsed": 70428, "internal_node_id": "0.0-1.0"}}, {"uniqueid": "w12738678:a50076028", "current_trial": 2, "dateTime": 1664555824311, "trialdata": {"view_history": [{"page_index": 0, "viewing_time": 45222}], "rt": 45223, "trial_id": "color_game_instructions", "trial_type": "instructions", "trial_index": 2, "time_elapsed": 115659, "internal_node_id": "0.0-2.0"}}, {"uniqueid": "w12738678:a50076028", "current_trial": 3, "dateTime": 1664555845838, "trialdata": {"rt": 21520, "stimulus": "<h1> Get ready to start the game! </h1>\n\nThank you for reading the instructions. Get ready start with the first of 5 block(s) of this game.\n<br><br>\nIn this first block, you will complete 90 rounds of this game before moving on.\n<br><br>\nRemember, the better you perform, the bigger your bonus will be!\n<br><br>\n<div style='text-align: center;'>Press <code>space</code> to begin.</div>", "response": " ", "trial_id": "stroop_1_ready_1", "trial_type": "html-keyboard-response", "trial_index": 3, "time_elapsed": 137185, "internal_node_id": "0.0-3.0"}}, {"uniqueid": "w12738678:a50076028", "current_trial": 4, "dateTime": 1664555848376, "trialdata": {"rt": 2258, "stimulus": "<p id='stroop-text' class='stroop-green'>MONKEY</p>", "response": "g", "stimulus-type": "unrelated", "word": "MONKEY", "color": "green", "correct_response": "g", "trial_id": "stroop-trial-1-unrelated-17", "trial_type": "html-keyboard-response", "trial_index": 4, "time_elapsed": 139723, "internal_node_id": "0.0-4.0-0.0"}}, {"uniqueid": "w12738678:a50076028", "current_trial": 5, "dateTime": 1664555850806, "trialdata": {"rt": 1925, "stimulus": "<p id='stroop-text' class='stroop-blue'>BLUE</p>", "response": "b", "stimulus-type": "congruent", "word": "blue", "color": "blue", "correct_response": "b", "trial_id": "stroop-trial-1-congruent-26", "trial_type": "html-keyboard-response", "trial_index": 5, "time_elapsed": 142153, "internal_node_id": "0.0-4.0-1.0"}}, {"uniqueid": "w12738678:a50076028", "current_trial": 6, "dateTime": 1664555852922, "trialdata": {"rt": 1609, "stimulus": "<p id='stroop-text' class='stroop-yellow'>BRIDGE</p>", "response": "y", "stimulus-type": "unrelated", "word": "BRIDGE", "color": "yellow", "correct_response": "y", "trial_id": "stroop-trial-1-unrelated-21", "trial_type": "html-keyboard-response", "trial_index": 6, "time_elapsed": 144268, "internal_node_id": "0.0-4.0-2.0"}}, {"uniqueid": "w12738678:a50076028", "current_trial": 7, "dateTime": 1664555854918, "trialdata": {"rt": 1490, "stimulus": "<p id='stroop-text' class='stroop-green'>YELLOW</p>", "response": "g", "stimulus-type": "incongruent", "word": "yellow", "color": "green", "correct_response": "g", "trial_id": "stroop-trial-1-incongruent-19", "trial_type": "html-keyboard-response", "trial_index": 7, "time_elapsed": 146265, "internal_node_id": "0.0-4.0-3.0"}}, {"uniqueid": "w12738678:a50076028", "current_trial": 8, "dateTime": 1664555856415, "trialdata": {"rt": 991, "stimulus": "<p id='stroop-text' class='stroop-green'>BRAIN</p>", "response": "g", "stimulus-type": "unrelated", "word": "BRAIN", "color": "green", "correct_response": "g", "trial_id": "stroop-trial-1-unrelated-29", "trial_type": "html-keyboard-response", "trial_index": 8, "time_elapsed": 147762, "internal_node_id": "0.0-4.0-4.0"}}, {"uniqueid": "w12738678:a50076028", "current_trial": 9, "dateTime": 1664555858054, "trialdata": {"rt": 1128, "stimulus": "<p id='stroop-text' class='stroop-red'>BLUE</p>", "response": "r", "stimulus-type": "incongruent", "word": "blue", "color": "red", "correct_response": "r", "trial_id": "stroop-trial-1-incongruent-14", "trial_type": "html-keyboard-response", "trial_index": 9, "time_elapsed": 149401, "internal_node_id": "0.0-4.0-5.0"}}, {"uniqueid": "w12738678:a50076028", "current_trial": 10, "dateTime": 1664555859948, "trialdata": {"rt": 1387, "stimulus": "<p id='stroop-text' class='stroop-blue'>YELLOW</p>", "response": "b", "stimulus-type": "incongruent", "word": "yellow", "color": "blue", "correct_response": "b", "trial_id": "stroop-trial-1-incongruent-27", "trial_type": "html-keyboard-response", "trial_index": 10, "time_elapsed": 151295, "internal_node_id": "0.0-4.0-6.0"}}, {"uniqueid": "w12738678:a50076028", "current_trial": 11, "dateTime": 1664555861401, "trialdata": {"rt": 947, "stimulus": "<p id='stroop-text' class='stroop-blue'>BLUE</p>", "response": "b", "stimulus-type": "congruent", "word": "blue", "color": "blue", "correct_response": "b", "trial_id": "stroop-trial-1-congruent-18", "trial_type": "html-keyboard-response", "trial_index": 11, "time_elapsed": 152748, "internal_node_id": "0.0-4.0-7.0"}}, {"uniqueid": "w12738678:a50076028", "current_trial": 12, "dateTime": 1664555862814, "trialdata": {"rt": 908, "stimulus": "<p id='stroop-text' class='stroop-blue'>BLUE</p>", "response": "b", "stimulus-type": "congruent", "word": "blue", "color": "blue", "correct_response": "b", "trial_id": "stroop-trial-1-congruent-10", "trial_type": "html-keyboard-response", "trial_index": 12, "time_elapsed": 154161, "internal_node_id": "0.0-4.0-8.0"}}, {"uniqueid": "w12738678:a50076028", "current_trial": 13, "dateTime": 1664555865241, "trialdata": {"rt": 1922, "stimulus": "<p id='stroop-text' class='stroop-yellow'>GREEN</p>", "response": "y", "stimulus-type": "incongruent", "word": "green", "color": "yellow", "correct_response": "y", "trial_id": "stroop-trial-1-incongruent-25", "trial_type": "html-keyboard-response", "trial_index": 13, "time_elapsed": 156588, "internal_node_id": "0.0-4.0-9.0"}}, {"uniqueid": "w12738678:a50076028", "current_trial": 14, "dateTime": 1664555866724, "trialdata": {"rt": 978, "stimulus": "<p id='stroop-text' class='stroop-green'>GREEN</p>", "response": "g", "stimulus-type": "congruent", "word": "green", "color": "green", "correct_response": "g", "trial_id": "stroop-trial-1-congruent-30", "trial_type": "html-keyboard-response", "trial_index": 14, "time_elapsed": 158071, "internal_node_id": "0.0-4.0-10.0"}}, {"uniqueid": "w12738678:a50076028", "current_trial": 15, "dateTime": 1664555868555, "trialdata": {"rt": 1327, "stimulus": "<p id='stroop-text' class='stroop-blue'>BRAIN</p>", "response": "b", "stimulus-type": "unrelated", "word": "BRAIN", "color": "blue", "correct_response": "b", "trial_id": "stroop-trial-1-unrelated-19", "trial_type": "html-keyboard-response", "trial_index": 15, "time_elapsed": 159902, "internal_node_id": "0.0-4.0-11.0"}}, {"uniqueid": "w12738678:a50076028", "current_trial": 16, "dateTime": 1664555870678, "trialdata": {"rt": 1617, "stimulus": "<p id='stroop-text' class='stroop-green'>MONKEY</p>", "response": "b", "stimulus-type": "unrelated", "word": "MONKEY", "color": "green", "correct_response": "g", "trial_id": "stroop-trial-1-unrelated-14", "trial_type": "html-keyboard-response", "trial_index": 16, "time_elapsed": 162025, "internal_node_id": "0.0-4.0-12.0"}}, {"uniqueid": "w12738678:a50076028", "current_trial": 17, "dateTime": 1664555873624, "trialdata": {"rt": 2441, "stimulus": "<p id='stroop-text' class='stroop-red'>RED</p>", "response": "r", "stimulus-type": "congruent", "word": "red", "color": "red", "correct_response": "r", "trial_id": "stroop-trial-1-congruent-3", "trial_type": "html-keyboard-response", "trial_index": 17, "time_elapsed": 164971, "internal_node_id": "0.0-4.0-13.0"}}, {"uniqueid": "w12738678:a50076028", "current_trial": 18, "dateTime": 1664555875942, "trialdata": {"rt": 1811, "stimulus": "<p id='stroop-text' class='stroop-green'>BOTTLE</p>", "response": "g", "stimulus-type": "unrelated", "word": "BOTTLE", "color": "green", "correct_response": "g", "trial_id": "stroop-trial-1-unrelated-18", "trial_type": "html-keyboard-response", "trial_index": 18, "time_elapsed": 167289, "internal_node_id": "0.0-4.0-14.0"}}, {"uniqueid": "w12738678:a50076028", "current_trial": 19, "dateTime": 1664555877628, "trialdata": {"rt": 1181, "stimulus": "<p id='stroop-text' class='stroop-blue'>BLUE</p>", "response": "b", "stimulus-type": "congruent", "word": "blue", "color": "blue", "correct_response": "b", "trial_id": "stroop-trial-1-congruent-17", "trial_type": "html-keyboard-response", "trial_index": 19, "time_elapsed": 168975, "internal_node_id": "0.0-4.0-15.0"}}, {"uniqueid": "w12738678:a50076028", "current_trial": 20, "dateTime": 1664555879238, "trialdata": {"rt": 1106, "stimulus": "<p id='stroop-text' class='stroop-blue'>BLUE</p>", "response": "b", "stimulus-type": "congruent", "word": "blue", "color": "blue", "correct_response": "b", "trial_id": "stroop-trial-1-congruent-8", "trial_type": "html-keyboard-response", "trial_index": 20, "time_elapsed": 170586, "internal_node_id": "0.0-4.0-16.0"}}, {"uniqueid": "w12738678:a50076028", "current_trial": 21, "dateTime": 1664555880828, "trialdata": {"rt": 1085, "stimulus": "<p id='stroop-text' class='stroop-yellow'>MONKEY</p>", "response": "y", "stimulus-type": "unrelated", "word": "MONKEY", "color": "yellow", "correct_response": "y", "trial_id": "stroop-trial-1-unrelated-1", "trial_type": "html-keyboard-response", "trial_index": 21, "time_elapsed": 172175, "internal_node_id": "0.0-4.0-17.0"}}, {"uniqueid": "w12738678:a50076028", "current_trial": 22, "dateTime": 1664555882674, "trialdata": {"rt": 1339, "stimulus": "<p id='stroop-text' class='stroop-green'>GREEN</p>", "response": "g", "stimulus-type": "congruent", "word": "green", "color": "green", "correct_response": "g", "trial_id": "stroop-trial-1-congruent-9", "trial_type": "html-keyboard-response", "trial_index": 22, "time_elapsed": 174021, "internal_node_id": "0.0-4.0-18.0"}}, {"uniqueid": "w12738678:a50076028", "current_trial": 23, "dateTime": 1664555884490, "trialdata": {"rt": 1310, "stimulus": "<p id='stroop-text' class='stroop-blue'>BLUE</p>", "response": "b", "stimulus-type": "congruent", "word": "blue", "color": "blue", "correct_response": "b", "trial_id": "stroop-trial-1-congruent-15", "trial_type": "html-keyboard-response", "trial_index": 23, "time_elapsed": 175837, "internal_node_id": "0.0-4.0-19.0"}}, {"uniqueid": "w12738678:a50076028", "current_trial": 24, "dateTime": 1664555886447, "trialdata": {"rt": 1454, "stimulus": "<p id='stroop-text' class='stroop-red'>RED</p>", "response": "r", "stimulus-type": "congruent", "word": "red", "color": "red", "correct_response": "r", "trial_id": "stroop-trial-1-congruent-21", "trial_type": "html-keyboard-response", "trial_index": 24, "time_elapsed": 177795, "internal_node_id": "0.0-4.0-20.0"}}, {"uniqueid": "w12738678:a50076028", "current_trial": 25, "dateTime": 1664555888268, "trialdata": {"rt": 1316, "stimulus": "<p id='stroop-text' class='stroop-green'>RED</p>", "response": "g", "stimulus-type": "incongruent", "word": "red", "color": "green", "correct_response": "g", "trial_id": "stroop-trial-1-incongruent-28", "trial_type": "html-keyboard-response", "trial_index": 25, "time_elapsed": 179616, "internal_node_id": "0.0-4.0-21.0"}}, {"uniqueid": "w12738678:a50076028", "current_trial": 26, "dateTime": 1664555889875, "trialdata": {"rt": 1103, "stimulus": "<p id='stroop-text' class='stroop-yellow'>YELLOW</p>", "response": "y", "stimulus-type": "congruent", "word": "yellow", "color": "yellow", "correct_response": "y", "trial_id": "stroop-trial-1-congruent-6", "trial_type": "html-keyboard-response", "trial_index": 26, "time_elapsed": 181223, "internal_node_id": "0.0-4.0-22.0"}}, {"uniqueid": "w12738678:a50076028", "current_trial": 27, "dateTime": 1664555891711, "trialdata": {"rt": 1328, "stimulus": "<p id='stroop-text' class='stroop-yellow'>WINDOW</p>", "response": "y", "stimulus-type": "unrelated", "word": "WINDOW", "color": "yellow", "correct_response": "y", "trial_id": "stroop-trial-1-unrelated-2", "trial_type": "html-keyboard-response", "trial_index": 27, "time_elapsed": 183058, "internal_node_id": "0.0-4.0-23.0"}}, {"uniqueid": "w12738678:a50076028", "current_trial": 28, "dateTime": 1664555894751, "trialdata": {"rt": 2537, "stimulus": "<p id='stroop-text' class='stroop-green'>BLUE</p>", "response": "g", "stimulus-type": "incongruent", "word": "blue", "color": "green", "correct_response": "g", "trial_id": "stroop-trial-1-incongruent-30", "trial_type": "html-keyboard-response", "trial_index": 28, "time_elapsed": 186099, "internal_node_id": "0.0-4.0-24.0"}}, {"uniqueid": "w12738678:a50076028", "current_trial": 29, "dateTime": 1664555896983, "trialdata": {"rt": 1726, "stimulus": "<p id='stroop-text' class='stroop-blue'>RED</p>", "response": "b", "stimulus-type": "incongruent", "word": "red", "color": "blue", "correct_response": "b", "trial_id": "stroop-trial-1-incongruent-20", "trial_type": "html-keyboard-response", "trial_index": 29, "time_elapsed": 188330, "internal_node_id": "0.0-4.0-25.0"}}, {"uniqueid": "w12738678:a50076028", "current_trial": 30, "dateTime": 1664555899013, "trialdata": {"rt": 1524, "stimulus": "<p id='stroop-text' class='stroop-yellow'>FORK</p>", "response": "y", "stimulus-type": "unrelated", "word": "FORK", "color": "yellow", "correct_response": "y", "trial_id": "stroop-trial-1-unrelated-16", "trial_type": "html-keyboard-response", "trial_index": 30, "time_elapsed": 190360, "internal_node_id": "0.0-4.0-26.0"}}, {"uniqueid": "w12738678:a50076028", "current_trial": 31, "dateTime": 1664555901106, "trialdata": {"rt": 1585, "stimulus": "<p id='stroop-text' class='stroop-blue'>RED</p>", "response": "b", "stimulus-type": "incongruent", "word": "red", "color": "blue", "correct_response": "b", "trial_id": "stroop-trial-1-incongruent-5", "trial_type": "html-keyboard-response", "trial_index": 31, "time_elapsed": 192453, "internal_node_id": "0.0-4.0-27.0"}}, {"uniqueid": "w12738678:a50076028", "current_trial": 32, "dateTime": 1664555902928, "trialdata": {"rt": 1317, "stimulus": "<p id='stroop-text' class='stroop-blue'>WINDOW</p>", "response": "b", "stimulus-type": "unrelated", "word": "WINDOW", "color": "blue", "correct_response": "b", "trial_id": "stroop-trial-1-unrelated-28", "trial_type": "html-keyboard-response", "trial_index": 32, "time_elapsed": 194276, "internal_node_id": "0.0-4.0-28.0"}}, {"uniqueid": "w12738678:a50076028", "current_trial": 33, "dateTime": 1664555904561, "trialdata": {"rt": 1127, "stimulus": "<p id='stroop-text' class='stroop-yellow'>BLUE</p>", "response": "y", "stimulus-type": "incongruent", "word": "blue", "color": "yellow", "correct_response": "y", "trial_id": "stroop-trial-1-incongruent-15", "trial_type": "html-keyboard-response", "trial_index": 33, "time_elapsed": 195909, "internal_node_id": "0.0-4.0-29.0"}}, {"uniqueid": "w12738678:a50076028", "current_trial": 34, "dateTime": 1664555906327, "trialdata": {"rt": 1260, "stimulus": "<p id='stroop-text' class='stroop-yellow'>FORK</p>", "response": "y", "stimulus-type": "unrelated", "word": "FORK", "color": "yellow", "correct_response": "y", "trial_id": "stroop-trial-1-unrelated-27", "trial_type": "html-keyboard-response", "trial_index": 34, "time_elapsed": 197674, "internal_node_id": "0.0-4.0-30.0"}}, {"uniqueid": "w12738678:a50076028", "current_trial": 35, "dateTime": 1664555907543, "trialdata": {"rt": 700, "stimulus": "<p id='stroop-text' class='stroop-yellow'>STONE</p>", "response": "y", "stimulus-type": "unrelated", "word": "STONE", "color": "yellow", "correct_response": "y", "trial_id": "stroop-trial-1-unrelated-24", "trial_type": "html-keyboard-response", "trial_index": 35, "time_elapsed": 198890, "internal_node_id": "0.0-4.0-31.0"}}, {"uniqueid": "w12738678:a50076028", "current_trial": 36, "dateTime": 1664555909179, "trialdata": {"rt": 1130, "stimulus": "<p id='stroop-text' class='stroop-green'>FORK</p>", "response": "g", "stimulus-type": "unrelated", "word": "FORK", "color": "green", "correct_response": "g", "trial_id": "stroop-trial-1-unrelated-12", "trial_type": "html-keyboard-response", "trial_index": 36, "time_elapsed": 200526, "internal_node_id": "0.0-4.0-32.0"}}, {"uniqueid": "w12738678:a50076028", "current_trial": 37, "dateTime": 1664555910888, "trialdata": {"rt": 1206, "stimulus": "<p id='stroop-text' class='stroop-green'>BLUE</p>", "response": "g", "stimulus-type": "incongruent", "word": "blue", "color": "green", "correct_response": "g", "trial_id": "stroop-trial-1-incongruent-21", "trial_type": "html-keyboard-response", "trial_index": 37, "time_elapsed": 202235, "internal_node_id": "0.0-4.0-33.0"}}, {"uniqueid": "w12738678:a50076028", "current_trial": 38, "dateTime": 1664555912870, "trialdata": {"rt": 1478, "stimulus": "<p id='stroop-text' class='stroop-red'>GREEN</p>", "response": "r", "stimulus-type": "incongruent", "word": "green", "color": "red", "correct_response": "r", "trial_id": "stroop-trial-1-incongruent-13", "trial_type": "html-keyboard-response", "trial_index": 38, "time_elapsed": 204217, "internal_node_id": "0.0-4.0-34.0"}}, {"uniqueid": "w12738678:a50076028", "current_trial": 39, "dateTime": 1664555914610, "trialdata": {"rt": 1235, "stimulus": "<p id='stroop-text' class='stroop-blue'>BOAT</p>", "response": "b", "stimulus-type": "unrelated", "word": "BOAT", "color": "blue", "correct_response": "b", "trial_id": "stroop-trial-1-unrelated-30", "trial_type": "html-keyboard-response", "trial_index": 39, "time_elapsed": 205957, "internal_node_id": "0.0-4.0-35.0"}}, {"uniqueid": "w12738678:a50076028", "current_trial": 40, "dateTime": 1664555916216, "trialdata": {"rt": 1100, "stimulus": "<p id='stroop-text' class='stroop-blue'>CHAIR</p>", "response": "b", "stimulus-type": "unrelated", "word": "CHAIR", "color": "blue", "correct_response": "b", "trial_id": "stroop-trial-1-unrelated-11", "trial_type": "html-keyboard-response", "trial_index": 40, "time_elapsed": 207563, "internal_node_id": "0.0-4.0-36.0"}}, {"uniqueid": "w12738678:a50076028", "current_trial": 41, "dateTime": 1664555918139, "trialdata": {"rt": 1415, "stimulus": "<p id='stroop-text' class='stroop-green'>BLUE</p>", "response": "g", "stimulus-type": "incongruent", "word": "blue", "color": "green", "correct_response": "g", "trial_id": "stroop-trial-1-incongruent-1", "trial_type": "html-keyboard-response", "trial_index": 41, "time_elapsed": 209486, "internal_node_id": "0.0-4.0-37.0"}}, {"uniqueid": "w12738678:a50076028", "current_trial": 42, "dateTime": 1664555919700, "trialdata": {"rt": 1056, "stimulus": "<p id='stroop-text' class='stroop-yellow'>WINDOW</p>", "response": "y", "stimulus-type": "unrelated", "word": "WINDOW", "color": "yellow", "correct_response": "y", "trial_id": "stroop-trial-1-unrelated-3", "trial_type": "html-keyboard-response", "trial_index": 42, "time_elapsed": 211047, "internal_node_id": "0.0-4.0-38.0"}}, {"uniqueid": "w12738678:a50076028", "current_trial": 43, "dateTime": 1664555921368, "trialdata": {"rt": 1165, "stimulus": "<p id='stroop-text' class='stroop-yellow'>YELLOW</p>", "response": "y", "stimulus-type": "congruent", "word": "yellow", "color": "yellow", "correct_response": "y", "trial_id": "stroop-trial-1-congruent-4", "trial_type": "html-keyboard-response", "trial_index": 43, "time_elapsed": 212715, "internal_node_id": "0.0-4.0-39.0"}}, {"uniqueid": "w12738678:a50076028", "current_trial": 44, "dateTime": 1664555923247, "trialdata": {"rt": 1366, "stimulus": "<p id='stroop-text' class='stroop-blue'>GREEN</p>", "response": "b", "stimulus-type": "incongruent", "word": "green", "color": "blue", "correct_response": "b", "trial_id": "stroop-trial-1-incongruent-2", "trial_type": "html-keyboard-response", "trial_index": 44, "time_elapsed": 214595, "internal_node_id": "0.0-4.0-40.0"}}, {"uniqueid": "w12738678:a50076028", "current_trial": 45, "dateTime": 1664555925792, "trialdata": {"rt": 2041, "stimulus": "<p id='stroop-text' class='stroop-red'>RED</p>", "response": "r", "stimulus-type": "congruent", "word": "red", "color": "red", "correct_response": "r", "trial_id": "stroop-trial-1-congruent-29", "trial_type": "html-keyboard-response", "trial_index": 45, "time_elapsed": 217139, "internal_node_id": "0.0-4.0-41.0"}}, {"uniqueid": "w12738678:a50076028", "current_trial": 46, "dateTime": 1664555927889, "trialdata": {"rt": 1591, "stimulus": "<p id='stroop-text' class='stroop-yellow'>YELLOW</p>", "response": "y", "stimulus-type": "congruent", "word": "yellow", "color": "yellow", "correct_response": "y", "trial_id": "stroop-trial-1-congruent-13", "trial_type": "html-keyboard-response", "trial_index": 46, "time_elapsed": 219236, "internal_node_id": "0.0-4.0-42.0"}}, {"uniqueid": "w12738678:a50076028", "current_trial": 47, "dateTime": 1664555929760, "trialdata": {"rt": 1366, "stimulus": "<p id='stroop-text' class='stroop-green'>CHAIR</p>", "response": "g", "stimulus-type": "unrelated", "word": "CHAIR", "color": "green", "correct_response": "g", "trial_id": "stroop-trial-1-unrelated-23", "trial_type": "html-keyboard-response", "trial_index": 47, "time_elapsed": 221107, "internal_node_id": "0.0-4.0-43.0"}}, {"uniqueid": "w12738678:a50076028", "current_trial": 48, "dateTime": 1664555931412, "trialdata": {"rt": 1147, "stimulus": "<p id='stroop-text' class='stroop-green'>BRAIN</p>", "response": "g", "stimulus-type": "unrelated", "word": "BRAIN", "color": "green", "correct_response": "g", "trial_id": "stroop-trial-1-unrelated-7", "trial_type": "html-keyboard-response", "trial_index": 48, "time_elapsed": 222759, "internal_node_id": "0.0-4.0-44.0"}}, {"uniqueid": "w12738678:a50076028", "current_trial": 49, "dateTime": 1664555933677, "trialdata": {"rt": 1759, "stimulus": "<p id='stroop-text' class='stroop-green'>BOTTLE</p>", "response": "g", "stimulus-type": "unrelated", "word": "BOTTLE", "color": "green", "correct_response": "g", "trial_id": "stroop-trial-1-unrelated-26", "trial_type": "html-keyboard-response", "trial_index": 49, "time_elapsed": 225024, "internal_node_id": "0.0-4.0-45.0"}}, {"uniqueid": "w12738678:a50076028", "current_trial": 50, "dateTime": 1664555935497, "trialdata": {"rt": 1315, "stimulus": "<p id='stroop-text' class='stroop-green'>YELLOW</p>", "response": "g", "stimulus-type": "incongruent", "word": "yellow", "color": "green", "correct_response": "g", "trial_id": "stroop-trial-1-incongruent-11", "trial_type": "html-keyboard-response", "trial_index": 50, "time_elapsed": 226844, "internal_node_id": "0.0-4.0-46.0"}}, {"uniqueid": "w12738678:a50076028", "current_trial": 51, "dateTime": 1664555938002, "trialdata": {"rt": 2001, "stimulus": "<p id='stroop-text' class='stroop-red'>BLUE</p>", "response": "r", "stimulus-type": "incongruent", "word": "blue", "color": "red", "correct_response": "r", "trial_id": "stroop-trial-1-incongruent-8", "trial_type": "html-keyboard-response", "trial_index": 51, "time_elapsed": 229350, "internal_node_id": "0.0-4.0-47.0"}}, {"uniqueid": "w12738678:a50076028", "current_trial": 52, "dateTime": 1664555939920, "trialdata": {"rt": 1412, "stimulus": "<p id='stroop-text' class='stroop-blue'>BLUE</p>", "response": "b", "stimulus-type": "congruent", "word": "blue", "color": "blue", "correct_response": "b", "trial_id": "stroop-trial-1-congruent-19", "trial_type": "html-keyboard-response", "trial_index": 52, "time_elapsed": 231267, "internal_node_id": "0.0-4.0-48.0"}}, {"uniqueid": "w12738678:a50076028", "current_trial": 53, "dateTime": 1664555941703, "trialdata": {"rt": 1278, "stimulus": "<p id='stroop-text' class='stroop-blue'>RED</p>", "response": "r", "stimulus-type": "incongruent", "word": "red", "color": "blue", "correct_response": "b", "trial_id": "stroop-trial-1-incongruent-24", "trial_type": "html-keyboard-response", "trial_index": 53, "time_elapsed": 233050, "internal_node_id": "0.0-4.0-49.0"}}, {"uniqueid": "w12738678:a50076028", "current_trial": 54, "dateTime": 1664555944568, "trialdata": {"rt": 2358, "stimulus": "<p id='stroop-text' class='stroop-yellow'>GREEN</p>", "response": "g", "stimulus-type": "incongruent", "word": "green", "color": "yellow", "correct_response": "y", "trial_id": "stroop-trial-1-incongruent-26", "trial_type": "html-keyboard-response", "trial_index": 54, "time_elapsed": 235916, "internal_node_id": "0.0-4.0-50.0"}}, {"uniqueid": "w12738678:a50076028", "current_trial": 55, "dateTime": 1664555946844, "trialdata": {"rt": 1770, "stimulus": "<p id='stroop-text' class='stroop-red'>RED</p>", "response": "b", "stimulus-type": "congruent", "word": "red", "color": "red", "correct_response": "r", "trial_id": "stroop-trial-1-congruent-7", "trial_type": "html-keyboard-response", "trial_index": 55, "time_elapsed": 238192, "internal_node_id": "0.0-4.0-51.0"}}, {"uniqueid": "w12738678:a50076028", "current_trial": 56, "dateTime": 1664555949358, "trialdata": {"rt": 2008, "stimulus": "<p id='stroop-text' class='stroop-green'>GREEN</p>", "response": "g", "stimulus-type": "congruent", "word": "green", "color": "green", "correct_response": "g", "trial_id": "stroop-trial-1-congruent-12", "trial_type": "html-keyboard-response", "trial_index": 56, "time_elapsed": 240706, "internal_node_id": "0.0-4.0-52.0"}}, {"uniqueid": "w12738678:a50076028", "current_trial": 57, "dateTime": 1664555951221, "trialdata": {"rt": 1348, "stimulus": "<p id='stroop-text' class='stroop-blue'>BLUE</p>", "response": "b", "stimulus-type": "congruent", "word": "blue", "color": "blue", "correct_response": "b", "trial_id": "stroop-trial-1-congruent-14", "trial_type": "html-keyboard-response", "trial_index": 57, "time_elapsed": 242568, "internal_node_id": "0.0-4.0-53.0"}}, {"uniqueid": "w12738678:a50076028", "current_trial": 58, "dateTime": 1664555952913, "trialdata": {"rt": 1186, "stimulus": "<p id='stroop-text' class='stroop-blue'>WINDOW</p>", "response": "b", "stimulus-type": "unrelated", "word": "WINDOW", "color": "blue", "correct_response": "b", "trial_id": "stroop-trial-1-unrelated-25", "trial_type": "html-keyboard-response", "trial_index": 58, "time_elapsed": 244260, "internal_node_id": "0.0-4.0-54.0"}}, {"uniqueid": "w12738678:a50076028", "current_trial": 59, "dateTime": 1664555955011, "trialdata": {"rt": 1591, "stimulus": "<p id='stroop-text' class='stroop-blue'>GREEN</p>", "response": "b", "stimulus-type": "incongruent", "word": "green", "color": "blue", "correct_response": "b", "trial_id": "stroop-trial-1-incongruent-17", "trial_type": "html-keyboard-response", "trial_index": 59, "time_elapsed": 246358, "internal_node_id": "0.0-4.0-55.0"}}, {"uniqueid": "w12738678:a50076028", "current_trial": 60, "dateTime": 1664555956923, "trialdata": {"rt": 1407, "stimulus": "<p id='stroop-text' class='stroop-green'>RED</p>", "response": "g", "stimulus-type": "incongruent", "word": "red", "color": "green", "correct_response": "g", "trial_id": "stroop-trial-1-incongruent-9", "trial_type": "html-keyboard-response", "trial_index": 60, "time_elapsed": 248270, "internal_node_id": "0.0-4.0-56.0"}}, {"uniqueid": "w12738678:a50076028", "current_trial": 61, "dateTime": 1664555958778, "trialdata": {"rt": 1349, "stimulus": "<p id='stroop-text' class='stroop-blue'>BOAT</p>", "response": "b", "stimulus-type": "unrelated", "word": "BOAT", "color": "blue", "correct_response": "b", "trial_id": "stroop-trial-1-unrelated-10", "trial_type": "html-keyboard-response", "trial_index": 61, "time_elapsed": 250126, "internal_node_id": "0.0-4.0-57.0"}}, {"uniqueid": "w12738678:a50076028", "current_trial": 62, "dateTime": 1664555960344, "trialdata": {"rt": 1061, "stimulus": "<p id='stroop-text' class='stroop-blue'>MONKEY</p>", "response": "b", "stimulus-type": "unrelated", "word": "MONKEY", "color": "blue", "correct_response": "b", "trial_id": "stroop-trial-1-unrelated-15", "trial_type": "html-keyboard-response", "trial_index": 62, "time_elapsed": 251692, "internal_node_id": "0.0-4.0-58.0"}}, {"uniqueid": "w12738678:a50076028", "current_trial": 63, "dateTime": 1664555962042, "trialdata": {"rt": 1192, "stimulus": "<p id='stroop-text' class='stroop-green'>BOAT</p>", "response": "g", "stimulus-type": "unrelated", "word": "BOAT", "color": "green", "correct_response": "g", "trial_id": "stroop-trial-1-unrelated-13", "trial_type": "html-keyboard-response", "trial_index": 63, "time_elapsed": 253389, "internal_node_id": "0.0-4.0-59.0"}}, {"uniqueid": "w12738678:a50076028", "current_trial": 64, "dateTime": 1664555964300, "trialdata": {"rt": 1753, "stimulus": "<p id='stroop-text' class='stroop-blue'>BLUE</p>", "response": "b", "stimulus-type": "congruent", "word": "blue", "color": "blue", "correct_response": "b", "trial_id": "stroop-trial-1-congruent-2", "trial_type": "html-keyboard-response", "trial_index": 64, "time_elapsed": 255647, "internal_node_id": "0.0-4.0-60.0"}}, {"uniqueid": "w12738678:a50076028", "current_trial": 65, "dateTime": 1664555965938, "trialdata": {"rt": 1132, "stimulus": "<p id='stroop-text' class='stroop-yellow'>BOTTLE</p>", "response": "y", "stimulus-type": "unrelated", "word": "BOTTLE", "color": "yellow", "correct_response": "y", "trial_id": "stroop-trial-1-unrelated-6", "trial_type": "html-keyboard-response", "trial_index": 65, "time_elapsed": 257286, "internal_node_id": "0.0-4.0-61.0"}}, {"uniqueid": "w12738678:a50076028", "current_trial": 66, "dateTime": 1664555967702, "trialdata": {"rt": 1258, "stimulus": "<p id='stroop-text' class='stroop-red'>RED</p>", "response": "r", "stimulus-type": "congruent", "word": "red", "color": "red", "correct_response": "r", "trial_id": "stroop-trial-1-congruent-1", "trial_type": "html-keyboard-response", "trial_index": 66, "time_elapsed": 259049, "internal_node_id": "0.0-4.0-62.0"}}, {"uniqueid": "w12738678:a50076028", "current_trial": 67, "dateTime": 1664555969326, "trialdata": {"rt": 1119, "stimulus": "<p id='stroop-text' class='stroop-green'>SHIP</p>", "response": "g", "stimulus-type": "unrelated", "word": "SHIP", "color": "green", "correct_response": "g", "trial_id": "stroop-trial-1-unrelated-22", "trial_type": "html-keyboard-response", "trial_index": 67, "time_elapsed": 260673, "internal_node_id": "0.0-4.0-63.0"}}, {"uniqueid": "w12738678:a50076028", "current_trial": 68, "dateTime": 1664555970988, "trialdata": {"rt": 1158, "stimulus": "<p id='stroop-text' class='stroop-green'>GREEN</p>", "response": "g", "stimulus-type": "congruent", "word": "green", "color": "green", "correct_response": "g", "trial_id": "stroop-trial-1-congruent-11", "trial_type": "html-keyboard-response", "trial_index": 68, "time_elapsed": 262335, "internal_node_id": "0.0-4.0-64.0"}}, {"uniqueid": "w12738678:a50076028", "current_trial": 69, "dateTime": 1664555972638, "trialdata": {"rt": 1144, "stimulus": "<p id='stroop-text' class='stroop-green'>YELLOW</p>", "response": "g", "stimulus-type": "incongruent", "word": "yellow", "color": "green", "correct_response": "g", "trial_id": "stroop-trial-1-incongruent-23", "trial_type": "html-keyboard-response", "trial_index": 69, "time_elapsed": 263985, "internal_node_id": "0.0-4.0-65.0"}}, {"uniqueid": "w12738678:a50076028", "current_trial": 70, "dateTime": 1664555974103, "trialdata": {"rt": 959, "stimulus": "<p id='stroop-text' class='stroop-green'>BLUE</p>", "response": "g", "stimulus-type": "incongruent", "word": "blue", "color": "green", "correct_response": "g", "trial_id": "stroop-trial-1-incongruent-3", "trial_type": "html-keyboard-response", "trial_index": 70, "time_elapsed": 265450, "internal_node_id": "0.0-4.0-66.0"}}, {"uniqueid": "w12738678:a50076028", "current_trial": 71, "dateTime": 1664555975574, "trialdata": {"rt": 964, "stimulus": "<p id='stroop-text' class='stroop-green'>MONKEY</p>", "response": "g", "stimulus-type": "unrelated", "word": "MONKEY", "color": "green", "correct_response": "g", "trial_id": "stroop-trial-1-unrelated-20", "trial_type": "html-keyboard-response", "trial_index": 71, "time_elapsed": 266921, "internal_node_id": "0.0-4.0-67.0"}}, {"uniqueid": "w12738678:a50076028", "current_trial": 72, "dateTime": 1664555976923, "trialdata": {"rt": 841, "stimulus": "<p id='stroop-text' class='stroop-green'>BRIDGE</p>", "response": "g", "stimulus-type": "unrelated", "word": "BRIDGE", "color": "green", "correct_response": "g", "trial_id": "stroop-trial-1-unrelated-5", "trial_type": "html-keyboard-response", "trial_index": 72, "time_elapsed": 268271, "internal_node_id": "0.0-4.0-68.0"}}, {"uniqueid": "w12738678:a50076028", "current_trial": 73, "dateTime": 1664555978963, "trialdata": {"rt": 1536, "stimulus": "<p id='stroop-text' class='stroop-red'>RED</p>", "response": "r", "stimulus-type": "congruent", "word": "red", "color": "red", "correct_response": "r", "trial_id": "stroop-trial-1-congruent-16", "trial_type": "html-keyboard-response", "trial_index": 73, "time_elapsed": 270310, "internal_node_id": "0.0-4.0-69.0"}}, {"uniqueid": "w12738678:a50076028", "current_trial": 74, "dateTime": 1664555980864, "trialdata": {"rt": 1395, "stimulus": "<p id='stroop-text' class='stroop-green'>BRIDGE</p>", "response": "g", "stimulus-type": "unrelated", "word": "BRIDGE", "color": "green", "correct_response": "g", "trial_id": "stroop-trial-1-unrelated-4", "trial_type": "html-keyboard-response", "trial_index": 74, "time_elapsed": 272211, "internal_node_id": "0.0-4.0-70.0"}}, {"uniqueid": "w12738678:a50076028", "current_trial": 75, "dateTime": 1664555982921, "trialdata": {"rt": 1551, "stimulus": "<p id='stroop-text' class='stroop-red'>GREEN</p>", "response": "r", "stimulus-type": "incongruent", "word": "green", "color": "red", "correct_response": "r", "trial_id": "stroop-trial-1-incongruent-16", "trial_type": "html-keyboard-response", "trial_index": 75, "time_elapsed": 274269, "internal_node_id": "0.0-4.0-71.0"}}, {"uniqueid": "w12738678:a50076028", "current_trial": 76, "dateTime": 1664555984743, "trialdata": {"rt": 1314, "stimulus": "<p id='stroop-text' class='stroop-yellow'>GREEN</p>", "response": "y", "stimulus-type": "incongruent", "word": "green", "color": "yellow", "correct_response": "y", "trial_id": "stroop-trial-1-incongruent-12", "trial_type": "html-keyboard-response", "trial_index": 76, "time_elapsed": 276090, "internal_node_id": "0.0-4.0-72.0"}}, {"uniqueid": "w12738678:a50076028", "current_trial": 77, "dateTime": 1664555986244, "trialdata": {"rt": 993, "stimulus": "<p id='stroop-text' class='stroop-yellow'>RED</p>", "response": "y", "stimulus-type": "incongruent", "word": "red", "color": "yellow", "correct_response": "y", "trial_id": "stroop-trial-1-incongruent-29", "trial_type": "html-keyboard-response", "trial_index": 77, "time_elapsed": 277591, "internal_node_id": "0.0-4.0-73.0"}}, {"uniqueid": "w12738678:a50076028", "current_trial": 78, "dateTime": 1664555988153, "trialdata": {"rt": 1403, "stimulus": "<p id='stroop-text' class='stroop-green'>BOTTLE</p>", "response": "g", "stimulus-type": "unrelated", "word": "BOTTLE", "color": "green", "correct_response": "g", "trial_id": "stroop-trial-1-unrelated-9", "trial_type": "html-keyboard-response", "trial_index": 78, "time_elapsed": 279500, "internal_node_id": "0.0-4.0-74.0"}}, {"uniqueid": "w12738678:a50076028", "current_trial": 79, "dateTime": 1664555989931, "trialdata": {"rt": 1272, "stimulus": "<p id='stroop-text' class='stroop-yellow'>RED</p>", "response": "y", "stimulus-type": "incongruent", "word": "red", "color": "yellow", "correct_response": "y", "trial_id": "stroop-trial-1-incongruent-18", "trial_type": "html-keyboard-response", "trial_index": 79, "time_elapsed": 281278, "internal_node_id": "0.0-4.0-75.0"}}, {"uniqueid": "w12738678:a50076028", "current_trial": 80, "dateTime": 1664555991643, "trialdata": {"rt": 1208, "stimulus": "<p id='stroop-text' class='stroop-green'>STONE</p>", "response": "g", "stimulus-type": "unrelated", "word": "STONE", "color": "green", "correct_response": "g", "trial_id": "stroop-trial-1-unrelated-8", "trial_type": "html-keyboard-response", "trial_index": 80, "time_elapsed": 282991, "internal_node_id": "0.0-4.0-76.0"}}, {"uniqueid": "w12738678:a50076028", "current_trial": 81, "dateTime": 1664555994330, "trialdata": {"rt": 2181, "stimulus": "<p id='stroop-text' class='stroop-green'>GREEN</p>", "response": "g", "stimulus-type": "congruent", "word": "green", "color": "green", "correct_response": "g", "trial_id": "stroop-trial-1-congruent-25", "trial_type": "html-keyboard-response", "trial_index": 81, "time_elapsed": 285677, "internal_node_id": "0.0-4.0-77.0"}}, {"uniqueid": "w12738678:a50076028", "current_trial": 82, "dateTime": 1664555996206, "trialdata": {"rt": 1366, "stimulus": "<p id='stroop-text' class='stroop-red'>RED</p>", "response": "r", "stimulus-type": "congruent", "word": "red", "color": "red", "correct_response": "r", "trial_id": "stroop-trial-1-congruent-20", "trial_type": "html-keyboard-response", "trial_index": 82, "time_elapsed": 287553, "internal_node_id": "0.0-4.0-78.0"}}, {"uniqueid": "w12738678:a50076028", "current_trial": 83, "dateTime": 1664555997742, "trialdata": {"rt": 1015, "stimulus": "<p id='stroop-text' class='stroop-yellow'>YELLOW</p>", "response": "y", "stimulus-type": "congruent", "word": "yellow", "color": "yellow", "correct_response": "y", "trial_id": "stroop-trial-1-congruent-23", "trial_type": "html-keyboard-response", "trial_index": 83, "time_elapsed": 289089, "internal_node_id": "0.0-4.0-79.0"}}, {"uniqueid": "w12738678:a50076028", "current_trial": 84, "dateTime": 1664555999665, "trialdata": {"rt": 1418, "stimulus": "<p id='stroop-text' class='stroop-red'>RED</p>", "response": "r", "stimulus-type": "congruent", "word": "red", "color": "red", "correct_response": "r", "trial_id": "stroop-trial-1-congruent-27", "trial_type": "html-keyboard-response", "trial_index": 84, "time_elapsed": 291012, "internal_node_id": "0.0-4.0-80.0"}}, {"uniqueid": "w12738678:a50076028", "current_trial": 85, "dateTime": 1664556001254, "trialdata": {"rt": 1084, "stimulus": "<p id='stroop-text' class='stroop-green'>GREEN</p>", "response": "g", "stimulus-type": "congruent", "word": "green", "color": "green", "correct_response": "g", "trial_id": "stroop-trial-1-congruent-24", "trial_type": "html-keyboard-response", "trial_index": 85, "time_elapsed": 292602, "internal_node_id": "0.0-4.0-81.0"}}, {"uniqueid": "w12738678:a50076028", "current_trial": 86, "dateTime": 1664556002741, "trialdata": {"rt": 982, "stimulus": "<p id='stroop-text' class='stroop-green'>BLUE</p>", "response": "g", "stimulus-type": "incongruent", "word": "blue", "color": "green", "correct_response": "g", "trial_id": "stroop-trial-1-incongruent-7", "trial_type": "html-keyboard-response", "trial_index": 86, "time_elapsed": 294088, "internal_node_id": "0.0-4.0-82.0"}}, {"uniqueid": "w12738678:a50076028", "current_trial": 87, "dateTime": 1664556004141, "trialdata": {"rt": 894, "stimulus": "<p id='stroop-text' class='stroop-green'>YELLOW</p>", "response": "g", "stimulus-type": "incongruent", "word": "yellow", "color": "green", "correct_response": "g", "trial_id": "stroop-trial-1-incongruent-10", "trial_type": "html-keyboard-response", "trial_index": 87, "time_elapsed": 295489, "internal_node_id": "0.0-4.0-83.0"}}, {"uniqueid": "w12738678:a50076028", "current_trial": 88, "dateTime": 1664556005938, "trialdata": {"rt": 1292, "stimulus": "<p id='stroop-text' class='stroop-yellow'>BLUE</p>", "response": "y", "stimulus-type": "incongruent", "word": "blue", "color": "yellow", "correct_response": "y", "trial_id": "stroop-trial-1-incongruent-4", "trial_type": "html-keyboard-response", "trial_index": 88, "time_elapsed": 297285, "internal_node_id": "0.0-4.0-84.0"}}, {"uniqueid": "w12738678:a50076028", "current_trial": 89, "dateTime": 1664556007677, "trialdata": {"rt": 1234, "stimulus": "<p id='stroop-text' class='stroop-yellow'>BLUE</p>", "response": "y", "stimulus-type": "incongruent", "word": "blue", "color": "yellow", "correct_response": "y", "trial_id": "stroop-trial-1-incongruent-6", "trial_type": "html-keyboard-response", "trial_index": 89, "time_elapsed": 299024, "internal_node_id": "0.0-4.0-85.0"}}, {"uniqueid": "w12738678:a50076028", "current_trial": 90, "dateTime": 1664556009387, "trialdata": {"rt": 1204, "stimulus": "<p id='stroop-text' class='stroop-green'>YELLOW</p>", "response": "g", "stimulus-type": "incongruent", "word": "yellow", "color": "green", "correct_response": "g", "trial_id": "stroop-trial-1-incongruent-22", "trial_type": "html-keyboard-response", "trial_index": 90, "time_elapsed": 300735, "internal_node_id": "0.0-4.0-86.0"}}, {"uniqueid": "w12738678:a50076028", "current_trial": 91, "dateTime": 1664556011139, "trialdata": {"rt": 1245, "stimulus": "<p id='stroop-text' class='stroop-red'>RED</p>", "response": "r", "stimulus-type": "congruent", "word": "red", "color": "red", "correct_response": "r", "trial_id": "stroop-trial-1-congruent-22", "trial_type": "html-keyboard-response", "trial_index": 91, "time_elapsed": 302487, "internal_node_id": "0.0-4.0-87.0"}}, {"uniqueid": "w12738678:a50076028", "current_trial": 92, "dateTime": 1664556012721, "trialdata": {"rt": 1079, "stimulus": "<p id='stroop-text' class='stroop-red'>RED</p>", "response": "r", "stimulus-type": "congruent", "word": "red", "color": "red", "correct_response": "r", "trial_id": "stroop-trial-1-congruent-28", "trial_type": "html-keyboard-response", "trial_index": 92, "time_elapsed": 304069, "internal_node_id": "0.0-4.0-88.0"}}, {"uniqueid": "w12738678:a50076028", "current_trial": 93, "dateTime": 1664556014396, "trialdata": {"rt": 1169, "stimulus": "<p id='stroop-text' class='stroop-red'>RED</p>", "response": "r", "stimulus-type": "congruent", "word": "red", "color": "red", "correct_response": "r", "trial_id": "stroop-trial-1-congruent-5", "trial_type": "html-keyboard-response", "trial_index": 93, "time_elapsed": 305743, "internal_node_id": "0.0-4.0-89.0"}}, {"uniqueid": "w12738678:a50076028", "current_trial": 94, "dateTime": 1664556060895, "trialdata": {"rt": 45989, "stimulus": "  <h1> End of block! </h1>\n\n  You have reached the end of the block 1/5. If you need a short break, feel free to take one now before moving on.\n\n  <br><br>\n  In the next block, you will complete another 90 rounds of this game.\n\n  <br><br>\n  <div style='text-align: center;'>Press <code>space</code> to begin.</div>\n  <br><br>\n<div style='text-align: center;'>(If the experiment doesn't continue, try clicking on the text and then pressing <code>space</code>.)</div>", "response": " ", "trial_id": "stroop_1_ready_2", "trial_type": "html-keyboard-response", "trial_index": 94, "time_elapsed": 352243, "internal_node_id": "0.0-5.0"}}, {"uniqueid": "w12738678:a50076028", "current_trial": 95, "dateTime": 1664556062632, "trialdata": {"rt": 1726, "stimulus": "<p id='stroop-text' class='stroop-red'>WINDOW</p>", "response": "r", "stimulus-type": "unrelated", "word": "WINDOW", "color": "red", "correct_response": "r", "trial_id": "stroop-trial-1-unrelated-24", "trial_type": "html-keyboard-response", "trial_index": 95, "time_elapsed": 353979, "internal_node_id": "0.0-6.0-0.0"}}, {"uniqueid": "w12738678:a50076028", "current_trial": 96, "dateTime": 1664556064054, "trialdata": {"rt": 915, "stimulus": "<p id='stroop-text' class='stroop-red'>YELLOW</p>", "response": "r", "stimulus-type": "incongruent", "word": "yellow", "color": "red", "correct_response": "r", "trial_id": "stroop-trial-1-incongruent-1", "trial_type": "html-keyboard-response", "trial_index": 96, "time_elapsed": 355401, "internal_node_id": "0.0-6.0-1.0"}}, {"uniqueid": "w12738678:a50076028", "current_trial": 97, "dateTime": 1664556065908, "trialdata": {"rt": 1348, "stimulus": "<p id='stroop-text' class='stroop-blue'>BLUE</p>", "response": "b", "stimulus-type": "congruent", "word": "blue", "color": "blue", "correct_response": "b", "trial_id": "stroop-trial-1-congruent-2", "trial_type": "html-keyboard-response", "trial_index": 97, "time_elapsed": 357256, "internal_node_id": "0.0-6.0-2.0"}}, {"uniqueid": "w12738678:a50076028", "current_trial": 98, "dateTime": 1664556067477, "trialdata": {"rt": 1062, "stimulus": "<p id='stroop-text' class='stroop-green'>GREEN</p>", "response": "g", "stimulus-type": "congruent", "word": "green", "color": "green", "correct_response": "g", "trial_id": "stroop-trial-1-congruent-24", "trial_type": "html-keyboard-response", "trial_index": 98, "time_elapsed": 358824, "internal_node_id": "0.0-6.0-3.0"}}, {"uniqueid": "w12738678:a50076028", "current_trial": 99, "dateTime": 1664556069126, "trialdata": {"rt": 1142, "stimulus": "<p id='stroop-text' class='stroop-yellow'>RED</p>", "response": "y", "stimulus-type": "incongruent", "word": "red", "color": "yellow", "correct_response": "y", "trial_id": "stroop-trial-1-incongruent-29", "trial_type": "html-keyboard-response", "trial_index": 99, "time_elapsed": 360473, "internal_node_id": "0.0-6.0-4.0"}}, {"uniqueid": "w12738678:a50076028", "current_trial": 100, "dateTime": 1664556070608, "trialdata": {"rt": 964, "stimulus": "<p id='stroop-text' class='stroop-yellow'>YELLOW</p>", "response": "y", "stimulus-type": "congruent", "word": "yellow", "color": "yellow", "correct_response": "y", "trial_id": "stroop-trial-1-congruent-9", "trial_type": "html-keyboard-response", "trial_index": 100, "time_elapsed": 361956, "internal_node_id": "0.0-6.0-5.0"}}, {"uniqueid": "w12738678:a50076028", "current_trial": 101, "dateTime": 1664556072167, "trialdata": {"rt": 1053, "stimulus": "<p id='stroop-text' class='stroop-blue'>BLUE</p>", "response": "b", "stimulus-type": "congruent", "word": "blue", "color": "blue", "correct_response": "b", "trial_id": "stroop-trial-1-congruent-7", "trial_type": "html-keyboard-response", "trial_index": 101, "time_elapsed": 363515, "internal_node_id": "0.0-6.0-6.0"}}, {"uniqueid": "w12738678:a50076028", "current_trial": 102, "dateTime": 1664556073714, "trialdata": {"rt": 1041, "stimulus": "<p id='stroop-text' class='stroop-green'>RED</p>", "response": "g", "stimulus-type": "incongruent", "word": "red", "color": "green", "correct_response": "g", "trial_id": "stroop-trial-1-incongruent-14", "trial_type": "html-keyboard-response", "trial_index": 102, "time_elapsed": 365062, "internal_node_id": "0.0-6.0-7.0"}}, {"uniqueid": "w12738678:a50076028", "current_trial": 103, "dateTime": 1664556075226, "trialdata": {"rt": 1006, "stimulus": "<p id='stroop-text' class='stroop-green'>GREEN</p>", "response": "g", "stimulus-type": "congruent", "word": "green", "color": "green", "correct_response": "g", "trial_id": "stroop-trial-1-congruent-13", "trial_type": "html-keyboard-response", "trial_index": 103, "time_elapsed": 366574, "internal_node_id": "0.0-6.0-8.0"}}, {"uniqueid": "w12738678:a50076028", "current_trial": 104, "dateTime": 1664556076847, "trialdata": {"rt": 1114, "stimulus": "<p id='stroop-text' class='stroop-yellow'>RED</p>", "response": "y", "stimulus-type": "incongruent", "word": "red", "color": "yellow", "correct_response": "y", "trial_id": "stroop-trial-1-incongruent-18", "trial_type": "html-keyboard-response", "trial_index": 104, "time_elapsed": 368194, "internal_node_id": "0.0-6.0-9.0"}}, {"uniqueid": "w12738678:a50076028", "current_trial": 105, "dateTime": 1664556078763, "trialdata": {"rt": 1398, "stimulus": "<p id='stroop-text' class='stroop-green'>RED</p>", "response": "g", "stimulus-type": "incongruent", "word": "red", "color": "green", "correct_response": "g", "trial_id": "stroop-trial-1-incongruent-10", "trial_type": "html-keyboard-response", "trial_index": 105, "time_elapsed": 370110, "internal_node_id": "0.0-6.0-10.0"}}, {"uniqueid": "w12738678:a50076028", "current_trial": 106, "dateTime": 1664556080549, "trialdata": {"rt": 1280, "stimulus": "<p id='stroop-text' class='stroop-red'>RED</p>", "response": "r", "stimulus-type": "congruent", "word": "red", "color": "red", "correct_response": "r", "trial_id": "stroop-trial-1-congruent-5", "trial_type": "html-keyboard-response", "trial_index": 106, "time_elapsed": 371897, "internal_node_id": "0.0-6.0-11.0"}}, {"uniqueid": "w12738678:a50076028", "current_trial": 107, "dateTime": 1664556082391, "trialdata": {"rt": 1337, "stimulus": "<p id='stroop-text' class='stroop-blue'>BLUE</p>", "response": "b", "stimulus-type": "congruent", "word": "blue", "color": "blue", "correct_response": "b", "trial_id": "stroop-trial-1-congruent-12", "trial_type": "html-keyboard-response", "trial_index": 107, "time_elapsed": 373739, "internal_node_id": "0.0-6.0-12.0"}}, {"uniqueid": "w12738678:a50076028", "current_trial": 108, "dateTime": 1664556084034, "trialdata": {"rt": 1133, "stimulus": "<p id='stroop-text' class='stroop-yellow'>SHIP</p>", "response": "y", "stimulus-type": "unrelated", "word": "SHIP", "color": "yellow", "correct_response": "y", "trial_id": "stroop-trial-1-unrelated-9", "trial_type": "html-keyboard-response", "trial_index": 108, "time_elapsed": 375381, "internal_node_id": "0.0-6.0-13.0"}}, {"uniqueid": "w12738678:a50076028", "current_trial": 109, "dateTime": 1664556085985, "trialdata": {"rt": 1446, "stimulus": "<p id='stroop-text' class='stroop-red'>BRIDGE</p>", "response": "r", "stimulus-type": "unrelated", "word": "BRIDGE", "color": "red", "correct_response": "r", "trial_id": "stroop-trial-1-unrelated-12", "trial_type": "html-keyboard-response", "trial_index": 109, "time_elapsed": 377332, "internal_node_id": "0.0-6.0-14.0"}}, {"uniqueid": "w12738678:a50076028", "current_trial": 110, "dateTime": 1664556087657, "trialdata": {"rt": 1166, "stimulus": "<p id='stroop-text' class='stroop-green'>SHIP</p>", "response": "g", "stimulus-type": "unrelated", "word": "SHIP", "color": "green", "correct_response": "g", "trial_id": "stroop-trial-1-unrelated-23", "trial_type": "html-keyboard-response", "trial_index": 110, "time_elapsed": 379004, "internal_node_id": "0.0-6.0-15.0"}}, {"uniqueid": "w12738678:a50076028", "current_trial": 111, "dateTime": 1664556089589, "trialdata": {"rt": 1426, "stimulus": "<p id='stroop-text' class='stroop-yellow'>YELLOW</p>", "response": "y", "stimulus-type": "congruent", "word": "yellow", "color": "yellow", "correct_response": "y", "trial_id": "stroop-trial-1-congruent-18", "trial_type": "html-keyboard-response", "trial_index": 111, "time_elapsed": 380937, "internal_node_id": "0.0-6.0-16.0"}}, {"uniqueid": "w12738678:a50076028", "current_trial": 112, "dateTime": 1664556091288, "trialdata": {"rt": 1192, "stimulus": "<p id='stroop-text' class='stroop-red'>CHAIR</p>", "response": "r", "stimulus-type": "unrelated", "word": "CHAIR", "color": "red", "correct_response": "r", "trial_id": "stroop-trial-1-unrelated-5", "trial_type": "html-keyboard-response", "trial_index": 112, "time_elapsed": 382635, "internal_node_id": "0.0-6.0-17.0"}}, {"uniqueid": "w12738678:a50076028", "current_trial": 113, "dateTime": 1664556092827, "trialdata": {"rt": 1033, "stimulus": "<p id='stroop-text' class='stroop-green'>BRAIN</p>", "response": "g", "stimulus-type": "unrelated", "word": "BRAIN", "color": "green", "correct_response": "g", "trial_id": "stroop-trial-1-unrelated-29", "trial_type": "html-keyboard-response", "trial_index": 113, "time_elapsed": 384174, "internal_node_id": "0.0-6.0-18.0"}}, {"uniqueid": "w12738678:a50076028", "current_trial": 114, "dateTime": 1664556094664, "trialdata": {"rt": 1331, "stimulus": "<p id='stroop-text' class='stroop-blue'>WINDOW</p>", "response": "b", "stimulus-type": "unrelated", "word": "WINDOW", "color": "blue", "correct_response": "b", "trial_id": "stroop-trial-1-unrelated-26", "trial_type": "html-keyboard-response", "trial_index": 114, "time_elapsed": 386012, "internal_node_id": "0.0-6.0-19.0"}}, {"uniqueid": "w12738678:a50076028", "current_trial": 115, "dateTime": 1664556096400, "trialdata": {"rt": 1229, "stimulus": "<p id='stroop-text' class='stroop-green'>RED</p>", "response": "g", "stimulus-type": "incongruent", "word": "red", "color": "green", "correct_response": "g", "trial_id": "stroop-trial-1-incongruent-5", "trial_type": "html-keyboard-response", "trial_index": 115, "time_elapsed": 387747, "internal_node_id": "0.0-6.0-20.0"}}, {"uniqueid": "w12738678:a50076028", "current_trial": 116, "dateTime": 1664556097899, "trialdata": {"rt": 993, "stimulus": "<p id='stroop-text' class='stroop-green'>GREEN</p>", "response": "g", "stimulus-type": "congruent", "word": "green", "color": "green", "correct_response": "g", "trial_id": "stroop-trial-1-congruent-10", "trial_type": "html-keyboard-response", "trial_index": 116, "time_elapsed": 389246, "internal_node_id": "0.0-6.0-21.0"}}, {"uniqueid": "w12738678:a50076028", "current_trial": 117, "dateTime": 1664556099742, "trialdata": {"rt": 1338, "stimulus": "<p id='stroop-text' class='stroop-blue'>STONE</p>", "response": "b", "stimulus-type": "unrelated", "word": "STONE", "color": "blue", "correct_response": "b", "trial_id": "stroop-trial-1-unrelated-27", "trial_type": "html-keyboard-response", "trial_index": 117, "time_elapsed": 391089, "internal_node_id": "0.0-6.0-22.0"}}, {"uniqueid": "w12738678:a50076028", "current_trial": 118, "dateTime": 1664556103049, "trialdata": {"rt": 2800, "stimulus": "<p id='stroop-text' class='stroop-yellow'>GREEN</p>", "response": "y", "stimulus-type": "incongruent", "word": "green", "color": "yellow", "correct_response": "y", "trial_id": "stroop-trial-1-incongruent-15", "trial_type": "html-keyboard-response", "trial_index": 118, "time_elapsed": 394396, "internal_node_id": "0.0-6.0-23.0"}}, {"uniqueid": "w12738678:a50076028", "current_trial": 119, "dateTime": 1664556104993, "trialdata": {"rt": 1439, "stimulus": "<p id='stroop-text' class='stroop-blue'>GREEN</p>", "response": "b", "stimulus-type": "incongruent", "word": "green", "color": "blue", "correct_response": "b", "trial_id": "stroop-trial-1-incongruent-22", "trial_type": "html-keyboard-response", "trial_index": 119, "time_elapsed": 396341, "internal_node_id": "0.0-6.0-24.0"}}, {"uniqueid": "w12738678:a50076028", "current_trial": 120, "dateTime": 1664556106582, "trialdata": {"rt": 1083, "stimulus": "<p id='stroop-text' class='stroop-blue'>BOTTLE</p>", "response": "b", "stimulus-type": "unrelated", "word": "BOTTLE", "color": "blue", "correct_response": "b", "trial_id": "stroop-trial-1-unrelated-28", "trial_type": "html-keyboard-response", "trial_index": 120, "time_elapsed": 397930, "internal_node_id": "0.0-6.0-25.0"}}, {"uniqueid": "w12738678:a50076028", "current_trial": 121, "dateTime": 1664556108619, "trialdata": {"rt": 1532, "stimulus": "<p id='stroop-text' class='stroop-red'>BRIDGE</p>", "response": "r", "stimulus-type": "unrelated", "word": "BRIDGE", "color": "red", "correct_response": "r", "trial_id": "stroop-trial-1-unrelated-7", "trial_type": "html-keyboard-response", "trial_index": 121, "time_elapsed": 399966, "internal_node_id": "0.0-6.0-26.0"}}, {"uniqueid": "w12738678:a50076028", "current_trial": 122, "dateTime": 1664556110431, "trialdata": {"rt": 1306, "stimulus": "<p id='stroop-text' class='stroop-yellow'>BLUE</p>", "response": "y", "stimulus-type": "incongruent", "word": "blue", "color": "yellow", "correct_response": "y", "trial_id": "stroop-trial-1-incongruent-26", "trial_type": "html-keyboard-response", "trial_index": 122, "time_elapsed": 401779, "internal_node_id": "0.0-6.0-27.0"}}, {"uniqueid": "w12738678:a50076028", "current_trial": 123, "dateTime": 1664556112072, "trialdata": {"rt": 1132, "stimulus": "<p id='stroop-text' class='stroop-green'>BOTTLE</p>", "response": "g", "stimulus-type": "unrelated", "word": "BOTTLE", "color": "green", "correct_response": "g", "trial_id": "stroop-trial-1-unrelated-30", "trial_type": "html-keyboard-response", "trial_index": 123, "time_elapsed": 403419, "internal_node_id": "0.0-6.0-28.0"}}, {"uniqueid": "w12738678:a50076028", "current_trial": 124, "dateTime": 1664556113706, "trialdata": {"rt": 1129, "stimulus": "<p id='stroop-text' class='stroop-yellow'>YELLOW</p>", "response": "y", "stimulus-type": "congruent", "word": "yellow", "color": "yellow", "correct_response": "y", "trial_id": "stroop-trial-1-congruent-22", "trial_type": "html-keyboard-response", "trial_index": 124, "time_elapsed": 405054, "internal_node_id": "0.0-6.0-29.0"}}, {"uniqueid": "w12738678:a50076028", "current_trial": 125, "dateTime": 1664556115192, "trialdata": {"rt": 979, "stimulus": "<p id='stroop-text' class='stroop-green'>CHAIR</p>", "response": "g", "stimulus-type": "unrelated", "word": "CHAIR", "color": "green", "correct_response": "g", "trial_id": "stroop-trial-1-unrelated-6", "trial_type": "html-keyboard-response", "trial_index": 125, "time_elapsed": 406539, "internal_node_id": "0.0-6.0-30.0"}}, {"uniqueid": "w12738678:a50076028", "current_trial": 126, "dateTime": 1664556116613, "trialdata": {"rt": 913, "stimulus": "<p id='stroop-text' class='stroop-red'>RED</p>", "response": "r", "stimulus-type": "congruent", "word": "red", "color": "red", "correct_response": "r", "trial_id": "stroop-trial-1-congruent-4", "trial_type": "html-keyboard-response", "trial_index": 126, "time_elapsed": 407960, "internal_node_id": "0.0-6.0-31.0"}}, {"uniqueid": "w12738678:a50076028", "current_trial": 127, "dateTime": 1664556118343, "trialdata": {"rt": 1224, "stimulus": "<p id='stroop-text' class='stroop-blue'>DOG</p>", "response": "b", "stimulus-type": "unrelated", "word": "DOG", "color": "blue", "correct_response": "b", "trial_id": "stroop-trial-1-unrelated-21", "trial_type": "html-keyboard-response", "trial_index": 127, "time_elapsed": 409690, "internal_node_id": "0.0-6.0-32.0"}}, {"uniqueid": "w12738678:a50076028", "current_trial": 128, "dateTime": 1664556120301, "trialdata": {"rt": 1452, "stimulus": "<p id='stroop-text' class='stroop-blue'>GREEN</p>", "response": "b", "stimulus-type": "incongruent", "word": "green", "color": "blue", "correct_response": "b", "trial_id": "stroop-trial-1-incongruent-3", "trial_type": "html-keyboard-response", "trial_index": 128, "time_elapsed": 411649, "internal_node_id": "0.0-6.0-33.0"}}, {"uniqueid": "w12738678:a50076028", "current_trial": 129, "dateTime": 1664556121909, "trialdata": {"rt": 1100, "stimulus": "<p id='stroop-text' class='stroop-blue'>BLUE</p>", "response": "b", "stimulus-type": "congruent", "word": "blue", "color": "blue", "correct_response": "b", "trial_id": "stroop-trial-1-congruent-8", "trial_type": "html-keyboard-response", "trial_index": 129, "time_elapsed": 413256, "internal_node_id": "0.0-6.0-34.0"}}, {"uniqueid": "w12738678:a50076028", "current_trial": 130, "dateTime": 1664556123693, "trialdata": {"rt": 1276, "stimulus": "<p id='stroop-text' class='stroop-red'>RED</p>", "response": "r", "stimulus-type": "congruent", "word": "red", "color": "red", "correct_response": "r", "trial_id": "stroop-trial-1-congruent-26", "trial_type": "html-keyboard-response", "trial_index": 130, "time_elapsed": 415040, "internal_node_id": "0.0-6.0-35.0"}}, {"uniqueid": "w12738678:a50076028", "current_trial": 131, "dateTime": 1664556125143, "trialdata": {"rt": 944, "stimulus": "<p id='stroop-text' class='stroop-yellow'>YELLOW</p>", "response": "y", "stimulus-type": "congruent", "word": "yellow", "color": "yellow", "correct_response": "y", "trial_id": "stroop-trial-1-congruent-30", "trial_type": "html-keyboard-response", "trial_index": 131, "time_elapsed": 416490, "internal_node_id": "0.0-6.0-36.0"}}, {"uniqueid": "w12738678:a50076028", "current_trial": 132, "dateTime": 1664556126908, "trialdata": {"rt": 1259, "stimulus": "<p id='stroop-text' class='stroop-red'>RED</p>", "response": "r", "stimulus-type": "congruent", "word": "red", "color": "red", "correct_response": "r", "trial_id": "stroop-trial-1-congruent-11", "trial_type": "html-keyboard-response", "trial_index": 132, "time_elapsed": 418255, "internal_node_id": "0.0-6.0-37.0"}}, {"uniqueid": "w12738678:a50076028", "current_trial": 133, "dateTime": 1664556128937, "trialdata": {"rt": 1522, "stimulus": "<p id='stroop-text' class='stroop-red'>YELLOW</p>", "response": "r", "stimulus-type": "incongruent", "word": "yellow", "color": "red", "correct_response": "r", "trial_id": "stroop-trial-1-incongruent-23", "trial_type": "html-keyboard-response", "trial_index": 133, "time_elapsed": 420284, "internal_node_id": "0.0-6.0-38.0"}}, {"uniqueid": "w12738678:a50076028", "current_trial": 134, "dateTime": 1664556130616, "trialdata": {"rt": 1155, "stimulus": "<p id='stroop-text' class='stroop-yellow'>YELLOW</p>", "response": "y", "stimulus-type": "congruent", "word": "yellow", "color": "yellow", "correct_response": "y", "trial_id": "stroop-trial-1-congruent-20", "trial_type": "html-keyboard-response", "trial_index": 134, "time_elapsed": 421964, "internal_node_id": "0.0-6.0-39.0"}}, {"uniqueid": "w12738678:a50076028", "current_trial": 135, "dateTime": 1664556132240, "trialdata": {"rt": 1119, "stimulus": "<p id='stroop-text' class='stroop-yellow'>YELLOW</p>", "response": "y", "stimulus-type": "congruent", "word": "yellow", "color": "yellow", "correct_response": "y", "trial_id": "stroop-trial-1-congruent-27", "trial_type": "html-keyboard-response", "trial_index": 135, "time_elapsed": 423587, "internal_node_id": "0.0-6.0-40.0"}}, {"uniqueid": "w12738678:a50076028", "current_trial": 136, "dateTime": 1664556133857, "trialdata": {"rt": 1111, "stimulus": "<p id='stroop-text' class='stroop-red'>BRAIN</p>", "response": "r", "stimulus-type": "unrelated", "word": "BRAIN", "color": "red", "correct_response": "r", "trial_id": "stroop-trial-1-unrelated-18", "trial_type": "html-keyboard-response", "trial_index": 136, "time_elapsed": 425205, "internal_node_id": "0.0-6.0-41.0"}}, {"uniqueid": "w12738678:a50076028", "current_trial": 137, "dateTime": 1664556135680, "trialdata": {"rt": 1315, "stimulus": "<p id='stroop-text' class='stroop-red'>BLUE</p>", "response": "r", "stimulus-type": "incongruent", "word": "blue", "color": "red", "correct_response": "r", "trial_id": "stroop-trial-1-incongruent-16", "trial_type": "html-keyboard-response", "trial_index": 137, "time_elapsed": 427028, "internal_node_id": "0.0-6.0-42.0"}}, {"uniqueid": "w12738678:a50076028", "current_trial": 138, "dateTime": 1664556137739, "trialdata": {"rt": 1553, "stimulus": "<p id='stroop-text' class='stroop-yellow'>BLUE</p>", "response": "y", "stimulus-type": "incongruent", "word": "blue", "color": "yellow", "correct_response": "y", "trial_id": "stroop-trial-1-incongruent-28", "trial_type": "html-keyboard-response", "trial_index": 138, "time_elapsed": 429086, "internal_node_id": "0.0-6.0-43.0"}}, {"uniqueid": "w12738678:a50076028", "current_trial": 139, "dateTime": 1664556139205, "trialdata": {"rt": 960, "stimulus": "<p id='stroop-text' class='stroop-yellow'>RED</p>", "response": "y", "stimulus-type": "incongruent", "word": "red", "color": "yellow", "correct_response": "y", "trial_id": "stroop-trial-1-incongruent-8", "trial_type": "html-keyboard-response", "trial_index": 139, "time_elapsed": 430552, "internal_node_id": "0.0-6.0-44.0"}}, {"uniqueid": "w12738678:a50076028", "current_trial": 140, "dateTime": 1664556140846, "trialdata": {"rt": 1135, "stimulus": "<p id='stroop-text' class='stroop-green'>RED</p>", "response": "g", "stimulus-type": "incongruent", "word": "red", "color": "green", "correct_response": "g", "trial_id": "stroop-trial-1-incongruent-19", "trial_type": "html-keyboard-response", "trial_index": 140, "time_elapsed": 432194, "internal_node_id": "0.0-6.0-45.0"}}, {"uniqueid": "w12738678:a50076028", "current_trial": 141, "dateTime": 1664556142460, "trialdata": {"rt": 1106, "stimulus": "<p id='stroop-text' class='stroop-green'>FORK</p>", "response": "g", "stimulus-type": "unrelated", "word": "FORK", "color": "green", "correct_response": "g", "trial_id": "stroop-trial-1-unrelated-14", "trial_type": "html-keyboard-response", "trial_index": 141, "time_elapsed": 433807, "internal_node_id": "0.0-6.0-46.0"}}, {"uniqueid": "w12738678:a50076028", "current_trial": 142, "dateTime": 1664556143984, "trialdata": {"rt": 1018, "stimulus": "<p id='stroop-text' class='stroop-green'>SHIP</p>", "response": "g", "stimulus-type": "unrelated", "word": "SHIP", "color": "green", "correct_response": "g", "trial_id": "stroop-trial-1-unrelated-13", "trial_type": "html-keyboard-response", "trial_index": 142, "time_elapsed": 435331, "internal_node_id": "0.0-6.0-47.0"}}, {"uniqueid": "w12738678:a50076028", "current_trial": 143, "dateTime": 1664556145775, "trialdata": {"rt": 1284, "stimulus": "<p id='stroop-text' class='stroop-blue'>STONE</p>", "response": "b", "stimulus-type": "unrelated", "word": "STONE", "color": "blue", "correct_response": "b", "trial_id": "stroop-trial-1-unrelated-10", "trial_type": "html-keyboard-response", "trial_index": 143, "time_elapsed": 437122, "internal_node_id": "0.0-6.0-48.0"}}, {"uniqueid": "w12738678:a50076028", "current_trial": 144, "dateTime": 1664556147620, "trialdata": {"rt": 1339, "stimulus": "<p id='stroop-text' class='stroop-red'>RED</p>", "response": "r", "stimulus-type": "congruent", "word": "red", "color": "red", "correct_response": "r", "trial_id": "stroop-trial-1-congruent-17", "trial_type": "html-keyboard-response", "trial_index": 144, "time_elapsed": 438967, "internal_node_id": "0.0-6.0-49.0"}}, {"uniqueid": "w12738678:a50076028", "current_trial": 145, "dateTime": 1664556149422, "trialdata": {"rt": 1294, "stimulus": "<p id='stroop-text' class='stroop-blue'>BLUE</p>", "response": "b", "stimulus-type": "congruent", "word": "blue", "color": "blue", "correct_response": "b", "trial_id": "stroop-trial-1-congruent-21", "trial_type": "html-keyboard-response", "trial_index": 145, "time_elapsed": 440769, "internal_node_id": "0.0-6.0-50.0"}}, {"uniqueid": "w12738678:a50076028", "current_trial": 146, "dateTime": 1664556150993, "trialdata": {"rt": 1065, "stimulus": "<p id='stroop-text' class='stroop-red'>RED</p>", "response": "r", "stimulus-type": "congruent", "word": "red", "color": "red", "correct_response": "r", "trial_id": "stroop-trial-1-congruent-23", "trial_type": "html-keyboard-response", "trial_index": 146, "time_elapsed": 442340, "internal_node_id": "0.0-6.0-51.0"}}, {"uniqueid": "w12738678:a50076028", "current_trial": 147, "dateTime": 1664556152760, "trialdata": {"rt": 1261, "stimulus": "<p id='stroop-text' class='stroop-red'>GREEN</p>", "response": "r", "stimulus-type": "incongruent", "word": "green", "color": "red", "correct_response": "r", "trial_id": "stroop-trial-1-incongruent-13", "trial_type": "html-keyboard-response", "trial_index": 147, "time_elapsed": 444107, "internal_node_id": "0.0-6.0-52.0"}}, {"uniqueid": "w12738678:a50076028", "current_trial": 148, "dateTime": 1664556154548, "trialdata": {"rt": 1281, "stimulus": "<p id='stroop-text' class='stroop-yellow'>GREEN</p>", "response": "y", "stimulus-type": "incongruent", "word": "green", "color": "yellow", "correct_response": "y", "trial_id": "stroop-trial-1-incongruent-25", "trial_type": "html-keyboard-response", "trial_index": 148, "time_elapsed": 445895, "internal_node_id": "0.0-6.0-53.0"}}, {"uniqueid": "w12738678:a50076028", "current_trial": 149, "dateTime": 1664556156315, "trialdata": {"rt": 1260, "stimulus": "<p id='stroop-text' class='stroop-blue'>YELLOW</p>", "response": "b", "stimulus-type": "incongruent", "word": "yellow", "color": "blue", "correct_response": "b", "trial_id": "stroop-trial-1-incongruent-4", "trial_type": "html-keyboard-response", "trial_index": 149, "time_elapsed": 447663, "internal_node_id": "0.0-6.0-54.0"}}, {"uniqueid": "w12738678:a50076028", "current_trial": 150, "dateTime": 1664556157898, "trialdata": {"rt": 1073, "stimulus": "<p id='stroop-text' class='stroop-blue'>RED</p>", "response": "b", "stimulus-type": "incongruent", "word": "red", "color": "blue", "correct_response": "b", "trial_id": "stroop-trial-1-incongruent-7", "trial_type": "html-keyboard-response", "trial_index": 150, "time_elapsed": 449246, "internal_node_id": "0.0-6.0-55.0"}}, {"uniqueid": "w12738678:a50076028", "current_trial": 151, "dateTime": 1664556160197, "trialdata": {"rt": 1792, "stimulus": "<p id='stroop-text' class='stroop-red'>RED</p>", "response": "r", "stimulus-type": "congruent", "word": "red", "color": "red", "correct_response": "r", "trial_id": "stroop-trial-1-congruent-16", "trial_type": "html-keyboard-response", "trial_index": 151, "time_elapsed": 451545, "internal_node_id": "0.0-6.0-56.0"}}, {"uniqueid": "w12738678:a50076028", "current_trial": 152, "dateTime": 1664556161995, "trialdata": {"rt": 1293, "stimulus": "<p id='stroop-text' class='stroop-yellow'>CHAIR</p>", "response": "y", "stimulus-type": "unrelated", "word": "CHAIR", "color": "yellow", "correct_response": "y", "trial_id": "stroop-trial-1-unrelated-4", "trial_type": "html-keyboard-response", "trial_index": 152, "time_elapsed": 453342, "internal_node_id": "0.0-6.0-57.0"}}, {"uniqueid": "w12738678:a50076028", "current_trial": 153, "dateTime": 1664556163617, "trialdata": {"rt": 1114, "stimulus": "<p id='stroop-text' class='stroop-red'>WINDOW</p>", "response": "r", "stimulus-type": "unrelated", "word": "WINDOW", "color": "red", "correct_response": "r", "trial_id": "stroop-trial-1-unrelated-22", "trial_type": "html-keyboard-response", "trial_index": 153, "time_elapsed": 454964, "internal_node_id": "0.0-6.0-58.0"}}, {"uniqueid": "w12738678:a50076028", "current_trial": 154, "dateTime": 1664556165271, "trialdata": {"rt": 1148, "stimulus": "<p id='stroop-text' class='stroop-red'>RED</p>", "response": "r", "stimulus-type": "congruent", "word": "red", "color": "red", "correct_response": "r", "trial_id": "stroop-trial-1-congruent-3", "trial_type": "html-keyboard-response", "trial_index": 154, "time_elapsed": 456618, "internal_node_id": "0.0-6.0-59.0"}}, {"uniqueid": "w12738678:a50076028", "current_trial": 155, "dateTime": 1664556167076, "trialdata": {"rt": 1300, "stimulus": "<p id='stroop-text' class='stroop-blue'>BOTTLE</p>", "response": "b", "stimulus-type": "unrelated", "word": "BOTTLE", "color": "blue", "correct_response": "b", "trial_id": "stroop-trial-1-unrelated-1", "trial_type": "html-keyboard-response", "trial_index": 155, "time_elapsed": 458423, "internal_node_id": "0.0-6.0-60.0"}}, {"uniqueid": "w12738678:a50076028", "current_trial": 156, "dateTime": 1664556168580, "trialdata": {"rt": 998, "stimulus": "<p id='stroop-text' class='stroop-blue'>RED</p>", "response": "b", "stimulus-type": "incongruent", "word": "red", "color": "blue", "correct_response": "b", "trial_id": "stroop-trial-1-incongruent-11", "trial_type": "html-keyboard-response", "trial_index": 156, "time_elapsed": 459927, "internal_node_id": "0.0-6.0-61.0"}}, {"uniqueid": "w12738678:a50076028", "current_trial": 157, "dateTime": 1664556170276, "trialdata": {"rt": 1189, "stimulus": "<p id='stroop-text' class='stroop-red'>RED</p>", "response": "r", "stimulus-type": "congruent", "word": "red", "color": "red", "correct_response": "r", "trial_id": "stroop-trial-1-congruent-1", "trial_type": "html-keyboard-response", "trial_index": 157, "time_elapsed": 461623, "internal_node_id": "0.0-6.0-62.0"}}, {"uniqueid": "w12738678:a50076028", "current_trial": 158, "dateTime": 1664556171904, "trialdata": {"rt": 1116, "stimulus": "<p id='stroop-text' class='stroop-green'>GREEN</p>", "response": "g", "stimulus-type": "congruent", "word": "green", "color": "green", "correct_response": "g", "trial_id": "stroop-trial-1-congruent-15", "trial_type": "html-keyboard-response", "trial_index": 158, "time_elapsed": 463251, "internal_node_id": "0.0-6.0-63.0"}}, {"uniqueid": "w12738678:a50076028", "current_trial": 159, "dateTime": 1664556173227, "trialdata": {"rt": 818, "stimulus": "<p id='stroop-text' class='stroop-green'>BOTTLE</p>", "response": "g", "stimulus-type": "unrelated", "word": "BOTTLE", "color": "green", "correct_response": "g", "trial_id": "stroop-trial-1-unrelated-8", "trial_type": "html-keyboard-response", "trial_index": 159, "time_elapsed": 464574, "internal_node_id": "0.0-6.0-64.0"}}, {"uniqueid": "w12738678:a50076028", "current_trial": 160, "dateTime": 1664556174855, "trialdata": {"rt": 1121, "stimulus": "<p id='stroop-text' class='stroop-yellow'>SHIP</p>", "response": "y", "stimulus-type": "unrelated", "word": "SHIP", "color": "yellow", "correct_response": "y", "trial_id": "stroop-trial-1-unrelated-16", "trial_type": "html-keyboard-response", "trial_index": 160, "time_elapsed": 466202, "internal_node_id": "0.0-6.0-65.0"}}, {"uniqueid": "w12738678:a50076028", "current_trial": 161, "dateTime": 1664556176423, "trialdata": {"rt": 1059, "stimulus": "<p id='stroop-text' class='stroop-red'>SHIP</p>", "response": "r", "stimulus-type": "unrelated", "word": "SHIP", "color": "red", "correct_response": "r", "trial_id": "stroop-trial-1-unrelated-3", "trial_type": "html-keyboard-response", "trial_index": 161, "time_elapsed": 467771, "internal_node_id": "0.0-6.0-66.0"}}, {"uniqueid": "w12738678:a50076028", "current_trial": 162, "dateTime": 1664556178049, "trialdata": {"rt": 1119, "stimulus": "<p id='stroop-text' class='stroop-red'>BLUE</p>", "response": "r", "stimulus-type": "incongruent", "word": "blue", "color": "red", "correct_response": "r", "trial_id": "stroop-trial-1-incongruent-27", "trial_type": "html-keyboard-response", "trial_index": 162, "time_elapsed": 469397, "internal_node_id": "0.0-6.0-67.0"}}, {"uniqueid": "w12738678:a50076028", "current_trial": 163, "dateTime": 1664556179597, "trialdata": {"rt": 1041, "stimulus": "<p id='stroop-text' class='stroop-red'>BLUE</p>", "response": "r", "stimulus-type": "incongruent", "word": "blue", "color": "red", "correct_response": "r", "trial_id": "stroop-trial-1-incongruent-30", "trial_type": "html-keyboard-response", "trial_index": 163, "time_elapsed": 470944, "internal_node_id": "0.0-6.0-68.0"}}, {"uniqueid": "w12738678:a50076028", "current_trial": 164, "dateTime": 1664556181156, "trialdata": {"rt": 1055, "stimulus": "<p id='stroop-text' class='stroop-green'>GREEN</p>", "response": "g", "stimulus-type": "congruent", "word": "green", "color": "green", "correct_response": "g", "trial_id": "stroop-trial-1-congruent-29", "trial_type": "html-keyboard-response", "trial_index": 164, "time_elapsed": 472503, "internal_node_id": "0.0-6.0-69.0"}}, {"uniqueid": "w12738678:a50076028", "current_trial": 165, "dateTime": 1664556182958, "trialdata": {"rt": 1296, "stimulus": "<p id='stroop-text' class='stroop-blue'>GREEN</p>", "response": "b", "stimulus-type": "incongruent", "word": "green", "color": "blue", "correct_response": "b", "trial_id": "stroop-trial-1-incongruent-12", "trial_type": "html-keyboard-response", "trial_index": 165, "time_elapsed": 474305, "internal_node_id": "0.0-6.0-70.0"}}, {"uniqueid": "w12738678:a50076028", "current_trial": 166, "dateTime": 1664556184654, "trialdata": {"rt": 1185, "stimulus": "<p id='stroop-text' class='stroop-yellow'>BRIDGE</p>", "response": "y", "stimulus-type": "unrelated", "word": "BRIDGE", "color": "yellow", "correct_response": "y", "trial_id": "stroop-trial-1-unrelated-25", "trial_type": "html-keyboard-response", "trial_index": 166, "time_elapsed": 476001, "internal_node_id": "0.0-6.0-71.0"}}, {"uniqueid": "w12738678:a50076028", "current_trial": 167, "dateTime": 1664556186622, "trialdata": {"rt": 1463, "stimulus": "<p id='stroop-text' class='stroop-green'>GREEN</p>", "response": "g", "stimulus-type": "congruent", "word": "green", "color": "green", "correct_response": "g", "trial_id": "stroop-trial-1-congruent-14", "trial_type": "html-keyboard-response", "trial_index": 167, "time_elapsed": 477970, "internal_node_id": "0.0-6.0-72.0"}}, {"uniqueid": "w12738678:a50076028", "current_trial": 168, "dateTime": 1664556188330, "trialdata": {"rt": 1200, "stimulus": "<p id='stroop-text' class='stroop-green'>GREEN</p>", "response": "g", "stimulus-type": "congruent", "word": "green", "color": "green", "correct_response": "g", "trial_id": "stroop-trial-1-congruent-6", "trial_type": "html-keyboard-response", "trial_index": 168, "time_elapsed": 479678, "internal_node_id": "0.0-6.0-73.0"}}, {"uniqueid": "w12738678:a50076028", "current_trial": 169, "dateTime": 1664556190095, "trialdata": {"rt": 1255, "stimulus": "<p id='stroop-text' class='stroop-blue'>BLUE</p>", "response": "b", "stimulus-type": "congruent", "word": "blue", "color": "blue", "correct_response": "b", "trial_id": "stroop-trial-1-congruent-28", "trial_type": "html-keyboard-response", "trial_index": 169, "time_elapsed": 481442, "internal_node_id": "0.0-6.0-74.0"}}, {"uniqueid": "w12738678:a50076028", "current_trial": 170, "dateTime": 1664556192236, "trialdata": {"rt": 1636, "stimulus": "<p id='stroop-text' class='stroop-red'>BRAIN</p>", "response": "r", "stimulus-type": "unrelated", "word": "BRAIN", "color": "red", "correct_response": "r", "trial_id": "stroop-trial-1-unrelated-17", "trial_type": "html-keyboard-response", "trial_index": 170, "time_elapsed": 483583, "internal_node_id": "0.0-6.0-75.0"}}, {"uniqueid": "w12738678:a50076028", "current_trial": 171, "dateTime": 1664556194481, "trialdata": {"rt": 1738, "stimulus": "<p id='stroop-text' class='stroop-green'>STONE</p>", "response": "g", "stimulus-type": "unrelated", "word": "STONE", "color": "green", "correct_response": "g", "trial_id": "stroop-trial-1-unrelated-20", "trial_type": "html-keyboard-response", "trial_index": 171, "time_elapsed": 485828, "internal_node_id": "0.0-6.0-76.0"}}, {"uniqueid": "w12738678:a50076028", "current_trial": 172, "dateTime": 1664556195963, "trialdata": {"rt": 976, "stimulus": "<p id='stroop-text' class='stroop-yellow'>GREEN</p>", "response": "y", "stimulus-type": "incongruent", "word": "green", "color": "yellow", "correct_response": "y", "trial_id": "stroop-trial-1-incongruent-20", "trial_type": "html-keyboard-response", "trial_index": 172, "time_elapsed": 487310, "internal_node_id": "0.0-6.0-77.0"}}, {"uniqueid": "w12738678:a50076028", "current_trial": 173, "dateTime": 1664556198057, "trialdata": {"rt": 1587, "stimulus": "<p id='stroop-text' class='stroop-green'>RED</p>", "response": "g", "stimulus-type": "incongruent", "word": "red", "color": "green", "correct_response": "g", "trial_id": "stroop-trial-1-incongruent-24", "trial_type": "html-keyboard-response", "trial_index": 173, "time_elapsed": 489405, "internal_node_id": "0.0-6.0-78.0"}}, {"uniqueid": "w12738678:a50076028", "current_trial": 174, "dateTime": 1664556199778, "trialdata": {"rt": 1214, "stimulus": "<p id='stroop-text' class='stroop-blue'>BLUE</p>", "response": "b", "stimulus-type": "congruent", "word": "blue", "color": "blue", "correct_response": "b", "trial_id": "stroop-trial-1-congruent-19", "trial_type": "html-keyboard-response", "trial_index": 174, "time_elapsed": 491126, "internal_node_id": "0.0-6.0-79.0"}}, {"uniqueid": "w12738678:a50076028", "current_trial": 175, "dateTime": 1664556201806, "trialdata": {"rt": 1522, "stimulus": "<p id='stroop-text' class='stroop-red'>BOAT</p>", "response": "r", "stimulus-type": "unrelated", "word": "BOAT", "color": "red", "correct_response": "r", "trial_id": "stroop-trial-1-unrelated-15", "trial_type": "html-keyboard-response", "trial_index": 175, "time_elapsed": 493153, "internal_node_id": "0.0-6.0-80.0"}}, {"uniqueid": "w12738678:a50076028", "current_trial": 176, "dateTime": 1664556203468, "trialdata": {"rt": 1156, "stimulus": "<p id='stroop-text' class='stroop-blue'>YELLOW</p>", "response": "y", "stimulus-type": "incongruent", "word": "yellow", "color": "blue", "correct_response": "b", "trial_id": "stroop-trial-1-incongruent-9", "trial_type": "html-keyboard-response", "trial_index": 176, "time_elapsed": 494815, "internal_node_id": "0.0-6.0-81.0"}}, {"uniqueid": "w12738678:a50076028", "current_trial": 177, "dateTime": 1664556205356, "trialdata": {"rt": 1381, "stimulus": "<p id='stroop-text' class='stroop-green'>GREEN</p>", "response": "g", "stimulus-type": "congruent", "word": "green", "color": "green", "correct_response": "g", "trial_id": "stroop-trial-1-congruent-25", "trial_type": "html-keyboard-response", "trial_index": 177, "time_elapsed": 496703, "internal_node_id": "0.0-6.0-82.0"}}, {"uniqueid": "w12738678:a50076028", "current_trial": 178, "dateTime": 1664556207331, "trialdata": {"rt": 1470, "stimulus": "<p id='stroop-text' class='stroop-green'>YELLOW</p>", "response": "g", "stimulus-type": "incongruent", "word": "yellow", "color": "green", "correct_response": "g", "trial_id": "stroop-trial-1-incongruent-17", "trial_type": "html-keyboard-response", "trial_index": 178, "time_elapsed": 498678, "internal_node_id": "0.0-6.0-83.0"}}, {"uniqueid": "w12738678:a50076028", "current_trial": 179, "dateTime": 1664556209035, "trialdata": {"rt": 1195, "stimulus": "<p id='stroop-text' class='stroop-blue'>RED</p>", "response": "b", "stimulus-type": "incongruent", "word": "red", "color": "blue", "correct_response": "b", "trial_id": "stroop-trial-1-incongruent-21", "trial_type": "html-keyboard-response", "trial_index": 179, "time_elapsed": 500382, "internal_node_id": "0.0-6.0-84.0"}}, {"uniqueid": "w12738678:a50076028", "current_trial": 180, "dateTime": 1664556210826, "trialdata": {"rt": 1284, "stimulus": "<p id='stroop-text' class='stroop-blue'>GREEN</p>", "response": "b", "stimulus-type": "incongruent", "word": "green", "color": "blue", "correct_response": "b", "trial_id": "stroop-trial-1-incongruent-2", "trial_type": "html-keyboard-response", "trial_index": 180, "time_elapsed": 502173, "internal_node_id": "0.0-6.0-85.0"}}, {"uniqueid": "w12738678:a50076028", "current_trial": 181, "dateTime": 1664556213105, "trialdata": {"rt": 1757, "stimulus": "<p id='stroop-text' class='stroop-red'>BOAT</p>", "response": "r", "stimulus-type": "unrelated", "word": "BOAT", "color": "red", "correct_response": "r", "trial_id": "stroop-trial-1-unrelated-2", "trial_type": "html-keyboard-response", "trial_index": 181, "time_elapsed": 504452, "internal_node_id": "0.0-6.0-86.0"}}, {"uniqueid": "w12738678:a50076028", "current_trial": 182, "dateTime": 1664556214998, "trialdata": {"rt": 1385, "stimulus": "<p id='stroop-text' class='stroop-green'>RED</p>", "response": "g", "stimulus-type": "incongruent", "word": "red", "color": "green", "correct_response": "g", "trial_id": "stroop-trial-1-incongruent-6", "trial_type": "html-keyboard-response", "trial_index": 182, "time_elapsed": 506345, "internal_node_id": "0.0-6.0-87.0"}}, {"uniqueid": "w12738678:a50076028", "current_trial": 183, "dateTime": 1664556216672, "trialdata": {"rt": 1168, "stimulus": "<p id='stroop-text' class='stroop-green'>BOTTLE</p>", "response": "g", "stimulus-type": "unrelated", "word": "BOTTLE", "color": "green", "correct_response": "g", "trial_id": "stroop-trial-1-unrelated-11", "trial_type": "html-keyboard-response", "trial_index": 183, "time_elapsed": 508020, "internal_node_id": "0.0-6.0-88.0"}}, {"uniqueid": "w12738678:a50076028", "current_trial": 184, "dateTime": 1664556218501, "trialdata": {"rt": 1318, "stimulus": "<p id='stroop-text' class='stroop-blue'>BRIDGE</p>", "response": "r", "stimulus-type": "unrelated", "word": "BRIDGE", "color": "blue", "correct_response": "b", "trial_id": "stroop-trial-1-unrelated-19", "trial_type": "html-keyboard-response", "trial_index": 184, "time_elapsed": 509849, "internal_node_id": "0.0-6.0-89.0"}}, {"uniqueid": "w12738678:a50076028", "current_trial": 185, "dateTime": 1664556236467, "trialdata": {"rt": 17457, "stimulus": "  <h1> End of block! </h1>\n\n  You have reached the end of the block 2/5. If you need a short break, feel free to take one now before moving on.\n\n  <br><br>\n  In the next block, you will complete another 90 rounds of this game.\n\n  <br><br>\n  <div style='text-align: center;'>Press <code>space</code> to begin.</div>\n  <br><br>\n<div style='text-align: center;'>(If the experiment doesn't continue, try clicking on the text and then pressing <code>space</code>.)</div>", "response": " ", "trial_id": "stroop_1_ready_3", "trial_type": "html-keyboard-response", "trial_index": 185, "time_elapsed": 527815, "internal_node_id": "0.0-7.0"}}, {"uniqueid": "w12738678:a50076028", "current_trial": 186, "dateTime": 1664556238945, "trialdata": {"rt": 2471, "stimulus": "<p id='stroop-text' class='stroop-green'>GREEN</p>", "response": "g", "stimulus-type": "congruent", "word": "green", "color": "green", "correct_response": "g", "trial_id": "stroop-trial-1-congruent-28", "trial_type": "html-keyboard-response", "trial_index": 186, "time_elapsed": 530292, "internal_node_id": "0.0-8.0-0.0"}}, {"uniqueid": "w12738678:a50076028", "current_trial": 187, "dateTime": 1664556240730, "trialdata": {"rt": 1278, "stimulus": "<p id='stroop-text' class='stroop-yellow'>BLUE</p>", "response": "y", "stimulus-type": "incongruent", "word": "blue", "color": "yellow", "correct_response": "y", "trial_id": "stroop-trial-1-incongruent-2", "trial_type": "html-keyboard-response", "trial_index": 187, "time_elapsed": 532078, "internal_node_id": "0.0-8.0-1.0"}}, {"uniqueid": "w12738678:a50076028", "current_trial": 188, "dateTime": 1664556242225, "trialdata": {"rt": 990, "stimulus": "<p id='stroop-text' class='stroop-green'>GREEN</p>", "response": "g", "stimulus-type": "congruent", "word": "green", "color": "green", "correct_response": "g", "trial_id": "stroop-trial-1-congruent-1", "trial_type": "html-keyboard-response", "trial_index": 188, "time_elapsed": 533572, "internal_node_id": "0.0-8.0-2.0"}}, {"uniqueid": "w12738678:a50076028", "current_trial": 189, "dateTime": 1664556243618, "trialdata": {"rt": 884, "stimulus": "<p id='stroop-text' class='stroop-yellow'>YELLOW</p>", "response": "y", "stimulus-type": "congruent", "word": "yellow", "color": "yellow", "correct_response": "y", "trial_id": "stroop-trial-1-congruent-21", "trial_type": "html-keyboard-response", "trial_index": 189, "time_elapsed": 534965, "internal_node_id": "0.0-8.0-3.0"}}, {"uniqueid": "w12738678:a50076028", "current_trial": 190, "dateTime": 1664556244896, "trialdata": {"rt": 771, "stimulus": "<p id='stroop-text' class='stroop-green'>GREEN</p>", "response": "g", "stimulus-type": "congruent", "word": "green", "color": "green", "correct_response": "g", "trial_id": "stroop-trial-1-congruent-10", "trial_type": "html-keyboard-response", "trial_index": 190, "time_elapsed": 536243, "internal_node_id": "0.0-8.0-4.0"}}, {"uniqueid": "w12738678:a50076028", "current_trial": 191, "dateTime": 1664556246807, "trialdata": {"rt": 1400, "stimulus": "<p id='stroop-text' class='stroop-green'>YELLOW</p>", "response": "g", "stimulus-type": "incongruent", "word": "yellow", "color": "green", "correct_response": "g", "trial_id": "stroop-trial-1-incongruent-22", "trial_type": "html-keyboard-response", "trial_index": 191, "time_elapsed": 538154, "internal_node_id": "0.0-8.0-5.0"}}, {"uniqueid": "w12738678:a50076028", "current_trial": 192, "dateTime": 1664556248360, "trialdata": {"rt": 1043, "stimulus": "<p id='stroop-text' class='stroop-blue'>BRAIN</p>", "response": "b", "stimulus-type": "unrelated", "word": "BRAIN", "color": "blue", "correct_response": "b", "trial_id": "stroop-trial-1-unrelated-30", "trial_type": "html-keyboard-response", "trial_index": 192, "time_elapsed": 539707, "internal_node_id": "0.0-8.0-6.0"}}, {"uniqueid": "w12738678:a50076028", "current_trial": 193, "dateTime": 1664556249877, "trialdata": {"rt": 1010, "stimulus": "<p id='stroop-text' class='stroop-blue'>BLUE</p>", "response": "b", "stimulus-type": "congruent", "word": "blue", "color": "blue", "correct_response": "b", "trial_id": "stroop-trial-1-congruent-25", "trial_type": "html-keyboard-response", "trial_index": 193, "time_elapsed": 541224, "internal_node_id": "0.0-8.0-7.0"}}, {"uniqueid": "w12738678:a50076028", "current_trial": 194, "dateTime": 1664556251551, "trialdata": {"rt": 1165, "stimulus": "<p id='stroop-text' class='stroop-green'>GREEN</p>", "response": "g", "stimulus-type": "congruent", "word": "green", "color": "green", "correct_response": "g", "trial_id": "stroop-trial-1-congruent-19", "trial_type": "html-keyboard-response", "trial_index": 194, "time_elapsed": 542898, "internal_node_id": "0.0-8.0-8.0"}}, {"uniqueid": "w12738678:a50076028", "current_trial": 195, "dateTime": 1664556253336, "trialdata": {"rt": 1278, "stimulus": "<p id='stroop-text' class='stroop-yellow'>BOTTLE</p>", "response": "y", "stimulus-type": "unrelated", "word": "BOTTLE", "color": "yellow", "correct_response": "y", "trial_id": "stroop-trial-1-unrelated-25", "trial_type": "html-keyboard-response", "trial_index": 195, "time_elapsed": 544683, "internal_node_id": "0.0-8.0-9.0"}}, {"uniqueid": "w12738678:a50076028", "current_trial": 196, "dateTime": 1664556255255, "trialdata": {"rt": 1412, "stimulus": "<p id='stroop-text' class='stroop-red'>GREEN</p>", "response": "r", "stimulus-type": "incongruent", "word": "green", "color": "red", "correct_response": "r", "trial_id": "stroop-trial-1-incongruent-23", "trial_type": "html-keyboard-response", "trial_index": 196, "time_elapsed": 546603, "internal_node_id": "0.0-8.0-10.0"}}, {"uniqueid": "w12738678:a50076028", "current_trial": 197, "dateTime": 1664556257528, "trialdata": {"rt": 1766, "stimulus": "<p id='stroop-text' class='stroop-green'>RED</p>", "response": "g", "stimulus-type": "incongruent", "word": "red", "color": "green", "correct_response": "g", "trial_id": "stroop-trial-1-incongruent-11", "trial_type": "html-keyboard-response", "trial_index": 197, "time_elapsed": 548876, "internal_node_id": "0.0-8.0-11.0"}}, {"uniqueid": "w12738678:a50076028", "current_trial": 198, "dateTime": 1664556259504, "trialdata": {"rt": 1469, "stimulus": "<p id='stroop-text' class='stroop-blue'>BLUE</p>", "response": "b", "stimulus-type": "congruent", "word": "blue", "color": "blue", "correct_response": "b", "trial_id": "stroop-trial-1-congruent-9", "trial_type": "html-keyboard-response", "trial_index": 198, "time_elapsed": 550851, "internal_node_id": "0.0-8.0-12.0"}}, {"uniqueid": "w12738678:a50076028", "current_trial": 199, "dateTime": 1664556261928, "trialdata": {"rt": 1918, "stimulus": "<p id='stroop-text' class='stroop-red'>YELLOW</p>", "response": "r", "stimulus-type": "incongruent", "word": "yellow", "color": "red", "correct_response": "r", "trial_id": "stroop-trial-1-incongruent-30", "trial_type": "html-keyboard-response", "trial_index": 199, "time_elapsed": 553275, "internal_node_id": "0.0-8.0-13.0"}}, {"uniqueid": "w12738678:a50076028", "current_trial": 200, "dateTime": 1664556263783, "trialdata": {"rt": 1347, "stimulus": "<p id='stroop-text' class='stroop-yellow'>SHIP</p>", "response": "y", "stimulus-type": "unrelated", "word": "SHIP", "color": "yellow", "correct_response": "y", "trial_id": "stroop-trial-1-unrelated-15", "trial_type": "html-keyboard-response", "trial_index": 200, "time_elapsed": 555130, "internal_node_id": "0.0-8.0-14.0"}}, {"uniqueid": "w12738678:a50076028", "current_trial": 201, "dateTime": 1664556265601, "trialdata": {"rt": 1309, "stimulus": "<p id='stroop-text' class='stroop-green'>GREEN</p>", "response": "g", "stimulus-type": "congruent", "word": "green", "color": "green", "correct_response": "g", "trial_id": "stroop-trial-1-congruent-30", "trial_type": "html-keyboard-response", "trial_index": 201, "time_elapsed": 556948, "internal_node_id": "0.0-8.0-15.0"}}, {"uniqueid": "w12738678:a50076028", "current_trial": 202, "dateTime": 1664556267152, "trialdata": {"rt": 1043, "stimulus": "<p id='stroop-text' class='stroop-yellow'>YELLOW</p>", "response": "y", "stimulus-type": "congruent", "word": "yellow", "color": "yellow", "correct_response": "y", "trial_id": "stroop-trial-1-congruent-7", "trial_type": "html-keyboard-response", "trial_index": 202, "time_elapsed": 558500, "internal_node_id": "0.0-8.0-16.0"}}, {"uniqueid": "w12738678:a50076028", "current_trial": 203, "dateTime": 1664556268684, "trialdata": {"rt": 1024, "stimulus": "<p id='stroop-text' class='stroop-yellow'>YELLOW</p>", "response": "y", "stimulus-type": "congruent", "word": "yellow", "color": "yellow", "correct_response": "y", "trial_id": "stroop-trial-1-congruent-3", "trial_type": "html-keyboard-response", "trial_index": 203, "time_elapsed": 560031, "internal_node_id": "0.0-8.0-17.0"}}, {"uniqueid": "w12738678:a50076028", "current_trial": 204, "dateTime": 1664556270849, "trialdata": {"rt": 1655, "stimulus": "<p id='stroop-text' class='stroop-red'>RED</p>", "response": "r", "stimulus-type": "congruent", "word": "red", "color": "red", "correct_response": "r", "trial_id": "stroop-trial-1-congruent-14", "trial_type": "html-keyboard-response", "trial_index": 204, "time_elapsed": 562196, "internal_node_id": "0.0-8.0-18.0"}}, {"uniqueid": "w12738678:a50076028", "current_trial": 205, "dateTime": 1664556272411, "trialdata": {"rt": 1055, "stimulus": "<p id='stroop-text' class='stroop-yellow'>FORK</p>", "response": "y", "stimulus-type": "unrelated", "word": "FORK", "color": "yellow", "correct_response": "y", "trial_id": "stroop-trial-1-unrelated-20", "trial_type": "html-keyboard-response", "trial_index": 205, "time_elapsed": 563758, "internal_node_id": "0.0-8.0-19.0"}}, {"uniqueid": "w12738678:a50076028", "current_trial": 206, "dateTime": 1664556273999, "trialdata": {"rt": 1077, "stimulus": "<p id='stroop-text' class='stroop-red'>RED</p>", "response": "r", "stimulus-type": "congruent", "word": "red", "color": "red", "correct_response": "r", "trial_id": "stroop-trial-1-congruent-18", "trial_type": "html-keyboard-response", "trial_index": 206, "time_elapsed": 565346, "internal_node_id": "0.0-8.0-20.0"}}, {"uniqueid": "w12738678:a50076028", "current_trial": 207, "dateTime": 1664556275843, "trialdata": {"rt": 1337, "stimulus": "<p id='stroop-text' class='stroop-green'>BLUE</p>", "response": "g", "stimulus-type": "incongruent", "word": "blue", "color": "green", "correct_response": "g", "trial_id": "stroop-trial-1-incongruent-4", "trial_type": "html-keyboard-response", "trial_index": 207, "time_elapsed": 567191, "internal_node_id": "0.0-8.0-21.0"}}, {"uniqueid": "w12738678:a50076028", "current_trial": 208, "dateTime": 1664556277978, "trialdata": {"rt": 1625, "stimulus": "<p id='stroop-text' class='stroop-red'>DOG</p>", "response": "r", "stimulus-type": "unrelated", "word": "DOG", "color": "red", "correct_response": "r", "trial_id": "stroop-trial-1-unrelated-28", "trial_type": "html-keyboard-response", "trial_index": 208, "time_elapsed": 569325, "internal_node_id": "0.0-8.0-22.0"}}, {"uniqueid": "w12738678:a50076028", "current_trial": 209, "dateTime": 1664556280085, "trialdata": {"rt": 1601, "stimulus": "<p id='stroop-text' class='stroop-blue'>GREEN</p>", "response": "b", "stimulus-type": "incongruent", "word": "green", "color": "blue", "correct_response": "b", "trial_id": "stroop-trial-1-incongruent-12", "trial_type": "html-keyboard-response", "trial_index": 209, "time_elapsed": 571432, "internal_node_id": "0.0-8.0-23.0"}}, {"uniqueid": "w12738678:a50076028", "current_trial": 210, "dateTime": 1664556282134, "trialdata": {"rt": 1542, "stimulus": "<p id='stroop-text' class='stroop-red'>RED</p>", "response": "r", "stimulus-type": "congruent", "word": "red", "color": "red", "correct_response": "r", "trial_id": "stroop-trial-1-congruent-23", "trial_type": "html-keyboard-response", "trial_index": 210, "time_elapsed": 573482, "internal_node_id": "0.0-8.0-24.0"}}, {"uniqueid": "w12738678:a50076028", "current_trial": 211, "dateTime": 1664556284256, "trialdata": {"rt": 1616, "stimulus": "<p id='stroop-text' class='stroop-blue'>RED</p>", "response": "b", "stimulus-type": "incongruent", "word": "red", "color": "blue", "correct_response": "b", "trial_id": "stroop-trial-1-incongruent-5", "trial_type": "html-keyboard-response", "trial_index": 211, "time_elapsed": 575604, "internal_node_id": "0.0-8.0-25.0"}}, {"uniqueid": "w12738678:a50076028", "current_trial": 212, "dateTime": 1664556285829, "trialdata": {"rt": 1061, "stimulus": "<p id='stroop-text' class='stroop-blue'>BLUE</p>", "response": "b", "stimulus-type": "congruent", "word": "blue", "color": "blue", "correct_response": "b", "trial_id": "stroop-trial-1-congruent-17", "trial_type": "html-keyboard-response", "trial_index": 212, "time_elapsed": 577176, "internal_node_id": "0.0-8.0-26.0"}}, {"uniqueid": "w12738678:a50076028", "current_trial": 213, "dateTime": 1664556287874, "trialdata": {"rt": 1536, "stimulus": "<p id='stroop-text' class='stroop-red'>RED</p>", "response": "r", "stimulus-type": "congruent", "word": "red", "color": "red", "correct_response": "r", "trial_id": "stroop-trial-1-congruent-15", "trial_type": "html-keyboard-response", "trial_index": 213, "time_elapsed": 579221, "internal_node_id": "0.0-8.0-27.0"}}, {"uniqueid": "w12738678:a50076028", "current_trial": 214, "dateTime": 1664556289816, "trialdata": {"rt": 1434, "stimulus": "<p id='stroop-text' class='stroop-red'>BOTTLE</p>", "response": "r", "stimulus-type": "unrelated", "word": "BOTTLE", "color": "red", "correct_response": "r", "trial_id": "stroop-trial-1-unrelated-12", "trial_type": "html-keyboard-response", "trial_index": 214, "time_elapsed": 581163, "internal_node_id": "0.0-8.0-28.0"}}, {"uniqueid": "w12738678:a50076028", "current_trial": 215, "dateTime": 1664556291843, "trialdata": {"rt": 1509, "stimulus": "<p id='stroop-text' class='stroop-yellow'>YELLOW</p>", "response": "y", "stimulus-type": "congruent", "word": "yellow", "color": "yellow", "correct_response": "y", "trial_id": "stroop-trial-1-congruent-26", "trial_type": "html-keyboard-response", "trial_index": 215, "time_elapsed": 583190, "internal_node_id": "0.0-8.0-29.0"}}, {"uniqueid": "w12738678:a50076028", "current_trial": 216, "dateTime": 1664556293518, "trialdata": {"rt": 1168, "stimulus": "<p id='stroop-text' class='stroop-blue'>BLUE</p>", "response": "b", "stimulus-type": "congruent", "word": "blue", "color": "blue", "correct_response": "b", "trial_id": "stroop-trial-1-congruent-4", "trial_type": "html-keyboard-response", "trial_index": 216, "time_elapsed": 584865, "internal_node_id": "0.0-8.0-30.0"}}, {"uniqueid": "w12738678:a50076028", "current_trial": 217, "dateTime": 1664556294952, "trialdata": {"rt": 925, "stimulus": "<p id='stroop-text' class='stroop-blue'>BLUE</p>", "response": "b", "stimulus-type": "congruent", "word": "blue", "color": "blue", "correct_response": "b", "trial_id": "stroop-trial-1-congruent-27", "trial_type": "html-keyboard-response", "trial_index": 217, "time_elapsed": 586299, "internal_node_id": "0.0-8.0-31.0"}}, {"uniqueid": "w12738678:a50076028", "current_trial": 218, "dateTime": 1664556296536, "trialdata": {"rt": 1075, "stimulus": "<p id='stroop-text' class='stroop-red'>BLUE</p>", "response": "r", "stimulus-type": "incongruent", "word": "blue", "color": "red", "correct_response": "r", "trial_id": "stroop-trial-1-incongruent-7", "trial_type": "html-keyboard-response", "trial_index": 218, "time_elapsed": 587883, "internal_node_id": "0.0-8.0-32.0"}}, {"uniqueid": "w12738678:a50076028", "current_trial": 219, "dateTime": 1664556298049, "trialdata": {"rt": 1006, "stimulus": "<p id='stroop-text' class='stroop-green'>SHIP</p>", "response": "g", "stimulus-type": "unrelated", "word": "SHIP", "color": "green", "correct_response": "g", "trial_id": "stroop-trial-1-unrelated-14", "trial_type": "html-keyboard-response", "trial_index": 219, "time_elapsed": 589396, "internal_node_id": "0.0-8.0-33.0"}}, {"uniqueid": "w12738678:a50076028", "current_trial": 220, "dateTime": 1664556299963, "trialdata": {"rt": 1404, "stimulus": "<p id='stroop-text' class='stroop-yellow'>RED</p>", "response": "y", "stimulus-type": "incongruent", "word": "red", "color": "yellow", "correct_response": "y", "trial_id": "stroop-trial-1-incongruent-9", "trial_type": "html-keyboard-response", "trial_index": 220, "time_elapsed": 591311, "internal_node_id": "0.0-8.0-34.0"}}, {"uniqueid": "w12738678:a50076028", "current_trial": 221, "dateTime": 1664556301547, "trialdata": {"rt": 1078, "stimulus": "<p id='stroop-text' class='stroop-yellow'>GREEN</p>", "response": "y", "stimulus-type": "incongruent", "word": "green", "color": "yellow", "correct_response": "y", "trial_id": "stroop-trial-1-incongruent-20", "trial_type": "html-keyboard-response", "trial_index": 221, "time_elapsed": 592895, "internal_node_id": "0.0-8.0-35.0"}}, {"uniqueid": "w12738678:a50076028", "current_trial": 222, "dateTime": 1664556303283, "trialdata": {"rt": 1226, "stimulus": "<p id='stroop-text' class='stroop-green'>BLUE</p>", "response": "g", "stimulus-type": "incongruent", "wor