{"condition": 0, "counterbalance": 0, "assignmentId": "a35042347", "workerId": "w23046293", "hitId": "h77255454", "currenttrial": 965, "bonus": 0, "data": [{"uniqueid": "w23046293:a35042347", "current_trial": 0, "dateTime": 1664555214134, "trialdata": {"success": true, "trial_type": "fullscreen", "trial_index": 0, "time_elapsed": 5225, "internal_node_id": "0.0-0.0"}}, {"uniqueid": "w23046293:a35042347", "current_trial": 1, "dateTime": 1664555257878, "trialdata": {"view_history": [{"page_index": 0, "viewing_time": 43731}], "rt": 43731, "trial_id": "exp_instructions_distractor", "trial_type": "instructions", "trial_index": 1, "time_elapsed": 48969, "internal_node_id": "0.0-1.0"}}, {"uniqueid": "w23046293:a35042347", "current_trial": 2, "dateTime": 1664555312828, "trialdata": {"view_history": [{"page_index": 0, "viewing_time": 54942}], "rt": 54942, "trial_id": "color_game_instructions", "trial_type": "instructions", "trial_index": 2, "time_elapsed": 103919, "internal_node_id": "0.0-2.0"}}, {"uniqueid": "w23046293:a35042347", "current_trial": 3, "dateTime": 1664555322472, "trialdata": {"rt": 9638, "stimulus": "<h1> Get ready to start the game! </h1>\n\nThank you for reading the instructions. Get ready start with the first of 5 block(s) of this game.\n<br><br>\nIn this first block, you will complete 90 rounds of this game before moving on.\n<br><br>\nRemember, the better you perform, the bigger your bonus will be!\n<br><br>\n<div style='text-align: center;'>Press <code>space</code> to begin.</div>", "response": " ", "trial_id": "stroop_1_ready_1", "trial_type": "html-keyboard-response", "trial_index": 3, "time_elapsed": 113563, "internal_node_id": "0.0-3.0"}}, {"uniqueid": "w23046293:a35042347", "current_trial": 4, "dateTime": 1664555324054, "trialdata": {"rt": 1575, "stimulus": "<p id='stroop-text' class='stroop-red'>YELLOW</p>", "response": "r", "stimulus-type": "incongruent", "word": "yellow", "color": "red", "correct_response": "r", "trial_id": "stroop-trial-1-incongruent-15", "trial_type": "html-keyboard-response", "trial_index": 4, "time_elapsed": 115144, "internal_node_id": "0.0-4.0-0.0"}}, {"uniqueid": "w23046293:a35042347", "current_trial": 5, "dateTime": 1664555325769, "trialdata": {"rt": 1207, "stimulus": "<p id='stroop-text' class='stroop-red'>YELLOW</p>", "response": "r", "stimulus-type": "incongruent", "word": "yellow", "color": "red", "correct_response": "r", "trial_id": "stroop-trial-1-incongruent-17", "trial_type": "html-keyboard-response", "trial_index": 5, "time_elapsed": 116859, "internal_node_id": "0.0-4.0-1.0"}}, {"uniqueid": "w23046293:a35042347", "current_trial": 6, "dateTime": 1664555327494, "trialdata": {"rt": 1220, "stimulus": "<p id='stroop-text' class='stroop-green'>GREEN</p>", "response": "g", "stimulus-type": "congruent", "word": "green", "color": "green", "correct_response": "g", "trial_id": "stroop-trial-1-congruent-26", "trial_type": "html-keyboard-response", "trial_index": 6, "time_elapsed": 118585, "internal_node_id": "0.0-4.0-2.0"}}, {"uniqueid": "w23046293:a35042347", "current_trial": 7, "dateTime": 1664555329022, "trialdata": {"rt": 1018, "stimulus": "<p id='stroop-text' class='stroop-green'>YELLOW</p>", "response": "g", "stimulus-type": "incongruent", "word": "yellow", "color": "green", "correct_response": "g", "trial_id": "stroop-trial-1-incongruent-21", "trial_type": "html-keyboard-response", "trial_index": 7, "time_elapsed": 120112, "internal_node_id": "0.0-4.0-3.0"}}, {"uniqueid": "w23046293:a35042347", "current_trial": 8, "dateTime": 1664555330631, "trialdata": {"rt": 1091, "stimulus": "<p id='stroop-text' class='stroop-red'>FORK</p>", "response": "r", "stimulus-type": "unrelated", "word": "FORK", "color": "red", "correct_response": "r", "trial_id": "stroop-trial-1-unrelated-17", "trial_type": "html-keyboard-response", "trial_index": 8, "time_elapsed": 121721, "internal_node_id": "0.0-4.0-4.0"}}, {"uniqueid": "w23046293:a35042347", "current_trial": 9, "dateTime": 1664555332095, "trialdata": {"rt": 948, "stimulus": "<p id='stroop-text' class='stroop-green'>GREEN</p>", "response": "g", "stimulus-type": "congruent", "word": "green", "color": "green", "correct_response": "g", "trial_id": "stroop-trial-1-congruent-30", "trial_type": "html-keyboard-response", "trial_index": 9, "time_elapsed": 123185, "internal_node_id": "0.0-4.0-5.0"}}, {"uniqueid": "w23046293:a35042347", "current_trial": 10, "dateTime": 1664555333848, "trialdata": {"rt": 1249, "stimulus": "<p id='stroop-text' class='stroop-blue'>BRAIN</p>", "response": "b", "stimulus-type": "unrelated", "word": "BRAIN", "color": "blue", "correct_response": "b", "trial_id": "stroop-trial-1-unrelated-5", "trial_type": "html-keyboard-response", "trial_index": 10, "time_elapsed": 124938, "internal_node_id": "0.0-4.0-6.0"}}, {"uniqueid": "w23046293:a35042347", "current_trial": 11, "dateTime": 1664555335375, "trialdata": {"rt": 1020, "stimulus": "<p id='stroop-text' class='stroop-red'>WINDOW</p>", "response": "r", "stimulus-type": "unrelated", "word": "WINDOW", "color": "red", "correct_response": "r", "trial_id": "stroop-trial-1-unrelated-19", "trial_type": "html-keyboard-response", "trial_index": 11, "time_elapsed": 126466, "internal_node_id": "0.0-4.0-7.0"}}, {"uniqueid": "w23046293:a35042347", "current_trial": 12, "dateTime": 1664555337361, "trialdata": {"rt": 1474, "stimulus": "<p id='stroop-text' class='stroop-green'>YELLOW</p>", "response": "g", "stimulus-type": "incongruent", "word": "yellow", "color": "green", "correct_response": "g", "trial_id": "stroop-trial-1-incongruent-26", "trial_type": "html-keyboard-response", "trial_index": 12, "time_elapsed": 128451, "internal_node_id": "0.0-4.0-8.0"}}, {"uniqueid": "w23046293:a35042347", "current_trial": 13, "dateTime": 1664555339122, "trialdata": {"rt": 1249, "stimulus": "<p id='stroop-text' class='stroop-yellow'>YELLOW</p>", "response": "y", "stimulus-type": "congruent", "word": "yellow", "color": "yellow", "correct_response": "y", "trial_id": "stroop-trial-1-congruent-3", "trial_type": "html-keyboard-response", "trial_index": 13, "time_elapsed": 130213, "internal_node_id": "0.0-4.0-9.0"}}, {"uniqueid": "w23046293:a35042347", "current_trial": 14, "dateTime": 1664555340941, "trialdata": {"rt": 1307, "stimulus": "<p id='stroop-text' class='stroop-green'>RED</p>", "response": "g", "stimulus-type": "incongruent", "word": "red", "color": "green", "correct_response": "g", "trial_id": "stroop-trial-1-incongruent-5", "trial_type": "html-keyboard-response", "trial_index": 14, "time_elapsed": 132032, "internal_node_id": "0.0-4.0-10.0"}}, {"uniqueid": "w23046293:a35042347", "current_trial": 15, "dateTime": 1664555342423, "trialdata": {"rt": 970, "stimulus": "<p id='stroop-text' class='stroop-green'>GREEN</p>", "response": "g", "stimulus-type": "congruent", "word": "green", "color": "green", "correct_response": "g", "trial_id": "stroop-trial-1-congruent-17", "trial_type": "html-keyboard-response", "trial_index": 15, "time_elapsed": 133513, "internal_node_id": "0.0-4.0-11.0"}}, {"uniqueid": "w23046293:a35042347", "current_trial": 16, "dateTime": 1664555344015, "trialdata": {"rt": 1073, "stimulus": "<p id='stroop-text' class='stroop-green'>BLUE</p>", "response": "b", "stimulus-type": "incongruent", "word": "blue", "color": "green", "correct_response": "g", "trial_id": "stroop-trial-1-incongruent-16", "trial_type": "html-keyboard-response", "trial_index": 16, "time_elapsed": 135106, "internal_node_id": "0.0-4.0-12.0"}}, {"uniqueid": "w23046293:a35042347", "current_trial": 17, "dateTime": 1664555346678, "trialdata": {"rt": 2147, "stimulus": "<p id='stroop-text' class='stroop-yellow'>RED</p>", "response": "y", "stimulus-type": "incongruent", "word": "red", "color": "yellow", "correct_response": "y", "trial_id": "stroop-trial-1-incongruent-22", "trial_type": "html-keyboard-response", "trial_index": 17, "time_elapsed": 137768, "internal_node_id": "0.0-4.0-13.0"}}, {"uniqueid": "w23046293:a35042347", "current_trial": 18, "dateTime": 1664555348230, "trialdata": {"rt": 1050, "stimulus": "<p id='stroop-text' class='stroop-yellow'>BLUE</p>", "response": "y", "stimulus-type": "incongruent", "word": "blue", "color": "yellow", "correct_response": "y", "trial_id": "stroop-trial-1-incongruent-18", "trial_type": "html-keyboard-response", "trial_index": 18, "time_elapsed": 139321, "internal_node_id": "0.0-4.0-14.0"}}, {"uniqueid": "w23046293:a35042347", "current_trial": 19, "dateTime": 1664555350592, "trialdata": {"rt": 1836, "stimulus": "<p id='stroop-text' class='stroop-blue'>BOTTLE</p>", "response": "b", "stimulus-type": "unrelated", "word": "BOTTLE", "color": "blue", "correct_response": "b", "trial_id": "stroop-trial-1-unrelated-7", "trial_type": "html-keyboard-response", "trial_index": 19, "time_elapsed": 141682, "internal_node_id": "0.0-4.0-15.0"}}, {"uniqueid": "w23046293:a35042347", "current_trial": 20, "dateTime": 1664555352476, "trialdata": {"rt": 1370, "stimulus": "<p id='stroop-text' class='stroop-green'>GREEN</p>", "response": "g", "stimulus-type": "congruent", "word": "green", "color": "green", "correct_response": "g", "trial_id": "stroop-trial-1-congruent-23", "trial_type": "html-keyboard-response", "trial_index": 20, "time_elapsed": 143566, "internal_node_id": "0.0-4.0-16.0"}}, {"uniqueid": "w23046293:a35042347", "current_trial": 21, "dateTime": 1664555354268, "trialdata": {"rt": 1281, "stimulus": "<p id='stroop-text' class='stroop-yellow'>YELLOW</p>", "response": "y", "stimulus-type": "congruent", "word": "yellow", "color": "yellow", "correct_response": "y", "trial_id": "stroop-trial-1-congruent-5", "trial_type": "html-keyboard-response", "trial_index": 21, "time_elapsed": 145358, "internal_node_id": "0.0-4.0-17.0"}}, {"uniqueid": "w23046293:a35042347", "current_trial": 22, "dateTime": 1664555356443, "trialdata": {"rt": 1665, "stimulus": "<p id='stroop-text' class='stroop-green'>BLUE</p>", "response": "g", "stimulus-type": "incongruent", "word": "blue", "color": "green", "correct_response": "g", "trial_id": "stroop-trial-1-incongruent-24", "trial_type": "html-keyboard-response", "trial_index": 22, "time_elapsed": 147533, "internal_node_id": "0.0-4.0-18.0"}}, {"uniqueid": "w23046293:a35042347", "current_trial": 23, "dateTime": 1664555358332, "trialdata": {"rt": 1374, "stimulus": "<p id='stroop-text' class='stroop-red'>BOAT</p>", "response": "r", "stimulus-type": "unrelated", "word": "BOAT", "color": "red", "correct_response": "r", "trial_id": "stroop-trial-1-unrelated-23", "trial_type": "html-keyboard-response", "trial_index": 23, "time_elapsed": 149423, "internal_node_id": "0.0-4.0-19.0"}}, {"uniqueid": "w23046293:a35042347", "current_trial": 24, "dateTime": 1664555360964, "trialdata": {"rt": 2121, "stimulus": "<p id='stroop-text' class='stroop-red'>RED</p>", "response": "r", "stimulus-type": "congruent", "word": "red", "color": "red", "correct_response": "r", "trial_id": "stroop-trial-1-congruent-4", "trial_type": "html-keyboard-response", "trial_index": 24, "time_elapsed": 152055, "internal_node_id": "0.0-4.0-20.0"}}, {"uniqueid": "w23046293:a35042347", "current_trial": 25, "dateTime": 1664555362664, "trialdata": {"rt": 1177, "stimulus": "<p id='stroop-text' class='stroop-yellow'>YELLOW</p>", "response": "y", "stimulus-type": "congruent", "word": "yellow", "color": "yellow", "correct_response": "y", "trial_id": "stroop-trial-1-congruent-28", "trial_type": "html-keyboard-response", "trial_index": 25, "time_elapsed": 153753, "internal_node_id": "0.0-4.0-21.0"}}, {"uniqueid": "w23046293:a35042347", "current_trial": 26, "dateTime": 1664555364475, "trialdata": {"rt": 1294, "stimulus": "<p id='stroop-text' class='stroop-green'>BRAIN</p>", "response": "g", "stimulus-type": "unrelated", "word": "BRAIN", "color": "green", "correct_response": "g", "trial_id": "stroop-trial-1-unrelated-26", "trial_type": "html-keyboard-response", "trial_index": 26, "time_elapsed": 155565, "internal_node_id": "0.0-4.0-22.0"}}, {"uniqueid": "w23046293:a35042347", "current_trial": 27, "dateTime": 1664555366543, "trialdata": {"rt": 1565, "stimulus": "<p id='stroop-text' class='stroop-yellow'>DOG</p>", "response": "y", "stimulus-type": "unrelated", "word": "DOG", "color": "yellow", "correct_response": "y", "trial_id": "stroop-trial-1-unrelated-2", "trial_type": "html-keyboard-response", "trial_index": 27, "time_elapsed": 157633, "internal_node_id": "0.0-4.0-23.0"}}, {"uniqueid": "w23046293:a35042347", "current_trial": 28, "dateTime": 1664555368268, "trialdata": {"rt": 1217, "stimulus": "<p id='stroop-text' class='stroop-green'>GREEN</p>", "response": "g", "stimulus-type": "congruent", "word": "green", "color": "green", "correct_response": "g", "trial_id": "stroop-trial-1-congruent-22", "trial_type": "html-keyboard-response", "trial_index": 28, "time_elapsed": 159359, "internal_node_id": "0.0-4.0-24.0"}}, {"uniqueid": "w23046293:a35042347", "current_trial": 29, "dateTime": 1664555369941, "trialdata": {"rt": 1167, "stimulus": "<p id='stroop-text' class='stroop-green'>BLUE</p>", "response": "g", "stimulus-type": "incongruent", "word": "blue", "color": "green", "correct_response": "g", "trial_id": "stroop-trial-1-incongruent-7", "trial_type": "html-keyboard-response", "trial_index": 29, "time_elapsed": 161032, "internal_node_id": "0.0-4.0-25.0"}}, {"uniqueid": "w23046293:a35042347", "current_trial": 30, "dateTime": 1664555371337, "trialdata": {"rt": 889, "stimulus": "<p id='stroop-text' class='stroop-green'>FORK</p>", "response": "g", "stimulus-type": "unrelated", "word": "FORK", "color": "green", "correct_response": "g", "trial_id": "stroop-trial-1-unrelated-11", "trial_type": "html-keyboard-response", "trial_index": 30, "time_elapsed": 162428, "internal_node_id": "0.0-4.0-26.0"}}, {"uniqueid": "w23046293:a35042347", "current_trial": 31, "dateTime": 1664555372813, "trialdata": {"rt": 964, "stimulus": "<p id='stroop-text' class='stroop-yellow'>YELLOW</p>", "response": "y", "stimulus-type": "congruent", "word": "yellow", "color": "yellow", "correct_response": "y", "trial_id": "stroop-trial-1-congruent-12", "trial_type": "html-keyboard-response", "trial_index": 31, "time_elapsed": 163903, "internal_node_id": "0.0-4.0-27.0"}}, {"uniqueid": "w23046293:a35042347", "current_trial": 32, "dateTime": 1664555374115, "trialdata": {"rt": 792, "stimulus": "<p id='stroop-text' class='stroop-yellow'>GREEN</p>", "response": "y", "stimulus-type": "incongruent", "word": "green", "color": "yellow", "correct_response": "y", "trial_id": "stroop-trial-1-incongruent-30", "trial_type": "html-keyboard-response", "trial_index": 32, "time_elapsed": 165206, "internal_node_id": "0.0-4.0-28.0"}}, {"uniqueid": "w23046293:a35042347", "current_trial": 33, "dateTime": 1664555375448, "trialdata": {"rt": 826, "stimulus": "<p id='stroop-text' class='stroop-red'>BLUE</p>", "response": "r", "stimulus-type": "incongruent", "word": "blue", "color": "red", "correct_response": "r", "trial_id": "stroop-trial-1-incongruent-9", "trial_type": "html-keyboard-response", "trial_index": 33, "time_elapsed": 166539, "internal_node_id": "0.0-4.0-29.0"}}, {"uniqueid": "w23046293:a35042347", "current_trial": 34, "dateTime": 1664555379504, "trialdata": {"rt": 3541, "stimulus": "<p id='stroop-text' class='stroop-yellow'>GREEN</p>", "response": "y", "stimulus-type": "incongruent", "word": "green", "color": "yellow", "correct_response": "y", "trial_id": "stroop-trial-1-incongruent-11", "trial_type": "html-keyboard-response", "trial_index": 34, "time_elapsed": 170594, "internal_node_id": "0.0-4.0-30.0"}}, {"uniqueid": "w23046293:a35042347", "current_trial": 35, "dateTime": 1664555380992, "trialdata": {"rt": 982, "stimulus": "<p id='stroop-text' class='stroop-red'>GREEN</p>", "response": "r", "stimulus-type": "incongruent", "word": "green", "color": "red", "correct_response": "r", "trial_id": "stroop-trial-1-incongruent-2", "trial_type": "html-keyboard-response", "trial_index": 35, "time_elapsed": 172082, "internal_node_id": "0.0-4.0-31.0"}}, {"uniqueid": "w23046293:a35042347", "current_trial": 36, "dateTime": 1664555382319, "trialdata": {"rt": 813, "stimulus": "<p id='stroop-text' class='stroop-red'>FORK</p>", "response": "r", "stimulus-type": "unrelated", "word": "FORK", "color": "red", "correct_response": "r", "trial_id": "stroop-trial-1-unrelated-28", "trial_type": "html-keyboard-response", "trial_index": 36, "time_elapsed": 173410, "internal_node_id": "0.0-4.0-32.0"}}, {"uniqueid": "w23046293:a35042347", "current_trial": 37, "dateTime": 1664555384790, "trialdata": {"rt": 1952, "stimulus": "<p id='stroop-text' class='stroop-yellow'>CHAIR</p>", "response": "y", "stimulus-type": "unrelated", "word": "CHAIR", "color": "yellow", "correct_response": "y", "trial_id": "stroop-trial-1-unrelated-22", "trial_type": "html-keyboard-response", "trial_index": 37, "time_elapsed": 175881, "internal_node_id": "0.0-4.0-33.0"}}, {"uniqueid": "w23046293:a35042347", "current_trial": 38, "dateTime": 1664555386765, "trialdata": {"rt": 1468, "stimulus": "<p id='stroop-text' class='stroop-blue'>GREEN</p>", "response": "b", "stimulus-type": "incongruent", "word": "green", "color": "blue", "correct_response": "b", "trial_id": "stroop-trial-1-incongruent-12", "trial_type": "html-keyboard-response", "trial_index": 38, "time_elapsed": 177856, "internal_node_id": "0.0-4.0-34.0"}}, {"uniqueid": "w23046293:a35042347", "current_trial": 39, "dateTime": 1664555388687, "trialdata": {"rt": 1416, "stimulus": "<p id='stroop-text' class='stroop-yellow'>YELLOW</p>", "response": "y", "stimulus-type": "congruent", "word": "yellow", "color": "yellow", "correct_response": "y", "trial_id": "stroop-trial-1-congruent-2", "trial_type": "html-keyboard-response", "trial_index": 39, "time_elapsed": 179778, "internal_node_id": "0.0-4.0-35.0"}}, {"uniqueid": "w23046293:a35042347", "current_trial": 40, "dateTime": 1664555390906, "trialdata": {"rt": 1714, "stimulus": "<p id='stroop-text' class='stroop-green'>GREEN</p>", "response": "g", "stimulus-type": "congruent", "word": "green", "color": "green", "correct_response": "g", "trial_id": "stroop-trial-1-congruent-25", "trial_type": "html-keyboard-response", "trial_index": 40, "time_elapsed": 181996, "internal_node_id": "0.0-4.0-36.0"}}, {"uniqueid": "w23046293:a35042347", "current_trial": 41, "dateTime": 1664555392861, "trialdata": {"rt": 1446, "stimulus": "<p id='stroop-text' class='stroop-red'>YELLOW</p>", "response": "r", "stimulus-type": "incongruent", "word": "yellow", "color": "red", "correct_response": "r", "trial_id": "stroop-trial-1-incongruent-19", "trial_type": "html-keyboard-response", "trial_index": 41, "time_elapsed": 183952, "internal_node_id": "0.0-4.0-37.0"}}, {"uniqueid": "w23046293:a35042347", "current_trial": 42, "dateTime": 1664555395943, "trialdata": {"rt": 2576, "stimulus": "<p id='stroop-text' class='stroop-green'>BLUE</p>", "response": "g", "stimulus-type": "incongruent", "word": "blue", "color": "green", "correct_response": "g", "trial_id": "stroop-trial-1-incongruent-25", "trial_type": "html-keyboard-response", "trial_index": 42, "time_elapsed": 187034, "internal_node_id": "0.0-4.0-38.0"}}, {"uniqueid": "w23046293:a35042347", "current_trial": 43, "dateTime": 1664555397632, "trialdata": {"rt": 1170, "stimulus": "<p id='stroop-text' class='stroop-blue'>BLUE</p>", "response": "b", "stimulus-type": "congruent", "word": "blue", "color": "blue", "correct_response": "b", "trial_id": "stroop-trial-1-congruent-6", "trial_type": "html-keyboard-response", "trial_index": 43, "time_elapsed": 188722, "internal_node_id": "0.0-4.0-39.0"}}, {"uniqueid": "w23046293:a35042347", "current_trial": 44, "dateTime": 1664555399028, "trialdata": {"rt": 891, "stimulus": "<p id='stroop-text' class='stroop-red'>RED</p>", "response": "r", "stimulus-type": "congruent", "word": "red", "color": "red", "correct_response": "r", "trial_id": "stroop-trial-1-congruent-29", "trial_type": "html-keyboard-response", "trial_index": 44, "time_elapsed": 190118, "internal_node_id": "0.0-4.0-40.0"}}, {"uniqueid": "w23046293:a35042347", "current_trial": 45, "dateTime": 1664555401073, "trialdata": {"rt": 1539, "stimulus": "<p id='stroop-text' class='stroop-blue'>YELLOW</p>", "response": "b", "stimulus-type": "incongruent", "word": "yellow", "color": "blue", "correct_response": "b", "trial_id": "stroop-trial-1-incongruent-3", "trial_type": "html-keyboard-response", "trial_index": 45, "time_elapsed": 192164, "internal_node_id": "0.0-4.0-41.0"}}, {"uniqueid": "w23046293:a35042347", "current_trial": 46, "dateTime": 1664555402934, "trialdata": {"rt": 1346, "stimulus": "<p id='stroop-text' class='stroop-green'>WINDOW</p>", "response": "g", "stimulus-type": "unrelated", "word": "WINDOW", "color": "green", "correct_response": "g", "trial_id": "stroop-trial-1-unrelated-3", "trial_type": "html-keyboard-response", "trial_index": 46, "time_elapsed": 194025, "internal_node_id": "0.0-4.0-42.0"}}, {"uniqueid": "w23046293:a35042347", "current_trial": 47, "dateTime": 1664555404616, "trialdata": {"rt": 1170, "stimulus": "<p id='stroop-text' class='stroop-red'>RED</p>", "response": "r", "stimulus-type": "congruent", "word": "red", "color": "red", "correct_response": "r", "trial_id": "stroop-trial-1-congruent-19", "trial_type": "html-keyboard-response", "trial_index": 47, "time_elapsed": 195706, "internal_node_id": "0.0-4.0-43.0"}}, {"uniqueid": "w23046293:a35042347", "current_trial": 48, "dateTime": 1664555406512, "trialdata": {"rt": 1391, "stimulus": "<p id='stroop-text' class='stroop-blue'>FORK</p>", "response": "b", "stimulus-type": "unrelated", "word": "FORK", "color": "blue", "correct_response": "b", "trial_id": "stroop-trial-1-unrelated-27", "trial_type": "html-keyboard-response", "trial_index": 48, "time_elapsed": 197602, "internal_node_id": "0.0-4.0-44.0"}}, {"uniqueid": "w23046293:a35042347", "current_trial": 49, "dateTime": 1664555408469, "trialdata": {"rt": 1453, "stimulus": "<p id='stroop-text' class='stroop-red'>BRIDGE</p>", "response": "r", "stimulus-type": "unrelated", "word": "BRIDGE", "color": "red", "correct_response": "r", "trial_id": "stroop-trial-1-unrelated-10", "trial_type": "html-keyboard-response", "trial_index": 49, "time_elapsed": 199559, "internal_node_id": "0.0-4.0-45.0"}}, {"uniqueid": "w23046293:a35042347", "current_trial": 50, "dateTime": 1664555409886, "trialdata": {"rt": 908, "stimulus": "<p id='stroop-text' class='stroop-red'>YELLOW</p>", "response": "r", "stimulus-type": "incongruent", "word": "yellow", "color": "red", "correct_response": "r", "trial_id": "stroop-trial-1-incongruent-8", "trial_type": "html-keyboard-response", "trial_index": 50, "time_elapsed": 200976, "internal_node_id": "0.0-4.0-46.0"}}, {"uniqueid": "w23046293:a35042347", "current_trial": 51, "dateTime": 1664555411150, "trialdata": {"rt": 751, "stimulus": "<p id='stroop-text' class='stroop-red'>BRIDGE</p>", "response": "r", "stimulus-type": "unrelated", "word": "BRIDGE", "color": "red", "correct_response": "r", "trial_id": "stroop-trial-1-unrelated-24", "trial_type": "html-keyboard-response", "trial_index": 51, "time_elapsed": 202240, "internal_node_id": "0.0-4.0-47.0"}}, {"uniqueid": "w23046293:a35042347", "current_trial": 52, "dateTime": 1664555412434, "trialdata": {"rt": 773, "stimulus": "<p id='stroop-text' class='stroop-red'>RED</p>", "response": "r", "stimulus-type": "congruent", "word": "red", "color": "red", "correct_response": "r", "trial_id": "stroop-trial-1-congruent-14", "trial_type": "html-keyboard-response", "trial_index": 52, "time_elapsed": 203524, "internal_node_id": "0.0-4.0-48.0"}}, {"uniqueid": "w23046293:a35042347", "current_trial": 53, "dateTime": 1664555413895, "trialdata": {"rt": 943, "stimulus": "<p id='stroop-text' class='stroop-green'>BOTTLE</p>", "response": "g", "stimulus-type": "unrelated", "word": "BOTTLE", "color": "green", "correct_response": "g", "trial_id": "stroop-trial-1-unrelated-13", "trial_type": "html-keyboard-response", "trial_index": 53, "time_elapsed": 204986, "internal_node_id": "0.0-4.0-49.0"}}, {"uniqueid": "w23046293:a35042347", "current_trial": 54, "dateTime": 1664555415323, "trialdata": {"rt": 922, "stimulus": "<p id='stroop-text' class='stroop-blue'>BLUE</p>", "response": "b", "stimulus-type": "congruent", "word": "blue", "color": "blue", "correct_response": "b", "trial_id": "stroop-trial-1-congruent-8", "trial_type": "html-keyboard-response", "trial_index": 54, "time_elapsed": 206413, "internal_node_id": "0.0-4.0-50.0"}}, {"uniqueid": "w23046293:a35042347", "current_trial": 55, "dateTime": 1664555416843, "trialdata": {"rt": 1002, "stimulus": "<p id='stroop-text' class='stroop-red'>WINDOW</p>", "response": "r", "stimulus-type": "unrelated", "word": "WINDOW", "color": "red", "correct_response": "r", "trial_id": "stroop-trial-1-unrelated-15", "trial_type": "html-keyboard-response", "trial_index": 55, "time_elapsed": 207934, "internal_node_id": "0.0-4.0-51.0"}}, {"uniqueid": "w23046293:a35042347", "current_trial": 56, "dateTime": 1664555418241, "trialdata": {"rt": 887, "stimulus": "<p id='stroop-text' class='stroop-red'>RED</p>", "response": "r", "stimulus-type": "congruent", "word": "red", "color": "red", "correct_response": "r", "trial_id": "stroop-trial-1-congruent-20", "trial_type": "html-keyboard-response", "trial_index": 56, "time_elapsed": 209332, "internal_node_id": "0.0-4.0-52.0"}}, {"uniqueid": "w23046293:a35042347", "current_trial": 57, "dateTime": 1664555419733, "trialdata": {"rt": 974, "stimulus": "<p id='stroop-text' class='stroop-yellow'>SHIP</p>", "response": "y", "stimulus-type": "unrelated", "word": "SHIP", "color": "yellow", "correct_response": "y", "trial_id": "stroop-trial-1-unrelated-1", "trial_type": "html-keyboard-response", "trial_index": 57, "time_elapsed": 210824, "internal_node_id": "0.0-4.0-53.0"}}, {"uniqueid": "w23046293:a35042347", "current_trial": 58, "dateTime": 1664555421287, "trialdata": {"rt": 1050, "stimulus": "<p id='stroop-text' class='stroop-red'>RED</p>", "response": "r", "stimulus-type": "congruent", "word": "red", "color": "red", "correct_response": "r", "trial_id": "stroop-trial-1-congruent-16", "trial_type": "html-keyboard-response", "trial_index": 58, "time_elapsed": 212378, "internal_node_id": "0.0-4.0-54.0"}}, {"uniqueid": "w23046293:a35042347", "current_trial": 59, "dateTime": 1664555423128, "trialdata": {"rt": 1327, "stimulus": "<p id='stroop-text' class='stroop-blue'>BRAIN</p>", "response": "b", "stimulus-type": "unrelated", "word": "BRAIN", "color": "blue", "correct_response": "b", "trial_id": "stroop-trial-1-unrelated-8", "trial_type": "html-keyboard-response", "trial_index": 59, "time_elapsed": 214219, "internal_node_id": "0.0-4.0-55.0"}}, {"uniqueid": "w23046293:a35042347", "current_trial": 60, "dateTime": 1664555426656, "trialdata": {"rt": 3013, "stimulus": "<p id='stroop-text' class='stroop-blue'>YELLOW</p>", "response": "b", "stimulus-type": "incongruent", "word": "yellow", "color": "blue", "correct_response": "b", "trial_id": "stroop-trial-1-incongruent-10", "trial_type": "html-keyboard-response", "trial_index": 60, "time_elapsed": 217747, "internal_node_id": "0.0-4.0-56.0"}}, {"uniqueid": "w23046293:a35042347", "current_trial": 61, "dateTime": 1664555428396, "trialdata": {"rt": 1229, "stimulus": "<p id='stroop-text' class='stroop-yellow'>RED</p>", "response": "y", "stimulus-type": "incongruent", "word": "red", "color": "yellow", "correct_response": "y", "trial_id": "stroop-trial-1-incongruent-6", "trial_type": "html-keyboard-response", "trial_index": 61, "time_elapsed": 219487, "internal_node_id": "0.0-4.0-57.0"}}, {"uniqueid": "w23046293:a35042347", "current_trial": 62, "dateTime": 1664555430014, "trialdata": {"rt": 1106, "stimulus": "<p id='stroop-text' class='stroop-green'>MONKEY</p>", "response": "g", "stimulus-type": "unrelated", "word": "MONKEY", "color": "green", "correct_response": "g", "trial_id": "stroop-trial-1-unrelated-18", "trial_type": "html-keyboard-response", "trial_index": 62, "time_elapsed": 221104, "internal_node_id": "0.0-4.0-58.0"}}, {"uniqueid": "w23046293:a35042347", "current_trial": 63, "dateTime": 1664555431494, "trialdata": {"rt": 972, "stimulus": "<p id='stroop-text' class='stroop-green'>GREEN</p>", "response": "g", "stimulus-type": "congruent", "word": "green", "color": "green", "correct_response": "g", "trial_id": "stroop-trial-1-congruent-24", "trial_type": "html-keyboard-response", "trial_index": 63, "time_elapsed": 222584, "internal_node_id": "0.0-4.0-59.0"}}, {"uniqueid": "w23046293:a35042347", "current_trial": 64, "dateTime": 1664555433093, "trialdata": {"rt": 1081, "stimulus": "<p id='stroop-text' class='stroop-blue'>YELLOW</p>", "response": "b", "stimulus-type": "incongruent", "word": "yellow", "color": "blue", "correct_response": "b", "trial_id": "stroop-trial-1-incongruent-1", "trial_type": "html-keyboard-response", "trial_index": 64, "time_elapsed": 224183, "internal_node_id": "0.0-4.0-60.0"}}, {"uniqueid": "w23046293:a35042347", "current_trial": 65, "dateTime": 1664555435009, "trialdata": {"rt": 1409, "stimulus": "<p id='stroop-text' class='stroop-red'>BLUE</p>", "response": "r", "stimulus-type": "incongruent", "word": "blue", "color": "red", "correct_response": "r", "trial_id": "stroop-trial-1-incongruent-27", "trial_type": "html-keyboard-response", "trial_index": 65, "time_elapsed": 226099, "internal_node_id": "0.0-4.0-61.0"}}, {"uniqueid": "w23046293:a35042347", "current_trial": 66, "dateTime": 1664555436708, "trialdata": {"rt": 1190, "stimulus": "<p id='stroop-text' class='stroop-red'>SHIP</p>", "response": "r", "stimulus-type": "unrelated", "word": "SHIP", "color": "red", "correct_response": "r", "trial_id": "stroop-trial-1-unrelated-21", "trial_type": "html-keyboard-response", "trial_index": 66, "time_elapsed": 227798, "internal_node_id": "0.0-4.0-62.0"}}, {"uniqueid": "w23046293:a35042347", "current_trial": 67, "dateTime": 1664555440239, "trialdata": {"rt": 3021, "stimulus": "<p id='stroop-text' class='stroop-yellow'>RED</p>", "response": "y", "stimulus-type": "incongruent", "word": "red", "color": "yellow", "correct_response": "y", "trial_id": "stroop-trial-1-incongruent-4", "trial_type": "html-keyboard-response", "trial_index": 67, "time_elapsed": 231329, "internal_node_id": "0.0-4.0-63.0"}}, {"uniqueid": "w23046293:a35042347", "current_trial": 68, "dateTime": 1664555441901, "trialdata": {"rt": 1152, "stimulus": "<p id='stroop-text' class='stroop-blue'>FORK</p>", "response": "b", "stimulus-type": "unrelated", "word": "FORK", "color": "blue", "correct_response": "b", "trial_id": "stroop-trial-1-unrelated-25", "trial_type": "html-keyboard-response", "trial_index": 68, "time_elapsed": 232992, "internal_node_id": "0.0-4.0-64.0"}}, {"uniqueid": "w23046293:a35042347", "current_trial": 69, "dateTime": 1664555443388, "trialdata": {"rt": 975, "stimulus": "<p id='stroop-text' class='stroop-green'>BRAIN</p>", "response": "g", "stimulus-type": "unrelated", "word": "BRAIN", "color": "green", "correct_response": "g", "trial_id": "stroop-trial-1-unrelated-14", "trial_type": "html-keyboard-response", "trial_index": 69, "time_elapsed": 234478, "internal_node_id": "0.0-4.0-65.0"}}, {"uniqueid": "w23046293:a35042347", "current_trial": 70, "dateTime": 1664555444636, "trialdata": {"rt": 734, "stimulus": "<p id='stroop-text' class='stroop-green'>GREEN</p>", "response": "g", "stimulus-type": "congruent", "word": "green", "color": "green", "correct_response": "g", "trial_id": "stroop-trial-1-congruent-21", "trial_type": "html-keyboard-response", "trial_index": 70, "time_elapsed": 235727, "internal_node_id": "0.0-4.0-66.0"}}, {"uniqueid": "w23046293:a35042347", "current_trial": 71, "dateTime": 1664555446428, "trialdata": {"rt": 1281, "stimulus": "<p id='stroop-text' class='stroop-red'>RED</p>", "response": "r", "stimulus-type": "congruent", "word": "red", "color": "red", "correct_response": "r", "trial_id": "stroop-trial-1-congruent-7", "trial_type": "html-keyboard-response", "trial_index": 71, "time_elapsed": 237518, "internal_node_id": "0.0-4.0-67.0"}}, {"uniqueid": "w23046293:a35042347", "current_trial": 72, "dateTime": 1664555448077, "trialdata": {"rt": 1137, "stimulus": "<p id='stroop-text' class='stroop-blue'>GREEN</p>", "response": "b", "stimulus-type": "incongruent", "word": "green", "color": "blue", "correct_response": "b", "trial_id": "stroop-trial-1-incongruent-29", "trial_type": "html-keyboard-response", "trial_index": 72, "time_elapsed": 239168, "internal_node_id": "0.0-4.0-68.0"}}, {"uniqueid": "w23046293:a35042347", "current_trial": 73, "dateTime": 1664555449547, "trialdata": {"rt": 961, "stimulus": "<p id='stroop-text' class='stroop-green'>GREEN</p>", "response": "g", "stimulus-type": "congruent", "word": "green", "color": "green", "correct_response": "g", "trial_id": "stroop-trial-1-congruent-27", "trial_type": "html-keyboard-response", "trial_index": 73, "time_elapsed": 240638, "internal_node_id": "0.0-4.0-69.0"}}, {"uniqueid": "w23046293:a35042347", "current_trial": 74, "dateTime": 1664555451485, "trialdata": {"rt": 1430, "stimulus": "<p id='stroop-text' class='stroop-blue'>BLUE</p>", "response": "b", "stimulus-type": "congruent", "word": "blue", "color": "blue", "correct_response": "b", "trial_id": "stroop-trial-1-congruent-1", "trial_type": "html-keyboard-response", "trial_index": 74, "time_elapsed": 242576, "internal_node_id": "0.0-4.0-70.0"}}, {"uniqueid": "w23046293:a35042347", "current_trial": 75, "dateTime": 1664555453102, "trialdata": {"rt": 1110, "stimulus": "<p id='stroop-text' class='stroop-yellow'>SHIP</p>", "response": "y", "stimulus-type": "unrelated", "word": "SHIP", "color": "yellow", "correct_response": "y", "trial_id": "stroop-trial-1-unrelated-12", "trial_type": "html-keyboard-response", "trial_index": 75, "time_elapsed": 244193, "internal_node_id": "0.0-4.0-71.0"}}, {"uniqueid": "w23046293:a35042347", "current_trial": 76, "dateTime": 1664555454992, "trialdata": {"rt": 1373, "stimulus": "<p id='stroop-text' class='stroop-green'>CHAIR</p>", "response": "g", "stimulus-type": "unrelated", "word": "CHAIR", "color": "green", "correct_response": "g", "trial_id": "stroop-trial-1-unrelated-16", "trial_type": "html-keyboard-response", "trial_index": 76, "time_elapsed": 246082, "internal_node_id": "0.0-4.0-72.0"}}, {"uniqueid": "w23046293:a35042347", "current_trial": 77, "dateTime": 1664555456447, "trialdata": {"rt": 948, "stimulus": "<p id='stroop-text' class='stroop-green'>BLUE</p>", "response": "g", "stimulus-type": "incongruent", "word": "blue", "color": "green", "correct_response": "g", "trial_id": "stroop-trial-1-incongruent-13", "trial_type": "html-keyboard-response", "trial_index": 77, "time_elapsed": 247537, "internal_node_id": "0.0-4.0-73.0"}}, {"uniqueid": "w23046293:a35042347", "current_trial": 78, "dateTime": 1664555457794, "trialdata": {"rt": 842, "stimulus": "<p id='stroop-text' class='stroop-green'>RED</p>", "response": "g", "stimulus-type": "incongruent", "word": "red", "color": "green", "correct_response": "g", "trial_id": "stroop-trial-1-incongruent-20", "trial_type": "html-keyboard-response", "trial_index": 78, "time_elapsed": 248884, "internal_node_id": "0.0-4.0-74.0"}}, {"uniqueid": "w23046293:a35042347", "current_trial": 79, "dateTime": 1664555459153, "trialdata": {"rt": 855, "stimulus": "<p id='stroop-text' class='stroop-green'>BOAT</p>", "response": "g", "stimulus-type": "unrelated", "word": "BOAT", "color": "green", "correct_response": "g", "trial_id": "stroop-trial-1-unrelated-4", "trial_type": "html-keyboard-response", "trial_index": 79, "time_elapsed": 250243, "internal_node_id": "0.0-4.0-75.0"}}, {"uniqueid": "w23046293:a35042347", "current_trial": 80, "dateTime": 1664555460420, "trialdata": {"rt": 750, "stimulus": "<p id='stroop-text' class='stroop-green'>FORK</p>", "response": "g", "stimulus-type": "unrelated", "word": "FORK", "color": "green", "correct_response": "g", "trial_id": "stroop-trial-1-unrelated-30", "trial_type": "html-keyboard-response", "trial_index": 80, "time_elapsed": 251511, "internal_node_id": "0.0-4.0-76.0"}}, {"uniqueid": "w23046293:a35042347", "current_trial": 81, "dateTime": 1664555462183, "trialdata": {"rt": 1256, "stimulus": "<p id='stroop-text' class='stroop-blue'>BRAIN</p>", "response": "b", "stimulus-type": "unrelated", "word": "BRAIN", "color": "blue", "correct_response": "b", "trial_id": "stroop-trial-1-unrelated-6", "trial_type": "html-keyboard-response", "trial_index": 81, "time_elapsed": 253274, "internal_node_id": "0.0-4.0-77.0"}}, {"uniqueid": "w23046293:a35042347", "current_trial": 82, "dateTime": 1664555463624, "trialdata": {"rt": 931, "stimulus": "<p id='stroop-text' class='stroop-green'>GREEN</p>", "response": "g", "stimulus-type": "congruent", "word": "green", "color": "green", "correct_response": "g", "trial_id": "stroop-trial-1-congruent-9", "trial_type": "html-keyboard-response", "trial_index": 82, "time_elapsed": 254715, "internal_node_id": "0.0-4.0-78.0"}}, {"uniqueid": "w23046293:a35042347", "current_trial": 83, "dateTime": 1664555465107, "trialdata": {"rt": 975, "stimulus": "<p id='stroop-text' class='stroop-green'>GREEN</p>", "response": "g", "stimulus-type": "congruent", "word": "green", "color": "green", "correct_response": "g", "trial_id": "stroop-trial-1-congruent-15", "trial_type": "html-keyboard-response", "trial_index": 83, "time_elapsed": 256197, "internal_node_id": "0.0-4.0-79.0"}}, {"uniqueid": "w23046293:a35042347", "current_trial": 84, "dateTime": 1664555467484, "trialdata": {"rt": 1858, "stimulus": "<p id='stroop-text' class='stroop-yellow'>RED</p>", "response": "y", "stimulus-type": "incongruent", "word": "red", "color": "yellow", "correct_response": "y", "trial_id": "stroop-trial-1-incongruent-23", "trial_type": "html-keyboard-response", "trial_index": 84, "time_elapsed": 258574, "internal_node_id": "0.0-4.0-80.0"}}, {"uniqueid": "w23046293:a35042347", "current_trial": 85, "dateTime": 1664555468927, "trialdata": {"rt": 930, "stimulus": "<p id='stroop-text' class='stroop-green'>GREEN</p>", "response": "g", "stimulus-type": "congruent", "word": "green", "color": "green", "correct_response": "g", "trial_id": "stroop-trial-1-congruent-18", "trial_type": "html-keyboard-response", "trial_index": 85, "time_elapsed": 260018, "internal_node_id": "0.0-4.0-81.0"}}, {"uniqueid": "w23046293:a35042347", "current_trial": 86, "dateTime": 1664555470215, "trialdata": {"rt": 780, "stimulus": "<p id='stroop-text' class='stroop-green'>BRIDGE</p>", "response": "g", "stimulus-type": "unrelated", "word": "BRIDGE", "color": "green", "correct_response": "g", "trial_id": "stroop-trial-1-unrelated-9", "trial_type": "html-keyboard-response", "trial_index": 86, "time_elapsed": 261306, "internal_node_id": "0.0-4.0-82.0"}}, {"uniqueid": "w23046293:a35042347", "current_trial": 87, "dateTime": 1664555472259, "trialdata": {"rt": 1536, "stimulus": "<p id='stroop-text' class='stroop-yellow'>YELLOW</p>", "response": "y", "stimulus-type": "congruent", "word": "yellow", "color": "yellow", "correct_response": "y", "trial_id": "stroop-trial-1-congruent-10", "trial_type": "html-keyboard-response", "trial_index": 87, "time_elapsed": 263349, "internal_node_id": "0.0-4.0-83.0"}}, {"uniqueid": "w23046293:a35042347", "current_trial": 88, "dateTime": 1664555474031, "trialdata": {"rt": 1260, "stimulus": "<p id='stroop-text' class='stroop-yellow'>GREEN</p>", "response": "y", "stimulus-type": "incongruent", "word": "green", "color": "yellow", "correct_response": "y", "trial_id": "stroop-trial-1-incongruent-28", "trial_type": "html-keyboard-response", "trial_index": 88, "time_elapsed": 265122, "internal_node_id": "0.0-4.0-84.0"}}, {"uniqueid": "w23046293:a35042347", "current_trial": 89, "dateTime": 1664555475958, "trialdata": {"rt": 1414, "stimulus": "<p id='stroop-text' class='stroop-blue'>BLUE</p>", "response": "b", "stimulus-type": "congruent", "word": "blue", "color": "blue", "correct_response": "b", "trial_id": "stroop-trial-1-congruent-13", "trial_type": "html-keyboard-response", "trial_index": 89, "time_elapsed": 267048, "internal_node_id": "0.0-4.0-85.0"}}, {"uniqueid": "w23046293:a35042347", "current_trial": 90, "dateTime": 1664555477328, "trialdata": {"rt": 864, "stimulus": "<p id='stroop-text' class='stroop-red'>CHAIR</p>", "response": "r", "stimulus-type": "unrelated", "word": "CHAIR", "color": "red", "correct_response": "r", "trial_id": "stroop-trial-1-unrelated-29", "trial_type": "html-keyboard-response", "trial_index": 90, "time_elapsed": 268419, "internal_node_id": "0.0-4.0-86.0"}}, {"uniqueid": "w23046293:a35042347", "current_trial": 91, "dateTime": 1664555478647, "trialdata": {"rt": 811, "stimulus": "<p id='stroop-text' class='stroop-blue'>BRAIN</p>", "response": "b", "stimulus-type": "unrelated", "word": "BRAIN", "color": "blue", "correct_response": "b", "trial_id": "stroop-trial-1-unrelated-20", "trial_type": "html-keyboard-response", "trial_index": 91, "time_elapsed": 269738, "internal_node_id": "0.0-4.0-87.0"}}, {"uniqueid": "w23046293:a35042347", "current_trial": 92, "dateTime": 1664555480037, "trialdata": {"rt": 883, "stimulus": "<p id='stroop-text' class='stroop-red'>RED</p>", "response": "r", "stimulus-type": "congruent", "word": "red", "color": "red", "correct_response": "r", "trial_id": "stroop-trial-1-congruent-11", "trial_type": "html-keyboard-response", "trial_index": 92, "time_elapsed": 271128, "internal_node_id": "0.0-4.0-88.0"}}, {"uniqueid": "w23046293:a35042347", "current_trial": 93, "dateTime": 1664555481383, "trialdata": {"rt": 839, "stimulus": "<p id='stroop-text' class='stroop-red'>GREEN</p>", "response": "r", "stimulus-type": "incongruent", "word": "green", "color": "red", "correct_response": "r", "trial_id": "stroop-trial-1-incongruent-14", "trial_type": "html-keyboard-response", "trial_index": 93, "time_elapsed": 272473, "internal_node_id": "0.0-4.0-89.0"}}, {"uniqueid": "w23046293:a35042347", "current_trial": 94, "dateTime": 1664555495956, "trialdata": {"rt": 14065, "stimulus": "  <h1> End of block! </h1>\n\n  You have reached the end of the block 1/5. If you need a short break, feel free to take one now before moving on.\n\n  <br><br>\n  In the next block, you will complete another 90 rounds of this game.\n\n  <br><br>\n  <div style='text-align: center;'>Press <code>space</code> to begin.</div>\n  <br><br>\n<div style='text-align: center;'>(If the experiment doesn't continue, try clicking on the text and then pressing <code>space</code>.)</div>", "response": " ", "trial_id": "stroop_1_ready_2", "trial_type": "html-keyboard-response", "trial_index": 94, "time_elapsed": 287047, "internal_node_id": "0.0-5.0"}}, {"uniqueid": "w23046293:a35042347", "current_trial": 95, "dateTime": 1664555497279, "trialdata": {"rt": 1317, "stimulus": "<p id='stroop-text' class='stroop-red'>BOTTLE</p>", "response": "r", "stimulus-type": "unrelated", "word": "BOTTLE", "color": "red", "correct_response": "r", "trial_id": "stroop-trial-1-unrelated-28", "trial_type": "html-keyboard-response", "trial_index": 95, "time_elapsed": 288370, "internal_node_id": "0.0-6.0-0.0"}}, {"uniqueid": "w23046293:a35042347", "current_trial": 96, "dateTime": 1664555498769, "trialdata": {"rt": 978, "stimulus": "<p id='stroop-text' class='stroop-green'>DOG</p>", "response": "g", "stimulus-type": "unrelated", "word": "DOG", "color": "green", "correct_response": "g", "trial_id": "stroop-trial-1-unrelated-9", "trial_type": "html-keyboard-response", "trial_index": 96, "time_elapsed": 289859, "internal_node_id": "0.0-6.0-1.0"}}, {"uniqueid": "w23046293:a35042347", "current_trial": 97, "dateTime": 1664555500506, "trialdata": {"rt": 1231, "stimulus": "<p id='stroop-text' class='stroop-blue'>MONKEY</p>", "response": "b", "stimulus-type": "unrelated", "word": "MONKEY", "color": "blue", "correct_response": "b", "trial_id": "stroop-trial-1-unrelated-2", "trial_type": "html-keyboard-response", "trial_index": 97, "time_elapsed": 291596, "internal_node_id": "0.0-6.0-2.0"}}, {"uniqueid": "w23046293:a35042347", "current_trial": 98, "dateTime": 1664555502008, "trialdata": {"rt": 989, "stimulus": "<p id='stroop-text' class='stroop-red'>RED</p>", "response": "r", "stimulus-type": "congruent", "word": "red", "color": "red", "correct_response": "r", "trial_id": "stroop-trial-1-congruent-29", "trial_type": "html-keyboard-response", "trial_index": 98, "time_elapsed": 293099, "internal_node_id": "0.0-6.0-3.0"}}, {"uniqueid": "w23046293:a35042347", "current_trial": 99, "dateTime": 1664555503225, "trialdata": {"rt": 703, "stimulus": "<p id='stroop-text' class='stroop-red'>RED</p>", "response": "r", "stimulus-type": "congruent", "word": "red", "color": "red", "correct_response": "r", "trial_id": "stroop-trial-1-congruent-26", "trial_type": "html-keyboard-response", "trial_index": 99, "time_elapsed": 294315, "internal_node_id": "0.0-6.0-4.0"}}, {"uniqueid": "w23046293:a35042347", "current_trial": 100, "dateTime": 1664555505241, "trialdata": {"rt": 1503, "stimulus": "<p id='stroop-text' class='stroop-yellow'>GREEN</p>", "response": "y", "stimulus-type": "incongruent", "word": "green", "color": "yellow", "correct_response": "y", "trial_id": "stroop-trial-1-incongruent-7", "trial_type": "html-keyboard-response", "trial_index": 100, "time_elapsed": 296332, "internal_node_id": "0.0-6.0-5.0"}}, {"uniqueid": "w23046293:a35042347", "current_trial": 101, "dateTime": 1664555506641, "trialdata": {"rt": 889, "stimulus": "<p id='stroop-text' class='stroop-red'>WINDOW</p>", "response": "r", "stimulus-type": "unrelated", "word": "WINDOW", "color": "red", "correct_response": "r", "trial_id": "stroop-trial-1-unrelated-29", "trial_type": "html-keyboard-response", "trial_index": 101, "time_elapsed": 297731, "internal_node_id": "0.0-6.0-6.0"}}, {"uniqueid": "w23046293:a35042347", "current_trial": 102, "dateTime": 1664555507967, "trialdata": {"rt": 817, "stimulus": "<p id='stroop-text' class='stroop-blue'>BLUE</p>", "response": "b", "stimulus-type": "congruent", "word": "blue", "color": "blue", "correct_response": "b", "trial_id": "stroop-trial-1-congruent-5", "trial_type": "html-keyboard-response", "trial_index": 102, "time_elapsed": 299058, "internal_node_id": "0.0-6.0-7.0"}}, {"uniqueid": "w23046293:a35042347", "current_trial": 103, "dateTime": 1664555509332, "trialdata": {"rt": 861, "stimulus": "<p id='stroop-text' class='stroop-yellow'>YELLOW</p>", "response": "y", "stimulus-type": "congruent", "word": "yellow", "color": "yellow", "correct_response": "y", "trial_id": "stroop-trial-1-congruent-30", "trial_type": "html-keyboard-response", "trial_index": 103, "time_elapsed": 300422, "internal_node_id": "0.0-6.0-8.0"}}, {"uniqueid": "w23046293:a35042347", "current_trial": 104, "dateTime": 1664555511073, "trialdata": {"rt": 1229, "stimulus": "<p id='stroop-text' class='stroop-red'>RED</p>", "response": "r", "stimulus-type": "congruent", "word": "red", "color": "red", "correct_response": "r", "trial_id": "stroop-trial-1-congruent-24", "trial_type": "html-keyboard-response", "trial_index": 104, "time_elapsed": 302163, "internal_node_id": "0.0-6.0-9.0"}}, {"uniqueid": "w23046293:a35042347", "current_trial": 105, "dateTime": 1664555512445, "trialdata": {"rt": 862, "stimulus": "<p id='stroop-text' class='stroop-green'>GREEN</p>", "response": "g", "stimulus-type": "congruent", "word": "green", "color": "green", "correct_response": "g", "trial_id": "stroop-trial-1-congruent-8", "trial_type": "html-keyboard-response", "trial_index": 105, "time_elapsed": 303535, "internal_node_id": "0.0-6.0-10.0"}}, {"uniqueid": "w23046293:a35042347", "current_trial": 106, "dateTime": 1664555516056, "trialdata": {"rt": 3096, "stimulus": "<p id='stroop-text' class='stroop-red'>BOAT</p>", "response": "r", "stimulus-type": "unrelated", "word": "BOAT", "color": "red", "correct_response": "r", "trial_id": "stroop-trial-1-unrelated-15", "trial_type": "html-keyboard-response", "trial_index": 106, "time_elapsed": 307147, "internal_node_id": "0.0-6.0-11.0"}}, {"uniqueid": "w23046293:a35042347", "current_trial": 107, "dateTime": 1664555517552, "trialdata": {"rt": 987, "stimulus": "<p id='stroop-text' class='stroop-blue'>RED</p>", "response": "b", "stimulus-type": "incongruent", "word": "red", "color": "blue", "correct_response": "b", "trial_id": "stroop-trial-1-incongruent-18", "trial_type": "html-keyboard-response", "trial_index": 107, "time_elapsed": 308642, "internal_node_id": "0.0-6.0-12.0"}}, {"uniqueid": "w23046293:a35042347", "current_trial": 108, "dateTime": 1664555519174, "trialdata": {"rt": 1109, "stimulus": "<p id='stroop-text' class='stroop-green'>GREEN</p>", "response": "g", "stimulus-type": "congruent", "word": "green", "color": "green", "correct_response": "g", "trial_id": "stroop-trial-1-congruent-16", "trial_type": "html-keyboard-response", "trial_index": 108, "time_elapsed": 310263, "internal_node_id": "0.0-6.0-13.0"}}, {"uniqueid": "w23046293:a35042347", "current_trial": 109, "dateTime": 1664555520458, "trialdata": {"rt": 776, "stimulus": "<p id='stroop-text' class='stroop-green'>BLUE</p>", "response": "g", "stimulus-type": "incongruent", "word": "blue", "color": "green", "correct_response": "g", "trial_id": "stroop-trial-1-incongruent-17", "trial_type": "html-keyboard-response", "trial_index": 109, "time_elapsed": 311548, "internal_node_id": "0.0-6.0-14.0"}}, {"uniqueid": "w23046293:a35042347", "current_trial": 110, "dateTime": 1664555521675, "trialdata": {"rt": 711, "stimulus": "<p id='stroop-text' class='stroop-green'>GREEN</p>", "response": "g", "stimulus-type": "congruent", "word": "green", "color": "green", "correct_response": "g", "trial_id": "stroop-trial-1-congruent-9", "trial_type": "html-keyboard-response", "trial_index": 110, "time_elapsed": 312766, "internal_node_id": "0.0-6.0-15.0"}}, {"uniqueid": "w23046293:a35042347", "current_trial": 111, "dateTime": 1664555523093, "trialdata": {"rt": 900, "stimulus": "<p id='stroop-text' class='stroop-yellow'>FORK</p>", "response": "y", "stimulus-type": "unrelated", "word": "FORK", "color": "yellow", "correct_response": "y", "trial_id": "stroop-trial-1-unrelated-13", "trial_type": "html-keyboard-response", "trial_index": 111, "time_elapsed": 314183, "internal_node_id": "0.0-6.0-16.0"}}, {"uniqueid": "w23046293:a35042347", "current_trial": 112, "dateTime": 1664555524427, "trialdata": {"rt": 828, "stimulus": "<p id='stroop-text' class='stroop-green'>GREEN</p>", "response": "g", "stimulus-type": "congruent", "word": "green", "color": "green", "correct_response": "g", "trial_id": "stroop-trial-1-congruent-15", "trial_type": "html-keyboard-response", "trial_index": 112, "time_elapsed": 315518, "internal_node_id": "0.0-6.0-17.0"}}, {"uniqueid": "w23046293:a35042347", "current_trial": 113, "dateTime": 1664555525622, "trialdata": {"rt": 684, "stimulus": "<p id='stroop-text' class='stroop-green'>GREEN</p>", "response": "g", "stimulus-type": "congruent", "word": "green", "color": "green", "correct_response": "g", "trial_id": "stroop-trial-1-congruent-21", "trial_type": "html-keyboard-response", "trial_index": 113, "time_elapsed": 316713, "internal_node_id": "0.0-6.0-18.0"}}, {"uniqueid": "w23046293:a35042347", "current_trial": 114, "dateTime": 1664555526899, "trialdata": {"rt": 772, "stimulus": "<p id='stroop-text' class='stroop-yellow'>YELLOW</p>", "response": "y", "stimulus-type": "congruent", "word": "yellow", "color": "yellow", "correct_response": "y", "trial_id": "stroop-trial-1-congruent-17", "trial_type": "html-keyboard-response", "trial_index": 114, "time_elapsed": 317989, "internal_node_id": "0.0-6.0-19.0"}}, {"uniqueid": "w23046293:a35042347", "current_trial": 115, "dateTime": 1664555528077, "trialdata": {"rt": 671, "stimulus": "<p id='stroop-text' class='stroop-green'>GREEN</p>", "response": "g", "stimulus-type": "congruent", "word": "green", "color": "green", "correct_response": "g", "trial_id": "stroop-trial-1-congruent-27", "trial_type": "html-keyboard-response", "trial_index": 115, "time_elapsed": 319167, "internal_node_id": "0.0-6.0-20.0"}}, {"uniqueid": "w23046293:a35042347", "current_trial": 116, "dateTime": 1664555529498, "trialdata": {"rt": 905, "stimulus": "<p id='stroop-text' class='stroop-red'>BLUE</p>", "response": "r", "stimulus-type": "incongruent", "word": "blue", "color": "red", "correct_response": "r", "trial_id": "stroop-trial-1-incongruent-2", "trial_type": "html-keyboard-response", "trial_index": 116, "time_elapsed": 320589, "internal_node_id": "0.0-6.0-21.0"}}, {"uniqueid": "w23046293:a35042347", "current_trial": 117, "dateTime": 1664555530683, "trialdata": {"rt": 678, "stimulus": "<p id='stroop-text' class='stroop-red'>RED</p>", "response": "r", "stimulus-type": "congruent", "word": "red", "color": "red", "correct_response": "r", "trial_id": "stroop-trial-1-congruent-3", "trial_type": "html-keyboard-response", "trial_index": 117, "time_elapsed": 321774, "internal_node_id": "0.0-6.0-22.0"}}, {"uniqueid": "w23046293:a35042347", "current_trial": 118, "dateTime": 1664555531851, "trialdata": {"rt": 652, "stimulus": "<p id='stroop-text' class='stroop-red'>BRAIN</p>", "response": "r", "stimulus-type": "unrelated", "word": "BRAIN", "color": "red", "correct_response": "r", "trial_id": "stroop-trial-1-unrelated-18", "trial_type": "html-keyboard-response", "trial_index": 118, "time_elapsed": 322941, "internal_node_id": "0.0-6.0-23.0"}}, {"uniqueid": "w23046293:a35042347", "current_trial": 119, "dateTime": 1664555533251, "trialdata": {"rt": 883, "stimulus": "<p id='stroop-text' class='stroop-green'>GREEN</p>", "response": "g", "stimulus-type": "congruent", "word": "green", "color": "green", "correct_response": "g", "trial_id": "stroop-trial-1-congruent-2", "trial_type": "html-keyboard-response", "trial_index": 119, "time_elapsed": 324341, "internal_node_id": "0.0-6.0-24.0"}}, {"uniqueid": "w23046293:a35042347", "current_trial": 120, "dateTime": 1664555534725, "trialdata": {"rt": 962, "stimulus": "<p id='stroop-text' class='stroop-yellow'>BRIDGE</p>", "response": "y", "stimulus-type": "unrelated", "word": "BRIDGE", "color": "yellow", "correct_response": "y", "trial_id": "stroop-trial-1-unrelated-21", "trial_type": "html-keyboard-response", "trial_index": 120, "time_elapsed": 325816, "internal_node_id": "0.0-6.0-25.0"}}, {"uniqueid": "w23046293:a35042347", "current_trial": 121, "dateTime": 1664555537294, "trialdata": {"rt": 2052, "stimulus": "<p id='stroop-text' class='stroop-green'>BLUE</p>", "response": "g", "stimulus-type": "incongruent", "word": "blue", "color": "green", "correct_response": "g", "trial_id": "stroop-trial-1-incongruent-12", "trial_type": "html-keyboard-response", "trial_index": 121, "time_elapsed": 328385, "internal_node_id": "0.0-6.0-26.0"}}, {"uniqueid": "w23046293:a35042347", "current_trial": 122, "dateTime": 1664555538907, "trialdata": {"rt": 1094, "stimulus": "<p id='stroop-text' class='stroop-yellow'>BLUE</p>", "response": "y", "stimulus-type": "incongruent", "word": "blue", "color": "yellow", "correct_response": "y", "trial_id": "stroop-trial-1-incongruent-14", "trial_type": "html-keyboard-response", "trial_index": 122, "time_elapsed": 329997, "internal_node_id": "0.0-6.0-27.0"}}, {"uniqueid": "w23046293:a35042347", "current_trial": 123, "dateTime": 1664555540320, "trialdata": {"rt": 903, "stimulus": "<p id='stroop-text' class='stroop-green'>BLUE</p>", "response": "g", "stimulus-type": "incongruent", "word": "blue", "color": "green", "correct_response": "g", "trial_id": "stroop-trial-1-incongruent-21", "trial_type": "html-keyboard-response", "trial_index": 123, "time_elapsed": 331411, "internal_node_id": "0.0-6.0-28.0"}}, {"uniqueid": "w23046293:a35042347", "current_trial": 124, "dateTime": 1664555541564, "trialdata": {"rt": 726, "stimulus": "<p id='stroop-text' class='stroop-green'>RED</p>", "response": "g", "stimulus-type": "incongruent", "word": "red", "color": "green", "correct_response": "g", "trial_id": "stroop-trial-1-incongruent-5", "trial_type": "html-keyboard-response", "trial_index": 124, "time_elapsed": 332654, "internal_node_id": "0.0-6.0-29.0"}}, {"uniqueid": "w23046293:a35042347", "current_trial": 125, "dateTime": 1664555543017, "trialdata": {"rt": 944, "stimulus": "<p id='stroop-text' class='stroop-red'>SHIP</p>", "response": "r", "stimulus-type": "unrelated", "word": "SHIP", "color": "red", "correct_response": "r", "trial_id": "stroop-trial-1-unrelated-26", "trial_type": "html-keyboard-response", "trial_index": 125, "time_elapsed": 334107, "internal_node_id": "0.0-6.0-30.0"}}, {"uniqueid": "w23046293:a35042347", "current_trial": 126, "dateTime": 1664555545791, "trialdata": {"rt": 2270, "stimulus": "<p id='stroop-text' class='stroop-green'>RED</p>", "response": "g", "stimulus-type": "incongruent", "word": "red", "color": "green", "correct_response": "g", "trial_id": "stroop-trial-1-incongruent-11", "trial_type": "html-keyboard-response", "trial_index": 126, "time_elapsed": 336882, "internal_node_id": "0.0-6.0-31.0"}}, {"uniqueid": "w23046293:a35042347", "current_trial": 127, "dateTime": 1664555548105, "trialdata": {"rt": 1795, "stimulus": "<p id='stroop-text' class='stroop-blue'>BLUE</p>", "response": "b", "stimulus-type": "congruent", "word": "blue", "color": "blue", "correct_response": "b", "trial_id": "stroop-trial-1-congruent-1", "trial_type": "html-keyboard-response", "trial_index": 127, "time_elapsed": 339195, "internal_node_id": "0.0-6.0-32.0"}}, {"uniqueid": "w23046293:a35042347", "current_trial": 128, "dateTime": 1664555549289, "trialdata": {"rt": 671, "stimulus": "<p id='stroop-text' class='stroop-blue'>RED</p>", "response": "b", "stimulus-type": "incongruent", "word": "red", "color": "blue", "correct_response": "b", "trial_id": "stroop-trial-1-incongruent-15", "trial_type": "html-keyboard-response", "trial_index": 128, "time_elapsed": 340379, "internal_node_id": "0.0-6.0-33.0"}}, {"uniqueid": "w23046293:a35042347", "current_trial": 129, "dateTime": 1664555550429, "trialdata": {"rt": 622, "stimulus": "<p id='stroop-text' class='stroop-blue'>BRAIN</p>", "response": "b", "stimulus-type": "unrelated", "word": "BRAIN", "color": "blue", "correct_response": "b", "trial_id": "stroop-trial-1-unrelated-30", "trial_type": "html-keyboard-response", "trial_index": 129, "time_elapsed": 341519, "internal_node_id": "0.0-6.0-34.0"}}, {"uniqueid": "w23046293:a35042347", "current_trial": 130, "dateTime": 1664555551864, "trialdata": {"rt": 918, "stimulus": "<p id='stroop-text' class='stroop-yellow'>FORK</p>", "response": "y", "stimulus-type": "unrelated", "word": "FORK", "color": "yellow", "correct_response": "y", "trial_id": "stroop-trial-1-unrelated-19", "trial_type": "html-keyboard-response", "trial_index": 130, "time_elapsed": 342955, "internal_node_id": "0.0-6.0-35.0"}}, {"uniqueid": "w23046293:a35042347", "current_trial": 131, "dateTime": 1664555553267, "trialdata": {"rt": 893, "stimulus": "<p id='stroop-text' class='stroop-blue'>FORK</p>", "response": "b", "stimulus-type": "unrelated", "word": "FORK", "color": "blue", "correct_response": "b", "trial_id": "stroop-trial-1-unrelated-14", "trial_type": "html-keyboard-response", "trial_index": 131, "time_elapsed": 344358, "internal_node_id": "0.0-6.0-36.0"}}, {"uniqueid": "w23046293:a35042347", "current_trial": 132, "dateTime": 1664555554820, "trialdata": {"rt": 1022, "stimulus": "<p id='stroop-text' class='stroop-red'>RED</p>", "response": "r", "stimulus-type": "congruent", "word": "red", "color": "red", "correct_response": "r", "trial_id": "stroop-trial-1-congruent-20", "trial_type": "html-keyboard-response", "trial_index": 132, "time_elapsed": 345910, "internal_node_id": "0.0-6.0-37.0"}}, {"uniqueid": "w23046293:a35042347", "current_trial": 133, "dateTime": 1664555556341, "trialdata": {"rt": 1005, "stimulus": "<p id='stroop-text' class='stroop-yellow'>MONKEY</p>", "response": "y", "stimulus-type": "unrelated", "word": "MONKEY", "color": "yellow", "correct_response": "y", "trial_id": "stroop-trial-1-unrelated-27", "trial_type": "html-keyboard-response", "trial_index": 133, "time_elapsed": 347432, "internal_node_id": "0.0-6.0-38.0"}}, {"uniqueid": "w23046293:a35042347", "current_trial": 134, "dateTime": 1664555558505, "trialdata": {"rt": 1653, "stimulus": "<p id='stroop-text' class='stroop-green'>DOG</p>", "response": "g", "stimulus-type": "unrelated", "word": "DOG", "color": "green", "correct_response": "g", "trial_id": "stroop-trial-1-unrelated-8", "trial_type": "html-keyboard-response", "trial_index": 134, "time_elapsed": 349596, "internal_node_id": "0.0-6.0-39.0"}}, {"uniqueid": "w23046293:a35042347", "current_trial": 135, "dateTime": 1664555560913, "trialdata": {"rt": 1888, "stimulus": "<p id='stroop-text' class='stroop-blue'>GREEN</p>", "response": "b", "stimulus-type": "incongruent", "word": "green", "color": "blue", "correct_response": "b", "trial_id": "stroop-trial-1-incongruent-20", "trial_type": "html-keyboard-response", "trial_index": 135, "time_elapsed": 352004, "internal_node_id": "0.0-6.0-40.0"}}, {"uniqueid": "w23046293:a35042347", "current_trial": 136, "dateTime": 1664555562153, "trialdata": {"rt": 724, "stimulus": "<p id='stroop-text' class='stroop-blue'>BLUE</p>", "response": "b", "stimulus-type": "congruent", "word": "blue", "color": "blue", "correct_response": "b", "trial_id": "stroop-trial-1-congruent-12", "trial_type": "html-keyboard-response", "trial_index": 136, "time_elapsed": 353243, "internal_node_id": "0.0-6.0-41.0"}}, {"uniqueid": "w23046293:a35042347", "current_trial": 137, "dateTime": 1664555563579, "trialdata": {"rt": 918, "stimulus": "<p id='stroop-text' class='stroop-green'>BLUE</p>", "response": "g", "stimulus-type": "incongruent", "word": "blue", "color": "green", "correct_response": "g", "trial_id": "stroop-trial-1-incongruent-23", "trial_type": "html-keyboard-response", "trial_index": 137, "time_elapsed": 354669, "internal_node_id": "0.0-6.0-42.0"}}, {"uniqueid": "w23046293:a35042347", "current_trial": 138, "dateTime": 1664555564741, "trialdata": {"rt": 644, "stimulus": "<p id='stroop-text' class='stroop-green'>RED</p>", "response": "g", "stimulus-type": "incongruent", "word": "red", "color": "green", "correct_response": "g", "trial_id": "stroop-trial-1-incongruent-26", "trial_type": "html-keyboard-response", "trial_index": 138, "time_elapsed": 355832, "internal_node_id": "0.0-6.0-43.0"}}, {"uniqueid": "w23046293:a35042347", "current_trial": 139, "dateTime": 1664555566387, "trialdata": {"rt": 1141, "stimulus": "<p id='stroop-text' class='stroop-blue'>BLUE</p>", "response": "b", "stimulus-type": "congruent", "word": "blue", "color": "blue", "correct_response": "b", "trial_id": "stroop-trial-1-congruent-22", "trial_type": "html-keyboard-response", "trial_index": 139, "time_elapsed": 357478, "internal_node_id": "0.0-6.0-44.0"}}, {"uniqueid": "w23046293:a35042347", "current_trial": 140, "dateTime": 1664555569286, "trialdata": {"rt": 2391, "stimulus": "<p id='stroop-text' class='stroop-green'>RED</p>", "response": "g", "stimulus-type": "incongruent", "word": "red", "color": "green", "correct_response": "g", "trial_id": "stroop-trial-1-incongruent-16", "trial_type": "html-keyboard-response", "trial_index": 140, "time_elapsed": 360376, "internal_node_id": "0.0-6.0-45.0"}}, {"uniqueid": "w23046293:a35042347", "current_trial": 141, "dateTime": 1664555571036, "trialdata": {"rt": 1246, "stimulus": "<p id='stroop-text' class='stroop-blue'>RED</p>", "response": "b", "stimulus-type": "incongruent", "word": "red", "color": "blue", "correct_response": "b", "trial_id": "stroop-trial-1-incongruent-6", "trial_type": "html-keyboard-response", "trial_index": 141, "time_elapsed": 362126, "internal_node_id": "0.0-6.0-46.0"}}, {"uniqueid": "w23046293:a35042347", "current_trial": 142, "dateTime": 1664555574290, "trialdata": {"rt": 2737, "stimulus": "<p id='stroop-text' class='stroop-blue'>BLUE</p>", "response": "b", "stimulus-type": "congruent", "word": "blue", "color": "blue", "correct_response": "b", "trial_id": "stroop-trial-1-congruent-10", "trial_type": "html-keyboard-response", "trial_index": 142, "time_elapsed": 365380, "internal_node_id": "0.0-6.0-47.0"}}, {"uniqueid": "w23046293:a35042347", "current_trial": 143, "dateTime": 1664555575744, "trialdata": {"rt": 944, "stimulus": "<p id='stroop-text' class='stroop-green'>CHAIR</p>", "response": "g", "stimulus-type": "unrelated", "word": "CHAIR", "color": "green", "correct_response": "g", "trial_id": "stroop-trial-1-unrelated-7", "trial_type": "html-keyboard-response", "trial_index": 143, "time_elapsed": 366834, "internal_node_id": "0.0-6.0-48.0"}}, {"uniqueid": "w23046293:a35042347", "current_trial": 144, "dateTime": 1664555577235, "trialdata": {"rt": 974, "stimulus": "<p id='stroop-text' class='stroop-yellow'>MONKEY</p>", "response": "y", "stimulus-type": "unrelated", "word": "MONKEY", "color": "yellow", "correct_response": "y", "trial_id": "stroop-trial-1-unrelated-11", "trial_type": "html-keyboard-response", "trial_index": 144, "time_elapsed": 368326, "internal_node_id": "0.0-6.0-49.0"}}, {"uniqueid": "w23046293:a35042347", "current_trial": 145, "dateTime": 1664555578657, "trialdata": {"rt": 910, "stimulus": "<p id='stroop-text' class='stroop-yellow'>YELLOW</p>", "response": "y", "stimulus-type": "congruent", "word": "yellow", "color": "yellow", "correct_response": "y", "trial_id": "stroop-trial-1-congruent-7", "trial_type": "html-keyboard-response", "trial_index": 145, "time_elapsed": 369747, "internal_node_id": "0.0-6.0-50.0"}}, {"uniqueid": "w23046293:a35042347", "current_trial": 146, "dateTime": 1664555580276, "trialdata": {"rt": 1102, "stimulus": "<p id='stroop-text' class='stroop-blue'>GREEN</p>", "response": "b", "stimulus-type": "incongruent", "word": "green", "color": "blue", "correct_response": "b", "trial_id": "stroop-trial-1-incongruent-30", "trial_type": "html-keyboard-response", "trial_index": 146, "time_elapsed": 371366, "internal_node_id": "0.0-6.0-51.0"}}, {"uniqueid": "w23046293:a35042347", "current_trial": 147, "dateTime": 1664555581465, "trialdata": {"rt": 678, "stimulus": "<p id='stroop-text' class='stroop-blue'>YELLOW</p>", "response": "b", "stimulus-type": "incongruent", "word": "yellow", "color": "blue", "correct_response": "b", "trial_id": "stroop-trial-1-incongruent-24", "trial_type": "html-keyboard-response", "trial_index": 147, "time_elapsed": 372556, "internal_node_id": "0.0-6.0-52.0"}}, {"uniqueid": "w23046293:a35042347", "current_trial": 148, "dateTime": 1664555582908, "trialdata": {"rt": 939, "stimulus": "<p id='stroop-text' class='stroop-red'>BLUE</p>", "response": "r", "stimulus-type": "incongruent", "word": "blue", "color": "red", "correct_response": "r", "trial_id": "stroop-trial-1-incongruent-9", "trial_type": "html-keyboard-response", "trial_index": 148, "time_elapsed": 373999, "internal_node_id": "0.0-6.0-53.0"}}, {"uniqueid": "w23046293:a35042347", "current_trial": 149, "dateTime": 1664555584716, "trialdata": {"rt": 1300, "stimulus": "<p id='stroop-text' class='stroop-blue'>GREEN</p>", "response": "b", "stimulus-type": "incongruent", "word": "green", "color": "blue", "correct_response": "b", "trial_id": "stroop-trial-1-incongruent-28", "trial_type": "html-keyboard-response", "trial_index": 149, "time_elapsed": 375807, "internal_node_id": "0.0-6.0-54.0"}}, {"uniqueid": "w23046293:a35042347", "current_trial": 150, "dateTime": 1664555586218, "trialdata": {"rt": 993, "stimulus": "<p id='stroop-text' class='stroop-yellow'>BRAIN</p>", "response": "y", "stimulus-type": "unrelated", "word": "BRAIN", "color": "yellow", "correct_response": "y", "trial_id": "stroop-trial-1-unrelated-17", "trial_type": "html-keyboard-response", "trial_index": 150, "time_elapsed": 377308, "internal_node_id": "0.0-6.0-55.0"}}, {"uniqueid": "w23046293:a35042347", "current_trial": 151, "dateTime": 1664555587459, "trialdata": {"rt": 736, "stimulus": "<p id='stroop-text' class='stroop-yellow'>YELLOW</p>", "response": "y", "stimulus-type": "congruent", "word": "yellow", "color": "yellow", "correct_response": "y", "trial_id": "stroop-trial-1-congruent-4", "trial_type": "html-keyboard-response", "trial_index": 151, "time_elapsed": 378549, "internal_node_id": "0.0-6.0-56.0"}}, {"uniqueid": "w23046293:a35042347", "current_trial": 152, "dateTime": 1664555590119, "trialdata": {"rt": 2155, "stimulus": "<p id='stroop-text' class='stroop-red'>BOAT</p>", "response": "r", "stimulus-type": "unrelated", "word": "BOAT", "color": "red", "correct_response": "r", "trial_id": "stroop-trial-1-unrelated-25", "trial_type": "html-keyboard-response", "trial_index": 152, "time_elapsed": 381209, "internal_node_id": "0.0-6.0-57.0"}}, {"uniqueid": "w23046293:a35042347", "current_trial": 153, "dateTime": 1664555591950, "trialdata": {"rt": 1325, "stimulus": "<p id='stroop-text' class='stroop-green'>GREEN</p>", "response": "g", "stimulus-type": "congruent", "word": "green", "color": "green", "correct_response": "g", "trial_id": "stroop-trial-1-congruent-13", "trial_type": "html-keyboard-response", "trial_index": 153, "time_elapsed": 383041, "internal_node_id": "0.0-6.0-58.0"}}, {"uniqueid": "w23046293:a35042347", "current_trial": 154, "dateTime": 1664555593480, "trialdata": {"rt": 1011, "stimulus": "<p id='stroop-text' class='stroop-blue'>SHIP</p>", "response": "b", "stimulus-type": "unrelated", "word": "SHIP", "color": "blue", "correct_response": "b", "trial_id": "stroop-trial-1-unrelated-24", "trial_type": "html-keyboard-response", "trial_index": 154, "time_elapsed": 384570, "internal_node_id": "0.0-6.0-59.0"}}, {"uniqueid": "w23046293:a35042347", "current_trial": 155, "dateTime": 1664555594843, "trialdata": {"rt": 846, "stimulus": "<p id='stroop-text' class='stroop-yellow'>YELLOW</p>", "response": "y", "stimulus-type": "congruent", "word": "yellow", "color": "yellow", "correct_response": "y", "trial_id": "stroop-trial-1-congruent-23", "trial_type": "html-keyboard-response", "trial_index": 155, "time_elapsed": 385934, "internal_node_id": "0.0-6.0-60.0"}}, {"uniqueid": "w23046293:a35042347", "current_trial": 156, "dateTime": 1664555596089, "trialdata": {"rt": 736, "stimulus": "<p id='stroop-text' class='stroop-yellow'>BLUE</p>", "response": "y", "stimulus-type": "incongruent", "word": "blue", "color": "yellow", "correct_response": "y", "trial_id": "stroop-trial-1-incongruent-22", "trial_type": "html-keyboard-response", "trial_index": 156, "time_elapsed": 387179, "internal_node_id": "0.0-6.0-61.0"}}, {"uniqueid": "w23046293:a35042347", "current_trial": 157, "dateTime": 1664555597299, "trialdata": {"rt": 695, "stimulus": "<p id='stroop-text' class='stroop-yellow'>RED</p>", "response": "y", "stimulus-type": "incongruent", "word": "red", "color": "yellow", "correct_response": "y", "trial_id": "stroop-trial-1-incongruent-8", "trial_type": "html-keyboard-response", "trial_index": 157, "time_elapsed": 388390, "internal_node_id": "0.0-6.0-62.0"}}, {"uniqueid": "w23046293:a35042347", "current_trial": 158, "dateTime": 1664555598642, "trialdata": {"rt": 837, "stimulus": "<p id='stroop-text' class='stroop-green'>BLUE</p>", "response": "g", "stimulus-type": "incongruent", "word": "blue", "color": "green", "correct_response": "g", "trial_id": "stroop-trial-1-incongruent-29", "trial_type": "html-keyboard-response", "trial_index": 158, "time_elapsed": 389733, "internal_node_id": "0.0-6.0-63.0"}}, {"uniqueid": "w23046293:a35042347", "current_trial": 159, "dateTime": 1664555599946, "trialdata": {"rt": 796, "stimulus": "<p id='stroop-text' class='stroop-yellow'>YELLOW</p>", "response": "y", "stimulus-type": "congruent", "word": "yellow", "color": "yellow", "correct_response": "y", "trial_id": "stroop-trial-1-congruent-11", "trial_type": "html-keyboard-response", "trial_index": 159, "time_elapsed": 391037, "internal_node_id": "0.0-6.0-64.0"}}, {"uniqueid": "w23046293:a35042347", "current_trial": 160, "dateTime": 1664555601237, "trialdata": {"rt": 781, "stimulus": "<p id='stroop-text' class='stroop-yellow'>CHAIR</p>", "response": "y", "stimulus-type": "unrelated", "word": "CHAIR", "color": "yellow", "correct_response": "y", "trial_id": "stroop-trial-1-unrelated-20", "trial_type": "html-keyboard-response", "trial_index": 160, "time_elapsed": 392327, "internal_node_id": "0.0-6.0-65.0"}}, {"uniqueid": "w23046293:a35042347", "current_trial": 161, "dateTime": 1664555603522, "trialdata": {"rt": 1773, "stimulus": "<p id='stroop-text' class='stroop-blue'>STONE</p>", "response": "b", "stimulus-type": "unrelated", "word": "STONE", "color": "blue", "correct_response": "b", "trial_id": "stroop-trial-1-unrelated-1", "trial_type": "html-keyboard-response", "trial_index": 161, "time_elapsed": 394613, "internal_node_id": "0.0-6.0-66.0"}}, {"uniqueid": "w23046293:a35042347", "current_trial": 162, "dateTime": 1664555605036, "trialdata": {"rt": 1008, "stimulus": "<p id='stroop-text' class='stroop-red'>SHIP</p>", "response": "r", "stimulus-type": "unrelated", "word": "SHIP", "color": "red", "correct_response": "r", "trial_id": "stroop-trial-1-unrelated-16", "trial_type": "html-keyboard-response", "trial_index": 162, "time_elapsed": 396127, "internal_node_id": "0.0-6.0-67.0"}}, {"uniqueid": "w23046293:a35042347", "current_trial": 163, "dateTime": 1664555606632, "trialdata": {"rt": 1079, "stimulus": "<p id='stroop-text' class='stroop-yellow'>GREEN</p>", "response": "y", "stimulus-type": "incongruent", "word": "green", "color": "yellow", "correct_response": "y", "trial_id": "stroop-trial-1-incongruent-4", "trial_type": "html-keyboard-response", "trial_index": 163, "time_elapsed": 397723, "internal_node_id": "0.0-6.0-68.0"}}, {"uniqueid": "w23046293:a35042347", "current_trial": 164, "dateTime": 1664555608011, "trialdata": {"rt": 867, "stimulus": "<p id='stroop-text' class='stroop-red'>RED</p>", "response": "r", "stimulus-type": "congruent", "word": "red", "color": "red", "correct_response": "r", "trial_id": "stroop-trial-1-congruent-19", "trial_type": "html-keyboard-response", "trial_index": 164, "time_elapsed": 399101, "internal_node_id": "0.0-6.0-69.0"}}, {"uniqueid": "w23046293:a35042347", "current_trial": 165, "dateTime": 1664555609508, "trialdata": {"rt": 989, "stimulus": "<p id='stroop-text' class='stroop-yellow'>GREEN</p>", "response": "y", "stimulus-type": "incongruent", "word": "green", "color": "yellow", "correct_response": "y", "trial_id": "stroop-trial-1-incongruent-19", "trial_type": "html-keyboard-response", "trial_index": 165, "time_elapsed": 400599, "internal_node_id": "0.0-6.0-70.0"}}, {"uniqueid": "w23046293:a35042347", "current_trial": 166, "dateTime": 1664555610856, "trialdata": {"rt": 841, "stimulus": "<p id='stroop-text' class='stroop-yellow'>YELLOW</p>", "response": "y", "stimulus-type": "congruent", "word": "yellow", "color": "yellow", "correct_response": "y", "trial_id": "stroop-trial-1-congruent-14", "trial_type": "html-keyboard-response", "trial_index": 166, "time_elapsed": 401946, "internal_node_id": "0.0-6.0-71.0"}}, {"uniqueid": "w23046293:a35042347", "current_trial": 167, "dateTime": 1664555611888, "trialdata": {"rt": 518, "stimulus": "<p id='stroop-text' class='stroop-yellow'>STONE</p>", "response": "y", "stimulus-type": "unrelated", "word": "STONE", "color": "yellow", "correct_response": "y", "trial_id": "stroop-trial-1-unrelated-12", "trial_type": "html-keyboard-response", "trial_index": 167, "time_elapsed": 402979, "internal_node_id": "0.0-6.0-72.0"}}, {"uniqueid": "w23046293:a35042347", "current_trial": 168, "dateTime": 1664555613118, "trialdata": {"rt": 723, "stimulus": "<p id='stroop-text' class='stroop-yellow'>RED</p>", "response": "y", "stimulus-type": "incongruent", "word": "red", "color": "yellow", "correct_response": "y", "trial_id": "stroop-trial-1-incongruent-1", "trial_type": "html-keyboard-response", "trial_index": 168, "time_elapsed": 404208, "internal_node_id": "0.0-6.0-73.0"}}, {"uniqueid": "w23046293:a35042347", "current_trial": 169, "dateTime": 1664555614513, "trialdata": {"rt": 877, "stimulus": "<p id='stroop-text' class='stroop-green'>YELLOW</p>", "response": "g", "stimulus-type": "incongruent", "word": "yellow", "color": "green", "correct_response": "g", "trial_id": "stroop-trial-1-incongruent-13", "trial_type": "html-keyboard-response", "trial_index": 169, "time_elapsed": 405604, "internal_node_id": "0.0-6.0-74.0"}}, {"uniqueid": "w23046293:a35042347", "current_trial": 170, "dateTime": 1664555615804, "trialdata": {"rt": 777, "stimulus": "<p id='stroop-text' class='stroop-yellow'>YELLOW</p>", "response": "y", "stimulus-type": "congruent", "word": "yellow", "color": "yellow", "correct_response": "y", "trial_id": "stroop-trial-1-congruent-6", "trial_type": "html-keyboard-response", "trial_index": 170, "time_elapsed": 406895, "internal_node_id": "0.0-6.0-75.0"}}, {"uniqueid": "w23046293:a35042347", "current_trial": 171, "dateTime": 1664555617025, "trialdata": {"rt": 716, "stimulus": "<p id='stroop-text' class='stroop-yellow'>MONKEY</p>", "response": "y", "stimulus-type": "unrelated", "word": "MONKEY", "color": "yellow", "correct_response": "y", "trial_id": "stroop-trial-1-unrelated-5", "trial_type": "html-keyboard-response", "trial_index": 171, "time_elapsed": 408116, "internal_node_id": "0.0-6.0-76.0"}}, {"uniqueid": "w23046293:a35042347", "current_trial": 172, "dateTime": 1664555620511, "trialdata": {"rt": 2967, "stimulus": "<p id='stroop-text' class='stroop-green'>BOTTLE</p>", "response": "g", "stimulus-type": "unrelated", "word": "BOTTLE", "color": "green", "correct_response": "g", "trial_id": "stroop-trial-1-unrelated-6", "trial_type": "html-keyboard-response", "trial_index": 172, "time_elapsed": 411602, "internal_node_id": "0.0-6.0-77.0"}}, {"uniqueid": "w23046293:a35042347", "current_trial": 173, "dateTime": 1664555621781, "trialdata": {"rt": 765, "stimulus": "<p id='stroop-text' class='stroop-green'>GREEN</p>", "response": "g", "stimulus-type": "congruent", "word": "green", "color": "green", "correct_response": "g", "trial_id": "stroop-trial-1-congruent-28", "trial_type": "html-keyboard-response", "trial_index": 173, "time_elapsed": 412872, "internal_node_id": "0.0-6.0-78.0"}}, {"uniqueid": "w23046293:a35042347", "current_trial": 174, "dateTime": 1664555623237, "trialdata": {"rt": 940, "stimulus": "<p id='stroop-text' class='stroop-red'>BOTTLE</p>", "response": "r", "stimulus-type": "unrelated", "word": "BOTTLE", "color": "red", "correct_response": "r", "trial_id": "stroop-trial-1-unrelated-3", "trial_type": "html-keyboard-response", "trial_index": 174, "time_elapsed": 414328, "internal_node_id": "0.0-6.0-79.0"}}, {"uniqueid": "w23046293:a35042347", "current_trial": 175, "dateTime": 1664555624868, "trialdata": {"rt": 1121, "stimulus": "<p id='stroop-text' class='stroop-blue'>WINDOW</p>", "response": "b", "stimulus-type": "unrelated", "word": "WINDOW", "color": "blue", "correct_response": "b", "trial_id": "stroop-trial-1-unrelated-4", "trial_type": "html-keyboard-response", "trial_index": 175, "time_elapsed": 415959, "internal_node_id": "0.0-6.0-80.0"}}, {"uniqueid": "w23046293:a35042347", "current_trial": 176, "dateTime": 1664555626769, "trialdata": {"rt": 1384, "stimulus": "<p id='stroop-text' class='stroop-yellow'>BLUE</p>", "response": "y", "stimulus-type": "incongruent", "word": "blue", "color": "yellow", "correct_response": "y", "trial_id": "stroop-trial-1-incongruent-10", "trial_type": "html-keyboard-response", "trial_index": 176, "time_elapsed": 417859, "internal_node_id": "0.0-6.0-81.0"}}, {"uniqueid": "w23046293:a35042347", "current_trial": 177, "dateTime": 1664555628177, "trialdata": {"rt": 897, "stimulus": "<p id='stroop-text' class='stroop-green'>GREEN</p>", "response": "g", "stimulus-type": "congruent", "word": "green", "color": "green", "correct_response": "g", "trial_id": "stroop-trial-1-congruent-25", "trial_type": "html-keyboard-response", "trial_index": 177, "time_elapsed": 419267, "internal_node_id": "0.0-6.0-82.0"}}, {"uniqueid": "w23046293:a35042347", "current_trial": 178, "dateTime": 1664555629639, "trialdata": {"rt": 946, "stimulus": "<p id='stroop-text' class='stroop-yellow'>MONKEY</p>", "response": "y", "stimulus-type": "unrelated", "word": "MONKEY", "color": "yellow", "correct_response": "y", "trial_id": "stroop-trial-1-unrelated-10", "trial_type": "html-keyboard-response", "trial_index": 178, "time_elapsed": 420729, "internal_node_id": "0.0-6.0-83.0"}}, {"uniqueid": "w23046293:a35042347", "current_trial": 179, "dateTime": 1664555631444, "trialdata": {"rt": 1298, "stimulus": "<p id='stroop-text' class='stroop-blue'>BLUE</p>", "response": "b", "stimulus-type": "congruent", "word": "blue", "color": "blue", "correct_response": "b", "trial_id": "stroop-trial-1-congruent-18", "trial_type": "html-keyboard-response", "trial_index": 179, "time_elapsed": 422534, "internal_node_id": "0.0-6.0-84.0"}}, {"uniqueid": "w23046293:a35042347", "current_trial": 180, "dateTime": 1664555632960, "trialdata": {"rt": 1007, "stimulus": "<p id='stroop-text' class='stroop-red'>BRAIN</p>", "response": "r", "stimulus-type": "unrelated", "word": "BRAIN", "color": "red", "correct_response": "r", "trial_id": "stroop-trial-1-unrelated-22", "trial_type": "html-keyboard-response", "trial_index": 180, "time_elapsed": 424051, "internal_node_id": "0.0-6.0-85.0"}}, {"uniqueid": "w23046293:a35042347", "current_trial": 181, "dateTime": 1664555634401, "trialdata": {"rt": 924, "stimulus": "<p id='stroop-text' class='stroop-red'>SHIP</p>", "response": "r", "stimulus-type": "unrelated", "word": "SHIP", "color": "red", "correct_response": "r", "trial_id": "stroop-trial-1-unrelated-23", "trial_type": "html-keyboard-response", "trial_index": 181, "time_elapsed": 425491, "internal_node_id": "0.0-6.0-86.0"}}, {"uniqueid": "w23046293:a35042347", "current_trial": 182, "dateTime": 1664555635448, "trialdata": {"rt": 536, "stimulus": "<p id='stroop-text' class='stroop-red'>YELLOW</p>", "response": "r", "stimulus-type": "incongruent", "word": "yellow", "color": "red", "correct_response": "r", "trial_id": "stroop-trial-1-incongruent-27", "trial_type": "html-keyboard-response", "trial_index": 182, "time_elapsed": 426538, "internal_node_id": "0.0-6.0-87.0"}}, {"uniqueid": "w23046293:a35042347", "current_trial": 183, "dateTime": 1664555637004, "trialdata": {"rt": 1048, "stimulus": "<p id='stroop-text' class='stroop-blue'>RED</p>", "response": "b", "stimulus-type": "incongruent", "word": "red", "color": "blue", "correct_response": "b", "trial_id": "stroop-trial-1-incongruent-3", "trial_type": "html-keyboard-response", "trial_index": 183, "time_elapsed": 428095, "internal_node_id": "0.0-6.0-88.0"}}, {"uniqueid": "w23046293:a35042347", "current_trial": 184, "dateTime": 1664555639495, "trialdata": {"rt": 1973, "stimulus": "<p id='stroop-text' class='stroop-green'>YELLOW</p>", "response": "y", "stimulus-type": "incongruent", "word": "yellow", "color": "green", "correct_response": "g", "trial_id": "stroop-trial-1-incongruent-25", "trial_type": "html-keyboard-response", "trial_index": 184, "time_elapsed": 430585, "internal_node_id": "0.0-6.0-89.0"}}, {"uniqueid": "w23046293:a35042347", "current_trial": 185, "dateTime": 1664555647063, "trialdata": {"rt": 7049, "stimulus": "  <h1> End of block! </h1>\n\n  You have reached the end of the block 2/5. If you need a short break, feel free to take one now before moving on.\n\n  <br><br>\n  In the next block, you will complete another 90 rounds of this game.\n\n  <br><br>\n  <div style='text-align: center;'>Press <code>space</code> to begin.</div>\n  <br><br>\n<div style='text-align: center;'>(If the experiment doesn't continue, try clicking on the text and then pressing <code>space</code>.)</div>", "response": " ", "trial_id": "stroop_1_ready_3", "trial_type": "html-keyboard-response", "trial_index": 185, "time_elapsed": 438154, "internal_node_id": "0.0-7.0"}}, {"uniqueid": "w23046293:a35042347", "current_trial": 186, "dateTime": 1664555648407, "trialdata": {"rt": 1339, "stimulus": "<p id='stroop-text' class='stroop-yellow'>BOTTLE</p>", "response": "y", "stimulus-type": "unrelated", "word": "BOTTLE", "color": "yellow", "correct_response": "y", "trial_id": "stroop-trial-1-unrelated-7", "trial_type": "html-keyboard-response", "trial_index": 186, "time_elapsed": 439497, "internal_node_id": "0.0-8.0-0.0"}}, {"uniqueid": "w23046293:a35042347", "current_trial": 187, "dateTime": 1664555649442, "trialdata": {"rt": 522, "stimulus": "<p id='stroop-text' class='stroop-yellow'>SHIP</p>", "response": "y", "stimulus-type": "unrelated", "word": "SHIP", "color": "yellow", "correct_response": "y", "trial_id": "stroop-trial-1-unrelated-13", "trial_type": "html-keyboard-response", "trial_index": 187, "time_elapsed": 440532, "internal_node_id": "0.0-8.0-1.0"}}, {"uniqueid": "w23046293:a35042347", "current_trial": 188, "dateTime": 1664555650809, "trialdata": {"rt": 861, "stimulus": "<p id='stroop-text' class='stroop-blue'>MONKEY</p>", "response": "b", "stimulus-type": "unrelated", "word": "MONKEY", "color": "blue", "correct_response": "b", "trial_id": "stroop-trial-1-unrelated-10", "trial_type": "html-keyboard-response", "trial_index": 188, "time_elapsed": 441899, "internal_node_id": "0.0-8.0-2.0"}}, {"uniqueid": "w23046293:a35042347", "current_trial": 189, "dateTime": 1664555652122, "trialdata": {"rt": 796, "stimulus": "<p id='stroop-text' class='stroop-yellow'>YELLOW</p>", "response": "y", "stimulus-type": "congruent", "word": "yellow", "color": "yellow", "correct_response": "y", "trial_id": "stroop-trial-1-congruent-28", "trial_type": "html-keyboard-response", "trial_index": 189, "time_elapsed": 443212, "internal_node_id": "0.0-8.0-3.0"}}, {"uniqueid": "w23046293:a35042347", "current_trial": 190, "dateTime": 1664555654492, "trialdata": {"rt": 1852, "stimulus": "<p id='stroop-text' class='stroop-blue'>YELLOW</p>", "response": "b", "stimulus-type": "incongruent", "word": "yellow", "color": "blue", "correct_response": "b", "trial_id": "stroop-trial-1-incongruent-11", "trial_type": "html-keyboard-response", "trial_index": 190, "time_elapsed": 445583, "internal_node_id": "0.0-8.0-4.0"}}, {"uniqueid": "w23046293:a35042347", "current_trial": 191, "dateTime": 1664555656280, "trialdata": {"rt": 1266, "stimulus": "<p id='stroop-text' class='stroop-red'>YELLOW</p>", "response": "r", "stimulus-type": "incongruent", "word": "yellow", "color": "red", "correct_response": "r", "trial_id": "stroop-trial-1-incongruent-25", "trial_type": "html-keyboard-response", "trial_index": 191, "time_elapsed": 447371, "internal_node_id": "0.0-8.0-5.0"}}, {"uniqueid": "w23046293:a35042347", "current_trial": 192, "dateTime": 1664555659613, "trialdata": {"rt": 2823, "stimulus": "<p id='stroop-text' class='stroop-green'>CHAIR</p>", "response": "g", "stimulus-type": "unrelated", "word": "CHAIR", "color": "green", "correct_response": "g", "trial_id": "stroop-trial-1-unrelated-16", "trial_type": "html-keyboard-response", "trial_index": 192, "time_elapsed": 450704, "internal_node_id": "0.0-8.0-6.0"}}, {"uniqueid": "w23046293:a35042347", "current_trial": 193, "dateTime": 1664555660938, "trialdata": {"rt": 804, "stimulus": "<p id='stroop-text' class='stroop-green'>GREEN</p>", "response": "g", "stimulus-type": "congruent", "word": "green", "color": "green", "correct_response": "g", "trial_id": "stroop-trial-1-congruent-5", "trial_type": "html-keyboard-response", "trial_index": 193, "time_elapsed": 452028, "internal_node_id": "0.0-8.0-7.0"}}, {"uniqueid": "w23046293:a35042347", "current_trial": 194, "dateTime": 1664555662138, "trialdata": {"rt": 695, "stimulus": "<p id='stroop-text' class='stroop-green'>CHAIR</p>", "response": "g", "stimulus-type": "unrelated", "word": "CHAIR", "color": "green", "correct_response": "g", "trial_id": "stroop-trial-1-unrelated-11", "trial_type": "html-keyboard-response", "trial_index": 194, "time_elapsed": 453229, "internal_node_id": "0.0-8.0-8.0"}}, {"uniqueid": "w23046293:a35042347", "current_trial": 195, "dateTime": 1664555663924, "trialdata": {"rt": 1276, "stimulus": "<p id='stroop-text' class='stroop-yellow'>STONE</p>", "response": "y", "stimulus-type": "unrelated", "word": "STONE", "color": "yellow", "correct_response": "y", "trial_id": "stroop-trial-1-unrelated-19", "trial_type": "html-keyboard-response", "trial_index": 195, "time_elapsed": 455015, "internal_node_id": "0.0-8.0-9.0"}}, {"uniqueid": "w23046293:a35042347", "current_trial": 196, "dateTime": 1664555666259, "trialdata": {"rt": 1818, "stimulus": "<p id='stroop-text' class='stroop-blue'>RED</p>", "response": "b", "stimulus-type": "incongruent", "word": "red", "color": "blue", "correct_response": "b", "trial_id": "stroop-trial-1-incongruent-22", "trial_type": "html-keyboard-response", "trial_index": 196, "time_elapsed": 457350, "internal_node_id": "0.0-8.0-10.0"}}, {"uniqueid": "w23046293:a35042347", "current_trial": 197, "dateTime": 1664555668633, "trialdata": {"rt": 1863, "stimulus": "<p id='stroop-text' class='stroop-red'>RED</p>", "response": "r", "stimulus-type": "congruent", "word": "red", "color": "red", "correct_response": "r", "trial_id": "stroop-trial-1-congruent-24", "trial_type": "html-keyboard-response", "trial_index": 197, "time_elapsed": 459723, "internal_node_id": "0.0-8.0-11.0"}}, {"uniqueid": "w23046293:a35042347", "current_trial": 198, "dateTime": 1664555671263, "trialdata": {"rt": 2112, "stimulus": "<p id='stroop-text' class='stroop-green'>BOAT</p>", "response": "g", "stimulus-type": "unrelated", "word": "BOAT", "color": "green", "correct_response": "g", "trial_id": "stroop-trial-1-unrelated-30", "trial_type": "html-keyboard-response", "trial_index": 198, "time_elapsed": 462353, "internal_node_id": "0.0-8.0-12.0"}}, {"uniqueid": "w23046293:a35042347", "current_trial": 199, "dateTime": 1664555673371, "trialdata": {"rt": 1600, "stimulus": "<p id='stroop-text' class='stroop-yellow'>YELLOW</p>", "response": "y", "stimulus-type": "congruent", "word": "yellow", "color": "yellow", "correct_response": "y", "trial_id": "stroop-trial-1-congruent-29", "trial_type": "html-keyboard-response", "trial_index": 199, "time_elapsed": 464462, "internal_node_id": "0.0-8.0-13.0"}}, {"uniqueid": "w23046293:a35042347", "current_trial": 200, "dateTime": 1664555674869, "trialdata": {"rt": 989, "stimulus": "<p id='stroop-text' class='stroop-green'>GREEN</p>", "response": "g", "stimulus-type": "congruent", "word": "green", "color": "green", "correct_response": "g", "trial_id": "stroop-trial-1-congruent-10", "trial_type": "html-keyboard-response", "trial_index": 200, "time_elapsed": 465958, "internal_node_id": "0.0-8.0-14.0"}}, {"uniqueid": "w23046293:a35042347", "current_trial": 201, "dateTime": 1664555676061, "trialdata": {"rt": 676, "stimulus": "<p id='stroop-text' class='stroop-green'>GREEN</p>", "response": "g", "stimulus-type": "congruent", "word": "green", "color": "green", "correct_response": "g", "trial_id": "stroop-trial-1-congruent-26", "trial_type": "html-keyboard-response", "trial_index": 201, "time_elapsed": 467151, "internal_node_id": "0.0-8.0-15.0"}}, {"uniqueid": "w23046293:a35042347", "current_trial": 202, "dateTime": 1664555677015, "trialdata": {"rt": 449, "stimulus": "<p id='stroop-text' class='stroop-green'>GREEN</p>", "response": "g", "stimulus-type": "congruent", "word": "green", "color": "green", "correct_response": "g", "trial_id": "stroop-trial-1-congruent-15", "trial_type": "html-keyboard-response", "trial_index": 202, "time_elapsed": 468105, "internal_node_id": "0.0-8.0-16.0"}}, {"uniqueid": "w23046293:a35042347", "current_trial": 203, "dateTime": 1664555679177, "trialdata": {"rt": 1643, "stimulus": "<p id='stroop-text' class='stroop-yellow'>YELLOW</p>", "response": "y", "stimulus-type": "congruent", "word": "yellow", "color": "yellow", "correct_response": "y", "trial_id": "stroop-trial-1-congruent-13", "trial_type": "html-keyboard-response", "trial_index": 203, "time_elapsed": 470267, "internal_node_id": "0.0-8.0-17.0"}}, {"uniqueid": "w23046293:a35042347", "current_trial": 204, "dateTime": 1664555680648, "trialdata": {"rt": 962, "stimulus": "<p id='stroop-text' class='stroop-green'>FORK</p>", "response": "g", "stimulus-type": "unrelated", "word": "FORK", "color": "green", "correct_response": "g", "trial_id": "stroop-trial-1-unrelated-6", "trial_type": "html-keyboard-response", "trial_index": 204, "time_elapsed": 471738, "internal_node_id": "0.0-8.0-18.0"}}, {"uniqueid": "w23046293:a35042347", "current_trial": 205, "dateTime": 1664555681989, "trialdata": {"rt": 835, "stimulus": "<p id='stroop-text' class='stroop-red'>RED</p>", "response": "r", "stimulus-type": "congruent", "word": "red", "color": "red", "correct_response": "r", "trial_id": "stroop-trial-1-congruent-25", "trial_type": "html-keyboard-response", "trial_index": 205, "time_elapsed": 473079, "internal_node_id": "0.0-8.0-19.0"}}, {"uniqueid": "w23046293:a35042347", "current_trial": 206, "dateTime": 1664555683579, "trialdata": {"rt": 1072, "stimulus": "<p id='stroop-text' class='stroop-yellow'>YELLOW</p>", "response": "y", "stimulus-type": "congruent", "word": "yellow", "color": "yellow", "correct_response": "y", "trial_id": "stroop-trial-1-congruent-14", "trial_type": "html-keyboard-response", "trial_index": 206, "time_elapsed": 474669, "internal_node_id": "0.0-8.0-20.0"}}, {"uniqueid": "w23046293:a35042347", "current_trial": 207, "dateTime": 1664555686258, "trialdata": {"rt": 2161, "stimulus": "<p id='stroop-text' class='stroop-blue'>RED</p>", "response": "b", "stimulus-type": "incongruent", "word": "red", "color": "blue", "correct_response": "b", "trial_id": "stroop-trial-1-incongruent-28", "trial_type": "html-keyboard-response", "trial_index": 207, "time_elapsed": 477348, "internal_node_id": "0.0-8.0-21.0"}}, {"uniqueid": "w23046293:a35042347", "current_trial": 208, "dateTime": 1664555687514, "trialdata": {"rt": 747, "stimulus": "<p id='stroop-text' class='stroop-blue'>BLUE</p>", "response": "b", "stimulus-type": "congruent", "word": "blue", "color": "blue", "correct_response": "b", "trial_id": "stroop-trial-1-congruent-9", "trial_type": "html-keyboard-response", "trial_index": 208, "time_elapsed": 478604, "internal_node_id": "0.0-8.0-22.0"}}, {"uniqueid": "w23046293:a35042347", "current_trial": 209, "dateTime": 1664555689653, "trialdata": {"rt": 1625, "stimulus": "<p id='stroop-text' class='stroop-blue'>DOG</p>", "response": "b", "stimulus-type": "unrelated", "word": "DOG", "color": "blue", "correct_response": "b", "trial_id": "stroop-trial-1-unrelated-18", "trial_type": "html-keyboard-response", "trial_index": 209, "time_elapsed": 480744, "internal_node_id": "0.0-8.0-23.0"}}, {"uniqueid": "w23046293:a35042347", "current_trial": 210, "dateTime": 1664555691215, "trialdata": {"rt": 1055, "stimulus": "<p id='stroop-text' class='stroop-yellow'>STONE</p>", "response": "y", "stimulus-type": "unrelated", "word": "STONE", "color": "yellow", "correct_response": "y", "trial_id": "stroop-trial-1-unrelated-20", "trial_type": "html-keyboard-response", "trial_index": 210, "time_elapsed": 482305, "internal_node_id": "0.0-8.0-24.0"}}, {"uniqueid": "w23046293:a35042347", "current_trial": 211, "dateTime": 1664555692565, "trialdata": {"rt": 836, "stimulus": "<p id='stroop-text' class='stroop-green'>CHAIR</p>", "response": "g", "stimulus-type": "unrelated", "word": "CHAIR", "color": "green", "correct_response": "g", "trial_id": "stroop-trial-1-unrelated-22", "trial_type": "html-keyboard-response", "trial_index": 211, "time_elapsed": 483656, "internal_node_id": "0.0-8.0-25.0"}}, {"uniqueid": "w23046293:a35042347", "current_trial": 212, "dateTime": 1664555694090, "trialdata": {"rt": 1019, "stimulus": "<p id='stroop-text' class='stroop-yellow'>YELLOW</p>", "response": "y", "stimulus-type": "congruent", "word": "yellow", "color": "yellow", "correct_response": "y", "trial_id": "stroop-trial-1-congruent-16", "trial_type": "html-keyboard-response", "trial_index": 212, "time_elapsed": 485180, "internal_node_id": "0.0-8.0-26.0"}}, {"uniqueid": "w23046293:a35042347", "current_trial": 213, "dateTime": 1664555695446, "trialdata": {"rt": 849, "stimulus": "<p id='stroop-text' class='stroop-blue'>RED</p>", "response": "b", "stimulus-type": "incongruent", "word": "red", "color": "blue", "correct_response": "b", "trial_id": "stroop-trial-1-incongruent-30", "trial_type": "html-keyboard-response", "trial_index": 213, "time_elapsed": 486536, "internal_node_id": "0.0-8.0-27.0"}}, {"uniqueid": "w23046293:a35042347", "current_trial": 214, "dateTime": 1664555696634, "trialdata": {"rt": 677, "stimulus": "<p id='stroop-text' class='stroop-blue'>YELLOW</p>", "response": "b", "stimulus-type": "incongruent", "word": "yellow", "color": "blue", "correct_response": "b", "trial_id": "stroop-trial-1-incongruent-7", "trial_type": "html-keyboard-response", "trial_index": 214, "time_elapsed": 487725, "internal_node_id": "0.0-8.0-28.0"}}, {"uniqueid": "w23046293:a35042347", "current_trial": 215, "dateTime": 1664555698011, "trialdata": {"rt": 871, "stimulus": "<p id='stroop-text' class='stroop-red'>BLUE</p>", "response": "r", "stimulus-type": "incongruent", "word": "blue", "color": "red", "correct_response": "r", "trial_id": "stroop-trial-1-incongruent-1", "trial_type": "html-keyboard-response", "trial_index": 215, "time_elapsed": 489102, "internal_node_id": "0.0-8.0-29.0"}}, {"uniqueid": "w23046293:a35042347", "current_trial": 216, "dateTime": 1664555699189, "trialdata": {"rt": 671, "stimulus": "<p id='stroop-text' class='stroop-yellow'>YELLOW</p>", "response": "y", "stimulus-type": "congruent", "word": "yellow", "color": "yellow", "correct_response": "y", "trial_id": "stroop-trial-1-congruent-12", "trial_type": "html-keyboard-response", "trial_index": 216, "time_elapsed": 490279, "internal_node_id": "0.0-8.0-30.0"}}, {"uniqueid": "w23046293:a35042347", "current_trial": 217, "dateTime": 1664555700459, "trialdata": {"rt": 762, "stimulus": "<p id='stroop-text' class='stroop-green'>YELLOW</p>", "response": "g", "stimulus-type": "incongruent", "word": "yellow", "color": "green", "correct_response": "g", "trial_id": "stroop-trial-1-incongruent-10", "trial_type": "html-keyboard-response", "trial_index": 217, "time_elapsed": 491550, "internal_node_id": "0.0-8.0-31.0"}}, {"uniqueid": "w23046293:a35042347", "current_trial": 218, "dateTime": 1664555701595, "trialdata": {"rt": 626, "stimulus": "<p id='stroop-text' class='stroop-green'>GREEN</p>", "response": "g", "stimulus-type": "congruent", "word": "green", "color": "green", "correct_response": "g", "trial_id": "stroop-trial-1-congruent-3", "trial_type": "html-keyboard-response", "trial_index": 218, "time_elapsed": 492686, "internal_node_id": "0.0-8.0-32.0"}}, {"uniqueid": "w23046293:a35042347", "current_trial": 219, "dateTime": 1664555702725, "trialdata": {"rt": 620, "stimulus": "<p id='stroop-text' class='stroop-green'>DOG</p>", "response": "g", "stimulus-type": "unrelated", "word": "DOG", "color": "green", "correct_response": "g", "trial_id": "stroop-trial-1-unrelated-2", "trial_type": "html-keyboard-response", "trial_index": 219, "time_elapsed": 493816, "internal_node_id": "0.0-8.0-33.0"}}, {"uniqueid": "w23046293:a35042347", "current_trial": 220, "dateTime": 1664555704094, "trialdata": {"rt": 854, "stimulus": "<p id='stroop-text' class='stroop-yellow'>YELLOW</p>", "response": "y", "stimulus-type": "congruent", "word": "yellow", "color": "yellow", "correct_response": "y", "trial_id": "stroop-trial-1-congruent-11", "trial_type": "html-keyboard-response", "trial_index": 220, "time_elapsed": 495185, "internal_node_id": "0.0-8.0-34.0"}}, {"uniqueid": "w23046293:a35042347", "current_trial": 221, "dateTime": 1664555705398, "trialdata": {"rt": 785, "stimulus": "<p id='stroop-text' class='stroop-yellow'>DOG</p>", "response": "y", "stimulus-type": "unrelated", "word": "DOG", "color": "yellow", "correct_response": "y", "trial_id": "stroop-trial-1-unrelated-23", "trial_type": "html-keyboard-response", "trial_index": 221, "time_elapsed": 496488, "internal_node_id": "0.0-8.0-35.0"}}, {"uniqueid": "w23046293:a35042347", "current_trial": 222, "dateTime": 1664555707468, "trialdata": {"rt": 1561, "stimulus": "<p id='stroop-text' class='stroop-blue'>RED</p>", "response": "b", "stimulus-type": "incongruent", "word": "red", "color": 