{"condition": 1, "counterbalance": 0, "assignmentId": "a40280030", "workerId": "w61413275", "hitId": "h34738842", "currenttrial": 137, "bonus": 0, "data": [{"uniqueid": "w61413275:a40280030", "current_trial": 0, "dateTime": 1664367892648, "trialdata": {"success": true, "trial_type": "fullscreen", "trial_index": 0, "time_elapsed": 5696, "internal_node_id": "0.0-0.0"}}, {"uniqueid": "w61413275:a40280030", "current_trial": 1, "dateTime": 1664367915793, "trialdata": {"view_history": [{"page_index": 0, "viewing_time": 23139}], "rt": 23140, "trial_id": "exp_instructions_no_distractor", "trial_type": "instructions", "trial_index": 1, "time_elapsed": 28842, "internal_node_id": "0.0-1.0"}}, {"uniqueid": "w61413275:a40280030", "current_trial": 2, "dateTime": 1664367921593, "trialdata": {"success": true, "trial_type": "fullscreen", "trial_index": 2, "time_elapsed": 34642, "internal_node_id": "0.0-2.0-0.0"}}, {"uniqueid": "w61413275:a40280030", "current_trial": 3, "dateTime": 1664368171147, "trialdata": {"view_history": [{"page_index": 0, "viewing_time": 94203}, {"page_index": 1, "viewing_time": 54309}, {"page_index": 2, "viewing_time": 39635}, {"page_index": 3, "viewing_time": 7424}, {"page_index": 4, "viewing_time": 53981}], "rt": 249551, "trial_id": "mouselab_instructions_1", "trial_type": "instructions", "trial_index": 3, "time_elapsed": 284196, "internal_node_id": "0.0-2.0-1.0"}}, {"uniqueid": "w61413275:a40280030", "current_trial": 4, "dateTime": 1664368251725, "trialdata": {"revealed_states": [], "num_clicks_accrued": [0, 0, 0, 0, 0, 0, 0, 0, 0, 0, 0, 0, 0], "stateRewards": ["", -10, -10, -10, -10, -10, 10, 10, -10, 10, -10, 10, -10], "withholdReward": false, "trial_id": "practice_1", "block": "test", "trialIndex": 0, "score": 11.75, "costs": -0.25, "simulationMode": [null, null, null], "rewards": [-10, 10, 10], "path": ["0", "0", "5", "6", "7"], "rt": [5763, 1816, 535], "actions": ["right", "right", "up"], "actionTimes": [71703, 74037, 75088], "queries": {"click": {"state": {"target": ["9"], "time": [68858]}, "edge": {"target": [], "time": []}}, "mouseover": {"state": {"target": ["0", "9", "0"], "time": [66908, 68553, 70869]}, "edge": {"target": [], "time": []}}, "mouseout": {"state": {"target": ["0", "0", "0", "9", "0"], "time": [64887, 65236, 66936, 69995, 70919]}, "edge": {"target": [], "time": []}}}, "displayed_time": "75.60", "trialTime": 80299, "trial_type": "mouselab-mdp", "trial_index": 4, "time_elapsed": 364773, "internal_node_id": "0.0-2.0-2.0-0.0"}}, {"uniqueid": "w61413275:a40280030", "current_trial": 5, "dateTime": 1664368265587, "trialdata": {"revealed_states": [], "num_clicks_accrued": [0, 0, 0, 0, 0, 0, 0, 0, 0, 0, 0, 0, 0], "stateRewards": ["", 10, 10, -10, -10, -10, -10, -10, -10, -10, 10, -10, 10], "withholdReward": false, "trial_id": "practice_2", "block": "test", "trialIndex": 1, "score": 10.75, "costs": -1.25, "simulationMode": [null, null, null], "rewards": [10, 10, -10], "path": ["0", "0", "1", "2", "4"], "rt": [9201, 10, 50], "actions": ["up", "up", "left"], "actionTimes": [10423, 10946, 11503], "queries": {"click": {"state": {"target": ["7", "11", "12", "10", "1"], "time": [4056, 5400, 6646, 7901, 9076]}, "edge": {"target": [], "time": []}}, "mouseover": {"state": {"target": ["5", "7", "1", "11", "10", "12", "10", "1"], "time": [3119, 3536, 4735, 4802, 6186, 6402, 7490, 8785]}, "edge": {"target": [], "time": []}}, "mouseout": {"state": {"target": ["0", "5", "7", "1", "11", "10", "12", "10", "1"], "time": [1002, 3136, 4702, 4752, 6152, 6252, 7135, 8406, 9446]}, "edge": {"target": [], "time": []}}}, "displayed_time": "12.02", "trialTime": 13813, "trial_type": "mouselab-mdp", "trial_index": 5, "time_elapsed": 378636, "internal_node_id": "0.0-2.0-2.0-1.0"}}, {"uniqueid": "w61413275:a40280030", "current_trial": 6, "dateTime": 1664368365848, "trialdata": {"view_history": [{"page_index": 0, "viewing_time": 72313}, {"page_index": 1, "viewing_time": 14163}, {"page_index": 2, "viewing_time": 13780}], "rt": 100256, "trial_id": "mouselab_instructions_2_scarce", "trial_type": "instructions", "trial_index": 6, "time_elapsed": 478897, "internal_node_id": "0.0-2.0-3.0"}}, {"uniqueid": "w61413275:a40280030", "current_trial": 7, "dateTime": 1664368499948, "trialdata": {"rt": 134092, "response": {"Q0": "$-48 to $48", "Q1": "The cost is always $0.25.", "Q2": "The better I perform the higher my bonus will be.", "Q3": "No, the amount of cash at each node of the web may be different each time.", "Q4": "The values of the nodes walked through from start to finish.", "Q5": "No, the spider might forget to count the money on some rounds."}, "question_order": [0, 1, 2, 3, 4, 5], "correct": {"Q0": "$-48 to $48", "Q1": "The cost is always $0.25.", "Q2": "The better I perform the higher my bonus will be.", "Q3": "No, the amount of cash at each node of the web may be different each time.", "Q4": "The values of the nodes walked through from start to finish.", "Q5": "No, the spider might forget to count the money on some rounds."}, "trial_id": "mouselab_quiz_scarce", "trial_type": "survey-multi-choice", "trial_index": 7, "time_elapsed": 612997, "internal_node_id": "0.0-2.0-4.0"}}, {"uniqueid": "w61413275:a40280030", "current_trial": 8, "dateTime": 1664368529321, "trialdata": {"rt": 29362, "stimulus": "\n<h1> Get ready to start the game! </h1>\n\nThank you for reading the instructions. Get ready start with the first of 4 block(s) of this game.\n<br><br>\nIn this first block, you will complete 30 rounds of this game before moving on.\n<br><br>\nRemember, the more money the spider gets, the bigger your bonus will be!\n<br><br>\n<div style='text-align: center;'>Press <code>space</code> to begin.</div>\n\n<br><br>\n(If, at any point, the <code>space</code> key does not take you to the next page, click once on the text and try again.)", "response": " ", "trial_id": "mdp_ready_1", "trial_type": "html-keyboard-response", "trial_index": 8, "time_elapsed": 642370, "internal_node_id": "0.0-4.0-0.0"}}, {"uniqueid": "w61413275:a40280030", "current_trial": 9, "dateTime": 1664368542553, "trialdata": {"revealed_states": [], "num_clicks_accrued": [0, 0, 0, 0, 0, 0, 0, 0, 0, 0, 0, 0, 0], "stateRewards": ["", -4, -8, -24, 24, 4, 4, -48, -48, -4, -4, 24, -48], "withholdReward": false, "trial_id": "mdp_431592223624", "block": "test1", "trialIndex": 2, "score": -35, "costs": 0, "simulationMode": [null, null, null], "rewards": [4, 4, -48], "path": ["0", "0", "5", "6", "7"], "rt": [1616, 231, 442], "actions": ["right", "right", "up"], "actionTimes": [3507, 4246, 5206], "queries": {"click": {"state": {"target": [], "time": []}, "edge": {"target": [], "time": []}}, "mouseover": {"state": {"target": [], "time": []}, "edge": {"target": [], "time": []}}, "mouseout": {"state": {"target": ["1"], "time": [1320]}, "edge": {"target": [], "time": []}}}, "displayed_time": "9.89", "trialTime": 13158, "trial_type": "mouselab-mdp", "trial_index": 9, "time_elapsed": 655601, "internal_node_id": "0.0-4.0-1.0-0.0"}}, {"uniqueid": "w61413275:a40280030", "current_trial": 10, "dateTime": 1664368561046, "trialdata": {"revealed_states": [], "num_clicks_accrued": [0, 0, 0, 0, 0, 0, 0, 0, 0, 0, 0, 0, 0], "stateRewards": ["", -2, -4, -24, -48, -4, -8, -48, 24, -4, -8, -24, -48], "withholdReward": true, "trial_id": "mdp_475782454549", "block": "test1", "trialIndex": 3, "score": -27.25, "costs": -2.25, "simulationMode": [null, null, null], "rewards": [-2, -4, -24], "path": ["0", "0", "1", "2", "3"], "rt": [12520, 669, 97], "actions": ["up", "up", "right"], "actionTimes": [13683, 14873, 15483], "queries": {"click": {"state": {"target": ["5", "7", "11", "10", "12", "1", "2", "4", "3"], "time": [2272, 3805, 5838, 7217, 8150, 9275, 10130, 11199, 12479]}, "edge": {"target": [], "time": []}}, "mouseover": {"state": {"target": ["5", "7", "9", "11", "10", "12", "2", "1", "2", "4", "3", "3"], "time": [1871, 3107, 4753, 5053, 6786, 7803, 8821, 9036, 9703, 10990, 11936, 12236]}, "edge": {"target": [], "time": []}}, "mouseout": {"state": {"target": ["0", "5", "7", "9", "11", "10", "12", "2", "1", "2", "4", "2", "3", "3"], "time": [1787, 2787, 4689, 4770, 6486, 7769, 8541, 8936, 9672, 10636, 11870, 11903, 11969, 12974]}, "edge": {"target": [], "time": []}}}, "displayed_time": "16.00", "trialTime": 18445, "trial_type": "mouselab-mdp", "trial_index": 10, "time_elapsed": 674095, "internal_node_id": "0.0-4.0-1.0-1.0"}}, {"uniqueid": "w61413275:a40280030", "current_trial": 11, "dateTime": 1664368575392, "trialdata": {"revealed_states": [], "num_clicks_accrued": [0, 0, 0, 0, 0, 0, 0, 0, 0, 0, 0, 0, 0], "stateRewards": ["", -2, 8, 48, 48, 4, -8, -48, 48, 2, -4, -48, 48], "withholdReward": true, "trial_id": "mdp_132958048709", "block": "test1", "trialIndex": 4, "score": 49.75, "costs": -1.25, "simulationMode": [null, null, null], "rewards": [2, -4, 48], "path": ["0", "0", "9", "10", "12"], "rt": [8995, 155, 91], "actions": ["left", "left", "down"], "actionTimes": [11307, 11980, 12568], "queries": {"click": {"state": {"target": ["6", "10", "11", "7", "12"], "time": [4245, 5712, 7174, 8616, 9859]}, "edge": {"target": [], "time": []}}, "mouseover": {"state": {"target": ["6", "10", "11", "7", "12"], "time": [3592, 5076, 6442, 8076, 9375]}, "edge": {"target": [], "time": []}}, "mouseout": {"state": {"target": ["7", "9", "9", "6", "10", "11", "7", "6", "12"], "time": [1375, 1575, 1742, 4960, 6360, 7975, 9174, 9225, 10675]}, "edge": {"target": [], "time": []}}}, "displayed_time": "13.08", "trialTime": 14298, "trial_type": "mouselab-mdp", "trial_index": 11, "time_elapsed": 688441, "internal_node_id": "0.0-4.0-1.0-2.0"}}, {"uniqueid": "w61413275:a40280030", "current_trial": 12, "dateTime": 1664368588345, "trialdata": {"revealed_states": [], "num_clicks_accrued": [0, 0, 0, 0, 0, 0, 0, 0, 0, 0, 0, 0, 0], "stateRewards": ["", -2, -4, -24, -48, 2, -8, -24, -24, 4, -8, 48, 48], "withholdReward": true, "trial_id": "mdp_950599994674", "block": "test1", "trialIndex": 5, "score": 48.5, "costs": -0.5, "simulationMode": [null, null, null], "rewards": [4, -8, 48], "path": ["0", "0", "9", "10", "12"], "rt": [3295, 84, 72], "actions": ["left", "left", "down"], "actionTimes": [4820, 5419, 5989], "queries": {"click": {"state": {"target": ["3", "12"], "time": [2478, 3626]}, "edge": {"target": [], "time": []}}, "mouseover": {"state": {"target": ["3", "9", "12"], "time": [2092, 3084, 3149]}, "edge": {"target": [], "time": []}}, "mouseout": {"state": {"target": ["0", "3", "9"], "time": [1184, 3035, 3099]}, "edge": {"target": [], "time": []}}}, "displayed_time": "9.53", "trialTime": 12911, "trial_type": "mouselab-mdp", "trial_index": 12, "time_elapsed": 701394, "internal_node_id": "0.0-4.0-1.0-3.0"}}, {"uniqueid": "w61413275:a40280030", "current_trial": 13, "dateTime": 1664368600123, "trialdata": {"revealed_states": [], "num_clicks_accrued": [0, 0, 0, 0, 0, 0, 0, 0, 0, 0, 0, 0, 0], "stateRewards": ["", -4, 4, -24, 24, -2, -4, 48, 24, 2, 8, -48, 24], "withholdReward": true, "trial_id": "mdp_150340189492", "block": "test1", "trialIndex": 6, "score": 23, "costs": 0, "simulationMode": [null, null, null], "rewards": [-2, -4, 24], "path": ["0", "0", "5", "6", "8"], "rt": [962, 28, 1004], "actions": ["right", "right", "down"], "actionTimes": [2416, 2957, 4450], "queries": {"click": {"state": {"target": [], "time": []}, "edge": {"target": [], "time": []}}, "mouseover": {"state": {"target": [], "time": []}, "edge": {"target": [], "time": []}}, "mouseout": {"state": {"target": ["12", "9"], "time": [744, 794]}, "edge": {"target": [], "time": []}}}, "displayed_time": "10.45", "trialTime": 11734, "trial_type": "mouselab-mdp", "trial_index": 13, "time_elapsed": 713172, "internal_node_id": "0.0-4.0-1.0-4.0"}}, {"uniqueid": "w61413275:a40280030", "current_trial": 14, "dateTime": 1664368627696, "trialdata": {"revealed_states": [], "num_clicks_accrued": [0, 0, 0, 0, 0, 0, 0, 0, 0, 0, 0, 0, 0], "stateRewards": ["", -4, 8, 24, -24, -2, 4, -24, 48, -2, 8, -48, -24], "withholdReward": true, "trial_id": "mdp_799359103169", "block": "test1", "trialIndex": 7, "score": 54.25, "costs": -0.75, "simulationMode": [null, null, null], "rewards": [-2, 4, 48], "path": ["0", "0", "5", "6", "8"], "rt": [4873, 412, 420], "actions": ["right", "right", "down"], "actionTimes": [6138, 7063, 8003], "queries": {"click": {"state": {"target": ["12", "4", "8"], "time": [2350, 3694, 4944]}, "edge": {"target": [], "time": []}}, "mouseover": {"state": {"target": ["12", "10", "11", "4", "2", "8"], "time": [1949, 2966, 3099, 3432, 4266, 4666]}, "edge": {"target": [], "time": []}}, "mouseout": {"state": {"target": ["0", "12", "10", "11", "4", "2", "8", "6", "8", "8", "8"], "time": [932, 2949, 2999, 3115, 4257, 4283, 5567, 16948, 17364, 19614, 20946]}, "edge": {"target": [], "time": []}}}, "displayed_time": "11.27", "trialTime": 27530, "trial_type": "mouselab-mdp", "trial_index": 14, "time_elapsed": 740745, "internal_node_id": "0.0-4.0-1.0-5.0"}}, {"uniqueid": "w61413275:a40280030", "current_trial": 15, "dateTime": 1664368648574, "trialdata": {"revealed_states": [], "num_clicks_accrued": [0, 0, 0, 0, 0, 0, 0, 0, 0, 0, 0, 0, 0], "stateRewards": ["", 2, 8, 48, 24, -4, 4, -48, 24, 2, 8, 48, 48], "withholdReward": false, "trial_id": "mdp_367344599162", "block": "test1", "trialIndex": 8, "score": 62.75, "costs": -0.25, "simulationMode": [null, null, null], "rewards": [2, 8, 48], "path": ["0", "0", "9", "10", "12"], "rt": [12187, 702, 948], "actions": ["left", "left", "down"], "actionTimes": [13951, 15172, 16635], "queries": {"click": {"state": {"target": ["12"], "time": [11887]}, "edge": {"target": [], "time": []}}, "mouseover": {"state": {"target": ["0", "0", "0", "10", "12"], "time": [2670, 9436, 11169, 11287, 11603]}, "edge": {"target": [], "time": []}}, "mouseout": {"state": {"target": ["0", "0", "0", "0", "10", "12"], "time": [1336, 2688, 9453, 11185, 11536, 12687]}, "edge": {"target": [], "time": []}}}, "displayed_time": "17.15", "trialTime": 20834, "trial_type": "mouselab-mdp", "trial_index": 15, "time_elapsed": 761623, "internal_node_id": "0.0-4.0-1.0-6.0"}}, {"uniqueid": "w61413275:a40280030", "current_trial": 16, "dateTime": 1664368657995, "trialdata": {"revealed_states": [], "num_clicks_accrued": [0, 0, 0, 0, 0, 0, 0, 0, 0, 0, 0, 0, 0], "stateRewards": ["", 2, -8, 48, -24, 2, -4, 24, 48, 4, -4, 48, -24], "withholdReward": true, "trial_id": "mdp_656500928756", "block": "test1", "trialIndex": 9, "score": 50.75, "costs": -0.25, "simulationMode": [null, null, null], "rewards": [2, -4, 48], "path": ["0", "0", "5", "6", "8"], "rt": [3164, 594, 399], "actions": ["right", "right", "down"], "actionTimes": [4683, 5782, 6688], "queries": {"click": {"state": {"target": ["8"], "time": [2755]}, "edge": {"target": [], "time": []}}, "mouseover": {"state": {"target": ["5", "8"], "time": [2070, 2387]}, "edge": {"target": [], "time": []}}, "mouseout": {"state": {"target": ["0", "5", "8"], "time": [2057, 2087, 3625]}, "edge": {"target": [], "time": []}}}, "displayed_time": "8.52", "trialTime": 9373, "trial_type": "mouselab-mdp", "trial_index": 16, "time_elapsed": 771044, "internal_node_id": "0.0-4.0-1.0-7.0"}}, {"uniqueid": "w61413275:a40280030", "current_trial": 17, "dateTime": 1664368675022, "trialdata": {"revealed_states": [], "num_clicks_accrued": [0, 0, 0, 0, 0, 0, 0, 0, 0, 0, 0, 0, 0], "stateRewards": ["", -4, -4, -24, 24, -4, 4, -24, 48, -2, 4, 48, -48], "withholdReward": false, "trial_id": "mdp_774757609669", "block": "test1", "trialIndex": 10, "score": 54, "costs": -1, "simulationMode": [null, null, null], "rewards": [-2, 4, 48], "path": ["0", "0", "9", "10", "11"], "rt": [6647, 528, 489], "actions": ["left", "left", "up"], "actionTimes": [8156, 9196, 10190], "queries": {"click": {"state": {"target": ["12", "3", "4", "11"], "time": [2743, 4019, 5134, 6969]}, "edge": {"target": [], "time": []}}, "mouseover": {"state": {"target": ["0", "12", "12", "3", "2", "4", "11", "7", "6"], "time": [2084, 2167, 2484, 3734, 4666, 4750, 6535, 7452, 7617]}, "edge": {"target": [], "time": []}}, "mouseout": {"state": {"target": ["0", "0", "12", "12", "3", "2", "4", "11", "7", "6"], "time": [1217, 2101, 2201, 3334, 4650, 4717, 6450, 7351, 7483, 7650]}, "edge": {"target": [], "time": []}}}, "displayed_time": "11.51", "trialTime": 16982, "trial_type": "mouselab-mdp", "trial_index": 17, "time_elapsed": 788071, "internal_node_id": "0.0-4.0-1.0-8.0"}}, {"uniqueid": "w61413275:a40280030", "current_trial": 18, "dateTime": 1664368685701, "trialdata": {"revealed_states": [], "num_clicks_accrued": [0, 0, 0, 0, 0, 0, 0, 0, 0, 0, 0, 0, 0], "stateRewards": ["", -2, -8, -24, -48, 4, -8, 48, 24, 2, 4, -48, -48], "withholdReward": true, "trial_id": "mdp_898082967464", "block": "test1", "trialIndex": 11, "score": 48.75, "costs": -0.25, "simulationMode": [null, null, null], "rewards": [4, -8, 48], "path": ["0", "0", "5", "6", "7"], "rt": [2913, 777, 412], "actions": ["right", "right", "up"], "actionTimes": [4325, 5615, 6534], "queries": {"click": {"state": {"target": ["7"], "time": [2762]}, "edge": {"target": [], "time": []}}, "mouseover": {"state": {"target": ["7"], "time": [2304]}, "edge": {"target": [], "time": []}}, "mouseout": {"state": {"target": ["0", "7"], "time": [2131, 3716]}, "edge": {"target": [], "time": []}}}, "displayed_time": "9.41", "trialTime": 10633, "trial_type": "mouselab-mdp", "trial_index": 18, "time_elapsed": 798750, "internal_node_id": "0.0-4.0-1.0-9.0"}}, {"uniqueid": "w61413275:a40280030", "current_trial": 19, "dateTime": 1664368701831, "trialdata": {"revealed_states": [], "num_clicks_accrued": [0, 0, 0, 0, 0, 0, 0, 0, 0, 0, 0, 0, 0], "stateRewards": ["", 4, -4, 48, -48, -4, -4, 48, -48, 4, 4, -48, -24], "withholdReward": false, "trial_id": "mdp_490058671112", "block": "test1", "trialIndex": 12, "score": 44.5, "costs": -0.5, "simulationMode": [null, null, null], "rewards": [-4, -4, 48], "path": ["0", "0", "5", "6", "7"], "rt": [4400, 172, 1195], "actions": ["right", "right", "up"], "actionTimes": [7767, 8457, 10164], "queries": {"click": {"state": {"target": ["8", "7"], "time": [4386, 6631]}, "edge": {"target": [], "time": []}}, "mouseover": {"state": {"target": ["5", "8", "7", "1"], "time": [3919, 3986, 5252, 7218]}, "edge": {"target": [], "time": []}}, "mouseout": {"state": {"target": ["0", "5", "8", "7", "1", "10", "12"], "time": [2735, 3935, 5052, 7198, 7234, 15683, 15767]}, "edge": {"target": [], "time": []}}}, "displayed_time": "11.37", "trialTime": 16078, "trial_type": "mouselab-mdp", "trial_index": 19, "time_elapsed": 814880, "internal_node_id": "0.0-4.0-1.0-10.0"}}, {"uniqueid": "w61413275:a40280030", "current_trial": 20, "dateTime": 1664368713778, "trialdata": {"revealed_states": [], "num_clicks_accrued": [0, 0, 0, 0, 0, 0, 0, 0, 0, 0, 0, 0, 0], "stateRewards": ["", -4, -8, 24, 48, 2, -4, -24, 24, -4, 8, 48, 48], "withholdReward": true, "trial_id": "mdp_496672670022", "block": "test1", "trialIndex": 13, "score": 56.75, "costs": -0.25, "simulationMode": [null, null, null], "rewards": [-4, 8, 48], "path": ["0", "0", "9", "10", "11"], "rt": [3419, 739, 688], "actions": ["left", "left", "up"], "actionTimes": [4820, 6066, 7265], "queries": {"click": {"state": {"target": ["11"], "time": [3370]}, "edge": {"target": [], "time": []}}, "mouseover": {"state": {"target": ["9", "11"], "time": [2076, 2160]}, "edge": {"target": [], "time": []}}, "mouseout": {"state": {"target": ["0", "9"], "time": [976, 2092]}, "edge": {"target": [], "time": []}}}, "displayed_time": "10.40", "trialTime": 11886, "trial_type": "mouselab-mdp", "trial_index": 20, "time_elapsed": 826827, "internal_node_id": "0.0-4.0-1.0-11.0"}}, {"uniqueid": "w61413275:a40280030", "current_trial": 21, "dateTime": 1664368724525, "trialdata": {"revealed_states": [], "num_clicks_accrued": [0, 0, 0, 0, 0, 0, 0, 0, 0, 0, 0, 0, 0], "stateRewards": ["", 2, -8, -24, -48, -2, -4, 48, 48, 4, 8, 48, 48], "withholdReward": true, "trial_id": "mdp_347285045422", "block": "test1", "trialIndex": 14, "score": 64.75, "costs": -0.25, "simulationMode": [null, null, null], "rewards": [4, 8, 48], "path": ["0", "0", "9", "10", "11"], "rt": [2117, 115, 175], "actions": ["left", "left", "up"], "actionTimes": [3740, 4370, 5047], "queries": {"click": {"state": {"target": ["11"], "time": [2632]}, "edge": {"target": [], "time": []}}, "mouseover": {"state": {"target": ["9", "11"], "time": [2089, 2305]}, "edge": {"target": [], "time": []}}, "mouseout": {"state": {"target": ["11", "9"], "time": [1082, 2121]}, "edge": {"target": [], "time": []}}}, "displayed_time": "9.62", "trialTime": 10697, "trial_type": "mouselab-mdp", "trial_index": 21, "time_elapsed": 837574, "internal_node_id": "0.0-4.0-1.0-12.0"}}, {"uniqueid": "w61413275:a40280030", "current_trial": 22, "dateTime": 1664368738873, "trialdata": {"revealed_states": [], "num_clicks_accrued": [0, 0, 0, 0, 0, 0, 0, 0, 0, 0, 0, 0, 0], "stateRewards": ["", -2, -4, -24, -48, -2, 8, -48, 24, 4, -4, -24, -24], "withholdReward": true, "trial_id": "mdp_915304165774", "block": "test1", "trialIndex": 15, "score": 33.5, "costs": -1.5, "simulationMode": [null, null, null], "rewards": [-2, 8, 24], "path": ["0", "0", "5", "6", "8"], "rt": [8512, 39, 136], "actions": ["right", "right", "down"], "actionTimes": [9999, 10548, 11194], "queries": {"click": {"state": {"target": ["12", "11", "7", "8", "3", "4"], "time": [2450, 3678, 4877, 5842, 6939, 7820]}, "edge": {"target": [], "time": []}}, "mouseover": {"state": {"target": ["9", "10", "12", "10", "11", "7", "6", "8", "1", "2", "3", "2", "4"], "time": [1892, 2025, 2092, 2992, 3342, 4557, 5342, 5392, 6391, 6425, 6641, 7358, 7458]}, "edge": {"target": [], "time": []}}, "mouseout": {"state": {"target": ["11", "0", "9", "10", "12", "10", "11", "7", "6", "8", "1", "2", "3", "2", "4", "3", "5"], "time": [989, 1858, 1908, 2058, 2976, 3154, 4164, 5325, 5375, 6341, 6408, 6442, 7342, 7392, 13742, 13841, 13941]}, "edge": {"target": [], "time": []}}}, "displayed_time": "11.71", "trialTime": 14300, "trial_type": "mouselab-mdp", "trial_index": 22, "time_elapsed": 851922, "internal_node_id": "0.0-4.0-1.0-13.0"}}, {"uniqueid": "w61413275:a40280030", "current_trial": 23, "dateTime": 1664368751186, "trialdata": {"revealed_states": [], "num_clicks_accrued": [0, 0, 0, 0, 0, 0, 0, 0, 0, 0, 0, 0, 0], "stateRewards": ["", 2, 4, -48, -24, 2, 8, 24, 48, -2, 4, 48, -48], "withholdReward": true, "trial_id": "mdp_551894842204", "block": "test1", "trialIndex": 16, "score": 54.25, "costs": -0.75, "simulationMode": [null, null, null], "rewards": [-2, 4, 48], "path": ["0", "0", "9", "10", "11"], "rt": [4667, 461, 278], "actions": ["left", "left", "up"], "actionTimes": [6851, 7827, 8612], "queries": {"click": {"state": {"target": ["7", "4", "11"], "time": [3390, 4811, 5831]}, "edge": {"target": [], "time": []}}, "mouseover": {"state": {"target": ["7", "2", "4", "11", "2"], "time": [3083, 4316, 4515, 5582, 6233]}, "edge": {"target": [], "time": []}}, "mouseout": {"state": {"target": ["0", "0", "7", "2", "4", "11", "4", "2"], "time": [1566, 2802, 4267, 4349, 5350, 6199, 6232, 6298]}, "edge": {"target": [], "time": []}}}, "displayed_time": "11.19", "trialTime": 12238, "trial_type": "mouselab-mdp", "trial_index": 23, "time_elapsed": 864235, "internal_node_id": "0.0-4.0-1.0-14.0"}}, {"uniqueid": "w61413275:a40280030", "current_trial": 24, "dateTime": 1664368762603, "trialdata": {"revealed_states": [], "num_clicks_accrued": [0, 0, 0, 0, 0, 0, 0, 0, 0, 0, 0, 0, 0], "stateRewards": ["", 2, 4, -24, -24, 4, 8, -48, 48, 2, 4, -24, -48], "withholdReward": true, "trial_id": "mdp_565165082781", "block": "test1", "trialIndex": 17, "score": 64.5, "costs": -0.5, "simulationMode": [null, null, null], "rewards": [4, 8, 48], "path": ["0", "0", "5", "6", "8"], "rt": [3375, 51, 71], "actions": ["right", "right", "down"], "actionTimes": [4744, 5312, 5882], "queries": {"click": {"state": {"target": ["11", "8"], "time": [2686, 3871]}, "edge": {"target": [], "time": []}}, "mouseover": {"state": {"target": ["0", "9", "10", "11", "5", "8"], "time": [1937, 1961, 2028, 2294, 3310, 3542]}, "edge": {"target": [], "time": []}}, "mouseout": {"state": {"target": ["0", "0", "9", "10", "11", "5"], "time": [1333, 1944, 1994, 2110, 3261, 3344]}, "edge": {"target": [], "time": []}}}, "displayed_time": "10.37", "trialTime": 11368, "trial_type": "mouselab-mdp", "trial_index": 24, "time_elapsed": 875651, "internal_node_id": "0.0-4.0-1.0-15.0"}}, {"uniqueid": "w61413275:a40280030", "current_trial": 25, "dateTime": 1664368773940, "trialdata": {"revealed_states": [], "num_clicks_accrued": [0, 0, 0, 0, 0, 0, 0, 0, 0, 0, 0, 0, 0], "stateRewards": ["", 4, 8, 48, -48, -4, 8, -24, -24, -4, 8, 48, 48], "withholdReward": true, "trial_id": "mdp_377640328420", "block": "test1", "trialIndex": 18, "score": 56.75, "costs": -0.25, "simulationMode": [null, null, null], "rewards": [-4, 8, 48], "path": ["0", "0", "9", "10", "12"], "rt": [2154, 67, 270], "actions": ["left", "left", "down"], "actionTimes": [3549, 4125, 4910], "queries": {"click": {"state": {"target": ["12"], "time": [2498]}, "edge": {"target": [], "time": []}}, "mouseover": {"state": {"target": ["12", "12"], "time": [1906, 2222]}, "edge": {"target": [], "time": []}}, "mouseout": {"state": {"target": ["8", "0", "12", "12"], "time": [722, 1858, 1939, 2973]}, "edge": {"target": [], "time": []}}}, "displayed_time": "10.40", "trialTime": 11285, "trial_type": "mouselab-mdp", "trial_index": 25, "time_elapsed": 886989, "internal_node_id": "0.0-4.0-1.0-16.0"}}, {"uniqueid": "w61413275:a40280030", "current_trial": 26, "dateTime": 1664368786968, "trialdata": {"revealed_states": [], "num_clicks_accrued": [0, 0, 0, 0, 0, 0, 0, 0, 0, 0, 0, 0, 0], "stateRewards": ["", -4, 8, -24, 48, 2, -8, 24, 48, 2, -8, -24, -48], "withholdReward": true, "trial_id": "mdp_493778446445", "block": "test1", "trialIndex": 19, "score": 46.75, "costs": -0.25, "simulationMode": [null, null, null], "rewards": [2, -8, 48], "path": ["0", "0", "5", "6", "8"], "rt": [1998, 496, 413], "actions": ["right", "right", "down"], "actionTimes": [3628, 4632, 5563], "queries": {"click": {"state": {"target": ["8"], "time": [2603]}, "edge": {"target": [], "time": []}}, "mouseover": {"state": {"target": ["5", "8"], "time": [2126, 2184]}, "edge": {"target": [], "time": []}}, "mouseout": {"state": {"target": ["0", "1", "5", "8"], "time": [1067, 1300, 2134, 12583]}, "edge": {"target": [], "time": []}}}, "displayed_time": "11.63", "trialTime": 12959, "trial_type": "mouselab-mdp", "trial_index": 26, "time_elapsed": 900016, "internal_node_id": "0.0-4.0-1.0-17.0"}}, {"uniqueid": "w61413275:a40280030", "current_trial": 27, "dateTime": 1664368801066, "trialdata": {"revealed_states": [], "num_clicks_accrued": [0, 0, 0, 0, 0, 0, 0, 0, 0, 0, 0, 0, 0], "stateRewards": ["", 2, 4, -48, -48, 2, 4, 48, -24, -2, 8, 48, -48], "withholdReward": true, "trial_id": "mdp_258528916140", "block": "test1", "trialIndex": 20, "score": 58.75, "costs": -0.25, "simulationMode": [null, null, null], "rewards": [-2, 8, 48], "path": ["0", "0", "9", "10", "11"], "rt": [2043, 100, 262], "actions": ["left", "left", "up"], "actionTimes": [3343, 3958, 4737], "queries": {"click": {"state": {"target": ["11"], "time": [2483]}, "edge": {"target": [], "time": []}}, "mouseover": {"state": {"target": ["9", "11"], "time": [1925, 2024]}, "edge": {"target": [], "time": []}}, "mouseout": {"state": {"target": ["0", "9", "11", "0"], "time": [740, 1958, 10423, 10506]}, "edge": {"target": [], "time": []}}}, "displayed_time": "9.30", "trialTime": 14049, "trial_type": "mouselab-mdp", "trial_index": 27, "time_elapsed": 914114, "internal_node_id": "0.0-4.0-1.0-18.0"}}, {"uniqueid": "w61413275:a40280030", "current_trial": 28, "dateTime": 1664368815627, "trialdata": {"revealed_states": [], "num_clicks_accrued": [0, 0, 0, 0, 0, 0, 0, 0, 0, 0, 0, 0, 0], "stateRewards": ["", -2, -8, -24, 48, -2, -8, -48, -48, 2, -8, -48, 24], "withholdReward": false, "trial_id": "mdp_288324580942", "block": "test1", "trialIndex": 21, "score": 41.5, "costs": -1.5, "simulationMode": [null, null, null], "rewards": [-2, -8, 48], "path": ["0", "0", "1", "2", "4"], "rt": [7427, 290, 70], "actions": ["up", "up", "left"], "actionTimes": [8971, 9775, 10356], "queries": {"click": {"state": {"target": ["7", "11", "12", "8", "3", "4"], "time": [2578, 3857, 4980, 6063, 7140, 7937]}, "edge": {"target": [], "time": []}}, "mouseover": {"state": {"target": ["7", "11", "12", "5", "6", "8", "5", "3", "2", "4"], "time": [2120, 3568, 4685, 5418, 5436, 5735, 6552, 6901, 7502, 7551]}, "edge": {"target": [], "time": []}}, "mouseout": {"state": {"target": ["7", "11", "12", "5", "6", "8", "5", "3", "2", "4", "2"], "time": [3170, 4253, 5385, 5434, 5451, 6522, 6568, 7501, 7534, 11897, 11950]}, "edge": {"target": [], "time": []}}}, "displayed_time": "10.85", "trialTime": 14506, "trial_type": "mouselab-mdp", "trial_index": 28, "time_elapsed": 928676, "internal_node_id": "0.0-4.0-1.0-19.0"}}, {"uniqueid": "w61413275:a40280030", "current_trial": 29, "dateTime": 1664368827404, "trialdata": {"revealed_states": [], "num_clicks_accrued": [0, 0, 0, 0, 0, 0, 0, 0, 0, 0, 0, 0, 0], "stateRewards": ["", 2, 8, 24, 24, 2, -8, -24, -48, 2, 8, -48, 48], "withholdReward": true, "trial_id": "mdp_745175888812", "block": "test1", "trialIndex": 22, "score": 61.75, "costs": -1.25, "simulationMode": [null, null, null], "rewards": [2, 8, 48], "path": ["0", "0", "9", "10", "12"], "rt": [7331, 28, 194], "actions": ["left", "left", "down"], "actionTimes": [8656, 9204, 9905], "queries": {"click": {"state": {"target": ["4", "8", "7", "11", "12"], "time": [2390, 3715, 5492, 6500, 7523]}, "edge": {"target": [], "time": []}}, "mouseover": {"state": {"target": ["4", "2", "5", "8", "6", "7", "1", "11", "10", "12", "9", "2", "1"], "time": [1992, 3093, 3175, 3492, 4225, 4576, 6025, 6074, 7025, 7091, 7875, 7923, 8090]}, "edge": {"target": [], "time": []}}, "mouseout": {"state": {"target": ["1", "0", "4", "2", "5", "8", "6", "7", "1", "11", "10", "12", "9", "2", "1"], "time": [843, 1925, 3092, 3108, 3191, 4220, 4275, 6008, 6041, 7009, 7058, 7857, 7891, 7940, 8108]}, "edge": {"target": [], "time": []}}}, "displayed_time": "10.44", "trialTime": 11725, "trial_type": "mouselab-mdp", "trial_index": 29, "time_elapsed": 940453, "internal_node_id": "0.0-4.0-1.0-20.0"}}, {"uniqueid": "w61413275:a40280030", "current_trial": 30, "dateTime": 1664368839599, "trialdata": {"revealed_states": [], "num_clicks_accrued": [0, 0, 0, 0, 0, 0, 0, 0, 0, 0, 0, 0, 0], "stateRewards": ["", 2, -4, 24, 24, 2, 4, 24, 24, -4, 8, 24, 48], "withholdReward": true, "trial_id": "mdp_268430387178", "block": "test1", "trialIndex": 23, "score": 26.75, "costs": -0.25, "simulationMode": [null, null, null], "rewards": [2, -4, 24], "path": ["0", "0", "1", "2", "3"], "rt": [2657, 64, 78], "actions": ["up", "up", "right"], "actionTimes": [4810, 5381, 5961], "queries": {"click": {"state": {"target": ["3"], "time": [2900]}, "edge": {"target": [], "time": []}}, "mouseover": {"state": {"target": ["3", "9", "12"], "time": [2666, 3715, 4132]}, "edge": {"target": [], "time": []}}, "mouseout": {"state": {"target": ["0", "3", "9", "12"], "time": [982, 3658, 3732, 7937]}, "edge": {"target": [], "time": []}}}, "displayed_time": "11.15", "trialTime": 12146, "trial_type": "mouselab-mdp", "trial_index": 30, "time_elapsed": 952648, "internal_node_id": "0.0-4.0-1.0-21.0"}}, {"uniqueid": "w61413275:a40280030", "current_trial": 31, "dateTime": 1664368852807, "trialdata": {"revealed_states": [], "num_clicks_accrued": [0, 0, 0, 0, 0, 0, 0, 0, 0, 0, 0, 0, 0], "stateRewards": ["", -4, 8, 24, 24, -2, 8, -48, 48, 4, -8, 48, -48], "withholdReward": false, "trial_id": "mdp_295249220524", "block": "test1", "trialIndex": 24, "score": 58.75, "costs": -0.25, "simulationMode": [null, null, null], "rewards": [-2, 8, 48], "path": ["0", "0", "5", "6", "8"], "rt": [3148, 88, 264], "actions": ["right", "right", "down"], "actionTimes": [4502, 5108, 5867], "queries": {"click": {"state": {"target": ["8"], "time": [2580]}, "edge": {"target": [], "time": []}}, "mouseover": {"state": {"target": ["5", "6", "8"], "time": [2035, 2085, 2202]}, "edge": {"target": [], "time": []}}, "mouseout": {"state": {"target": ["0", "5", "6", "8"], "time": [769, 2051, 2135, 3703]}, "edge": {"target": [], "time": []}}}, "displayed_time": "10.36", "trialTime": 13158, "trial_type": "mouselab-mdp", "trial_index": 31, "time_elapsed": 965856, "internal_node_id": "0.0-4.0-1.0-22.0"}}, {"uniqueid": "w61413275:a40280030", "current_trial": 32, "dateTime": 1664368866894, "trialdata": {"revealed_states": [], "num_clicks_accrued": [0, 0, 0, 0, 0, 0, 0, 0, 0, 0, 0, 0, 0], "stateRewards": ["", -4, 8, 24, 24, 2, 4, -48, 24, -2, -4, -24, -24], "withholdReward": true, "trial_id": "mdp_752328329546", "block": "test1", "trialIndex": 25, "score": 33.5, "costs": -1.5, "simulationMode": [null, null, null], "rewards": [2, 4, 24], "path": ["0", "0", "5", "6", "8"], "rt": [8964, 547, 79], "actions": ["right", "right", "down"], "actionTimes": [10307, 11373, 11971], "queries": {"click": {"state": {"target": ["12", "7", "11", "8", "3", "4"], "time": [2539, 3651, 5143, 6421, 8027, 9154]}, "edge": {"target": [], "time": []}}, "mouseover": {"state": {"target": ["0", "12", "7", "6", "8", "11", "5", "8", "5", "3", "2", "4"], "time": [1999, 2060, 3143, 4242, 4494, 4925, 5642, 5975, 7042, 7375, 8608, 8791]}, "edge": {"target": [], "time": []}}, "mouseout": {"state": {"target": ["0", "0", "12", "7", "6", "8", "11", "5", "8", "5", "3", "2", "4", "0"], "time": [792, 2010, 3059, 4219, 4276, 4526, 5607, 5659, 7027, 7059, 8597, 8626, 9677, 13761]}, "edge": {"target": [], "time": []}}}, "displayed_time": "12.46", "trialTime": 14038, "trial_type": "mouselab-mdp", "trial_index": 32, "time_elapsed": 979943, "internal_node_id": "0.0-4.0-1.0-23.0"}}, {"uniqueid": "w61413275:a40280030", "current_trial": 33, "dateTime": 1664368881126, "trialdata": {"revealed_states": [], "num_clicks_accrued": [0, 0, 0, 0, 0, 0, 0, 0, 0, 0, 0, 0, 0], "stateRewards": ["", 4, 4, -48, -48, 4, 4, -24, -24, -4, 8, -48, 24], "withholdReward": true, "trial_id": "mdp_669785455541", "block": "test1", "trialIndex": 26, "score": 31.5, "costs": -1.5, "simulationMode": [null, null, null], "rewards": [-4, 8, 24], "path": ["0", "0", "9", "10", "12"], "rt": [8150, 75, 121], "actions": ["left", "left", "down"], "actionTimes": [11405, 11999, 12629], "queries": {"click": {"state": {"target": ["3", "4", "12", "8", "7", "11"], "time": [4259, 5511, 6711, 7883, 8934, 10138]}, "edge": {"target": [], "time": []}}, "mouseover": {"state": {"target": ["3", "3", "2", "4", "10", "12", "8", "6", "7", "11"], "time": [3770, 4057, 4873, 4973, 6139, 6174, 7657, 8356, 8390, 9689]}, "edge": {"target": [], "time": []}}, "mouseout": {"state": {"target": ["0", "3", "3", "2", "4", "10", "12", "8", "6", "7", "11", "9"], "time": [2956, 3973, 4856, 4906, 6074, 6157, 7225, 8333, 8372, 9339, 13472, 13556]}, "edge": {"target": [], "time": []}}}, "displayed_time": "13.12", "trialTime": 14186, "trial_type": "mouselab-mdp", "trial_index": 33, "time_elapsed": 994175, "internal_node_id": "0.0-4.0-1.0-24.0"}}, {"uniqueid": "w61413275:a40280030", "current_trial": 34, "dateTime": 1664368897263, "trialdata": {"revealed_states": [], "num_clicks_accrued": [0, 0, 0, 0, 0, 0, 0, 0, 0, 0, 0, 0, 0], "stateRewards": ["", 2, -4, -48, -48, -2, -4, -24, -48, -2, 8, 24, 24], "withholdReward": false, "trial_id": "mdp_656069446729", "block": "test1", "trialIndex": 27, "score": 33.5, "costs": -1.5, "simulationMode": [null, null, null], "rewards": [-2, 8, 24], "path": ["0", "0", "9", "10", "11"], "rt": [8709, 48, 65], "actions": ["left", "left", "up"], "actionTimes": [10363, 10922, 11522], "queries": {"click": {"state": {"target": ["4", "11", "12", "8", "7", "3"], "time": [3679, 4614, 6052, 7468, 8387, 9311]}, "edge": {"target": [], "time": []}}, "mouseover": {"state": {"target": ["1", "2", "4", "11", "10", "12", "8", "6", "7", "3", "3"], "time": [2641, 2875, 3157, 4290, 5291, 5652, 7240, 7874, 7908, 8857, 9107]}, "edge": {"target": [], "time": []}}, "mouseout": {"state": {"target": ["1", "1", "2", "4", "11", "10", "12", "8", "6", "7", "3", "3", "11", "0"], "time": [1224, 2841, 2991, 4241, 5290, 5358, 6593, 7857, 7907, 8790, 9056, 9808, 13189, 13273]}, "edge": {"target": [], "time": []}}}, "displayed_time": "12.02", "trialTime": 16059, "trial_type": "mouselab-mdp", "trial_index": 34, "time_elapsed": 1010312, "internal_node_id": "0.0-4.0-1.0-25.0"}}, {"uniqueid": "w61413275:a40280030", "current_trial": 35, "dateTime": 1664368909150, "trialdata": {"revealed_states": [], "num_clicks_accrued": [0, 0, 0, 0, 0, 0, 0, 0, 0, 0, 0, 0, 0], "stateRewards": ["", 2, 4, 48, 24, -4, 8, 48, 48, 2, -4, -48, -24], "withholdReward": false, "trial_id": "mdp_822099887466", "block": "test1", "trialIndex": 28, "score": 58.75, "costs": -0.25, "simulationMode": [null, null, null], "rewards": [2, 4, 48], "path": ["0", "0", "1", "2", "3"], "rt": [2798, 373, 177], "actions": ["up", "up", "right"], "actionTimes": [4012, 4900, 5587], "queries": {"click": {"state": {"target": ["3"], "time": [2491]}, "edge": {"target": [], "time": []}}, "mouseover": {"state": {"target": ["1", "3"], "time": [1897, 2226]}, "edge": {"target": [], "time": []}}, "mouseout": {"state": {"target": ["0", "1", "3"], "time": [742, 1908, 3554]}, "edge": {"target": [], "time": []}}}, "displayed_time": "10.21", "trialTime": 11832, "trial_type": "mouselab-mdp", "trial_index": 35, "time_elapsed": 1022199, "internal_node_id": "0.0-4.0-1.0-26.0"}}, {"uniqueid": "w61413275:a40280030", "current_trial": 36, "dateTime": 1664368920489, "trialdata": {"revealed_states": [], "num_clicks_accrued": [0, 0, 0, 0, 0, 0, 0, 0, 0, 0, 0, 0, 0], "stateRewards": ["", 4, 4, 24, 24, 4, -4, 48, 48, 4, 4, 24, -48], "withholdReward": true, "trial_id": "mdp_454251689008", "block": "test1", "trialIndex": 29, "score": 52.5, "costs": -0.5, "simulationMode": [null, null, null], "rewards": [4, -4, 48], "path": ["0", "0", "5", "6", "7"], "rt": [3220, 111, 335], "actions": ["right", "right", "up"], "actionTimes": [4422, 5040, 5863], "queries": {"click": {"state": {"target": ["12", "7"], "time": [2391, 3487]}, "edge": {"target": [], "time": []}}, "mouseover": {"state": {"target": ["12", "7", "7"], "time": [2177, 2960, 3243]}, "edge": {"target": [], "time": []}}, "mouseout": {"state": {"target": ["0", "12", "7", "7", "5"], "time": [710, 2899, 2976, 10745, 10791]}, "edge": {"target": [], "time": []}}}, "displayed_time": "10.20", "trialTime": 11290, "trial_type": "mouselab-mdp", "trial_index": 36, "time_elapsed": 1033537, "internal_node_id": "0.0-4.0-1.0-27.0"}}, {"uniqueid": "w61413275:a40280030", "current_trial": 37, "dateTime": 1664368930115, "trialdata": {"revealed_states": [], "num_clicks_accrued": [0, 0, 0, 0, 0, 0, 0, 0, 0, 0, 0, 0, 0], "stateRewards": ["", 2, 4, 48, -48, 2, 8, -24, 48, 4, 8, 48, -48], "withholdReward": true, "trial_id": "mdp_110142964375", "block": "test1", "trialIndex": 30, "score": 64.75, "costs": -0.25, "simulationMode": [null, null, null], "rewards": [4, 8, 48], "path": ["0", "0", "9", "10", "11"], "rt": [3369, 160, 870], "actions": ["left", "left", "up"], "actionTimes": [4954, 5619, 6979], "queries": {"click": {"state": {"target": ["11"], "time": [3980]}, "edge": {"target": [], "time": []}}, "mouseover": {"state": {"target": ["0", "9", "10", "11"], "time": [2047, 3458, 3508, 3725]}, "edge": {"target": [], "time": []}}, "mouseout": {"state": {"target": ["1", "1", "0", "9", "10", "11", "2"], "time": [825, 1091, 2074, 3475, 3592, 7991, 8040]}, "edge": {"target": [], "time": []}}}, "displayed_time": "8.59", "trialTime": 9549, "trial_type": "mouselab-mdp", "trial_index": 37, "time_elapsed": 1043164, "internal_node_id": "0.0-4.0-1.0-28.0"}}, {"uniqueid": "w61413275:a40280030", "current_trial": 38, "dateTime": 1664368940582, "trialdata": {"revealed_states": [], "num_clicks_accrued": [0, 0, 0, 0, 0, 0, 0, 0, 0, 0, 0, 0, 0], "stateRewards": ["", 2, -4, 48, -48, -4, -8, -48, 24, -4, 4, 48, 48], "withholdReward": true, "trial_id": "mdp_544803968425", "block": "test1", "trialIndex": 31, "score": 52.75, "costs": -0.25, "simulationMode": [null, null, null], "rewards": [-4, 4, 48], "path": ["0", "0", "9", "10", "12"], "rt": [2665, 291, 147], "actions": ["left", "left", "down"], "actionTimes": [4150, 4949, 5604], "queries": {"click": {"state": {"target": ["12"], "time": [3002]}, "edge": {"target": [], "time": []}}, "mouseover": {"state": {"target": ["12"], "time": [2456]}, "edge": {"target": [], "time": []}}, "mouseout": {"state": {"target": ["12", "0", "5"], "time": [6468, 6538, 6621]}, "edge": {"target": [], "time": []}}}, "displayed_time": "9.49", "trialTime": 10416, "trial_type": "mouselab-mdp", "trial_index": 38, "time_elapsed": 1053631, "internal_node_id": "0.0-4.0-1.0-29.0"}}, {"uniqueid": "w61413275:a40280030", "current_trial": 39, "dateTime": 1664368958976, "trialdata": {"rt": 18387, "stimulus": "<h1> End of block! </h1>\n\nYou have reached the end of the block 1/4. If you need a short break, feel free to take one now before moving on.\n\n<br><br>\nIn the next block, you will complete another 30 rounds of this game.\n\n<br><br>\n<div style='text-align: center;'>Press <code>space</code> to begin.</div>\n<br><br>\n<div style='text-align: center;'>(If the experiment doesn't continue, try clicking on the text and then pressing <code>space</code>.)</div>", "response": " ", "trial_id": "mdp_ready_2", "trial_type": "html-keyboard-response", "trial_index": 39, "time_elapsed": 1072025, "internal_node_id": "0.0-4.0-2.0"}}, {"uniqueid": "w61413275:a40280030", "current_trial": 40, "dateTime": 1664368971047, "trialdata": {"revealed_states": [], "num_clicks_accrued": [0, 0, 0, 0, 0, 0, 0, 0, 0, 0, 0, 0, 0], "stateRewards": ["", -4, 4, 48, 24, -4, 4, -24, 48, -2, -8, 24, -48], "withholdReward": false, "trial_id": "mdp_261501605436", "block": "test2", "trialIndex": 32, "score": 52.5, "costs": -0.5, "simulationMode": [null, null, null], "rewards": [-4, 4, 48], "path": ["0", "0", "5", "6", "8"], "rt": [3393, 133, 200], "actions": ["right", "right", "down"], "actionTimes": [4841, 5488, 6187], "queries": {"click": {"state": {"target": ["4", "8"], "time": [2652, 3955]}, "edge": {"target": [], "time": []}}, "mouseover": {"state": {"target": ["9", "11", "4", "3", "8"], "time": [2054, 2120, 2287, 3353, 3687]}, "edge": {"target": [], "time": []}}, "mouseout": {"state": {"target": ["0", "9", "11", "4", "3", "8"], "time": [2037, 2087, 2137, 3337, 3370, 7420]}, "edge": {"target": [], "time": []}}}, "displayed_time": "9.45", "trialTime": 11998, "trial_type": "mouselab-mdp", "trial_index": 40, "time_elapsed": 1084095, "internal_node_id": "0.0-4.0-3.0-0.0"}}, {"uniqueid": "w61413275:a40280030", "current_trial": 41, "dateTime": 1664368982482, "trialdata": {"revealed_states": [], "num_clicks_accrued": [0, 0, 0, 0, 0, 0, 0, 0, 0, 0, 0, 0, 0], "stateRewards": ["", -2, -8, -24, -48, -2, -4, 48, -48, 4, 4, -48, 48], "withholdReward": true, "trial_id": "mdp_156977432949", "block": "test2", "trialIndex": 33, "score": 60.75, "costs": -0.25, "simulationMode": [null, null, null], "rewards": [4, 4, 48], "path": ["0", "0", "9", "10", "12"], "rt": [2776, 697, 516], "actions": ["left", "left", "down"], "actionTimes": [4427, 5638, 6673], "queries": {"click": {"state": {"target": ["12"], "time": [3455]}, "edge": {"target": [], "time": []}}, "mouseover": {"state": {"target": ["12", "12"], "time": [2573, 2856]}, "edge": {"target": [], "time": []}}, "mouseout": {"state": {"target": ["0", "12"], "time": [2523, 2639]}, "edge": {"target": [], "time": []}}}, "displayed_time": "10.65", "trialTime": 11387, "trial_type": "mouselab-mdp", "trial_index": 41, "time_elapsed": 1095531, "internal_node_id": "0.0-4.0-3.0-1.0"}}, {"uniqueid": "w61413275:a40280030", "current_trial": 42, "dateTime": 1664368994124, "trialdata": {"revealed_states": [], "num_clicks_accrued": [0, 0, 0, 0, 0, 0, 0, 0, 0, 0, 0, 0, 0], "stateRewards": ["", -2, -4, 48, -24, 2, -4, -24, -48, 2, 8, -48, -24], "withholdReward": true, "trial_id": "mdp_238243948191", "block": "test2", "trialIndex": 34, "score": 46.25, "costs": -0.75, "simulationMode": [null, null, null], "rewards": [-2, -4, 48], "path": ["0", "0", "1", "2", "3"], "rt": [4254, 62, 390], "actions": ["up", "up", "right"], "actionTimes": [5656, 6226, 7136], "queries": {"click": {"state": {"target": ["8", "7", "3"], "time": [2533, 3486, 4480]}, "edge": {"target": [], "time": []}}, "mouseover": {"state": {"target": ["5", "6", "8", "7", "3"], "time": [2012, 2061, 2312, 3095, 4328]}, "edge": {"target": [], "time": []}}, "mouseout": {"state": {"target": ["12", "9", "5", "0", "5", "6", "8", "7", "3", "1"], "time": [663, 695, 962, 1990, 2045, 2261, 3062, 3994, 11078, 11110]}, "edge": {"target": [], "time": []}}}, "displayed_time": "10.40", "trialTime": 11586, "trial_type": "mouselab-mdp", "trial_index": 42, "time_elapsed": 1107173, "internal_node_id": "0.0-4.0-3.0-2.0"}}, {"uniqueid": "w61413275:a40280030", "current_trial": 43, "dateTime": 1664369005545, "trialdata": {"revealed_states": [], "num_clicks_accrued": [0, 0, 0, 0, 0, 0, 0, 0, 0, 0, 0, 0, 0], "stateRewards": ["", -2, 8, -24, 24, 2, -8, 48, -24, 2, 8, -24, -24], "withholdReward": false, "trial_id": "mdp_674708270444", "block": "test2", "trialIndex": 35, "score": 46, "costs": -1, "simulationMode": [null, null, null], "rewards": [2, -8, 48], "path": ["0", "0", "5", "6", "7"], "rt": [6172, 449, 189], "actions": ["right", "right", "up"], "actionTimes": [7523, 8483, 9189], "queries": {"click": {"state": {"target": ["12", "4", "11", "7"], "time": [2365, 3654, 5396, 6543]}, "edge": {"target": [], "time": []}}, "mouseover": {"state": {"target": ["12", "10", "11", "4", "11", "7", "6", "8"], "time": [1950, 2883, 2915, 3433, 5216, 6032, 6933, 6982]}, "edge": {"target": [], "time": []}}, "mouseout": {"state": {"target": ["12", "10", "11", "4", "11", "7", "6", "8"], "time": [2865, 2899, 3166, 4216, 5900, 6916, 6966, 7032]}, "edge": {"target": [], "time": []}}}, "displayed_time": "9.70", "trialTime": 11363, "trial_type": "mouselab-mdp", "trial_index": 43, "time_elapsed": 1118593, "internal_node_id": "0.0-4.0-3.0-3.0"}}, {"uniqueid": "w61413275:a40280030", "current_trial": 44, "dateTime": 1664369017479, "trialdata": {"revealed_states": [], "num_clicks_accrued": [0, 0, 0, 0, 0, 0, 0, 0, 0, 0, 0, 0, 0], "stateRewards": ["", -4, 8, 24, -24, -2, 4, -24, 48, -2, 8, -48, -24], "withholdReward": false, "trial_id": "mdp_799359103169", "block": "test2", "trialIndex": 36, "score": 54.5, "costs": -0.5, "simulationMode": [null, null, null], "rewards": [-2, 4, 48], "path": ["0", "0", "5", "6", "8"], "rt": [4387, 26, 245], "actions": ["right", "right", "down"], "actionTimes": [5894, 6439, 7189], "queries": {"click": {"state": {"target": ["7", "8"], "time": [3827, 4918]}, "edge": {"target": [], "time": []}}, "mouseover": {"state": {"target": ["1", "3", "7", "6", "8"], "time": [2330, 2396, 2512, 4412, 4461]}, "edge": {"target": [], "time": []}}, "mouseout": {"state": {"target": ["0", "1", "3", "7", "6", "8"], "time": [1079, 2346, 2412, 4396, 4445, 5479]}, "edge": {"target": [], "time": []}}}, "displayed_time": "10.51", "trialTime": 11879, "trial_type": "mouselab-mdp", "trial_index": 44, "time_elapsed": 1130528, "internal_node_id": "0.0-4.0-3.0-4.0"}}, {"uniqueid": "w61413275:a40280030", "current_trial": 45, "dateTime": 1664369028387, "trialdata": {"revealed_states": [], "num_clicks_accrued": [0, 0, 0, 0, 0, 0, 0, 0, 0, 0, 0, 0, 0], "stateRewards": ["", 2, -4, 48, -48, -2, 8, -48, 24, -2, -8, 48, 48], "withholdReward": false, "trial_id": "mdp_949326095747", "block": "test2", "trialIndex": 37, "score": 42.75, "costs": -0.25, "simulationMode": [null, null, null], "rewards": [-2, -8, 48], "path": ["0", "0", "9", "10", "12"], "rt": [2580, 54, 436], "actions": ["left", "left", "down"], "actionTimes": [3914, 4481, 5445], "queries": {"click": {"state": {"target": ["12"], "time": [2642]}, "edge": {"target": [], "time": []}}, "mouseover": {"state": {"target": ["12"], "time": [2291]}, "edge": {"target": [], "time": []}}, "mouseout": {"state": {"target": ["0", "12"], "time": [2009, 10326]}, "edge": {"target": [], "time": []}}}, "displayed_time": "9.33", "trialTime": 10851, "trial_type": "mouselab-mdp", "trial_index": 45, "time_elapsed": 1141436, "internal_node_id": "0.0-4.0-3.0-5.0"}}, {"uniqueid": "w61413275:a40280030", "current_trial": 46, "dateTime": 1664369040659, "trialdata": {"revealed_states": [], "num_clicks_accrued": [0, 0, 0, 0, 0, 0, 0, 0, 0, 0, 0, 0, 0], "stateRewards": ["", 2, 4, -48, 24, -4, 4, -24, 48, -2, -8, -48, 48], "withholdReward": true, "trial_id": "mdp_424193661731", "block": "test2", "trialIndex": 38, "score": 52.75, "costs": -0.25, "simulationMode": [null, null, null], "rewards": [-4, 4, 48], "path": ["0", "0", "5", "6", "8"], "rt": [2614, 60, 239], "actions": ["right", "right", "down"], "actionTimes": [4116, 4695, 5425], "queries": {"click": {"state": {"target": ["8"], "time": [2854]}, "edge": {"target": [], "time": []}}, "mouseover": {"state": {"target": ["5", "8"], "time": [2385, 2468]}, "edge": {"target": [], "time": []}}, "mouseout": {"state": {"target": ["0", "5", "8"], "time": [784, 2401, 11367]}, "edge": {"target": [], "time": []}}}, "displayed_time": "10.50", "trialTime": 12217, "trial_type": "mouselab-mdp", "trial_index": 46, "time_elapsed": 1153708, "internal_node_id": "0.0-4.0-3.0-6.0"}}, {"uniqueid": "w61413275:a40280030", "current_trial": 47, "dateTime": 1664369053175, "trialdata": {"revealed_states": [], "num_clicks_accrued": [0, 0, 0, 0, 0, 0, 0, 0, 0, 0, 0, 0, 0], "stateRewards": ["", -2, 4, 48, -24, 2, 8, 24, 48, 2, 4, -24, -48], "withholdReward": true, "trial_id": "mdp_892412058587", "block": "test2", "trialIndex": 39, "score": 62.5, "costs": -0.5, "simulationMode": [null, null, null], "rewards": [2, 8, 48], "path": ["0", "0", "5", "6", "8"], "rt": [3306, 128, 1195], "actions": ["right", "right", "down"], "actionTimes": [5156, 5800, 7486], "queries": {"click": {"state": {"target": ["7", "8"], "time": [2927, 4152]}, "edge": {"target": [], "time": []}}, "mouseover": {"state": {"target": ["7", "6", "8"], "time": [2689, 3556, 3622]}, "edge": {"target": [], "time": []}}, "mouseout": {"state": {"target": ["0", "7", "6"], "time": [1072, 3539, 3589]}, "edge": {"target": [], "time": []}}}, "displayed_time": "10.85", "trialTime": 12456, "trial_type": "mouselab-mdp", "trial_index": 47, "time_elapsed": 1166224, "internal_node_id": "0.0-4.0-3.0-7.0"}}, {"uniqueid": "w61413275:a40280030", "current_trial": 48, "dateTime": 1664369066187, "trialdata": {"revealed_states": [], "num_clicks_accrued": [0, 0, 0, 0, 0, 0, 0, 0, 0, 0, 0, 0, 0], "stateRewards": ["", -4, 8, -48, -48, -2, -8, -24, -48, 2, -4, -48, 24], "withholdReward": true, "trial_id": "mdp_743906784415", "block": "test2", "trialIndex": 40, "score": 25.5, "costs": -1.5, "simulationMode": [null, null, null], "rewards": [2, -4, 24], "path": ["0", "0", "9", "10", "12"], "rt": [7936, 391, 841], "actions": ["left", "left", "down"], "actionTimes": [9419, 10319, 11669], "queries": {"click": {"state": {"target": ["12", "11", "4", "3", "7", "8"], "time": [2785, 4132, 5449, 6489, 7543, 8368]}, "edge": {"target": [], "time": []}}, "mouseover": {"state": {"target": ["0", "12", "10", "11", "4", "2", "3", "7", "7", "6", "8"], "time": [2216, 2529, 3479, 3844, 4844, 5943, 6227, 6995, 7195, 7944, 7993]}, "edge": {"target": [], "time": []}}, "mouseout": {"state": {"target": ["8", "0", "0", "12", "10", "11", "4", "2", "3", "7", "7", "6", "8"], "time": [778, 1144, 2227, 3478, 3511, 4695, 5928, 5977, 6960, 7010, 7927, 7960, 8877]}, "edge": {"target": [], "time": []}}}, "displayed_time": "12.18", "trialTime": 12958, "trial_type": "mouselab-mdp", "trial_index": 48, "time_elapsed": 1179236, "internal_node_id": "0.0-4.0-3.0-8.0"}}, {"uniqueid": "w61413275:a40280030", "current_trial": 49, "dateTime": 1664369077416, "trialdata": {"revealed_states": [], "num_clicks_accrued": [0, 0, 0, 0, 0, 0, 0, 0, 0, 0, 0, 0, 0], "stateRewards": ["", 4, 4, -24, -48, -4, 4, -48, 24, 4, -8, -48, 48], "withholdReward": true, "trial_id": "mdp_566768794366", "block": "test2", "trialIndex": 41, "score": 48.75, "costs": -0.25, "simulationMode": [null, null, null], "rewards": [4, -8, 48], "path": ["0", "0", "9", "10", "12"], "rt": [2171, 347, 168], "actions": ["left", "left", "down"], "actionTimes": [3595, 4454, 5141], "queries": {"click": {"state": {"target": ["12"], "time": [2662]}, "edge": {"target": [], "time": []}}, "mouseover": {"state": {"target": ["9", "12"], "time": [2189, 2456]}, "edge": {"target": [], "time": []}}, "mouseout": {"state": {"target": ["0", "1", "9", "12", "0", "7"], "time": [688, 956, 2222, 10005, 10057, 10106]}, "edge": {"target": [], "time": []}}}, "displayed_time": "9.43", "trialTime": 11167, "trial_type": "mouselab-mdp", "trial_index": 49, "time_elapsed": 1190464, "internal_node_id": "0.0-4.0-3.0-9.0"}}, {"uniqueid": "w61413275:a40280030", "current_trial": 50, "dateTime": 1664369088202, "trialdata": {"revealed_states": [], "num_clicks_accrued": [0, 0, 0, 0, 0, 0, 0, 0, 0, 0, 0, 0, 0], "stateRewards": ["", -2, 8, -48, 48, -4, 8, -24, 24, 4, -4, 24, -48], "withholdReward": true, "trial_id": "mdp_904238083902", "block": "test2", "trialIndex": 42, "score": 58, "costs": -1, "simulationMode": [null, null, null], "rewards": [-2, 8, 48], "path": ["0", "0", "1", "2", "4"], "rt": [5157, 74, 156], "actions": ["up", "up", "left"], "actionTimes": [6549, 7139, 7788], "queries": {"click": {"state": {"target": ["8", "7", "3", "4"], "time": [2601, 3871, 4710, 5670]}, "edge": {"target": [], "time": []}}, "mouseover": {"state": {"target": ["5", "8", "6", "7", "3", "2", "4", "11", "10"], "time": [2114, 2231, 3381, 3631, 4348, 5114, 5431, 6096, 6163]}, "edge": {"target": [], "time": []}}, "mouseout": {"state": {"target": ["6", "5", "0", "5", "8", "6", "7", "3", "2", "4", "11", "10", "0"], "time": [631, 897, 2100, 2130, 3366, 3397, 4331, 5099, 5147, 6063, 6130, 10487, 10563]}, "edge": {"target": [], "time": []}}}, "displayed_time": "9.39", "trialTime": 10729, "trial_type": "mouselab-mdp", "trial_index": 50, "time_elapsed": 1201250, "internal_node_id": "0.0-4.0-3.0-10.0"}}, {"uniqueid": "w61413275:a40280030", "current_trial": 51, "dateTime": 1664369099439, "trialdata": {"revealed_states": [], "num_clicks_accrued": [0, 0, 0, 0, 0, 0, 0, 0, 0, 0, 0, 0, 0], "stateRewards": ["", -2, -8, 24, -48, -4, 8, -48, -24, 4, 8, -24, 24], "withholdReward": true, "trial_id": "mdp_940444641142", "block": "test2", "trialIndex": 43, "score": 17.5, "costs": -1.5, "simulationMode": [null, null, null], "rewards": [-2, -8, 24], "path": ["0", "0", "1", "2", "3"], "rt": [7429, 41, 247], "actions": ["up", "up", "right"], "actionTimes": [8539, 9083, 9823], "queries": {"click": {"state": {"target": ["4", "3", "12", "11", "7", "8"], "time": [2097, 2973, 4024, 5012, 6274, 7122]}, "edge": {"target": [], "time": []}}, "mouseover": {"state": {"target": ["4", "2", "3", "1", "9", "12", "10", "11", "7", "6", "8"], "time": [1642, 2558, 2608, 3458, 3490, 3675, 4542, 4575, 5758, 6674, 6708]}, "edge": {"target": [], "time": []}}, "mouseout": {"state": {"target": ["0", "4", "2", "3", "1", "9", "12", "10", "11", "7", "6", "8"], "time": [858, 2531, 2575, 3434, 3475, 3507, 4521, 4558, 5341, 6658, 6690, 7528]}, "edge": {"target": [], "time": []}}}, "displayed_time": "10.34", "trialTime": 11179, "trial_type": "mouselab-mdp", "trial_index": 51, "time_elapsed": 1212488, "internal_node_id": "0.0-4.0-3.0-11.0"}}, {"uniqueid": "w61413275:a40280030", "current_trial": 52, "dateTime": 1664369109365, "trialdata": {"revealed_states": [], "num_clicks_accrued": [0, 0, 0, 0, 0, 0, 0, 0, 0, 0, 0, 0, 0], "stateRewards": ["", 2, 4, 48, -48, 2, -4, 48, 24, -2, -8, -24, 48], "withholdReward": true, "trial_id": "mdp_962424406744", "block": "test2", "trialIndex": 44, "score": 42.75, "costs": -0.25, "simulationMode": [null, null, null], "rewards": [-2, -8, 48], "path": ["0", "0", "9", "10", "12"], "rt": [2018, 79, 357], "actions": ["left", "left", "down"], "actionTimes": [3094, 3689, 4535], "queries": {"click": {"state": {"target": ["12"], "time": [2259]}, "edge": {"target": [], "time": []}}, "mouseover": {"state": {"target": ["12"], "time": [1861]}, "edge": {"target": [], "time": []}}, "mouseout": {"state": {"target": ["0", "12", "9", "1", "5"], "time": [1695, 9344, 9377, 9444, 9527]}, "edge": {"target": [], "time": []}}}, "displayed_time": "9.08", "trialTime": 9876, "trial_type": "mouselab-mdp", "trial_index": 52, "time_elapsed": 1222414, "internal_node_id": "0.0-4.0-3.0-12.0"}}, {"uniqueid": "w61413275:a40280030", "current_trial": 53, "dateTime": 1664369119586, "trialdata": {"revealed_states": [], "num_clicks_accrued": [0, 0, 0, 0, 0, 0, 0, 0, 0, 0, 0, 0, 0], "stateRewards": ["", -4, -4, 24, -48, 2, 4, -24, -48, -2, -8, -24, 24], "withholdReward": true, "trial_id": "mdp_565569130486", "block": "test2", "trialIndex": 45, "score": 19.5, "costs": -1.5, "simulationMode": [null, null, null], "rewards": [-4, -4, 24], "path": ["0", "0", "1", "2", "3"], "rt": [6037, 40, 128], "actions": ["up", "up", "right"], "actionTimes": [7420, 7966, 8604], "queries": {"click": {"state": {"target": ["8", "7", "3", "4", "11", "12"], "time": [2337, 3304, 4091, 4978, 5864, 6813]}, "edge": {"target": [], "time": []}}, "mouseover": {"state": {"target": ["5", "8", "6", "7", "3", "2", "4", "11", "10", "12"], "time": [1808, 1874, 2891, 2908, 3757, 4490, 4525, 5424, 6273, 6427]}, "edge": {"target": [], "time": []}}, "mouseout": {"state": {"target": ["0", "5", "8", "6", "7", "3", "2", "4", "11", "10"], "time": [1793, 1841, 2874, 2907, 3740, 4474, 4524, 5374, 6258, 6289]}, "edge": {"target": [], "time": []}}}, "displayed_time": "9.38", "trialTime": 10161, "trial_type": "mouselab-mdp", "trial_index": 53, "time_elapsed": 1232635, "internal_node_id": "0.0-4.0-3.0-13.0"}}, {"uniqueid": "w61413275:a40280030", "current_trial": 54, "dateTime": 1664369130816, "trialdata": {"revealed_states": [], "num_clicks_accrued": [0, 0, 0, 0, 0, 0, 0, 0, 0, 0, 0, 0, 0], "stateRewards": ["", -4, 4, -48, -48, -2, -8, -48, -24, 4, 8, -24, 24], "withholdReward": true, "trial_id": "mdp_449260894259", "block": "test2", "trialIndex": 46, "score": 39.5, "costs": -1.5, "simulationMode": [null, null, null], "rewards": [4, 8, 24], "path": ["0", "0", "9", "10", "12"], "rt": [6652, 34, 136], "actions": ["left", "left", "down"], "actionTimes": [8034, 8573, 9207], "queries": {"click": {"state": {"target": ["12", "11", "4", "3", "7", "8"], "time": [2683, 3944, 4922, 5766, 6645, 7458]}, "edge": {"target": [], "time": []}}, "mouseover": {"state": {"target": ["12", "10", "11", "4", "3", "7", "6", "8"], "time": [2454, 3422, 3538, 4589, 5554, 6404, 7055, 7204]}, "edge": {"target": [], "time": []}}, "mouseout": {"state": {"target": ["12", "9", "0", "12", "10", "11", "4", "3", "7", "6", "8"], "time": [705, 738, 2060, 3406, 3437, 4422, 5271, 6124, 7054, 7104, 10955]}, "edge": {"target": [], "time": []}}}, "displayed_time": "10.38", "trialTime": 11172, "trial_type": "mouselab-mdp", "trial_index": 54, "time_elapsed": 1243864, "internal_node_id": "0.0-4.0-3.0-14.0"}}, {"uniqueid": "w61413275:a40280030", "current_trial": 55, "dateTime": 1664369142048, "trialdata": {"revealed_states": [], "num_clicks_accrued": [0, 0, 0, 0, 0, 0, 0, 0, 0, 0, 0, 0, 0], "stateRewards": ["", 2, 8, 24, 24, 2, -8, -24, -48, 2, 8, -48, 48], "withholdReward": true, "trial_id": "mdp_745175888812", "block": "test2", "trialIndex": 47, "score": 62.75, "costs": -0.25, "simulationMode": [null, null, null], "rewards": [2, 8, 48], "path": ["0", "0", "9", "10", "12"], "rt": [2010, 208, 346], "actions": ["left", "left", "down"], "actionTimes": [3227, 3948, 4803], "queries": {"click": {"state": {"target": ["12"], "time": [2402]}, "edge": {"target": [], "time": []}}, "mouseover": {"state": {"target": ["12", "12"], "time": [1922, 2172]}, "edge": {"target": [], "time": []}}, "mouseout": {"state": {"target": ["0", "12"], "time": [1874, 1955]}, "edge": {"target": [], "time": []}}}, "displayed_time": "10.22", "trialTime": 11173, "trial_type": "mouselab-mdp", "trial_index": 55, "time_elapsed": 1255096, "internal_node_id": "0.0-4.0-3.0-15.0"}}, {"uniqueid": "w61413275:a40280030", "current_trial": 56, "dateTime": 1664369156219, "trialdata": {"revealed_states": [], "num_clicks_accrued": [0, 0, 0, 0, 0, 0, 0, 0, 0, 0, 0, 0, 0], "stateRewards": ["", 2, -8, -48, 24, 4, 8, 48, -48, 2, -4, 24, 24], "withholdReward": true, "trial_id": "mdp_130475327289", "block": "test2", "trialIndex": 48, "score": 64.5, "costs": -0.5, "simulationMode": [null, null, null], "rewards": [4, 8, 48], "path": ["0", "0", "5", "6", "7"], "rt": [9375, 520, 135], "actions": ["right", "right", "up"], "actionTimes": [11010, 12045, 12694], "queries": {"click": {"state": {"target": ["8", "7"], "time": [8579, 9970]}, "edge": {"target": [], "time": []}}, "mouseover": {"state": {"target": ["6", "8", "8", "6", "7", "9", "10"], "time": [3492, 3540, 4425, 9257, 9624, 10473, 10508]}, "edge": {"target": [], "time": []}}, "mouseout": {"state": {"target": ["12", "5", "6", "8", "8", "6", "7", "9"], "time": [875, 1226, 3524, 3557, 9241, 9274, 10426, 10507]}, "edge": {"target": [], "time": []}}}, "displayed_time": "13.21", "trialTime": 14115, "trial_type": "mouselab-mdp", "trial_index": 56, "time_elapsed": 1269267, "internal_node_id": "0.0-4.0-3.0-16.0"}}, {"uniqueid": "w61413275:a40280030", "current_trial": 57, "dateTime": 1664369169231, "trialdata": {"revealed_states": [], "num_clicks_accrued": [0, 0, 0, 0, 0, 0, 0, 0, 0, 0, 0, 0, 0], "stateRewards": ["", -2, -8, -24, 24, -2, -8, -48, 24, -2, -8, 24, 24], "withholdReward": true, "trial_id": "mdp_336617436097", "block": "test2", "trialIndex": 49, "score": 17.25, "costs": -1.75, "simulationMode": [null, null, null], "rewards": [-2, -8, 24], "path": ["0", "0", "9", "10", "11"], "rt": [8605, 506, 119], "actions": ["left", "left", "up"], "actionTimes": [9858, 10875, 11504], "queries": {"click": {"state": {"target": ["12", "11", "4", "3", "7", "8", "10"], "time": [2381, 3779, 4776, 5683, 6515, 7356, 9337]}, "edge": {"target": [], "time": []}}, "mouseover": {"state": {"target": ["12", "10", "11", "4", "2", "3", "7", "6", "8", "10"], "time": [2118, 3069, 3417, 4450, 5217, 5301, 6183, 6900, 6967, 9200]}, "edge": {"target": [], "time": []}}, "mouseout": {"state": {"target": ["10", "9", "12", "10", "11", "4", "2", "3", "7", "6", "8"], "time": [669, 750, 3067, 3101, 4267, 5203, 5251, 6085, 6884, 6933, 8101]}, "edge": {"target": [], "time": []}}}, "displayed_time": "12.00", "trialTime": 12956, "trial_type": "mouselab-mdp", "trial_index": 57, "time_elapsed": 1282280, "internal_node_id": "0.0-4.0-3.0-17.0"}}, {"uniqueid": "w61413275:a40280030", "current_trial": 58, "dateTime": 1664369183165, "trialdata": {"revealed_states": [], "num_clicks_accrued": [0, 0, 0, 0, 0, 0, 0, 0, 0, 0, 0, 0, 0], "stateRewards": ["", -4, -8, -24, 24, 2, 8, 24, 48, 2, 4, 24, -48], "withholdReward": false, "trial_id": "mdp_122352383932", "block": "test2", "trialIndex": 50, "score": 61.5, "costs": -1.5, "simulationMode": [null, null, null], "rewards": [2, 8, 48], "path": ["0", "0", "5", "6", "8"], "rt": [6332, 158, 103], "actions": ["right", "right", "down"], "actionTimes": [7414, 8079, 8674], "queries": {"click": {"state": {"target": ["12", "11", "4", "3", "7", "8"], "time": [2212, 3146, 4163, 4926, 5718, 6567]}, "edge": {"target": [], "time": []}}, "mouseover": {"state": {"target": ["0", "12", "11", "4", "2", "3", "7", "6", "8"], "time": [1665, 1936, 2736, 3618, 4536, 4603, 5468, 6119, 6168]}, "edge": {"target": [], "time": []}}, "mouseout": {"state": {"target": ["10", "9", "0", "12", "11", "4", "2", "3", "7", "6", "8"], "time": [658, 736, 1685, 2703, 3570, 4535, 4569, 5304, 6102, 6135, 9752]}, "edge": {"target": [], "time": []}}}, "displayed_time": "10.08", "trialTime": 13859, "trial_type": "mouselab-mdp", "trial_index": 58, "time_elapsed": 1296214, "internal_node_id": "0.0-4.0-3.0-18.0"}}, {"uniqueid": "w61413275:a40280030", "current_trial": 59, "dateTime": 1664369194006, "trialdata": {"revealed_states": [], "num_clicks_accrued": [0, 0, 0, 0, 0, 0, 0, 0, 0, 0, 0, 0, 0], "stateRewards": ["", -4, -8, 48, 48, -4, 4, 48, -24, 4, 8, -24, -48], "withholdReward": true, "trial_id": "mdp_142906093415", "block": "test2", "trialIndex": 51, "score": 40.25, "costs": -0.75, "simulationMode": [null, null, null], "rewards": [-4, -8, 48], "path": ["0", "0", "1", "2", "4"], "rt": [4276, 60, 89], "actions": ["up", "up", "left"], "actionTimes": [5622, 6192, 6786], "queries": {"click": {"state": {"target": ["12", "11", "4"], "time": [2474, 3453, 4377]}, "edge": {"target": [], "time": []}}, "mouseover": {"state": {"target": ["0", "12", "12", "10", "11", "4", "2", "3"], "time": [1899, 1962, 2229, 2980, 3029, 3929, 4712, 4779]}, "edge": {"target": [], "time": []}}, "mouseout": {"state": {"target": ["0", "0", "12", "12", "10", "11", "4", "2", "3", "1", "9"], "time": [696, 1912, 1979, 2979, 3013, 3914, 4701, 4746, 8367, 8412, 8462]}, "edge": {"target": [], "time": []}}}, "displayed_time": "9.35", "trialTime": 10762, "trial_type": "mouselab-mdp", "trial_index": 59, "time_elapsed": 1307055, "internal_node_id": "0.0-4.0-3.0-19.0"}}, {"uniqueid": "w61413275:a40280030", "current_trial": 60, "dateTime": 1664369205707, "trialdata": {"revealed_states": [], "num_clicks_accrued": [0, 0, 0, 0, 0, 0, 0, 0, 0, 0, 0, 0, 0], "stateRewards": ["", -4, -8, 24, -48, 2, 4, -48, -48, 2, -8, 24, 48], "withholdReward": true, "trial_id": "mdp_111262146724", "block": "test2", "trialIndex": 52, "score": 45.5, "costs": -1.5, "simulationMode": [null, null, null], "rewards": [2, -8, 48], "path": ["0", "0", "9", "10", "12"], "rt": [6651, 567, 205], "actions": ["left", "left", "down"], "actionTimes": [8113, 9196, 9918], "queries": {"click": {"state": {"target": ["8", "7", "3", "4", "11", "12"], "time": [2590, 3650, 4645, 5593, 6439, 7402]}, "edge": {"target": [], "time": []}}, "mouseover": {"state": {"target": ["5", "6", "8", "6", "7", "3", "2", "4", "11", "10", "12"], "time": [2095, 2162, 2246, 3046, 3095, 4345, 5079, 5129, 6045, 6845, 7129]}, "edge": {"target": [], "time": []}}, "mouseout": {"state": {"target": ["0", "5", "6", "8", "6", "7", "3", "2", "4", "11", "10", "12"], "time": [2082, 2129, 2178, 3039, 3063, 4096, 5062, 5095, 5999, 6829, 6862, 10878]}, "edge": {"target": [], "time": []}}}, "displayed_time": "10.46", "trialTime": 11648, "trial_type": "mouselab-mdp", "trial_index": 60, "time_elapsed": 1318756, "internal_node_id": "0.0-4.0-3.0-20.0"}}, {"uniqueid": "w61413275:a40280030", "current_trial": 61, "dateTime": 1664369217350, "trialdata": {"revealed_states": [], "num_clicks_accrued": [0, 0, 0, 0, 0, 0, 0, 0, 0, 0, 0, 0, 0], "stateRewards": ["", 2, 8, -48, 24, -2, 4, 48, 48, -2, -8, 48, 24], "withholdReward": true, "trial_id": "mdp_157355418411", "block": "test2", "trialIndex": 53, "score": 42.5, "costs": -0.5, "simulationMode": [null, null, null], "rewards": [-2, -8, 48], "path": ["0", "0", "9", "10", "11"], "rt": [3231, 72, 275], "actions": ["left", "left", "up"], "actionTimes": [4747, 5331, 6102], "queries": {"click": {"state": {"target": ["12", "11"], "time": [2579, 3671]}, "edge": {"target": [], "time": []}}, "mouseover": {"state": {"target": ["12", "10", "11", "4", "2"], "time": [2276, 3075, 3125, 4175, 4242]}, "edge": {"target": [], "time": []}}, "mouseout": {"state": {"target": ["12", "10", "11", "4", "2"], "time": [3064, 3109, 4159, 4208, 7597]}, "edge": {"target": [], "time": []}}}, "displayed_time": "10.52", "trialTime": 11588, "trial_type": "mouselab-mdp", "trial_index": 61, "time_elapsed": 1330398, "internal_node_id": "0.0-4.0-3.0-21.0"}}, {"uniqueid": "w61413275:a40280030", "current_trial": 62, "dateTime": 1664369236902, "trialdata": {"revealed_states": [], "num_clicks_accrued": [0, 0, 0, 0, 0, 0, 0, 0, 0, 0, 0, 0, 0], "stateRewards": ["", 2, -4, 48, -48, -4, -8, -48, 24, -4, 4, 48, 48], "withholdReward": false, "trial_id": "mdp_544803968425", "block": "test2", "trialIndex": 54, "score": 52.75, "costs": -0.25, "simulationMode": [null, null, null], "rewards": [-4, 4, 48], "path": ["0", "0", "9", "10", "11"], "rt": [2207, 124, 186], "actions": ["left", "left", "up"], "actionTimes": [3397, 4030, 4725], "queries": {"click": {"state": {"target": ["11"], "time": [2213]}, "edge": {"target": [], "time": []}}, "mouseover": {"state": {"target": ["9", "11"], "time": [1721, 2005]}, "edge": {"target": [], "time": []}}, "mouseout": {"state": {"target": ["9", "11"], "time": [1738, 2871]}, "edge": {"target": [], "time": []}}}, "displayed_time": "10.19", "trialTime": 19488, "trial_type": "mouselab-mdp", "trial_index": 62, "time_elapsed": 1349951, "internal_node_id": "0.0-4.0-3.0-22.0"}}, {"uniqueid": "w61413275:a40280030", "current_trial": 63, "dateTime": 1664369248099, "trialdata": {"revealed_states": [], "num_clicks_accrued": [0, 0, 0, 0, 0, 0, 0, 0, 0, 0, 0, 0, 0], "stateRewards": ["", -4, -4, -48, 48, -4, -8, -24, -48, -2, 8, 48, 24], "withholdReward": false, "trial_id": "mdp_365393526663", "block": "test2", "trialIndex": 55, "score": 58.5, "costs": -0.5, "simulationMode": [null, null, null], "rewards": [-2, 8, 48], "path": ["0", "0", "9", "10", "11"], "rt": [3095, 517, 105], "actions": ["left", "left", "up"], "actionTimes": [4999, 6029, 6649], "queries": {"click": {"state": {"target": ["12", "11"], "time": [3074, 4059]}, "edge": {"target": [], "time": []}}, "mouseover": {"state": {"target": ["12", "10", "11", "11", "3"], "time": [2710, 3495, 3512, 3777, 4543]}, "edge": {"target": [], "time": []}}, "mouseout": {"state": {"target": ["0", "12", "10", "11", "11", "3", "6"], "time": [2640, 3494, 3510, 3527, 4510, 4576, 8143]}, "edge": {"target": [], "time": []}}}, "displayed_time": "9.90", "trialTime": 11110, "trial_type": "mouselab-mdp", "trial_index": 63, "time_elapsed": 1361148, "internal_node_id": "0.0-4.0-3.0-23.0"}}, {"uniqueid": "w61413275:a40280030", "current_trial": 64, "dateTime": 1664369261536, "trialdata": {"revealed_states": [], "num_clicks_accrued": [0, 0, 0, 0, 0, 0, 0, 0, 0, 0, 0, 0, 0], "stateRewards": ["", 4, -8, -24, 48, -4, 8, -24, -48, -4, -4, 24, 48], "withholdReward": true, "trial_id": "mdp_282352776624", "block": "test2", "trialIndex": 56, "score": 44.5, "costs": -0.5, "simulationMode": [null, null, null], "rewards": [-4, -4, 48], "path": ["0", "0", "9", "10", "12"], "rt": [3376, 200, 389], "actions": ["left", "left", "down"], "actionTimes": [4870, 5585, 6490], "queries": {"click": {"state": {"target": ["11", "12"], "time": [2799, 3806]}, "edge": {"target": [], "time": []}}, "mouseover": {"state": {"target": ["0", "9", "11", "10", "12", "5"], "time": [2271, 2300, 2367, 3333, 3484, 4350]}, "edge": {"target": [], "time": []}}, "mouseout": {"state": {"target": ["0", "0", "9", "11", "10", "12", "5"], "time": [1034, 2283, 2333, 3317, 3367, 4284, 4383]}, "edge": {"target": [], "time": []}}}, "displayed_time": "9.49", "trialTime": 13371, "trial_type": "mouselab-mdp", "trial_index": 64, "time_elapsed": 1374585, "internal_node_id": "0.0-4.0-3.0-24.0"}}, {"uniqueid": "w61413275:a40280030", "current_trial": 65, "dateTime": 1664369274142, "trialdata": {"revealed_states": [], "num_clicks_accrued": [0, 0, 0, 0, 0, 0, 0, 0, 0, 0, 0, 0, 0], "stateRewards": ["", 4, 4, 48, -48, 4, 4, -48, 24, 2, 8, 24, -48], "withholdReward": true, "trial_id": "mdp_291674656283", "block": "test2", "trialIndex": 57, "score": 59.75, "costs": -1.25, "simulationMode": [null, null, null], "rewards": [4, 4, 48], "path": ["0", "0", "1", "2", "3"], "rt": [7990, 292, 173], "actions": ["up", "up", "right"], "actionTimes": [9284, 10094, 10760], "queries": {"click": {"state": {"target": ["11", "12", "7", "8", "3"], "time": [4354, 5653, 6662, 7429, 8311]}, "edge": {"target": [], "time": []}}, "mouseover": {"state": {"target": ["11", "10", "12", "9", "7", "7", "6", "8", "3", "2", "4"], "time": [2371, 5106, 5152, 6086, 6136, 6354, 7053, 7102, 7869, 8752, 8802]}, "edge": {"target": [], "time": []}}, "mouseout": {"state": {"target": ["0", "11", "10", "12", "9", "7", "7", "6", "8", "3", "2", "4", "9"], "time": [1988, 5104, 5135, 6078, 6103, 6169, 7036, 7068, 7802, 8736, 8786, 8836, 11852]}, "edge": {"target": [], "time": []}}}, "displayed_time": "11.27", "trialTime": 12548, "trial_type": "mouselab-mdp", "trial_index": 65, "time_elapsed": 1387191, "internal_node_id": "0.0-4.0-3.0-25.0"}}, {"uniqueid": "w61413275:a40280030", "current_trial": 66, "dateTime": 1664369285190, "trialdata": {"revealed_states": [], "num_clicks_accrued": [0, 0, 0, 0, 0, 0, 0, 0, 0, 0, 0, 0, 0], "stateRewards": ["", 4, -4, 48, -48, 2, 8, -48, 24, -2, -4, -24, 48], "withholdReward": true, "trial_id": "mdp_937564992306", "block": "test2", "trialIndex": 58, "score": 52.5, "costs": -0.5, "simulationMode": [null, null, null], "rewards": [4, -4, 48], "path": ["0", "0", "1", "2", "3"], "rt": [3138, 166, 169], "actions": ["up", "up", "right"], "actionTimes": [5140, 5824, 6494], "queries": {"click": {"state": {"target": ["11", "3"], "time": [3195, 4152]}, "edge": {"target": [], "time": []}}, "mouseover": {"state": {"target": ["9", "11", "2", "3", "2", "1"], "time": [2675, 2874, 3724, 3774, 4574, 4808]}, "edge": {"target": [], "time": []}}, "mouseout": {"state": {"target": ["0", "9", "11", "2", "3", "2", "1"], "time": [2658, 2708, 3708, 3758, 4558, 4608, 7424]}, "edge": {"target": [], "time": []}}}, "displayed_time": "10.01", "trialTime": 10986, "trial_type": "mouselab-mdp", "trial_index": 66, "time_elapsed": 1398238, "internal_node_id": "0.0-4.0-3.0-26.0"}}, {"uniqueid": "w61413275:a40280030", "current_trial": 67, "dateTime": 1664369296184, "trialdata": {"revealed_states": [], "num_clicks_accrued": [0, 0, 0, 0, 0, 0, 0, 0, 0, 0, 0, 0, 0], "stateRewards": ["", 2, -4, -24, 24, 2, 8, 48, 48, 2, -8, 48, -24], "withholdReward": false, "trial_id": "mdp_330392242530", "block": "test2", "trialIndex": 59, "score": 62.75, "costs": -0.25, "simulationMode": [null, null, null], "rewards": [2, 8, 48], "path": ["0", "0", "5", "6", "8"], "rt": [1954, 3, 60], "actions": ["right", "right", "down"], "actionTimes": [3405, 3915, 4505], "queries": {"click": {"state": {"target": ["8"], "time": [2353]}, "edge": {"target": [], "time": []}}, "mouseover": {"state": {"target": ["5", "8", "7", "7"], "time": [1895, 1977, 2794, 2961]}, "edge": {"target": [], "time": []}}, "mouseout": {"state": {"target": ["0", "5", "8", "7", "7", "5"], "time": [794, 1927, 2761, 2811, 2977, 5693]}, "edge": {"target": [], "time": []}}}, "displayed_time": "9.45", "trialTime": 10935, "trial_type": "mouselab-mdp", "trial_index": 67, "time_elapsed": 1409233, "internal_node_id": "0.0-4.0-3.0-27.0"}}, {"uniqueid": "w61413275:a40280030", "current_trial": 68, "dateTime": 1664369307555, "trialdata": {"revealed_states": [], "num_clicks_accrued": [0, 0, 0, 0, 0, 0, 0, 0, 0, 0, 0, 0, 0], "stateRewards": ["", -4, -8, -24, 24, 4, 4, -48, -48, -4, -4, 24, -48], "withholdReward": true, "trial_id": "mdp_431592223624", "block": "test2", "trialIndex": 60, "score": 19.5, "costs": -1.5, "simulationMode": [null, null, null], "rewards": [-4, -4, 24], "path": ["0", "0", "9", "10", "11"], "rt": [6070, 29, 448], "actions": ["left", "left", "up"], "actionTimes": [7326, 7866, 8850], "queries": {"click": {"state": {"target": ["12", "11", "7", "8", "3", "4"], "time": [2213, 3115, 3954, 4886, 5810, 6580]}, "edge": {"target": [], "time": []}}, "mouseover": {"state": {"target": ["12", "10", "11", "7", "8", "8", "3", "2", "4"], "time": [2002, 2653, 2686, 3518, 4386, 4604, 5336, 6158, 6202]}, "edge": {"target": [], "time": []}}, "mouseout": {"state": {"target": ["0", "12", "10", "11", "7", "8", "8", "3", "2", "4", "2", "1", "0"], "time": [1703, 2636, 2669, 3436, 4286, 4402, 5286, 6157, 6185, 9934, 9968, 10017, 10051]}, "edge": {"target": [], "time": []}}}, "displayed_time": "10.26", "trialTime": 11315, "trial_type": "mouselab-mdp", "trial_index": 68, "time_elapsed": 1420604, "internal_node_id": "0.0-4.0-3.0-28.0"}}, {"uniqueid": "w61413275:a40280030", "current_trial": 69, "dateTime": 1664369318662, "trialdata": {"revealed_states": [], "num_clicks_accrued": [0, 0, 0, 0, 0, 0, 0, 0, 0, 0, 0, 0, 0], "stateRewards": ["", 2, 8, -24, -48, 2, 4, -24, 48, 2, -8, 48, -24], "withholdReward": true, "trial_id": "mdp_791659307216", "block": "test2", "trialIndex": 61, "score": 46.5, "costs": -0.5, "simulationMode": [null, null, null], "rewards": [2, -8, 48], "path": ["0", "0", "9", "10", "11"], "rt": [2853, 31, 3], "actions": ["left", "left", "up"], "actionTimes": [4191, 4730, 5235], "queries": {"click": {"state": {"target": ["12", "11"], "time": [2283, 3181]}, "edge": {"target": [], "time": []}}, "mouseover": {"state": {"target": ["12", "10", "11", "4"], "time": [1999, 2716, 2749, 3548]}, "edge": {"target": [], "time": []}}, "mouseout": {"state": {"target": ["0", "12", "10", "11", "4", "2", "1", "0"], "time": [1898, 2715, 2749, 3507, 3581, 10831, 10866, 10898]}, "edge": {"target": [], "time": []}}}, "displayed_time": "10.34", "trialTime": 11036, "trial_type": "mouselab-mdp", "trial_index": 69, "time_elapsed": 1431710, "internal_node_id": "0.0-4.0-3.0-29.0"}}, {"uniqueid": "w61413275:a40280030", "current_trial": 70, "dateTime": 1664369323018, "trialdata": {"rt": 4350, "stimulus": "<h1> End of block! </h1>\n\nYou have reached the end of the block 2/4. If you need a short break, feel free to take one now before moving on.\n\n<br><br>\nIn the next block, you will complete another 30 rounds of this game.\n\n<br><br>\n<div style='text-align: center;'>Press <code>space</code> to begin.</div>\n<br><br>\n<div style='text-align: center;'>(If the experiment doesn't continue, try clicking on the text and then pressing <code>space</code>.)</div>", "response": " ", "trial_id": "mdp_ready_3", "trial_type": "html-keyboard-response", "trial_index": 70, "time_elapsed": 1436067, "internal_node_id": "0.0-4.0-4.0"}}, {"uniqueid": "w61413275:a40280030", "current_trial": 71, "dateTime": 1664369334513, "trialdata": {"revealed_states": [], "num_clicks_accrued": [0, 0, 0, 0, 0, 0, 0, 0, 0, 0, 0, 0, 0], "stateRewards": ["", 2, -8, 48, -24, -4, -8, -24, 48, -2, 4, 24, -48], "withholdReward": false, "trial_id": "mdp_186932504904", "block": "test3", "trialIndex": 62, "score": 46, "costs": -1, "simulationMode": [null, null, null], "rewards": [2, -8, 48], "path": ["0", "0", "1", "2", "3"], "rt": [4742, 84, 139], "actions": ["up", "up", "right"], "actionTimes": [5944, 6539, 7193], "queries": {"click": {"state": {"target": ["12", "11", "4", "3"], "time": [2265, 3111, 4138, 5066]}, "edge": {"target": [], "time": []}}, "mouseover": {"state": {"target": ["12", "10", "11", "4", "3", "7"], "time": [2071, 2704, 2737, 3788, 4854, 5572]}, "edge": {"target": [], "time": []}}, "mouseout": {"state": {"target": ["1", "0", "12", "10", "11", "4", "3", "7"], "time": [787, 1844, 2693, 2721, 3521, 4518, 5389, 8320]}, "edge": {"target": [], "time": []}}}, "displayed_time": "10.20", "trialTime": 11429, "trial_type": "mouselab-mdp", "trial_index": 71, "time_elapsed": 1447562, "internal_node_id": "0.0-4.0-5.0-0.0"}}, {"uniqueid": "w61413275:a40280030", "current_trial": 72, "dateTime": 1664369347576, "trialdata": {"revealed_states": [], "num_clicks_accrued": [0, 0, 0, 0, 0, 0, 0, 0, 0, 0, 0, 0, 0], "stateRewards": ["", -4, 4, 24, 24, 4, -8, 48, -48, -2, -8, 24, 24], "withholdReward": false, "trial_id": "mdp_395264223239", "block": "test3", "trialIndex": 63, "score": 47.75, "costs": -1.25, "simulationMode": [null, null, null], "rewards": [4, -8, 48], "path": ["0", "0", "5", "6", "7"], "rt": [7791, 315, 27], "actions": ["right", "right", "up"], "actionTimes": [8973, 9804, 10348], "queries": {"click": {"state": {"target": ["12", "11", "7", "5", "6"], "time": [2326, 3530, 4677, 6113, 8315]}, "edge": {"target": [], "time": []}}, "mouseover": {"state": {"target": ["12", "10", "11", "7", "5", "6"], "time": [2121, 2854, 2888, 4421, 5403, 7787]}, "edge": {"target": [], "time": []}}, "mouseout": {"state": {"target": ["0", "12", "10", "11", "7", "5", "5"], "time": [953, 2847, 2887, 3901, 5037, 6570, 7770]}, "edge": {"target": [], "time": []}}}, "displayed_time": "10.86", "trialTime": 13009, "trial_type": "mouselab-mdp", "trial_index": 72, "time_elapsed": 1460624, "internal_node_id": "0.0-4.0-5.0-1.0"}}, {"uniqueid": "w61413275:a40280030", "current_trial": 73, "dateTime": 1664369362607, "trialdata": {"revealed_states": [], "num_clicks_accrued": [0, 0, 0, 0, 0, 0, 0, 0, 0, 0, 0, 0, 0], "stateRewards": ["", -2, 8, -24, 24, -4, -8, -24, 48, -2, -8, -48, 48], "withholdReward": true, "trial_id": "mdp_238332601315", "block": "test3", "trialIndex": 64, "score": 42, "costs": -1, "simulationMode": [null, null, null], "rewards": [-2, -8, 48], "path": ["0", "0", "9", "10", "12"], "rt": [5497, 3, 130], "actions": ["left", "left", "down"], "actionTimes": [8508, 9015, 9675], "queries": {"click": {"state": {"target": ["3", "4", "11", "12"], "time": [3893, 4881, 6478, 7441]}, "edge": {"target": [], "time": []}}, "mouseover": {"state": {"target": ["1", "2", "3", "2", "4", "11", "10", "12", "0", "5", "8"], "time": [3478, 3545, 3661, 4394, 4646, 6278, 6928, 7160, 7843, 7877, 8094]}, "edge": {"target": [], "time": []}}, "mouseout": {"state": {"target": ["6", "5", "0", "1", "2", "3", "2", "4", "11", "10", "12", "0", "5", "8", "12", "0"], "time": [2529, 2593, 3460, 3511, 3577, 4379, 4427, 5377, 6910, 6961, 7805, 7860, 7892, 11143, 14226, 14425]}, "edge": {"target": [], "time": []}}}, "displayed_time": "12.01", "trialTime": 14965, "trial_type": "mouselab-mdp", "trial_index": 73, "time_elapsed": 1475655, "internal_node_id": "0.0-4.0-5.0-2.0"}}, {"uniqueid": "w61413275:a40280030", "current_trial": 74, "dateTime": 1664369374522, "trialdata": {"revealed_states": [], "num_clicks_accrued": [0, 0, 0, 0, 0, 0, 0, 0, 0, 0, 0, 0, 0], "stateRewards": ["", 2, -4, 24, 48, -2, 4, -48, -48, -4, 4, 24, -24], "withholdReward": true, "trial_id": "mdp_900363662757", "block": "test3", "trialIndex": 65, "score": 50.25, "costs": -0.75, "simulationMode": [null, null, null], "rewards": [2, -4, 48], "path": ["0", "0", "1", "2", "4"], "rt": [3692, 771, 70], "actions": ["up", "up", "left"], "actionTimes": [4901, 6191, 6773], "queries": {"click": {"state": {"target": ["12", "11", "4"], "time": [2137, 3087, 3924]}, "edge": {"target": [], "time": []}}, "mouseover": {"state": {"target": ["0", "12", "10", "11", "4", "2", "3"], "time": [1665, 1968, 2619, 2805, 3585, 4281, 4334]}, "edge": {"target": [], "time": []}}, "mouseout": {"state": {"target": ["0", "0", "12", "10", "11", "4", "2", "3"], "time": [701, 1672, 2602, 2634, 3552, 4279, 4301, 4468]}, "edge": {"target": [], "time": []}}}, "displayed_time": "11.21", "trialTime": 11857, "trial_type": "mouselab-mdp", "trial_index": 74, "time_elapsed": 1487571, "internal_node_id": "0.0-4.0-5.0-3.0"}}, {"uniqueid": "w61413275:a40280030", "current_trial": 75, "dateTime": 1664369385063, "trialdata": {"revealed_states": [], "num_clicks_accrued": [0, 0, 0, 0, 0, 0, 0, 0, 0, 0, 0, 0, 0], "stateRewards": ["", 2, -8, 48, -24, 2, 8, 24, -24, 4, -4, -48, -48], "withholdReward": true, "trial_id": "mdp_130946197263", "block": "test3", "trialIndex": 66, "score": 46.5, "costs": -0.5, "simulationMode": [null, null, null], "rewards": [2, -8, 48], "path": ["0", "0", "1", "2", "3"], "rt": [3285, 106, 61], "actions": ["up", "up", "right"], "actionTimes": [4697, 5319, 5875], "queries": {"click": {"state": {"target": ["7", "3"], "time": [2431, 3433]}, "edge": {"target": [], "time": []}}, "mouseover": {"state": {"target": ["7", "3", "2"], "time": [2212, 3178, 3894]}, "edge": {"target": [], "time": []}}, "mouseout": {"state": {"target": ["0", "7", "3", "2"], "time": [1917, 2962, 3868, 3929]}, "edge": {"target": [], "time": []}}}, "displayed_time": "9.41", "trialTime": 10477, "trial_type": "mouselab-mdp", "trial_index": 75, "time_elapsed": 1498112, "internal_node_id": "0.0-4.0-5.0-4.0"}}, {"uniqueid": "w61413275:a40280030", "current_trial": 76, "dateTime": 1664369396365, "trialdata": {"revealed_states": [], "num_clicks_accrued": [0, 0, 0, 0, 0, 0, 0, 0, 0, 0, 0, 0, 0], "stateRewards": ["", -2, 4, -24, 48, 4, -8, 48, -48, 2, -8, 48, 24], "withholdReward": true, "trial_id": "mdp_501111216502", "block": "test3", "trialIndex": 67, "score": 46.5, "costs": -0.5, "simulationMode": [null, null, null], "rewards": [2, -8, 48], "path": ["0", "0", "9", "10", "11"], "rt": [2964, 50, 21], "actions": ["left", "left", "up"], "actionTimes": [4430, 4999, 5520], "queries": {"click": {"state": {"target": ["12", "11"], "time": [2417, 3546]}, "edge": {"target": [], "time": []}}, "mouseover": {"state": {"target": ["0", "12", "10", "11", "1", "7"], "time": [1983, 2083, 3064, 3115, 3948, 4048]}, "edge": {"target": [], "time": []}}, "mouseout": {"state": {"target": ["0", "0", "12", "10", "11", "1", "7"], "time": [1148, 1998, 3048, 3081, 3914, 3964, 10992]}, "edge": {"target": [], "time": []}}}, "displayed_time": "10.47", "trialTime": 11232, "trial_type": "mouselab-mdp", "trial_index": 76, "time_elapsed": 1509413, "internal_node_id": "0.0-4.0-5.0-5.0"}}, {"uniqueid": "w61413275:a40280030", "current_trial": 77, "dateTime": 1664369416779, "trialdata": {"revealed_states": [], "num_clicks_accrued": [0, 0, 0, 0, 0, 0, 0, 0, 0, 0, 0, 0, 0], "stateRewards": ["", 2, 8, -24, -48, -4, 8, -48, -48, -2, -8, -24, -24], "withholdReward": false, "trial_id": "mdp_978177451072", "block": "test3", "trialIndex": 68, "score": -11.5, "costs": -2.5, "simulationMode": [null, null, null], "rewards": [2, 8, -24], "path": ["0", "0", "1", "2", "3"], "rt": [15185, 289, 63], "actions": ["up", "up", "right"], "actionTimes": [16311, 17107, 17681], "queries": {"click": {"state": {"target": ["11", "3", "4", "12", "8", "7", "9", "10", "1", "2"], "time": [2140, 3106, 4144, 4960, 5935, 6916, 8525, 9218, 14584, 15386]}, "edge": {"target": [], "time": []}}, "mouseover": {"state": {"target": ["9", "11", "2", "3", "2", "4", "10", "12", "8", "6", "7", "5", "10", "9", "10", "1", "2"], "time": [1600, 1885, 2701, 2867, 3649, 3833, 4549, 4599, 5367, 6350, 6651, 7716, 8033, 8300, 8983, 14349, 14982]}, "edge": {"target": [], "time": []}}, "mouseout": {"state": {"target": ["0", "0", "9", "11", "2", "3", "2", "4", "10", "12", "8", "6", "7", "5", "10", "9", "10", "11", "1", "2", "0"], "time": [716, 1585, 1617, 2651, 2817, 3633, 3683, 4494, 4566, 5271, 6333, 6535, 7702, 7750, 8166, 8967, 10735, 14016, 14953, 15783, 18899]}, "edge": {"target": [], "time": []}}}, "displayed_time": "18.20", "trialTime": 20351, "trial_type": "mouselab-mdp", "trial_index": 77, "time_elapsed": 1529828, "internal_node_id": "0.0-4.0-5.0-6.0"}}, {"uniqueid": "w61413275:a40280030", "current_trial": 78, "dateTime": 1664369427577, "trialdata": {"revealed_states": [], "num_clicks_accrued": [0, 0, 0, 0, 0, 0, 0, 0, 0, 0, 0, 0, 0], "stateRewards": ["", -2, 8, 48, 48, 2, 4, -48, 24, -4, -8, 48, 24], "withholdReward": true, "trial_id": "mdp_572910394648", "block": "test3", "trialIndex": 69, "score": 40.5, "costs": -0.5, "simulationMode": [null, null, null], "rewards": [-4, -8, 48], "path": ["0", "0", "9", "10", "11"], "rt": [2872, 426, 43], "actions": ["left", "left", "up"], "actionTimes": [4108, 5039, 5589], "queries": {"click": {"state": {"target": ["12", "11"], "time": [2179, 3205]}, "edge": {"target": [], "time": []}}, "mouseover": {"state": {"target": ["0", "12", "10", "11", "11", "2", "3"], "time": [1742, 1877, 2576, 2610, 2760, 3626, 3660]}, "edge": {"target": [], "time": []}}, "mouseout": {"state": {"target": ["0", "0", "12", "10", "11", "11", "2", "3", "7", "5"], "time": [1028, 1749, 2562, 2594, 2627, 3582, 3643, 3677, 6594, 6660]}, "edge": {"target": [], "time": []}}}, "displayed_time": "10.24", "trialTime": 10744, "trial_type": "mouselab-mdp", "trial_index": 78, "time_elapsed": 1540626, "internal_node_id": "0.0-4.0-5.0-7.0"}}, {"uniqueid": "w61413275:a40280030", "current_trial": 79, "dateTime": 1664369439063, "trialdata": {"revealed_states": [], "num_clicks_accrued": [0, 0, 0, 0, 0, 0, 0, 0, 0, 0, 0, 0, 0], "stateRewards": ["", -2, -8, 48, -24, 2, -4, -48, -24, -2, -4, -48, 48], "withholdReward": false, "trial_id": "mdp_143798438087", "block": "test3", "trialIndex": 70, "score": 46.75, "costs": -0.25, "simulationMode": [null, null, null], "rewards": [-2, -4, 48], "path": ["0", "0", "9", "10", "12"], "rt": [2842, 259, 107], "actions": ["left", "left", "down"], "actionTimes": [4093, 4858, 5473], "queries": {"click": {"state": {"target": ["12"], "time": [3084]}, "edge": {"target": [], "time": []}}, "mouseover": {"state": {"target": ["12", "10", "11", "9"], "time": [2866, 3497, 3614, 3747]}, "edge": {"target": [], "time": []}}, "mouseout": {"state": {"target": ["0", "12", "10", "11", "9"], "time": [664, 3475, 3514, 3697, 11097]}, "edge": {"target": [], "time": []}}}, "displayed_time": "10.25", "trialTime": 11418, "trial_type": "mouselab-mdp", "trial_index": 79, "time_elapsed": 1552112, "internal_node_id": "0.0-4.0-5.0-8.0"}}, {"uniqueid": "w61413275:a40280030", "current_trial": 80, "dateTime": 1664369450049, "trialdata": {"revealed_states": [], "num_clicks_accrued": [0, 0, 0, 0, 0, 0, 0, 0, 0, 0, 0, 0, 0], "stateRewards": ["", 4, 8, -24, 48, 4, -8, -48, 48, -4, 8, -24, -48], "withholdReward": true, "trial_id": "mdp_376126356841", "block": "test3", "trialIndex": 71, "score": 48.25, "costs": -0.75, "simulationMode": [null, null, null], "rewards": [4, -8, 48], "path": ["0", "0", "5", "6", "8"], "rt": [3566, 62, 162], "actions": ["right", "right", "down"], "actionTimes": [4762, 5322, 5987], "queries": {"click": {"state": {"target": ["11", "12", "8"], "time": [2117, 2943, 3827]}, "edge": {"target": [], "time": []}}, "mouseover": {"state": {"target": ["11", "10", "12", "6", "8", "6", "7"], "time": [1660, 2536, 2592, 3275, 3642, 4176, 4277]}, "edge": {"target": [], "time": []}}, "mouseout": {"state": {"target": ["11", "10", "12", "6", "8", "6", "7", "5"], "time": [2534, 2559, 3209, 3310, 4162, 4192, 10724, 10757]}, "edge": {"target": [], "time": []}}}, "displayed_time": "10.20", "trialTime": 10917, "trial_type": "mouselab-mdp", "trial_index": 80, "time_elapsed": 1563098, "internal_node_id": "0.0-4.0-5.0-9.0"}}, {"uniqueid": "w61413275:a40280030", "current_trial": 81, "dateTime": 1664369460230, "trialdata": {"revealed_states": [], "num_clicks_accrued": [0, 0, 0, 0, 0, 0, 0, 0, 0, 0, 0, 0, 0], "stateRewards": ["", -4, -8, 48, 24, 4, -8, 24, -48, -2, -8, 24, -48], "withholdReward": true, "trial_id": "mdp_952038635544", "block": "test3", "trialIndex": 72, "score": 40, "costs": -1, "simulationMode": [null, null, null], "rewards": [-4, -8, 48], "path": ["0", "0", "1", "2", "3"], "rt": [5358, 46, 19], "actions": ["up", "up", "right"], "actionTimes": [6378, 6933, 7487], "queries": {"click": {"state": {"target": ["12", "11", "4", "3"], "time": [1962, 3105, 4430, 5433]}, "edge": {"target": [], "time": []}}, "mouseover": {"state": {"target": ["12", "10", "11", "4", "4", "2", "3", "3", "7"], "time": [1569, 2601, 2668, 3634, 3968, 4739, 4803, 5153, 6034]}, "edge": {"target": [], "time": []}}, "mouseout": {"state": {"target": ["0", "12", "10", "11", "4", "4", "2", "3", "3", "7"], "time": [1480, 2586, 2635, 3568, 3801, 4738, 4752, 4902, 5784, 9585]}, "edge": {"target": [], "time": []}}}, "displayed_time": "9.02", "trialTime": 10092, "trial_type": "mouselab-mdp", "trial_index": 81, "time_elapsed": 1573278, "internal_node_id": "0.0-4.0-5.0-10.0"}}, {"uniqueid": "w61413275:a40280030", "current_trial": 82, "dateTime": 1664369469282, "trialdata": {"revealed_states": [], "num_clicks_accrued": [0, 0, 0, 0, 0, 0, 0, 0, 0, 0, 0, 0, 0], "stateRewards": ["", -4, 8, -24, -48, 2, 8, -48, -24, -2, -4, 48, -48], "withholdReward": true, "trial_id": "mdp_599927291428", "block": "test3", "trialIndex": 73, "score": 46.5, "costs": -0.5, "simulationMode": [null, null, null], "rewards": [-2, -4, 48], "path": ["0", "0", "9", "10", "11"], "rt": [3440, 466, 73], "actions": ["left", "left", "up"], "actionTimes": [4681, 5656, 6245], "queries": {"click": {"state": {"target": ["12", "11"], "time": [2933, 3840]}, "edge": {"target": [], "time": []}}, "mouseover": {"state": {"target": ["0", "12", "10", "11", "4"], "time": [2251, 2688, 3438, 3455, 4254]}, "edge": {"target": [], "time": []}}, "mouseout": {"state": {"target": ["0", "12", "10", "11", "4", "2", "1", "0"], "time": [2271, 3421, 3454, 4121, 7341, 7454, 7504, 7537]}, "edge": {"target": [], "time": []}}}, "displayed_time": "8.24", "trialTime": 8982, "trial_type": "mouselab-mdp", "trial_index": 82, "time_elapsed": 1582331, "internal_node_id": "0.0-4.0-5.0-11.0"}}, {"uniqueid": "w61413275:a40280030", "current_trial": 83, "dateTime": 1664369480245, "trialdata": {"revealed_states": [], "num_clicks_accrued": [0, 0, 0, 0, 0, 0, 0, 0, 0, 0, 0, 0, 0], "stateRewards": ["", -4, -8, 48, -48, 2, -4, 48, -24, 2, -8, -48, -48], "withholdReward": true, "trial_id": "mdp_624553692913", "block": "test3", "trialIndex": 74, "score": 40.25, "costs": -0.75, "simulationMode": [null, null, null], "rewards": [-4, -8, 48], "path": ["0", "0", "1", "2", "3"], "rt": [3721, 109, 16], "actions": ["up", "up", "right"], "actionTimes": [4887, 5501, 6009], "queries": {"click": {"state": {"target": ["12", "11", "3"], "time": [2194, 3160, 4077]}, "edge": {"target": [], "time": []}}, "mouseover": {"state": {"target": ["12", "10", "11", "2", "3"], "time": [2040, 2724, 2757, 3540, 3891]}, "edge": {"target": [], "time": []}}, "mouseout": {"state": {"target": ["0", "12", "10", "11", "2", "3"], "time": [1691, 2705, 2741, 3507, 3590, 4541]}, "edge": {"target": [], "time": []}}}, "displayed_time": "10.17", "trialTime": 10900, "trial_type": "mouselab-mdp", "trial_index": 83, "time_elapsed": 1593294, "internal_node_id": "0.0-4.0-5.0-12.0"}}, {"uniqueid": "w61413275:a40280030", "current_trial": 84, "dateTime": 1664369491959, "trialdata": {"revealed_states": [], "num_clicks_accrued": [0, 0, 0, 0, 0, 0, 0, 0, 0, 0, 0, 0, 0], "stateRewards": ["", 2, 4, -48, -48, 4, 4, -48, -48, -2, -8, 48, -24], "withholdReward": true, "trial_id": "mdp_175327338412", "block": "test3", "trialIndex": 75, "score": 42.5, "costs": -0.5, "simulationMode": [null, null, null], "rewards": [-2, -8, 48], "path": ["0", "0", "9", "10", "11"], "rt": [2786, 56, 3], "actions": ["left", "left", "up"], "actionTimes": [4809, 5382, 5880], "queries": {"click": {"state": {"target": ["12", "11"], "time": [3046, 3920]}, "edge": {"target": [], "time": []}}, "mouseover": {"state": {"target": ["0", "12", "10", "11", "3"], "time": [2577, 2725, 3491, 3559, 4342]}, "edge": {"target": [], "time": []}}, "mouseout": {"state": {"target": ["0", "0", "12", "10", "11", "3", "7", "5"], "time": [675, 2591, 3472, 3525, 4270, 4359, 11375, 11441]}, "edge": {"target": [], "time": []}}}, "displayed_time": "11.02", "trialTime": 11650, "trial_type": "mouselab-mdp", "trial_index": 84, "time_elapsed": 1605008, "internal_node_id": "0.0-4.0-5.0-13.0"}}, {"uniqueid": "w61413275:a40280030", "current_trial": 85, "dateTime": 1664369505737, "trialdata": {"revealed_states": [], "num_clicks_accrued": [0, 0, 0, 0, 0, 0, 0, 0, 0, 0, 0, 0, 0], "stateRewards": ["", 2, -4, -48, 24, -4, 4, 24, 24, 2, -8, -24, -48], "withholdReward": true, "trial_id": "mdp_807654778305", "block": "test3", "trialIndex": 76, "score": 24.75, "costs": -2.25, "simulationMode": [null, null, null], "rewards": [2, -4, 24], "path": ["0", "0", "1", "2", "4"], "rt": [9837, 63, 64], "actions": ["up", "up", "left"], "actionTimes": [10841, 11417, 11984], "queries": {"click": {"state": {"target": ["11", "12", "7", "3", "8", "4", "5", "1", "2"], "time": [2273, 3204, 4128, 5029, 6087, 7082, 8502, 9379, 10214]}, "edge": {"target": [], "time": []}}, "mouseover": {"state": {"target": ["12", "11", "10", "12", "9", "1", "7", "3", "6", "8", "0", "4", "2", "5", "1", "2"], "time": [1621, 1987, 2794, 2870, 3522, 3539, 3904, 4687, 5503, 5853, 6470, 6537, 7820, 8236, 9136, 9752]}, "edge": {"target": [], "time": []}}, "mouseout": {"state": {"target": ["0", "12", "11", "10", "12", "9", "1", "7", "3", "6", "8", "0", "4", "2", "5", "1"], "time": [1572, 1804, 2793, 2820, 3502, 3537, 3554, 4670, 5458, 5536, 6437, 6487, 7790, 7836, 8970, 9736]}, "edge": {"target": [], "time": []}}}, "displayed_time": "12.50", "trialTime": 13707, "trial_type": "mouselab-mdp", "trial_index": 85, "time_elapsed": 1618786, "internal_node_id": "0.0-4.0-5.0-14.0"}}, {"uniqueid": "w61413275:a40280030", "current_trial": 86, "dateTime": 1664369515317, "trialdata": {"revealed_states": [], "num_clicks_accrued": [0, 0, 0, 0, 0, 0, 0, 0, 0, 0, 0, 0, 0], "stateRewards": ["", -2, 8, 48, -24, 2, 4, -48, -24, -4, 8, -48, -48], "withholdReward": true, "trial_id": "mdp_539167561933", "block": "test3", "trialIndex": 77, "score": 58, "costs": -1, "simulationMode": [null, null, null], "rewards": [-2, 8, 48], "path": ["0", "0", "1", "2", "3"], "rt": [4947, 45, 281], "actions": ["up", "up", "right"], "actionTimes": [6155, 6704, 7475], "queries": {"click": {"state": {"target": ["12", "11", "4", "3"], "time": [2212, 3343, 4204, 5001]}, "edge": {"target": [], "time": []}}, "mouseover": {"state": {"target": ["0", "12", "12", "10", "11", "4", "3", "7"], "time": [1606, 1675, 1958, 2658, 2995, 3908, 4625, 5608]}, "edge": {"target": [], "time": []}}, "mouseout": {"state": {"target": ["2", "1", "0", "0", "12", "12", "10", "11", "4", "3", "7", "0"], "time": [559, 608, 942, 1614, 1775, 2642, 2674, 3791, 4561, 5308, 5707, 8608]}, "edge": {"target": [], "time": []}}}, "displayed_time": "9.21", "trialTime": 9510, "trial_type": "mouselab-mdp", "trial_index": 86, "time_elapsed": 1628365, "internal_node_id": "0.0-4.0-5.0-15.0"}}, {"uniqueid": "w61413275:a40280030", "current_trial": 87, "dateTime": 1664369526273, "trialdata": {"revealed_states": [], "num_clicks_accrued": [0, 0, 0, 0, 0, 0, 0, 0, 0, 0, 0, 0, 0], "stateRewards": ["", -2, -4, -24, 48, -2, -8, -48, -24, 4, 8, 48, 24], "withholdReward": true, "trial_id": "mdp_625355871626", "block": "test3", "trialIndex": 78, "score": 64.5, "costs": -0.5, "simulationMode": [null, null, null], "rewards": [4, 8, 48], "path": ["0", "0", "9", "10", "11"], "rt": [2780, 53, 128], "actions": ["left", "left", "up"], "actionTimes": [3861, 4422, 5078], "queries": {"click": {"state": {"target": ["12", "11"], "time": [1939, 2903]}, "edge": {"target": [], "time": []}}, "mouseover": {"state": {"target": ["9", "12", "10", "11"], "time": [1483, 1549, 2434, 2633]}, "edge": {"target": [], "time": []}}, "mouseout": {"state": {"target": ["0", "9", "12", "10", "11"], "time": [750, 1500, 2416, 2467, 3349]}, "edge": {"target": [], "time": []}}}, "displayed_time": "10.08", "trialTime": 10892, "trial_type": "mouselab-mdp", "trial_index": 87, "time_elapsed": 1639321, "internal_node_id": "0.0-4.0-5.0-16.0"}}, {"uniqueid": "w61413275:a40280030", "current_trial": 88, "dateTime": 1664369536868, "trialdata": {"revealed_states": [], "num_clicks_accrued": [0, 0, 0, 0, 0, 0, 0, 0, 0, 0, 0, 0, 0], "stateRewards": ["", -4, 8, -48, -48, -2, -8, -24, -48, 2, -4, -48, 24], "withholdReward": true, "trial_id": "mdp_743906784415", "block": "test3", "trialIndex": 79, "score": 25.5, "costs": -1.5, "simulationMode": [null, null, null], "rewards": [2, -4, 24], "path": ["0", "0", "9", "10", "12"], "rt": [6446, 58, 166], "actions": ["left", "left", "down"], "actionTimes": [7587, 8162, 8852], "queries": {"click": {"state": {"target": ["12", "11", "7", "8", "3", "4"], "time": [2016, 3045, 4003, 5002, 6013, 6871]}, "edge": {"target": [], "time": []}}, "mouseover": {"state": {"target": ["12", "10", "11", "7", "7", "6", "8", "3", "3", "2", "4"], "time": [1685, 2569, 2635, 3503, 3689, 4384, 4452, 5451, 5735, 6402, 6485]}, "edge": {"target": [], "time": []}}, "mouseout": {"state": {"target": ["0", "12", "10", "11", "7", "7", "6", "8", "3", "3", "2", "4", "12"], "time": [1648, 2552, 2602, 3426, 3535, 4383, 4392, 5402, 5468, 6385, 6418, 9986, 10118]}, "edge": {"target": [], "time": []}}}, "displayed_time": "9.35", "trialTime": 10542, "trial_type": "mouselab-mdp", "trial_index": 88, "time_elapsed": 1649917, "internal_node_id": "0.0-4.0-5.0-17.0"}}, {"uniqueid": "w61413275:a40280030", "current_trial": 89, "dateTime": 1664369548264, 