{"condition": 1, "counterbalance": 0, "assignmentId": "a45951005", "workerId": "w43014207", "hitId": "h38905557", "currenttrial": 143, "bonus": 0, "data": [{"uniqueid": "w43014207:a45951005", "current_trial": 0, "dateTime": 1664555562498, "trialdata": {"success": true, "trial_type": "fullscreen", "trial_index": 0, "time_elapsed": 5186, "internal_node_id": "0.0-0.0"}}, {"uniqueid": "w43014207:a45951005", "current_trial": 1, "dateTime": 1664555581915, "trialdata": {"view_history": [{"page_index": 0, "viewing_time": 19403}], "rt": 19404, "trial_id": "exp_instructions_no_distractor", "trial_type": "instructions", "trial_index": 1, "time_elapsed": 24604, "internal_node_id": "0.0-1.0"}}, {"uniqueid": "w43014207:a45951005", "current_trial": 2, "dateTime": 1664555586101, "trialdata": {"success": true, "trial_type": "fullscreen", "trial_index": 2, "time_elapsed": 28790, "internal_node_id": "0.0-2.0-0.0"}}, {"uniqueid": "w43014207:a45951005", "current_trial": 3, "dateTime": 1664555648251, "trialdata": {"view_history": [{"page_index": 0, "viewing_time": 24279}, {"page_index": 1, "viewing_time": 21406}, {"page_index": 2, "viewing_time": 6654}, {"page_index": 3, "viewing_time": 3855}, {"page_index": 4, "viewing_time": 5953}], "rt": 62147, "trial_id": "mouselab_instructions_1", "trial_type": "instructions", "trial_index": 3, "time_elapsed": 90940, "internal_node_id": "0.0-2.0-1.0"}}, {"uniqueid": "w43014207:a45951005", "current_trial": 4, "dateTime": 1664555671530, "trialdata": {"revealed_states": [], "num_clicks_accrued": [0, 0, 0, 0, 0, 0, 0, 0, 0, 0, 0, 0, 0], "stateRewards": ["", 10, -10, -10, -10, 10, 10, 10, -10, -10, -10, -10, 10], "withholdReward": false, "trial_id": "practice_1", "block": "test", "trialIndex": 0, "score": 39, "costs": -3, "simulationMode": [null, null, null, null, null, null, null], "rewards": [10, 10, 10, 10], "path": ["0", "0", "5", "5", "6", "7"], "rt": [13995, 13529, 915, 439, 794, 309, 2835], "actions": ["right", "right", "right", "right", "right", "right", "up"], "actionTimes": [13526, 13532, 14454, 14457, 15258, 15261, 18587], "queries": {"click": {"state": {"target": ["5", "2", "1", "9", "10", "11", "12", "8", "6", "7", "3", "4"], "time": [1537, 3302, 4524, 5476, 6269, 7085, 8085, 9258, 9959, 10677, 11467, 12391]}, "edge": {"target": [], "time": []}}, "mouseover": {"state": {"target": ["5", "5", "1", "2", "1", "9", "10", "11", "12", "8", "6", "7", "3", "4"], "time": [985, 1252, 2901, 3001, 4201, 5085, 5985, 6787, 7601, 8722, 9671, 10350, 11083, 12101]}, "edge": {"target": [], "time": []}}, "mouseout": {"state": {"target": ["0", "5", "5", "1", "2", "1", "9", "10", "11", "10", "12", "8", "6", "7", "3", "2", "4", "1", "5"], "time": [941, 1052, 2666, 2937, 4085, 5017, 5935, 6737, 7434, 7501, 8600, 9633, 10333, 11033, 11852, 11881, 12737, 12783, 12849]}, "edge": {"target": [], "time": []}}}, "displayed_time": "19.10", "trialTime": 21185, "trial_type": "mouselab-mdp", "trial_index": 4, "time_elapsed": 114218, "internal_node_id": "0.0-2.0-2.0-0.0"}}, {"uniqueid": "w43014207:a45951005", "current_trial": 5, "dateTime": 1664555684928, "trialdata": {"revealed_states": [], "num_clicks_accrued": [0, 0, 0, 0, 0, 0, 0, 0, 0, 0, 0, 0, 0], "stateRewards": ["", 10, -10, -10, -10, 10, -10, -10, -10, 10, -10, 10, -10], "withholdReward": false, "trial_id": "practice_2", "block": "test", "trialIndex": 1, "score": -8, "costs": 0, "simulationMode": [null, null, null], "rewards": [10, -10, -10], "path": ["0", "0", "5", "6", "8"], "rt": [1305, 4230, 1216], "actions": ["right", "right", "down"], "actionTimes": [4100, 8850, 10581], "queries": {"click": {"state": {"target": [], "time": []}, "edge": {"target": [], "time": []}}, "mouseover": {"state": {"target": [], "time": []}, "edge": {"target": [], "time": []}}, "mouseout": {"state": {"target": ["5", "0", "5"], "time": [2216, 6251, 6318]}, "edge": {"target": [], "time": []}}}, "displayed_time": "11.08", "trialTime": 13322, "trial_type": "mouselab-mdp", "trial_index": 5, "time_elapsed": 127617, "internal_node_id": "0.0-2.0-2.0-1.0"}}, {"uniqueid": "w43014207:a45951005", "current_trial": 6, "dateTime": 1664555704806, "trialdata": {"view_history": [{"page_index": 0, "viewing_time": 6546}, {"page_index": 1, "viewing_time": 6720}, {"page_index": 2, "viewing_time": 6601}], "rt": 19868, "trial_id": "mouselab_instructions_2_scarce", "trial_type": "instructions", "trial_index": 6, "time_elapsed": 147495, "internal_node_id": "0.0-2.0-3.0"}}, {"uniqueid": "w43014207:a45951005", "current_trial": 7, "dateTime": 1664555735416, "trialdata": {"rt": 30597, "response": {"Q0": "$-48 to $48", "Q1": "The cost is always $0.25.", "Q2": "The better I perform the higher my bonus will be.", "Q3": "Yes.", "Q4": "The values of the nodes walked through from start to finish.", "Q5": "Yes."}, "question_order": [0, 1, 2, 3, 4, 5], "correct": {"Q0": "$-48 to $48", "Q1": "The cost is always $0.25.", "Q2": "The better I perform the higher my bonus will be.", "Q3": "No, the amount of cash at each node of the web may be different each time.", "Q4": "The values of the nodes walked through from start to finish.", "Q5": "No, the spider might forget to count the money on some rounds."}, "trial_id": "mouselab_quiz_scarce", "trial_type": "survey-multi-choice", "trial_index": 7, "time_elapsed": 178105, "internal_node_id": "0.0-2.0-4.0"}}, {"uniqueid": "w43014207:a45951005", "current_trial": 8, "dateTime": 1664555743126, "trialdata": {"success": true, "trial_type": "fullscreen", "trial_index": 8, "time_elapsed": 185815, "internal_node_id": "0.0-2.1-0.1"}}, {"uniqueid": "w43014207:a45951005", "current_trial": 9, "dateTime": 1664555821901, "trialdata": {"view_history": [{"page_index": 0, "viewing_time": 25554}, {"page_index": 1, "viewing_time": 22722}, {"page_index": 2, "viewing_time": 6234}, {"page_index": 3, "viewing_time": 3674}, {"page_index": 4, "viewing_time": 20591}], "rt": 78775, "trial_id": "mouselab_instructions_1", "trial_type": "instructions", "trial_index": 9, "time_elapsed": 264590, "internal_node_id": "0.0-2.1-1.1"}}, {"uniqueid": "w43014207:a45951005", "current_trial": 10, "dateTime": 1664555833182, "trialdata": {"revealed_states": [], "num_clicks_accrued": [0, 0, 0, 0, 0, 0, 0, 0, 0, 0, 0, 0, 0], "stateRewards": ["", 10, -10, -10, -10, 10, 10, 10, -10, -10, -10, -10, 10], "withholdReward": false, "trial_id": "practice_1", "block": "test", "trialIndex": 2, "score": 31.25, "costs": -0.75, "simulationMode": [null, null, null], "rewards": [10, 10, 10], "path": ["0", "0", "5", "6", "7"], "rt": [4945, 172, 602], "actions": ["right", "right", "up"], "actionTimes": [7709, 8374, 9470], "queries": {"click": {"state": {"target": ["1", "6", "7"], "time": [3929, 5818, 6774]}, "edge": {"target": [], "time": []}}, "mouseover": {"state": {"target": ["1", "0", "5", "6", "7"], "time": [3632, 4781, 5002, 5532, 6532]}, "edge": {"target": [], "time": []}}, "mouseout": {"state": {"target": ["0", "1", "0", "5", "6", "7"], "time": [3488, 4433, 4815, 5052, 6299, 7163]}, "edge": {"target": [], "time": []}}}, "displayed_time": "9.98", "trialTime": 11206, "trial_type": "mouselab-mdp", "trial_index": 10, "time_elapsed": 275871, "internal_node_id": "0.0-2.1-2.1-0.1"}}, {"uniqueid": "w43014207:a45951005", "current_trial": 11, "dateTime": 1664555842849, "trialdata": {"revealed_states": [], "num_clicks_accrued": [0, 0, 0, 0, 0, 0, 0, 0, 0, 0, 0, 0, 0], "stateRewards": ["", 10, -10, -10, -10, 10, -10, -10, -10, 10, -10, 10, -10], "withholdReward": false, "trial_id": "practice_2", "block": "test", "trialIndex": 3, "score": 11.25, "costs": -0.75, "simulationMode": [null, null, null], "rewards": [10, -10, 10], "path": ["0", "0", "9", "10", "11"], "rt": [4124, 79, 19], "actions": ["left", "left", "up"], "actionTimes": [6185, 6768, 7277], "queries": {"click": {"state": {"target": ["1", "12", "11"], "time": [2920, 4199, 5364]}, "edge": {"target": [], "time": []}}, "mouseover": {"state": {"target": ["1", "10", "12", "10", "11"], "time": [2590, 3473, 3924, 4841, 5041]}, "edge": {"target": [], "time": []}}, "mouseout": {"state": {"target": ["0", "0", "1", "10", "12", "10", "11"], "time": [1390, 2543, 3259, 3890, 4591, 4890, 8475]}, "edge": {"target": [], "time": []}}}, "displayed_time": "7.81", "trialTime": 9566, "trial_type": "mouselab-mdp", "trial_index": 11, "time_elapsed": 285538, "internal_node_id": "0.0-2.1-2.1-1.1"}}, {"uniqueid": "w43014207:a45951005", "current_trial": 12, "dateTime": 1664555891884, "trialdata": {"view_history": [{"page_index": 0, "viewing_time": 27585}, {"page_index": 1, "viewing_time": 5250}, {"page_index": 0, "viewing_time": 4449}, {"page_index": 1, "viewing_time": 9921}, {"page_index": 2, "viewing_time": 1818}], "rt": 49025, "trial_id": "mouselab_instructions_2_scarce", "trial_type": "instructions", "trial_index": 12, "time_elapsed": 334573, "internal_node_id": "0.0-2.1-3.1"}}, {"uniqueid": "w43014207:a45951005", "current_trial": 13, "dateTime": 1664555921799, "trialdata": {"rt": 29908, "response": {"Q0": "$-48 to $48", "Q1": "The cost is always $0.25.", "Q2": "The better I perform the higher my bonus will be.", "Q3": "No, the amount of cash at each node of the web may be different each time.", "Q4": "The values of the nodes walked through from start to finish.", "Q5": "No, the spider might forget to count the money on some rounds."}, "question_order": [0, 1, 2, 3, 4, 5], "correct": {"Q0": "$-48 to $48", "Q1": "The cost is always $0.25.", "Q2": "The better I perform the higher my bonus will be.", "Q3": "No, the amount of cash at each node of the web may be different each time.", "Q4": "The values of the nodes walked through from start to finish.", "Q5": "No, the spider might forget to count the money on some rounds."}, "trial_id": "mouselab_quiz_scarce", "trial_type": "survey-multi-choice", "trial_index": 13, "time_elapsed": 364488, "internal_node_id": "0.0-2.1-4.1"}}, {"uniqueid": "w43014207:a45951005", "current_trial": 14, "dateTime": 1664555926116, "trialdata": {"rt": 4301, "stimulus": "\n<h1> Get ready to start the game! </h1>\n\nThank you for reading the instructions. Get ready start with the first of 4 block(s) of this game.\n<br><br>\nIn this first block, you will complete 30 rounds of this game before moving on.\n<br><br>\nRemember, the more money the spider gets, the bigger your bonus will be!\n<br><br>\n<div style='text-align: center;'>Press <code>space</code> to begin.</div>\n\n<br><br>\n(If, at any point, the <code>space</code> key does not take you to the next page, click once on the text and try again.)", "response": " ", "trial_id": "mdp_ready_1", "trial_type": "html-keyboard-response", "trial_index": 14, "time_elapsed": 368805, "internal_node_id": "0.0-4.0-0.0"}}, {"uniqueid": "w43014207:a45951005", "current_trial": 15, "dateTime": 1664555939434, "trialdata": {"revealed_states": [], "num_clicks_accrued": [0, 0, 0, 0, 0, 0, 0, 0, 0, 0, 0, 0, 0], "stateRewards": ["", 4, -4, 48, 24, 2, -8, 24, -48, -2, -4, -48, -48], "withholdReward": true, "trial_id": "mdp_655302318695", "block": "test1", "trialIndex": 4, "score": 22.5, "costs": -0.5, "simulationMode": [null, null, null], "rewards": [2, -8, 24], "path": ["0", "0", "5", "6", "7"], "rt": [4818, 119, 793], "actions": ["right", "right", "up"], "actionTimes": [6644, 7273, 8580], "queries": {"click": {"state": {"target": ["7", "5"], "time": [3425, 5676]}, "edge": {"target": [], "time": []}}, "mouseover": {"state": {"target": ["7", "5"], "time": [2985, 4583]}, "edge": {"target": [], "time": []}}, "mouseout": {"state": {"target": ["0", "0", "7"], "time": [1235, 2639, 4402]}, "edge": {"target": [], "time": []}}}, "displayed_time": "10.83", "trialTime": 13221, "trial_type": "mouselab-mdp", "trial_index": 15, "time_elapsed": 382122, "internal_node_id": "0.0-4.0-1.0-0.0"}}, {"uniqueid": "w43014207:a45951005", "current_trial": 16, "dateTime": 1664555951962, "trialdata": {"revealed_states": [], "num_clicks_accrued": [0, 0, 0, 0, 0, 0, 0, 0, 0, 0, 0, 0, 0], "stateRewards": ["", 2, 4, -48, 24, -4, -4, -24, 24, 2, -4, 24, -24], "withholdReward": true, "trial_id": "mdp_163600331068", "block": "test1", "trialIndex": 5, "score": 34.5, "costs": -0.5, "simulationMode": [null, null, null], "rewards": [2, 4, 24], "path": ["0", "0", "1", "2", "4"], "rt": [3929, 68, 20], "actions": ["up", "up", "left"], "actionTimes": [5827, 6405, 6939], "queries": {"click": {"state": {"target": ["2", "4"], "time": [3368, 4628]}, "edge": {"target": [], "time": []}}, "mouseover": {"state": {"target": ["1", "2", "4"], "time": [2886, 3008, 4140]}, "edge": {"target": [], "time": []}}, "mouseout": {"state": {"target": ["5", "0", "1", "2", "4", "9"], "time": [1304, 1604, 2969, 4105, 8850, 8950]}, "edge": {"target": [], "time": []}}}, "displayed_time": "10.91", "trialTime": 12438, "trial_type": "mouselab-mdp", "trial_index": 16, "time_elapsed": 394650, "internal_node_id": "0.0-4.0-1.0-1.0"}}, {"uniqueid": "w43014207:a45951005", "current_trial": 17, "dateTime": 1664555963712, "trialdata": {"revealed_states": [], "num_clicks_accrued": [0, 0, 0, 0, 0, 0, 0, 0, 0, 0, 0, 0, 0], "stateRewards": ["", 2, -4, 48, -48, -4, -8, -48, 24, -4, 4, 48, 48], "withholdReward": false, "trial_id": "mdp_544803968425", "block": "test1", "trialIndex": 6, "score": 52.75, "costs": -0.25, "simulationMode": [null, null, null], "rewards": [-4, 4, 48], "path": ["0", "0", "9", "10", "12"], "rt": [2566, 62, 62], "actions": ["left", "left", "down"], "actionTimes": [3830, 4408, 4962], "queries": {"click": {"state": {"target": ["12"], "time": [2210]}, "edge": {"target": [], "time": []}}, "mouseover": {"state": {"target": ["0", "12", "10"], "time": [1719, 1814, 2798]}, "edge": {"target": [], "time": []}}, "mouseout": {"state": {"target": ["0", "0", "12", "10"], "time": [947, 1730, 2787, 3348]}, "edge": {"target": [], "time": []}}}, "displayed_time": "10.28", "trialTime": 11670, "trial_type": "mouselab-mdp", "trial_index": 17, "time_elapsed": 406401, "internal_node_id": "0.0-4.0-1.0-2.0"}}, {"uniqueid": "w43014207:a45951005", "current_trial": 18, "dateTime": 1664555976889, "trialdata": {"revealed_states": [], "num_clicks_accrued": [0, 0, 0, 0, 0, 0, 0, 0, 0, 0, 0, 0, 0], "stateRewards": ["", -2, -8, -24, -48, 4, -8, 48, 24, 2, 4, -48, -48], "withholdReward": false, "trial_id": "mdp_898082967464", "block": "test1", "trialIndex": 7, "score": 48.25, "costs": -0.75, "simulationMode": [null, null, null], "rewards": [4, -8, 48], "path": ["0", "0", "5", "6", "7"], "rt": [6022, 28, 204], "actions": ["right", "right", "up"], "actionTimes": [7411, 7960, 8653], "queries": {"click": {"state": {"target": ["8", "4", "12"], "time": [2609, 4392, 6461]}, "edge": {"target": [], "time": []}}, "mouseover": {"state": {"target": ["5", "8", "6", "7", "2", "4", "2", "9", "12"], "time": [1981, 2048, 3252, 3352, 3948, 4133, 5097, 5300, 5362]}, "edge": {"target": [], "time": []}}, "mouseout": {"state": {"target": ["12", "0", "5", "8", "6", "7", "2", "4", "2", "9", "12"], "time": [721, 1965, 1998, 3249, 3281, 3848, 4081, 5081, 5115, 5330, 10714]}, "edge": {"target": [], "time": []}}}, "displayed_time": "9.40", "trialTime": 13098, "trial_type": "mouselab-mdp", "trial_index": 18, "time_elapsed": 419578, "internal_node_id": "0.0-4.0-1.0-3.0"}}, {"uniqueid": "w43014207:a45951005", "current_trial": 19, "dateTime": 1664555988181, "trialdata": {"revealed_states": [], "num_clicks_accrued": [0, 0, 0, 0, 0, 0, 0, 0, 0, 0, 0, 0, 0], "stateRewards": ["", -4, 8, 24, 24, -2, 8, -48, 48, 4, -8, 48, -48], "withholdReward": true, "trial_id": "mdp_295249220524", "block": "test1", "trialIndex": 8, "score": 58, "costs": -1, "simulationMode": [null, null, null], "rewards": [-2, 8, 48], "path": ["0", "0", "5", "6", "8"], "rt": [6273, 60, 1], "actions": ["right", "right", "down"], "actionTimes": [8097, 8662, 9168], "queries": {"click": {"state": {"target": ["7", "12", "4", "8"], "time": [3759, 4961, 5975, 7246]}, "edge": {"target": [], "time": []}}, "mouseover": {"state": {"target": ["7", "5", "0", "12", "4", "1", "5", "8"], "time": [3351, 4351, 4370, 4434, 5617, 6734, 6752, 6800]}, "edge": {"target": [], "time": []}}, "mouseout": {"state": {"target": ["0", "7", "5", "0", "12", "4", "1", "5"], "time": [1467, 4336, 4367, 4384, 5514, 6718, 6750, 6768]}, "edge": {"target": [], "time": []}}}, "displayed_time": "9.83", "trialTime": 11196, "trial_type": "mouselab-mdp", "trial_index": 19, "time_elapsed": 430870, "internal_node_id": "0.0-4.0-1.0-4.0"}}, {"uniqueid": "w43014207:a45951005", "current_trial": 20, "dateTime": 1664556000599, "trialdata": {"revealed_states": [], "num_clicks_accrued": [0, 0, 0, 0, 0, 0, 0, 0, 0, 0, 0, 0, 0], "stateRewards": ["", 2, 8, 48, 24, -4, 4, -48, 24, 2, 8, 48, 48], "withholdReward": true, "trial_id": "mdp_367344599162", "block": "test1", "trialIndex": 9, "score": 62.5, "costs": -0.5, "simulationMode": [null, null, null], "rewards": [2, 8, 48], "path": ["0", "0", "9", "10", "11"], "rt": [3452, 15, 72], "actions": ["left", "left", "up"], "actionTimes": [4972, 5499, 6093], "queries": {"click": {"state": {"target": ["4", "11"], "time": [2688, 4166]}, "edge": {"target": [], "time": []}}, "mouseover": {"state": {"target": ["1", "4", "11", "10", "12", "10", "11"], "time": [2184, 2383, 3264, 3380, 3547, 3765, 3798]}, "edge": {"target": [], "time": []}}, "mouseout": {"state": {"target": ["8", "0", "1", "4", "11", "10", "12", "10", "11"], "time": [966, 1200, 2251, 3181, 3331, 3464, 3733, 3782, 8234]}, "edge": {"target": [], "time": []}}}, "displayed_time": "10.53", "trialTime": 12313, "trial_type": "mouselab-mdp", "trial_index": 20, "time_elapsed": 443287, "internal_node_id": "0.0-4.0-1.0-5.0"}}, {"uniqueid": "w43014207:a45951005", "current_trial": 21, "dateTime": 1664556016321, "trialdata": {"revealed_states": [], "num_clicks_accrued": [0, 0, 0, 0, 0, 0, 0, 0, 0, 0, 0, 0, 0], "stateRewards": ["", -2, -4, 48, 48, 2, 4, -48, 24, 4, -8, 24, -24], "withholdReward": true, "trial_id": "mdp_628613319495", "block": "test1", "trialIndex": 10, "score": 45, "costs": -2, "simulationMode": [null, null, null], "rewards": [-2, -4, 48], "path": ["0", "0", "1", "2", "3"], "rt": [11200, 120, 46], "actions": ["up", "up", "right"], "actionTimes": [12699, 13329, 13887], "queries": {"click": {"state": {"target": ["9", "1", "5", "7", "8", "12", "11", "3"], "time": [3717, 4616, 5441, 6608, 8128, 9415, 10251, 11745]}, "edge": {"target": [], "time": []}}, "mouseover": {"state": {"target": ["9", "1", "5", "7", "6", "8", "12", "10", "11", "3"], "time": [3122, 4352, 5087, 6124, 7590, 7672, 8673, 9872, 9905, 11456]}, "edge": {"target": [], "time": []}}, "mouseout": {"state": {"target": ["9", "0", "9", "1", "5", "7", "6", "8", "12", "10", "11"], "time": [1070, 3023, 4189, 5021, 6056, 7573, 7623, 8590, 9856, 9889, 11210]}, "edge": {"target": [], "time": []}}}, "displayed_time": "14.41", "trialTime": 15626, "trial_type": "mouselab-mdp", "trial_index": 21, "time_elapsed": 459010, "internal_node_id": "0.0-4.0-1.0-6.0"}}, {"uniqueid": "w43014207:a45951005", "current_trial": 22, "dateTime": 1664556026923, "trialdata": {"revealed_states": [], "num_clicks_accrued": [0, 0, 0, 0, 0, 0, 0, 0, 0, 0, 0, 0, 0], "stateRewards": ["", 2, 8, -48, 48, -4, -8, 24, 24, -2, -8, 24, -24], "withholdReward": false, "trial_id": "mdp_910248289075", "block": "test1", "trialIndex": 11, "score": 62.25, "costs": -0.75, "simulationMode": [null, null, null], "rewards": [2, 8, 48], "path": ["0", "0", "1", "2", "4"], "rt": [4160, 552, 108], "actions": ["up", "up", "left"], "actionTimes": [5390, 6431, 7053], "queries": {"click": {"state": {"target": ["4", "2", "1"], "time": [2190, 3750, 4812]}, "edge": {"target": [], "time": []}}, "mouseover": {"state": {"target": ["4", "2", "1", "1"], "time": [1861, 3492, 4111, 4516]}, "edge": {"target": [], "time": []}}, "mouseout": {"state": {"target": ["3", "1", "0", "4", "2", "1"], "time": [598, 645, 1761, 3448, 4078, 4264]}, "edge": {"target": [], "time": []}}}, "displayed_time": "9.25", "trialTime": 10502, "trial_type": "mouselab-mdp", "trial_index": 22, "time_elapsed": 469612, "internal_node_id": "0.0-4.0-1.0-7.0"}}, {"uniqueid": "w43014207:a45951005", "current_trial": 23, "dateTime": 1664556037966, "trialdata": {"revealed_states": [], "num_clicks_accrued": [0, 0, 0, 0, 0, 0, 0, 0, 0, 0, 0, 0, 0], "stateRewards": ["", -2, 8, 48, 24, 2, -4, 48, -48, 2, 8, 24, -24], "withholdReward": true, "trial_id": "mdp_176207245985", "block": "test1", "trialIndex": 12, "score": 58.25, "costs": -0.75, "simulationMode": [null, null, null], "rewards": [-2, 8, 48], "path": ["0", "0", "1", "2", "3"], "rt": [3659, 77, 439], "actions": ["up", "up", "right"], "actionTimes": [4802, 5385, 6331], "queries": {"click": {"state": {"target": ["3", "1", "2"], "time": [2189, 3258, 4092]}, "edge": {"target": [], "time": []}}, "mouseover": {"state": {"target": ["1", "3", "3", "2", "1", "2"], "time": [1595, 1790, 1940, 2772, 2822, 3822]}, "edge": {"target": [], "time": []}}, "mouseout": {"state": {"target": ["1", "0", "1", "3", "3", "2", "1"], "time": [572, 839, 1724, 1858, 2738, 2788, 3757]}, "edge": {"target": [], "time": []}}}, "displayed_time": "9.15", "trialTime": 10992, "trial_type": "mouselab-mdp", "trial_index": 23, "time_elapsed": 480655, "internal_node_id": "0.0-4.0-1.0-8.0"}}, {"uniqueid": "w43014207:a45951005", "current_trial": 24, "dateTime": 1664556049137, "trialdata": {"revealed_states": [], "num_clicks_accrued": [0, 0, 0, 0, 0, 0, 0, 0, 0, 0, 0, 0, 0], "stateRewards": ["", 2, 4, 48, 48, 4, -8, 24, -48, -4, -8, -24, -48], "withholdReward": true, "trial_id": "mdp_343818007251", "block": "test1", "trialIndex": 13, "score": 58.25, "costs": -0.75, "simulationMode": [null, null, null], "rewards": [2, 4, 48], "path": ["0", "0", "1", "2", "4"], "rt": [6128, 165, 267], "actions": ["up", "up", "left"], "actionTimes": [7692, 8355, 9140], "queries": {"click": {"state": {"target": ["4", "1", "8"], "time": [2870, 4796, 6594]}, "edge": {"target": [], "time": []}}, "mouseover": {"state": {"target": ["4", "1", "2", "8", "5", "2"], "time": [2439, 3905, 5669, 6305, 7082, 7137]}, "edge": {"target": [], "time": []}}, "mouseout": {"state": {"target": ["2", "1", "4", "1", "2", "8", "5"], "time": [604, 738, 3655, 5419, 5719, 7080, 7089]}, "edge": {"target": [], "time": []}}}, "displayed_time": "10.57", "trialTime": 11096, "trial_type": "mouselab-mdp", "trial_index": 24, "time_elapsed": 491826, "internal_node_id": "0.0-4.0-1.0-9.0"}}, {"uniqueid": "w43014207:a45951005", "current_trial": 25, "dateTime": 1664556061204, "trialdata": {"revealed_states": [], "num_clicks_accrued": [0, 0, 0, 0, 0, 0, 0, 0, 0, 0, 0, 0, 0], "stateRewards": ["", -2, 4, 24, 48, 2, 4, -48, -48, -2, 8, 48, -24], "withholdReward": false, "trial_id": "mdp_305701202606", "block": "test1", "trialIndex": 14, "score": 58, "costs": -1, "simulationMode": [null, null, null], "rewards": [-2, 8, 48], "path": ["0", "0", "9", "10", "11"], "rt": [5341, 134, 73], "actions": ["left", "left", "up"], "actionTimes": [7562, 8209, 8800], "queries": {"click": {"state": {"target": ["3", "11", "9", "10"], "time": [3269, 4791, 5944, 6723]}, "edge": {"target": [], "time": []}}, "mouseover": {"state": {"target": ["1", "2", "3", "3", "2", "4", "11", "9", "10"], "time": [2675, 2795, 2841, 3008, 3825, 3957, 4157, 5588, 6472]}, "edge": {"target": [], "time": []}}, "mouseout": {"state": {"target": ["2", "0", "1", "2", "3", "3", "2", "4", "11", "9"], "time": [958, 2637, 2707, 2825, 2875, 3795, 3907, 4024, 5424, 6406]}, "edge": {"target": [], "time": []}}}, "displayed_time": "11.22", "trialTime": 11966, "trial_type": "mouselab-mdp", "trial_index": 25, "time_elapsed": 503892, "internal_node_id": "0.0-4.0-1.0-10.0"}}, {"uniqueid": "w43014207:a45951005", "current_trial": 26, "dateTime": 1664556070890, "trialdata": {"revealed_states": [], "num_clicks_accrued": [0, 0, 0, 0, 0, 0, 0, 0, 0, 0, 0, 0, 0], "stateRewards": ["", 4, 4, 24, 24, 4, -4, 48, 48, 4, 4, 24, -48], "withholdReward": false, "trial_id": "mdp_454251689008", "block": "test1", "trialIndex": 15, "score": 52.25, "costs": -0.75, "simulationMode": [null, null, null], "rewards": [4, -4, 48], "path": ["0", "0", "5", "6", "8"], "rt": [4423, 532, 135], "actions": ["right", "right", "down"], "actionTimes": [6127, 7172, 7821], "queries": {"click": {"state": {"target": ["4", "8", "5"], "time": [2727, 3903, 5598]}, "edge": {"target": [], "time": []}}, "mouseover": {"state": {"target": ["1", "4", "1", "5", "8", "5", "6", "5"], "time": [2235, 2435, 3282, 3333, 3601, 4653, 4723, 5320]}, "edge": {"target": [], "time": []}}, "mouseout": {"state": {"target": ["10", "9", "0", "1", "4", "1", "5", "8", "5", "6"], "time": [841, 899, 2186, 2285, 3252, 3299, 3350, 4520, 4670, 5287]}, "edge": {"target": [], "time": []}}}, "displayed_time": "8.71", "trialTime": 9581, "trial_type": "mouselab-mdp", "trial_index": 26, "time_elapsed": 513578, "internal_node_id": "0.0-4.0-1.0-11.0"}}, {"uniqueid": "w43014207:a45951005", "current_trial": 27, "dateTime": 1664556082689, "trialdata": {"revealed_states": [], "num_clicks_accrued": [0, 0, 0, 0, 0, 0, 0, 0, 0, 0, 0, 0, 0], "stateRewards": ["", -4, 4, -48, -48, -4, 8, -24, 24, 2, -4, 48, 48], "withholdReward": false, "trial_id": "mdp_821566905048", "block": "test1", "trialIndex": 16, "score": 50, "costs": -1, "simulationMode": [null, null, null], "rewards": [2, -4, 48], "path": ["0", "0", "9", "10", "12"], "rt": [4982, 102, 55], "actions": ["left", "left", "down"], "actionTimes": [6445, 7058, 7632], "queries": {"click": {"state": {"target": ["7", "12", "10", "9"], "time": [2356, 3455, 4535, 5948]}, "edge": {"target": [], "time": []}}, "mouseover": {"state": {"target": ["5", "7", "0", "9", "12", "10", "9"], "time": [1887, 2005, 2955, 2991, 3139, 4022, 5651]}, "edge": {"target": [], "time": []}}, "mouseout": {"state": {"target": ["5", "0", "5", "7", "0", "9", "12", "10"], "time": [742, 1871, 1921, 2891, 2971, 3021, 3941, 5535]}, "edge": {"target": [], "time": []}}}, "displayed_time": "10.47", "trialTime": 11649, "trial_type": "mouselab-mdp", "trial_index": 27, "time_elapsed": 525378, "internal_node_id": "0.0-4.0-1.0-12.0"}}, {"uniqueid": "w43014207:a45951005", "current_trial": 28, "dateTime": 1664556104328, "trialdata": {"revealed_states": [], "num_clicks_accrued": [0, 0, 0, 0, 0, 0, 0, 0, 0, 0, 0, 0, 0], "stateRewards": ["", -2, -8, -24, 48, -2, -8, -48, -48, 2, -8, -48, 24], "withholdReward": true, "trial_id": "mdp_288324580942", "block": "test1", "trialIndex": 17, "score": 40.75, "costs": -2.25, "simulationMode": [null, null, null], "rewards": [-2, -8, 48], "path": ["0", "0", "1", "2", "4"], "rt": [14159, 103, 286], "actions": ["up", "up", "left"], "actionTimes": [17068, 17686, 18485], "queries": {"click": {"state": {"target": ["4", "2", "1", "11", "7", "8", "12", "10", "9"], "time": [4615, 7726, 8577, 10706, 12381, 13306, 14334, 15861, 16539]}, "edge": {"target": [], "time": []}}, "mouseover": {"state": {"target": ["1", "2", "4", "1", "11", "10", "12", "10", "11", "1", "2", "1", "11", "7", "6", "8", "12", "10", "9"], "time": [3554, 3820, 4220, 5469, 6753, 6819, 6886, 7053, 7087, 7237, 7387, 8292, 10403, 11604, 12802, 12869, 13990, 15305, 16202]}, "edge": {"target": [], "time": []}}, "mouseout": {"state": {"target": ["9", "0", "1", "2", "4", "1", "11", "10", "12", "10", "11", "1", "2", "1", "11", "7", "6", "8", "12", "10"], "time": [2153, 2519, 3620, 4170, 5305, 6437, 6805, 6853, 7036, 7070, 7120, 7253, 8184, 9971, 11225, 12786, 12837, 13703, 15269, 16186]}, "edge": {"target": [], "time": []}}}, "displayed_time": "19.00", "trialTime": 21589, "trial_type": "mouselab-mdp", "trial_index": 28, "time_elapsed": 547017, "internal_node_id": "0.0-4.0-1.0-13.0"}}, {"uniqueid": "w43014207:a45951005", "current_trial": 29, "dateTime": 1664556115999, "trialdata": {"revealed_states": [], "num_clicks_accrued": [0, 0, 0, 0, 0, 0, 0, 0, 0, 0, 0, 0, 0], "stateRewards": ["", 2, 4, -24, -48, 4, -4, 24, 48, -4, -4, -24, 48], "withholdReward": true, "trial_id": "mdp_181958792175", "block": "test1", "trialIndex": 18, "score": 52.25, "costs": -0.75, "simulationMode": [null, null, null], "rewards": [4, -4, 48], "path": ["0", "0", "5", "6", "8"], "rt": [3821, 110, 31], "actions": ["right", "right", "down"], "actionTimes": [5543, 6161, 6714], "queries": {"click": {"state": {"target": ["4", "8", "5"], "time": [2585, 3637, 4791]}, "edge": {"target": [], "time": []}}, "mouseover": {"state": {"target": ["4", "6", "8", "6", "7", "5"], "time": [2164, 3097, 3316, 3999, 4199, 4417]}, "edge": {"target": [], "time": []}}, "mouseout": {"state": {"target": ["9", "0", "4", "6", "8", "6", "7"], "time": [1032, 1382, 3014, 3181, 3983, 4049, 4349]}, "edge": {"target": [], "time": []}}}, "displayed_time": "10.73", "trialTime": 11591, "trial_type": "mouselab-mdp", "trial_index": 29, "time_elapsed": 558687, "internal_node_id": "0.0-4.0-1.0-14.0"}}, {"uniqueid": "w43014207:a45951005", "current_trial": 30, "dateTime": 1664556125801, "trialdata": {"revealed_states": [], "num_clicks_accrued": [0, 0, 0, 0, 0, 0, 0, 0, 0, 0, 0, 0, 0], "stateRewards": ["", 2, 4, -48, -48, 2, 4, 48, -24, -2, 8, 48, -48], "withholdReward": true, "trial_id": "mdp_258528916140", "block": "test1", "trialIndex": 19, "score": 58.25, "costs": -0.75, "simulationMode": [null, null, null], "rewards": [-2, 8, 48], "path": ["0", "0", "9", "10", "11"], "rt": [4151, 114, 100], "actions": ["left", "left", "up"], "actionTimes": [5144, 5767, 6372], "queries": {"click": {"state": {"target": ["3", "11", "10"], "time": [1876, 3034, 4186]}, "edge": {"target": [], "time": []}}, "mouseover": {"state": {"target": ["1", "3", "11", "9", "9", "10", "9"], "time": [1317, 1620, 2766, 3504, 3752, 3936, 4535]}, "edge": {"target": [], "time": []}}, "mouseout": {"state": {"target": ["5", "0", "1", "3", "11", "9", "9", "10"], "time": [551, 1290, 1368, 2270, 3468, 3669, 3885, 4502]}, "edge": {"target": [], "time": []}}}, "displayed_time": "9.00", "trialTime": 9698, "trial_type": "mouselab-mdp", "trial_index": 30, "time_elapsed": 568490, "internal_node_id": "0.0-4.0-1.0-15.0"}}, {"uniqueid": "w43014207:a45951005", "current_trial": 31, "dateTime": 1664556136384, "trialdata": {"revealed_states": [], "num_clicks_accrued": [0, 0, 0, 0, 0, 0, 0, 0, 0, 0, 0, 0, 0], "stateRewards": ["", -2, 4, 48, -24, 2, 8, 24, 48, 2, 4, -24, -48], "withholdReward": false, "trial_id": "mdp_892412058587", "block": "test1", "trialIndex": 20, "score": 62.5, "costs": -0.5, "simulationMode": [null, null, null], "rewards": [2, 8, 48], "path": ["0", "0", "5", "6", "8"], "rt": [3469, 31, 175], "actions": ["right", "right", "down"], "actionTimes": [4785, 5329, 6038], "queries": {"click": {"state": {"target": ["4", "8"], "time": [2347, 3389]}, "edge": {"target": [], "time": []}}, "mouseover": {"state": {"target": ["1", "4", "1", "5", "8", "6", "5"], "time": [1795, 2064, 2729, 2762, 2794, 3793, 4110]}, "edge": {"target": [], "time": []}}, "mouseout": {"state": {"target": ["9", "0", "1", "4", "1", "5", "8", "6", "5"], "time": [611, 1761, 1845, 2718, 2745, 2779, 3777, 3827, 4360]}, "edge": {"target": [], "time": []}}}, "displayed_time": "9.33", "trialTime": 10528, "trial_type": "mouselab-mdp", "trial_index": 31, "time_elapsed": 579073, "internal_node_id": "0.0-4.0-1.0-16.0"}}, {"uniqueid": "w43014207:a45951005", "current_trial": 32, "dateTime": 1664556147056, "trialdata": {"revealed_states": [], "num_clicks_accrued": [0, 0, 0, 0, 0, 0, 0, 0, 0, 0, 0, 0, 0], "stateRewards": ["", -2, 4, -48, -48, -4, -8, 48, -48, 2, 4, 48, -48], "withholdReward": true, "trial_id": "mdp_258647270500", "block": "test1", "trialIndex": 21, "score": 40.75, "costs": -0.25, "simulationMode": [null, null, null], "rewards": [-4, -8, 48], "path": ["0", "0", "5", "6", "7"], "rt": [2097, 54, 993], "actions": ["right", "right", "up"], "actionTimes": [3670, 4243, 5747], "queries": {"click": {"state": {"target": ["7"], "time": [2287]}, "edge": {"target": [], "time": []}}, "mouseover": {"state": {"target": ["7", "0", "5", "6", "6"], "time": [1955, 2739, 2922, 3186, 3354]}, "edge": {"target": [], "time": []}}, "mouseout": {"state": {"target": ["12", "0", "7", "0", "5", "6", "6"], "time": [804, 1271, 2689, 2755, 3170, 3270, 3370]}, "edge": {"target": [], "time": []}}}, "displayed_time": "9.57", "trialTime": 10578, "trial_type": "mouselab-mdp", "trial_index": 32, "time_elapsed": 589745, "internal_node_id": "0.0-4.0-1.0-17.0"}}, {"uniqueid": "w43014207:a45951005", "current_trial": 33, "dateTime": 1664556159467, "trialdata": {"revealed_states": [], "num_clicks_accrued": [0, 0, 0, 0, 0, 0, 0, 0, 0, 0, 0, 0, 0], "stateRewards": ["", 4, -8, 48, 24, 4, -4, 48, 48, -4, 8, -48, 24], "withholdReward": true, "trial_id": "mdp_303828806348", "block": "test1", "trialIndex": 22, "score": 48.25, "costs": -0.75, "simulationMode": [null, null, null], "rewards": [4, -8, 48], "path": ["0", "0", "1", "2", "3"], "rt": [3769, 148, 62], "actions": ["up", "up", "right"], "actionTimes": [5246, 5909, 6473], "queries": {"click": {"state": {"target": ["3", "1", "2"], "time": [2410, 3504, 4215]}, "edge": {"target": [], "time": []}}, "mouseover": {"state": {"target": ["1", "3", "10", "1", "2"], "time": [1860, 1976, 2975, 3109, 3943]}, "edge": {"target": [], "time": []}}, "mouseout": {"state": {"target": ["0", "1", "3", "10", "1", "2", "1", "0"], "time": [1159, 1876, 2810, 3026, 3810, 7576, 7643, 7710]}, "edge": {"target": [], "time": []}}}, "displayed_time": "10.48", "trialTime": 12361, "trial_type": "mouselab-mdp", "trial_index": 33, "time_elapsed": 602156, "internal_node_id": "0.0-4.0-1.0-18.0"}}, {"uniqueid": "w43014207:a45951005", "current_trial": 34, "dateTime": 1664556171896, "trialdata": {"revealed_states": [], "num_clicks_accrued": [0, 0, 0, 0, 0, 0, 0, 0, 0, 0, 0, 0, 0], "stateRewards": ["", -2, -8, 48, 24, 2, 4, 24, -24, -2, -4, 48, -48], "withholdReward": true, "trial_id": "mdp_411152402386", "block": "test1", "trialIndex": 23, "score": 46.75, "costs": -0.25, "simulationMode": [null, null, null], "rewards": [-2, -4, 48], "path": ["0", "0", "9", "10", "11"], "rt": [2622, 71, 55], "actions": ["left", "left", "up"], "actionTimes": [3901, 4479, 5054], "queries": {"click": {"state": {"target": ["11"], "time": [2212]}, "edge": {"target": [], "time": []}}, "mouseover": {"state": {"target": ["9", "11", "5", "0", "9", "10", "9", "0"], "time": [1706, 1923, 2760, 2925, 2974, 3208, 3361, 3431]}, "edge": {"target": [], "time": []}}, "mouseout": {"state": {"target": ["0", "0", "9", "11", "5", "0", "9", "10", "9", "0"], "time": [741, 1673, 1723, 2661, 2792, 2959, 3075, 3326, 3392, 6246]}, "edge": {"target": [], "time": []}}}, "displayed_time": "10.29", "trialTime": 12323, "trial_type": "mouselab-mdp", "trial_index": 34, "time_elapsed": 614585, "internal_node_id": "0.0-4.0-1.0-19.0"}}, {"uniqueid": "w43014207:a45951005", "current_trial": 35, "dateTime": 1664556182619, "trialdata": {"revealed_states": [], "num_clicks_accrued": [0, 0, 0, 0, 0, 0, 0, 0, 0, 0, 0, 0, 0], "stateRewards": ["", -2, 8, -48, 48, -4, -8, 24, 24, -2, -4, 48, -48], "withholdReward": true, "trial_id": "mdp_867247318592", "block": "test1", "trialIndex": 24, "score": 58.25, "costs": -0.75, "simulationMode": [null, null, null], "rewards": [-2, 8, 48], "path": ["0", "0", "1", "2", "4"], "rt": [3031, 31, 19], "actions": ["up", "up", "left"], "actionTimes": [4410, 4942, 5481], "queries": {"click": {"state": {"target": ["4", "2", "1"], "time": [2308, 3205, 3934]}, "edge": {"target": [], "time": []}}, "mouseover": {"state": {"target": ["4", "2", "1"], "time": [2027, 2892, 3558]}, "edge": {"target": [], "time": []}}, "mouseout": {"state": {"target": ["0", "4", "2"], "time": [1810, 2843, 3523]}, "edge": {"target": [], "time": []}}}, "displayed_time": "9.38", "trialTime": 10633, "trial_type": "mouselab-mdp", "trial_index": 35, "time_elapsed": 625308, "internal_node_id": "0.0-4.0-1.0-20.0"}}, {"uniqueid": "w43014207:a45951005", "current_trial": 36, "dateTime": 1664556193653, "trialdata": {"revealed_states": [], "num_clicks_accrued": [0, 0, 0, 0, 0, 0, 0, 0, 0, 0, 0, 0, 0], "stateRewards": ["", -2, 8, -48, -24, -2, 8, 48, -48, -4, 8, 24, 48], "withholdReward": true, "trial_id": "mdp_160707003673", "block": "test1", "trialIndex": 25, "score": 56.25, "costs": -0.75, "simulationMode": [null, null, null], "rewards": [-4, 8, 48], "path": ["0", "0", "9", "10", "12"], "rt": [3331, 32, 67], "actions": ["left", "left", "down"], "actionTimes": [4447, 5000, 5603], "queries": {"click": {"state": {"target": ["3", "12", "10"], "time": [1909, 2868, 4009]}, "edge": {"target": [], "time": []}}, "mouseover": {"state": {"target": ["3", "1", "9", "12", "10"], "time": [1550, 2381, 2431, 2534, 3616]}, "edge": {"target": [], "time": []}}, "mouseout": {"state": {"target": ["1", "3", "1", "9", "12"], "time": [616, 2349, 2398, 2483, 3315]}, "edge": {"target": [], "time": []}}}, "displayed_time": "9.12", "trialTime": 10974, "trial_type": "mouselab-mdp", "trial_index": 36, "time_elapsed": 636341, "internal_node_id": "0.0-4.0-1.0-21.0"}}, {"uniqueid": "w43014207:a45951005", "current_trial": 37, "dateTime": 1664556213125, "trialdata": {"revealed_states": [], "num_clicks_accrued": [0, 0, 0, 0, 0, 0, 0, 0, 0, 0, 0, 0, 0], "stateRewards": ["", 2, 4, 48, -24, 2, -8, -24, -24, 2, -8, -24, -48], "withholdReward": true, "trial_id": "mdp_274832552938", "block": "test1", "trialIndex": 26, "score": 56.75, "costs": -2.25, "simulationMode": [null, null, null], "rewards": [2, 4, 48], "path": ["0", "0", "1", "2", "3"], "rt": [12732, 102, 69], "actions": ["up", "up", "right"], "actionTimes": [14038, 14657, 15240], "queries": {"click": {"state": {"target": ["4", "8", "7", "11", "12", "2", "10", "6", "3"], "time": [2233, 3124, 4050, 5093, 5904, 7962, 9952, 12034, 13290]}, "edge": {"target": [], "time": []}}, "mouseover": {"state": {"target": ["1", "4", "5", "8", "6", "7", "1", "11", "10", "12", "0", "9", "10", "1", "2", "10", "9", "0", "5", "6", "3"], "time": [1688, 2037, 2702, 2735, 3585, 3753, 4570, 4788, 5485, 5618, 6653, 6753, 7236, 7520, 7690, 9583, 11002, 11035, 11085, 11753, 12783]}, "edge": {"target": [], "time": []}}, "mouseout": {"state": {"target": ["10", "9", "0", "1", "4", "5", "8", "6", "7", "1", "11", "10", "12", "0", "9", "10", "1", "2", "10", "9", "0", "5", "6"], "time": [725, 770, 986, 1720, 2662, 2718, 3556, 3621, 4436, 4604, 5468, 5534, 6553, 6703, 7203, 7453, 7570, 9368, 10990, 11019, 11052, 11719, 12419]}, "edge": {"target": [], "time": []}}}, "displayed_time": "15.75", "trialTime": 19368, "trial_type": "mouselab-mdp", "trial_index": 37, "time_elapsed": 655813, "internal_node_id": "0.0-4.0-1.0-22.0"}}, {"uniqueid": "w43014207:a45951005", "current_trial": 38, "dateTime": 1664556224476, "trialdata": {"revealed_states": [], "num_clicks_accrued": [0, 0, 0, 0, 0, 0, 0, 0, 0, 0, 0, 0, 0], "stateRewards": ["", -2, 8, -24, 48, -4, 4, -48, 24, 4, -8, 48, -24], "withholdReward": true, "trial_id": "mdp_425320427962", "block": "test1", "trialIndex": 27, "score": 48, "costs": -1, "simulationMode": [null, null, null], "rewards": [4, -8, 48], "path": ["0", "0", "9", "10", "11"], "rt": [5661, 14, 8], "actions": ["left", "left", "up"], "actionTimes": [7145, 7675, 8203], "queries": {"click": {"state": {"target": ["1", "3", "7", "11"], "time": [2372, 3745, 4978, 6268]}, "edge": {"target": [], "time": []}}, "mouseover": {"state": {"target": ["1", "9", "2", "3", "6", "7", "4", "11"], "time": [1944, 2894, 3228, 3494, 4491, 4658, 5826, 5910]}, "edge": {"target": [], "time": []}}, "mouseout": {"state": {"target": ["3", "1", "0", "1", "9", "1", "2", "3", "6", "7", "4"], "time": [644, 693, 1901, 2828, 3177, 3211, 3244, 4391, 4608, 5410, 5851]}, "edge": {"target": [], "time": []}}}, "displayed_time": "10.49", "trialTime": 11213, "trial_type": "mouselab-mdp", "trial_index": 38, "time_elapsed": 667165, "internal_node_id": "0.0-4.0-1.0-23.0"}}, {"uniqueid": "w43014207:a45951005", "current_trial": 39, "dateTime": 1664556236605, "trialdata": {"revealed_states": [], "num_clicks_accrued": [0, 0, 0, 0, 0, 0, 0, 0, 0, 0, 0, 0, 0], "stateRewards": ["", -4, -4, -24, 24, -4, 4, -24, 48, -2, 4, 48, -48], "withholdReward": true, "trial_id": "mdp_774757609669", "block": "test1", "trialIndex": 28, "score": 53.75, "costs": -1.25, "simulationMode": [null, null, null], "rewards": [-2, 4, 48], "path": ["0", "0", "9", "10", "11"], "rt": [6951, 383, 304], "actions": ["left", "left", "up"], "actionTimes": [8551, 9452, 10274], "queries": {"click": {"state": {"target": ["4", "12", "7", "3", "11"], "time": [2887, 3870, 5003, 6173, 7578]}, "edge": {"target": [], "time": []}}, "mouseover": {"state": {"target": ["4", "9", "12", "8", "7", "3", "2", "11"], "time": [2619, 3385, 3486, 4368, 4701, 5667, 6651, 6916]}, "edge": {"target": [], "time": []}}, "mouseout": {"state": {"target": ["11", "9", "4", "9", "12", "8", "7", "3", "2"], "time": [566, 818, 3316, 3401, 4271, 4434, 5487, 6635, 6667]}, "edge": {"target": [], "time": []}}}, "displayed_time": "11.60", "trialTime": 12051, "trial_type": "mouselab-mdp", "trial_index": 39, "time_elapsed": 679294, "internal_node_id": "0.0-4.0-1.0-24.0"}}, {"uniqueid": "w43014207:a45951005", "current_trial": 40, "dateTime": 1664556250570, "trialdata": {"revealed_states": [], "num_clicks_accrued": [0, 0, 0, 0, 0, 0, 0, 0, 0, 0, 0, 0, 0], "stateRewards": ["", -4, 8, 24, -24, 4, 8, -24, -48, 2, 4, 24, -24], "withholdReward": true, "trial_id": "mdp_782187007008", "block": "test1", "trialIndex": 29, "score": 33.5, "costs": -1.5, "simulationMode": [null, null, null], "rewards": [2, 4, 24], "path": ["0", "0", "9", "10", "11"], "rt": [6624, 833, 2038], "actions": ["left", "left", "up"], "actionTimes": [8571, 9905, 12460], "queries": {"click": {"state": {"target": ["4", "7", "8", "3", "11", "12"], "time": [2964, 3908, 5095, 6162, 7142, 7981]}, "edge": {"target": [], "time": []}}, "mouseover": {"state": {"target": ["1", "4", "7", "6", "8", "8", "6", "3", "2", "11", "10", "12"], "time": [2365, 2610, 3493, 4411, 4477, 4794, 5627, 5827, 6542, 6844, 7460, 7526]}, "edge": {"target": [], "time": []}}, "mouseout": {"state": {"target": ["11", "0", "5", "0", "1", "4", "7", "6", "8", "8", "6", "3", "2", "11", "10", "12"], "time": [1231, 1359, 1410, 1594, 2408, 3393, 4377, 4444, 4644, 5611, 5643, 6513, 6559, 7447, 7509, 13539]}, "edge": {"target": [], "time": []}}}, "displayed_time": "12.97", "trialTime": 13842, "trial_type": "mouselab-mdp", "trial_index": 40, "time_elapsed": 693259, "internal_node_id": "0.0-4.0-1.0-25.0"}}, {"uniqueid": "w43014207:a45951005", "current_trial": 41, "dateTime": 1664556261189, "trialdata": {"revealed_states": [], "num_clicks_accrued": [0, 0, 0, 0, 0, 0, 0, 0, 0, 0, 0, 0, 0], "stateRewards": ["", 2, 8, 24, 24, 2, -8, -24, -48, 2, 8, -48, 48], "withholdReward": false, "trial_id": "mdp_745175888812", "block": "test1", "trialIndex": 30, "score": 61.5, "costs": -1.5, "simulationMode": [null, null, null], "rewards": [2, 8, 48], "path": ["0", "0", "9", "10", "12"], "rt": [7017, 48, 62], "actions": ["left", "left", "down"], "actionTimes": [8332, 8897, 9491], "queries": {"click": {"state": {"target": ["11", "3", "4", "7", "8", "12"], "time": [2070, 3263, 4454, 5575, 6484, 7484]}, "edge": {"target": [], "time": []}}, "mouseover": {"state": {"target": ["9", "11", "1", "3", "2", "4", "1", "7", "7", "6", "8", "12"], "time": [1619, 1716, 2630, 2950, 3966, 4066, 4949, 5032, 5230, 6083, 6182, 7016]}, "edge": {"target": [], "time": []}}, "mouseout": {"state": {"target": ["0", "9", "11", "1", "3", "2", "4", "1", "7", "7", "6", "8"], "time": [1617, 1650, 2564, 2664, 3949, 4016, 4897, 4983, 5080, 6048, 6132, 6831]}, "edge": {"target": [], "time": []}}}, "displayed_time": "9.98", "trialTime": 10488, "trial_type": "mouselab-mdp", "trial_index": 41, "time_elapsed": 703877, "internal_node_id": "0.0-4.0-1.0-26.0"}}, {"uniqueid": "w43014207:a45951005", "current_trial": 42, "dateTime": 1664556273440, "trialdata": {"revealed_states": [], "num_clicks_accrued": [0, 0, 0, 0, 0, 0, 0, 0, 0, 0, 0, 0, 0], "stateRewards": ["", 4, 4, 48, -48, 4, 4, -48, 24, 2, 8, 24, -48], "withholdReward": true, "trial_id": "mdp_291674656283", "block": "test1", "trialIndex": 31, "score": 60, "costs": -1, "simulationMode": [null, null, null], "rewards": [4, 4, 48], "path": ["0", "0", "1", "2", "3"], "rt": [4832, 56, 43], "actions": ["up", "up", "right"], "actionTimes": [7402, 7972, 8538], "queries": {"click": {"state": {"target": ["4", "12", "7", "3"], "time": [3273, 4423, 5364, 6136]}, "edge": {"target": [], "time": []}}, "mouseover": {"state": {"target": ["4", "11", "10", "12", "12", "0", "7", "3"], "time": [2919, 3847, 3879, 3948, 4145, 4848, 4948, 5812]}, "edge": {"target": [], "time": []}}, "mouseout": {"state": {"target": ["12", "4", "11", "10", "12", "12", "0", "7", "3"], "time": [749, 3798, 3863, 3913, 4014, 4818, 4864, 5762, 6549]}, "edge": {"target": [], "time": []}}}, "displayed_time": "11.58", "trialTime": 12123, "trial_type": "mouselab-mdp", "trial_index": 42, "time_elapsed": 716129, "internal_node_id": "0.0-4.0-1.0-27.0"}}, {"uniqueid": "w43014207:a45951005", "current_trial": 43, "dateTime": 1664556284566, "trialdata": {"revealed_states": [], "num_clicks_accrued": [0, 0, 0, 0, 0, 0, 0, 0, 0, 0, 0, 0, 0], "stateRewards": ["", -4, -8, 48, -24, 4, -8, 48, 48, -2, 4, -48, -24], "withholdReward": true, "trial_id": "mdp_925905402462", "block": "test1", "trialIndex": 32, "score": 40.5, "costs": -0.5, "simulationMode": [null, null, null], "rewards": [-4, -8, 48], "path": ["0", "0", "1", "2", "3"], "rt": [2628, 79, 68], "actions": ["up", "up", "right"], "actionTimes": [3835, 4414, 5003], "queries": {"click": {"state": {"target": ["4", "3"], "time": [2127, 2957]}, "edge": {"target": [], "time": []}}, "mouseover": {"state": {"target": ["4", "2", "3", "7", "7"], "time": [1716, 2548, 2616, 3348, 3497]}, "edge": {"target": [], "time": []}}, "mouseout": {"state": {"target": ["5", "0", "4", "2", "3", "7"], "time": [680, 814, 2547, 2598, 3316, 3414]}, "edge": {"target": [], "time": []}}}, "displayed_time": "10.21", "trialTime": 11019, "trial_type": "mouselab-mdp", "trial_index": 43, "time_elapsed": 727255, "internal_node_id": "0.0-4.0-1.0-28.0"}}, {"uniqueid": "w43014207:a45951005", "current_trial": 44, "dateTime": 1664556295440, "trialdata": {"revealed_states": [], "num_clicks_accrued": [0, 0, 0, 0, 0, 0, 0, 0, 0, 0, 0, 0, 0], "stateRewards": ["", -2, -8, 48, 24, -2, 8, -48, -24, -2, 4, -48, 48], "withholdReward": true, "trial_id": "mdp_295220852217", "block": "test1", "trialIndex": 33, "score": 54.25, "costs": -0.75, "simulationMode": [null, null, null], "rewards": [-2, 4, 48], "path": ["0", "0", "9", "10", "12"], "rt": [4591, 95, 24], "actions": ["left", "left", "down"], "actionTimes": [5834, 6432, 6966], "queries": {"click": {"state": {"target": ["11", "8", "12"], "time": [2517, 3753, 4792]}, "edge": {"target": [], "time": []}}, "mouseover": {"state": {"target": ["5", "9", "11", "10", "8", "8", "12", "4", "2"], "time": [1690, 2106, 2259, 3021, 3172, 3471, 4372, 5238, 5338]}, "edge": {"target": [], "time": []}}, "mouseout": {"state": {"target": ["7", "5", "9", "11", "10", "8", "8", "12", "4", "2"], "time": [589, 1739, 2122, 2987, 3072, 3206, 4216, 5138, 5255, 5389]}, "edge": {"target": [], "time": []}}}, "displayed_time": "10.25", "trialTime": 10784, "trial_type": "mouselab-mdp", "trial_index": 44, "time_elapsed": 738129, "internal_node_id": "0.0-4.0-1.0-29.0"}}, {"uniqueid": "w43014207:a45951005", "current_trial": 45, "dateTime": 1664556300809, "trialdata": {"rt": 5364, "stimulus": "<h1> End of block! </h1>\n\nYou have reached the end of the block 1/4. If you need a short break, feel free to take one now before moving on.\n\n<br><br>\nIn the next block, you will complete another 30 rounds of this game.\n\n<br><br>\n<div style='text-align: center;'>Press <code>space</code> to begin.</div>\n<br><br>\n<div style='text-align: center;'>(If the experiment doesn't continue, try clicking on the text and then pressing <code>space</code>.)</div>", "response": " ", "trial_id": "mdp_ready_2", "trial_type": "html-keyboard-response", "trial_index": 45, "time_elapsed": 743498, "internal_node_id": "0.0-4.0-2.0"}}, {"uniqueid": "w43014207:a45951005", "current_trial": 46, "dateTime": 1664556317655, "trialdata": {"revealed_states": [], "num_clicks_accrued": [0, 0, 0, 0, 0, 0, 0, 0, 0, 0, 0, 0, 0], "stateRewards": ["", -4, 4, 24, 24, 4, -8, 48, -48, -2, -8, 24, 24], "withholdReward": true, "trial_id": "mdp_395264223239", "block": "test2", "trialIndex": 34, "score": 47.5, "costs": -1.5, "simulationMode": [null, null, null], "rewards": [4, -8, 48], "path": ["0", "0", "5", "6", "7"], "rt": [6715, 81, 13], "actions": ["right", "right", "up"], "actionTimes": [10425, 11023, 11545], "queries": {"click": {"state": {"target": ["4", "12", "11", "3", "7", "8"], "time": [5129, 6429, 7394, 8335, 9130, 9953]}, "edge": {"target": [], "time": []}}, "mouseover": {"state": {"target": ["1", "4", "4", "12", "10", "11", "3", "7", "6", "8"], "time": [4230, 4446, 4841, 6034, 6917, 7104, 8068, 8815, 9517, 9600]}, "edge": {"target": [], "time": []}}, "mouseout": {"state": {"target": ["1", "0", "0", "1", "4", "4", "12", "10", "11", "3", "7", "6", "8"], "time": [2196, 2262, 4190, 4263, 4496, 5664, 6901, 6967, 7754, 8731, 9500, 9551, 14800]}, "edge": {"target": [], "time": []}}}, "displayed_time": "12.71", "trialTime": 16725, "trial_type": "mouselab-mdp", "trial_index": 46, "time_elapsed": 760344, "internal_node_id": "0.0-4.0-3.0-0.0"}}, {"uniqueid": "w43014207:a45951005", "current_trial": 47, "dateTime": 1664556330418, "trialdata": {"revealed_states": [], "num_clicks_accrued": [0, 0, 0, 0, 0, 0, 0, 0, 0, 0, 0, 0, 0], "stateRewards": ["", -4, 4, -24, -24, -4, -8, 24, 48, 4, -4, 24, 48], "withholdReward": false, "trial_id": "mdp_175395325183", "block": "test2", "trialIndex": 35, "score": 51.25, "costs": -1.75, "simulationMode": [null, null, null], "rewards": [4, -4, 48], "path": ["0", "0", "9", "10", "12"], "rt": [6887, 183, 36], "actions": ["left", "left", "down"], "actionTimes": [8102, 8795, 9354], "queries": {"click": {"state": {"target": ["6", "5", "7", "4", "11", "12", "10"], "time": [1871, 2626, 3500, 4557, 5298, 6243, 7432]}, "edge": {"target": [], "time": []}}, "mouseover": {"state": {"target": ["5", "6", "5", "7", "4", "11", "10", "12", "10"], "time": [1495, 1563, 2316, 3051, 4284, 5031, 5680, 5796, 7156]}, "edge": {"target": [], "time": []}}, "mouseout": {"state": {"target": ["6", "5", "0", "5", "6", "5", "7", "4", "11", "10", "12"], "time": [730, 781, 1463, 1529, 2285, 2981, 3964, 4915, 5663, 5729, 6600]}, "edge": {"target": [], "time": []}}}, "displayed_time": "10.22", "trialTime": 12670, "trial_type": "mouselab-mdp", "trial_index": 47, "time_elapsed": 773107, "internal_node_id": "0.0-4.0-3.0-1.0"}}, {"uniqueid": "w43014207:a45951005", "current_trial": 48, "dateTime": 1664556340079, "trialdata": {"revealed_states": [], "num_clicks_accrued": [0, 0, 0, 0, 0, 0, 0, 0, 0, 0, 0, 0, 0], "stateRewards": ["", 4, -8, 48, 48, 2, 4, 48, -48, 4, -4, -48, 48], "withholdReward": true, "trial_id": "mdp_519605841135", "block": "test2", "trialIndex": 36, "score": 48.25, "costs": -0.75, "simulationMode": [null, null, null], "rewards": [4, -8, 48], "path": ["0", "0", "1", "2", "4"], "rt": [5121, 84, 79], "actions": ["up", "up", "left"], "actionTimes": [6286, 6888, 7480], "queries": {"click": {"state": {"target": ["8", "11", "4"], "time": [2125, 3137, 5204]}, "edge": {"target": [], "time": []}}, "mouseover": {"state": {"target": ["9", "8", "0", "11", "4", "2", "3", "3", "2", "4"], "time": [1486, 1786, 2604, 2870, 3587, 3620, 3720, 4142, 4886, 4953]}, "edge": {"target": [], "time": []}}, "mouseout": {"state": {"target": ["10", "9", "9", "8", "0", "11", "4", "2", "3", "3", "2"], "time": [620, 702, 1520, 2553, 2620, 3557, 3603, 3636, 3840, 4854, 4920]}, "edge": {"target": [], "time": []}}}, "displayed_time": "9.17", "trialTime": 9604, "trial_type": "mouselab-mdp", "trial_index": 48, "time_elapsed": 782768, "internal_node_id": "0.0-4.0-3.0-2.0"}}, {"uniqueid": "w43014207:a45951005", "current_trial": 49, "dateTime": 1664556358520, "trialdata": {"revealed_states": [], "num_clicks_accrued": [0, 0, 0, 0, 0, 0, 0, 0, 0, 0, 0, 0, 0], "stateRewards": ["", 2, 8, 24, -48, 4, 8, 24, 48, 2, -8, -24, 24], "withholdReward": false, "trial_id": "mdp_939899431582", "block": "test2", "trialIndex": 37, "score": 63.75, "costs": -1.25, "simulationMode": [null, null, null], "rewards": [4, 8, 48], "path": ["0", "0", "5", "6", "8"], "rt": [5820, 653, 144], "actions": ["right", "right", "down"], "actionTimes": [7067, 8238, 8882], "queries": {"click": {"state": {"target": ["11", "3", "4", "7", "8"], "time": [2133, 3154, 4383, 5330, 6191]}, "edge": {"target": [], "time": []}}, "mouseover": {"state": {"target": ["11", "3", "3", "2", "4", "2", "7", "6", "8", "12", "12"], "time": [1919, 2620, 2835, 3514, 3570, 4767, 4834, 5769, 5838, 6570, 6687]}, "edge": {"target": [], "time": []}}, "mouseout": {"state": {"target": ["4", "0", "11", "3", "3", "2", "4", "2", "7", "6", "8", "12", "12"], "time": [524, 1640, 2535, 2654, 3512, 3537, 4757, 4784, 5753, 5805, 6470, 6619, 6720]}, "edge": {"target": [], "time": []}}}, "displayed_time": "11.26", "trialTime": 18313, "trial_type": "mouselab-mdp", "trial_index": 49, "time_elapsed": 801209, "internal_node_id": "0.0-4.0-3.0-3.0"}}, {"uniqueid": "w43014207:a45951005", "current_trial": 50, "dateTime": 1664556370546, "trialdata": {"revealed_states": [], "num_clicks_accrued": [0, 0, 0, 0, 0, 0, 0, 0, 0, 0, 0, 0, 0], "stateRewards": ["", -2, -4, -48, -48, 4, -4, 48, 24, 4, 4, 48, 48], "withholdReward": true, "trial_id": "mdp_950960813932", "block": "test2", "trialIndex": 38, "score": 60.5, "costs": -0.5, "simulationMode": [null, null, null], "rewards": [4, 4, 48], "path": ["0", "0", "9", "10", "11"], "rt": [4573, 141, 39], "actions": ["left", "left", "up"], "actionTimes": [6429, 7088, 7634], "queries": {"click": {"state": {"target": ["3", "11"], "time": [3217, 5385]}, "edge": {"target": [], "time": []}}, "mouseover": {"state": {"target": ["1", "2", "3", "1", "11"], "time": [2263, 2351, 2913, 4895, 5146]}, "edge": {"target": [], "time": []}}, "mouseout": {"state": {"target": ["0", "1", "2", "3", "1", "11"], "time": [728, 2296, 2513, 4879, 4912, 5879]}, "edge": {"target": [], "time": []}}}, "displayed_time": "10.86", "trialTime": 11869, "trial_type": "mouselab-mdp", "trial_index": 50, "time_elapsed": 813235, "internal_node_id": "0.0-4.0-3.0-4.0"}}, {"uniqueid": "w43014207:a45951005", "current_trial": 51, "dateTime": 1664556381006, "trialdata": {"revealed_states": [], "num_clicks_accrued": [0, 0, 0, 0, 0, 0, 0, 0, 0, 0, 0, 0, 0], "stateRewards": ["", -4, 4, -24, 48, -2, 8, -48, 24, 2, 4, 48, -48], "withholdReward": false, "trial_id": "mdp_366632183904", "block": "test2", "trialIndex": 39, "score": 52, "costs": -1, "simulationMode": [null, null, null], "rewards": [-4, 4, 48], "path": ["0", "0", "1", "2", "4"], "rt": [6286, 88, 61], "actions": ["up", "up", "left"], "actionTimes": [7602, 8197, 8754], "queries": {"click": {"state": {"target": ["12", "8", "3", "4"], "time": [2481, 4444, 5595, 6372]}, "edge": {"target": [], "time": []}}, "mouseover": {"state": {"target": ["9", "10", "12", "4", "4", "2", "7", "8", "6", "7", "3", "2", "4", "11"], "time": [1691, 1908, 2188, 2940, 3173, 3807, 3857, 4107, 4975, 5024, 5307, 6023, 6124, 6825]}, "edge": {"target": [], "time": []}}, "mouseout": {"state": {"target": ["9", "0", "0", "9", "10", "12", "4", "4", "2", "7", "8", "6", "7", "3", "2", "4", "11", "10"], "time": [658, 724, 1007, 1708, 1941, 2872, 2956, 3790, 3824, 3873, 4973, 4990, 5207, 6007, 6073, 6706, 10006, 10040]}, "edge": {"target": [], "time": []}}}, "displayed_time": "9.32", "trialTime": 10334, "trial_type": "mouselab-mdp", "trial_index": 51, "time_elapsed": 823694, "internal_node_id": "0.0-4.0-3.0-5.0"}}, {"uniqueid": "w43014207:a45951005", "current_trial": 52, "dateTime": 1664556392056, "trialdata": {"revealed_states": [], "num_clicks_accrued": [0, 0, 0, 0, 0, 0, 0, 0, 0, 0, 0, 0, 0], "stateRewards": ["", 2, -4, 48, 24, 2, 8, 24, 24, -2, 4, 24, 24], "withholdReward": true, "trial_id": "mdp_813974524300", "block": "test2", "trialIndex": 40, "score": 50.25, "costs": -0.75, "simulationMode": [null, null, null], "rewards": [2, -4, 48], "path": ["0", "0", "1", "2", "3"], "rt": [5363, 101, 336], "actions": ["up", "up", "right"], "actionTimes": [6708, 7325, 8190], "queries": {"click": {"state": {"target": ["4", "7", "3"], "time": [2246, 4395, 5822]}, "edge": {"target": [], "time": []}}, "mouseover": {"state": {"target": ["4", "11", "10", "12", "12", "6", "7", "3"], "time": [1890, 2773, 3406, 3441, 3641, 3824, 4074, 5588]}, "edge": {"target": [], "time": []}}, "mouseout": {"state": {"target": ["0", "4", "11", "10", "12", "12", "6", "7"], "time": [674, 2690, 3390, 3424, 3473, 3740, 3844, 4791]}, "edge": {"target": [], "time": []}}}, "displayed_time": "10.35", "trialTime": 10885, "trial_type": "mouselab-mdp", "trial_index": 52, "time_elapsed": 834744, "internal_node_id": "0.0-4.0-3.0-6.0"}}, {"uniqueid": "w43014207:a45951005", "current_trial": 53, "dateTime": 1664556405495, "trialdata": {"revealed_states": [], "num_clicks_accrued": [0, 0, 0, 0, 0, 0, 0, 0, 0, 0, 0, 0, 0], "stateRewards": ["", -2, -8, -24, 48, -2, -8, -48, -48, 2, -8, -48, 24], "withholdReward": true, "trial_id": "mdp_288324580942", "block": "test2", "trialIndex": 41, "score": 42.75, "costs": -0.25, "simulationMode": [null, null, null], "rewards": [-2, -8, 48], "path": ["0", "0", "1", "2", "4"], "rt": [1966, 118, 7], "actions": ["up", "up", "left"], "actionTimes": [3164, 3784, 4306], "queries": {"click": {"state": {"target": ["4"], "time": [2007]}, "edge": {"target": [], "time": []}}, "mouseover": {"state": {"target": ["1", "4", "2", "3", "7", "6", "3"], "time": [1580, 1779, 2361, 2411, 2461, 2577, 2661]}, "edge": {"target": [], "time": []}}, "mouseout": {"state": {"target": ["3", "1", "4", "2", "3", "7", "6"], "time": [563, 1597, 2345, 2394, 2428, 2494, 2594]}, "edge": {"target": [], "time": []}}}, "displayed_time": "10.20", "trialTime": 13315, "trial_type": "mouselab-mdp", "trial_index": 53, "time_elapsed": 848183, "internal_node_id": "0.0-4.0-3.0-7.0"}}, {"uniqueid": "w43014207:a45951005", "current_trial": 54, "dateTime": 1664556417165, "trialdata": {"revealed_states": [], "num_clicks_accrued": [0, 0, 0, 0, 0, 0, 0, 0, 0, 0, 0, 0, 0], "stateRewards": ["", 2, -4, 24, 24, 2, 4, 24, 24, -4, 8, 24, 48], "withholdReward": false, "trial_id": "mdp_268430387178", "block": "test2", "trialIndex": 42, "score": 56.5, "costs": -0.5, "simulationMode": [null, null, null], "rewards": [-4, 8, 48], "path": ["0", "0", "9", "10", "12"], "rt": [3224, 47, 116], "actions": ["left", "left", "down"], "actionTimes": [5885, 6449, 7097], "queries": {"click": {"state": {"target": ["4", "12"], "time": [3865, 5013]}, "edge": {"target": [], "time": []}}, "mouseover": {"state": {"target": ["4", "10", "12"], "time": [3563, 4399, 4462]}, "edge": {"target": [], "time": []}}, "mouseout": {"state": {"target": ["3", "1", "0", "0", "4", "10"], "time": [545, 681, 761, 3079, 4316, 4429]}, "edge": {"target": [], "time": []}}}, "displayed_time": "10.67", "trialTime": 11552, "trial_type": "mouselab-mdp", "trial_index": 54, "time_elapsed": 859854, "internal_node_id": "0.0-4.0-3.0-8.0"}}, {"uniqueid": "w43014207:a45951005", "current_trial": 55, "dateTime": 1664556428133, "trialdata": {"revealed_states": [], "num_clicks_accrued": [0, 0, 0, 0, 0, 0, 0, 0, 0, 0, 0, 0, 0], "stateRewards": ["", 2, 4, -24, -48, 4, -4, 24, 48, -4, -4, -24, 48], "withholdReward": true, "trial_id": "mdp_181958792175", "block": "test2", "trialIndex": 43, "score": 52.5, "costs": -0.5, "simulationMode": [null, null, null], "rewards": [4, -4, 48], "path": ["0", "0", "5", "6", "8"], "rt": [2547, 39, 533], "actions": ["right", "right", "down"], "actionTimes": [3849, 4397, 5458], "queries": {"click": {"state": {"target": ["4", "8"], "time": [2144, 3265]}, "edge": {"target": [], "time": []}}, "mouseover": {"state": {"target": ["4", "5", "8"], "time": [1927, 2747, 3010]}, "edge": {"target": [], "time": []}}, "mouseout": {"state": {"target": ["12", "0", "4", "5"], "time": [627, 994, 2679, 2761]}, "edge": {"target": [], "time": []}}}, "displayed_time": "9.31", "trialTime": 10837, "trial_type": "mouselab-mdp", "trial_index": 55, "time_elapsed": 870821, "internal_node_id": "0.0-4.0-3.0-9.0"}}, {"uniqueid": "w43014207:a45951005", "current_trial": 56, "dateTime": 1664556437954, "trialdata": {"revealed_states": [], "num_clicks_accrued": [0, 0, 0, 0, 0, 0, 0, 0, 0, 0, 0, 0, 0], "stateRewards": ["", 4, -4, 48, 24, 2, 4, 24, -24, 2, 4, 24, 48], "withholdReward": true, "trial_id": "mdp_736351885282", "block": "test2", "trialIndex": 44, "score": 58.5, "costs": -0.5, "simulationMode": [null, null, null], "rewards": [2, 4, 48], "path": ["0", "0", "9", "10", "12"], "rt": [2778, 161, 110], "actions": ["left", "left", "down"], "actionTimes": [3942, 4601, 5213], "queries": {"click": {"state": {"target": ["7", "12"], "time": [2041, 3142]}, "edge": {"target": [], "time": []}}, "mouseover": {"state": {"target": ["5", "6", "7", "12"], "time": [1539, 1589, 1739, 2836]}, "edge": {"target": [], "time": []}}, "mouseout": {"state": {"target": ["8", "0", "5", "6", "7"], "time": [538, 823, 1572, 1722, 2603]}, "edge": {"target": [], "time": []}}}, "displayed_time": "9.16", "trialTime": 9687, "trial_type": "mouselab-mdp", "trial_index": 56, "time_elapsed": 880643, "internal_node_id": "0.0-4.0-3.0-10.0"}}, {"uniqueid": "w43014207:a45951005", "current_trial": 57, "dateTime": 1664556452858, "trialdata": {"revealed_states": [], "num_clicks_accrued": [0, 0, 0, 0, 0, 0, 0, 0, 0, 0, 0, 0, 0], "stateRewards": ["", -4, -4, -24, -48, -4, 8, -24, -48, 4, -8, 24, -24], "withholdReward": true, "trial_id": "mdp_924927483179", "block": "test2", "trialIndex": 45, "score": 23.5, "costs": -1.5, "simulationMode": [null, null, null], "rewards": [4, -8, 24], "path": ["0", "0", "9", "10", "11"], "rt": [6894, 6, 3], "actions": ["left", "left", "up"], "actionTimes": [8565, 9106, 9617], "queries": {"click": {"state": {"target": ["4", "3", "11", "12", "7", "8"], "time": [2423, 3485, 4472, 5369, 7004, 7754]}, "edge": {"target": [], "time": []}}, "mouseover": {"state": {"target": ["4", "2", "3", "3", "11", "10", "12", "7", "7", "6", "8"], "time": [2147, 2962, 3013, 3196, 4098, 4944, 4994, 6043, 6716, 7311, 7379]}, "edge": {"target": [], "time": []}}, "mouseout": {"state": {"target": ["12", "0", "4", "2", "3", "3", "11", "10", "12", "7", "7", "6", "8", "6"], "time": [1029, 1412, 2950, 2996, 3065, 3912, 4928, 4978, 5714, 6127, 7296, 7361, 12828, 14093]}, "edge": {"target": [], "time": []}}}, "displayed_time": "10.67", "trialTime": 14849, "trial_type": "mouselab-mdp", "trial_index": 57, "time_elapsed": 895547, "internal_node_id": "0.0-4.0-3.0-11.0"}}, {"uniqueid": "w43014207:a45951005", "current_trial": 58, "dateTime": 1664556462723, "trialdata": {"revealed_states": [], "num_clicks_accrued": [0, 0, 0, 0, 0, 0, 0, 0, 0, 0, 0, 0, 0], "stateRewards": ["", 2, -8, 48, -24, 2, 8, 24, -24, 4, -4, -48, -48], "withholdReward": true, "trial_id": "mdp_130946197263", "block": "test2", "trialIndex": 46, "score": 46, "costs": -1, "simulationMode": [null, null, null], "rewards": [2, -8, 48], "path": ["0", "0", "1", "2", "3"], "rt": [4071, 16, 108], "actions": ["up", "up", "right"], "actionTimes": [5326, 5876, 6486], "queries": {"click": {"state": {"target": ["10", "11", "4", "3"], "time": [2021, 2739, 3621, 4338]}, "edge": {"target": [], "time": []}}, "mouseover": {"state": {"target": ["9", "10", "11", "4", "2", "3", "7"], "time": [1594, 1644, 2432, 3180, 3946, 3996, 4712]}, "edge": {"target": [], "time": []}}, "mouseout": {"state": {"target": ["0", "9", "10", "11", "4", "2", "3", "7"], "time": [946, 1627, 2429, 3079, 3929, 3979, 4646, 4897]}, "edge": {"target": [], "time": []}}}, "displayed_time": "9.27", "trialTime": 9749, "trial_type": "mouselab-mdp", "trial_index": 58, "time_elapsed": 905412, "internal_node_id": "0.0-4.0-3.0-12.0"}}, {"uniqueid": "w43014207:a45951005", "current_trial": 59, "dateTime": 1664556473991, "trialdata": {"revealed_states": [], "num_clicks_accrued": [0, 0, 0, 0, 0, 0, 0, 0, 0, 0, 0, 0, 0], "stateRewards": ["", 4, 4, -24, -48, -4, 4, -48, 24, 4, -8, -48, 48], "withholdReward": true, "trial_id": "mdp_566768794366", "block": "test2", "trialIndex": 47, "score": 47.5, "costs": -1.5, "simulationMode": [null, null, null], "rewards": [4, -8, 48], "path": ["0", "0", "9", "10", "12"], "rt": [5873, 122, 57], "actions": ["left", "left", "down"], "actionTimes": [7062, 7685, 8254], "queries": {"click": {"state": {"target": ["3", "4", "11", "12", "10", "9"], "time": [1864, 2840, 3578, 4386, 5295, 5901]}, "edge": {"target": [], "time": []}}, "mouseover": {"state": {"target": ["3", "1", "4", "11", "10", "12", "10", "9"], "time": [1561, 2248, 2477, 3260, 3928, 4077, 4994, 5595]}, "edge": {"target": [], "time": []}}, "mouseout": {"state": {"target": ["1", "0", "3", "1", "4", "11", "10", "12", "10"], "time": [731, 1462, 2194, 2344, 3175, 3893, 3977, 4710, 5562]}, "edge": {"target": [], "time": []}}}, "displayed_time": "10.19", "trialTime": 11150, "trial_type": "mouselab-mdp", "trial_index": 59, "time_elapsed": 916680, "internal_node_id": "0.0-4.0-3.0-13.0"}}, {"uniqueid": "w43014207:a45951005", "current_trial": 60, "dateTime": 1664556484811, "trialdata": {"revealed_states": [], "num_clicks_accrued": [0, 0, 0, 0, 0, 0, 0, 0, 0, 0, 0, 0, 0], "stateRewards": ["", 2, -4, 24, 48, -2, 4, -48, -48, -4, 4, 24, -24], "withholdReward": true, "trial_id": "mdp_900363662757", "block": "test2", "trialIndex": 48, "score": 50.25, "costs": -0.75, "simulationMode": [null, null, null], "rewards": [2, -4, 48], "path": ["0", "0", "1", "2", "4"], "rt": [2997, 54, 25], "actions": ["up", "up", "left"], "actionTimes": [4134, 4702, 5255], "queries": {"click": {"state": {"target": ["4", "1", "2"], "time": [2051, 2997, 3579]}, "edge": {"target": [], "time": []}}, "mouseover": {"state": {"target": ["1", "4", "2", "1", "2"], "time": [1477, 1762, 2429, 2729, 3281]}, "edge": {"target": [], "time": []}}, "mouseout": {"state": {"target": ["9", "0", "1", "4", "2", "1"], "time": [478, 1449, 1493, 2413, 2462, 3264]}, "edge": {"target": [], "time": []}}}, "displayed_time": "10.14", "trialTime": 10706, "trial_type": "mouselab-mdp", "trial_index": 60, "time_elapsed": 927499, "internal_node_id": "0.0-4.0-3.0-14.0"}}, {"uniqueid": "w43014207:a45951005", "current_trial": 61, "dateTime": 1664556497435, "trialdata": {"revealed_states": [], "num_clicks_accrued": [0, 0, 0, 0, 0, 0, 0, 0, 0, 0, 0, 0, 0], "stateRewards": ["", -4, 8, -24, -24, 4, -8, 48, -24, -4, -8, -24, -48], "withholdReward": true, "trial_id": "mdp_391766721791", "block": "test2", "trialIndex": 49, "score": 46.25, "costs": -2.75, "simulationMode": [null, null, null], "rewards": [4, -8, 48], "path": ["0", "0", "5", "6", "7"], "rt": [8667, 119, 429], "actions": ["right", "right", "up"], "actionTimes": [9728, 10347, 11273], "queries": {"click": {"state": {"target": ["12", "10", "11", "7", "8", "6", "5", "3", "2", "4", "1"], "time": [1838, 2555, 3281, 4170, 4988, 5840, 6426, 7237, 7871, 8526, 9199]}, "edge": {"target": [], "time": []}}, "mouseover": {"state": {"target": ["9", "12", "10", "11", "1", "7", "6", "8", "6", "5", "3", "2", "4", "1"], "time": [1422, 1538, 2253, 3003, 3642, 3775, 4523, 4590, 5475, 6148, 6875, 7625, 8258, 8924]}, "edge": {"target": [], "time": []}}, "mouseout": {"state": {"target": ["2", "1", "0", "9", "12", "10", "11", "1", "7", "6", "8", "6", "5", "3", "2", "4"], "time": [537, 587, 1405, 1454, 2225, 2969, 3592, 3658, 4491, 4556, 5393, 6134, 6725, 7592, 8226, 8842]}, "edge": {"target": [], "time": []}}}, "displayed_time": "11.79", "trialTime": 12474, "trial_type": "mouselab-mdp", "trial_index": 61, "time_elapsed": 940124, "internal_node_id": "0.0-4.0-3.0-15.0"}}, {"uniqueid": "w43014207:a45951005", "current_trial": 62, "dateTime": 1664556511885, "trialdata": {"revealed_states": [], "num_clicks_accrued": [0, 0, 0, 0, 0, 0, 0, 0, 0, 0, 0, 0, 0], "stateRewards": ["", 4, -8, -48, 24, 4, 4, -24, -24, 2, 4, -48, 24], "withholdReward": true, "trial_id": "mdp_626971397185", "block": "test2", "trialIndex": 50, "score": 33, "costs": -2, "simulationMode": [null, null, null], "rewards": [2, 4, 24], "path": ["0", "0", "9", "10", "12"], "rt": [8347, 1940, 200], "actions": ["left", "left", "down"], "actionTimes": [9550, 11999, 12692], "queries": {"click": {"state": {"target": ["4", "3", "1", "2", "7", "8", "12", "11"], "time": [2180, 2969, 4092, 4751, 5689, 7141, 8177, 8902]}, "edge": {"target": [], "time": []}}, "mouseover": {"state": {"target": ["4", "2", "3", "1", "1", "2", "7", "6", "8", "12", "12", "10", "11"], "time": [1945, 2574, 2624, 3389, 3825, 4441, 5224, 6040, 6845, 7640, 7924, 8492, 8559]}, "edge": {"target": [], "time": []}}, "mouseout": {"state": {"target": ["1", "0", "4", "2", "3", "1", "1", "2", "7", "6", "8", "12", "12", "10", "11", "10"], "time": [574, 873, 2558, 2608, 3322, 3472, 4407, 5140, 6007, 6071, 7490, 7674, 8481, 8530, 10356, 13790]}, "edge": {"target": [], "time": []}}}, "displayed_time": "13.21", "trialTime": 14307, "trial_type": "mouselab-mdp", "trial_index": 62, "time_elapsed": 954574, "internal_node_id": "0.0-4.0-3.0-16.0"}}, {"uniqueid": "w43014207:a45951005", "current_trial": 63, "dateTime": 1664556522021, "trialdata": {"revealed_states": [], "num_clicks_accrued": [0, 0, 0, 0, 0, 0, 0, 0, 0, 0, 0, 0, 0], "stateRewards": ["", 4, 4, 48, -48, -2, 4, 48, -48, -4, 4, -24, -24], "withholdReward": true, "trial_id": "mdp_753324812898", "block": "test2", "trialIndex": 51, "score": 60.25, "costs": -0.75, "simulationMode": [null, null, null], "rewards": [4, 4, 48], "path": ["0", "0", "1", "2", "3"], "rt": [3556, 49, 399], "actions": ["up", "up", "right"], "actionTimes": [5023, 5587, 6517], "queries": {"click": {"state": {"target": ["12", "4", "3"], "time": [2477, 3304, 4102]}, "edge": {"target": [], "time": []}}, "mouseover": {"state": {"target": ["9", "12", "10", "4", "2", "3"], "time": [1887, 2188, 2853, 2921, 3701, 3856]}, "edge": {"target": [], "time": []}}, "mouseout": {"state": {"target": ["0", "0", "9", "12", "10", "4", "2", "3"], "time": [904, 1219, 1953, 2836, 2871, 3670, 3734, 4486]}, "edge": {"target": [], "time": []}}}, "displayed_time": "9.47", "trialTime": 9991, "trial_type": "mouselab-mdp", "trial_index": 63, "time_elapsed": 964709, "internal_node_id": "0.0-4.0-3.0-17.0"}}, {"uniqueid": "w43014207:a45951005", "current_trial": 64, "dateTime": 1664556538276, "trialdata": {"revealed_states": [], "num_clicks_accrued": [0, 0, 0, 0, 0, 0, 0, 0, 0, 0, 0, 0, 0], "stateRewards": ["", -4, -4, 24, -48, -2, 8, -24, -48, -4, 4, 24, -48], "withholdReward": true, "trial_id": "mdp_934626330092", "block": "test2", "trialIndex": 52, "score": 26.5, "costs": -2.5, "simulationMode": [null, null, null], "rewards": [-4, 4, 24], "path": ["0", "0", "9", "10", "11"], "rt": [12104, 121, 111], "actions": ["left", "left", "up"], "actionTimes": [13442, 14090, 14722], "queries": {"click": {"state": {"target": ["4", "8", "11", "12", "7", "3", "2", "10", "1", "9"], "time": [2195, 3357, 4359, 5252, 6310, 7089, 9170, 10110, 11235, 12061]}, "edge": {"target": [], "time": []}}, "mouseover": {"state": {"target": ["4", "4", "2", "3", "7", "6", "8", "9", "11", "10", "12", "5", "7", "7", "3", "10", "9", "1", "2", "10", "9", "1", "9"], "time": [1712, 1945, 2611, 2644, 2793, 2843, 2960, 3911, 4043, 4729, 4812, 5728, 5778, 6028, 6745, 8127, 8478, 8544, 8778, 9661, 10510, 10794, 11595]}, "edge": {"target": [], "time": []}}, "mouseout": {"state": {"target": ["3", "0", "4", "4", "2", "3", "7", "6", "8", "9", "11", "10", "12", "5", "7", "7", "3", "10", "9", "1", "2", "10", "9", "1"], "time": [612, 1612, 1816, 2596, 2643, 2660, 2810, 2876, 3815, 3946, 4695, 4778, 5661, 5745, 5795, 6695, 7843, 8461, 8494, 8728, 9528, 10461, 10594, 11561]}, "edge": {"target": [], "time": []}}}, "displayed_time": "15.23", "trialTime": 16157, "trial_type": "mouselab-mdp", "trial_index": 64, "time_elapsed": 980965, "internal_node_id": "0.0-4.0-3.0-18.0"}}, {"uniqueid": "w43014207:a45951005", "current_trial": 65, "dateTime": 1664556555889, "trialdata": {"revealed_states": [], "num_clicks_accrued": [0, 0, 0, 0, 0, 0, 0, 0, 0, 0, 0, 0, 0], "stateRewards": ["", -2, -8, 48, 24, 4, -8, 24, 48, 4, -4, 24, -48], "withholdReward": false, "trial_id": "mdp_871576155740", "block": "test2", "trialIndex": 53, "score": 46.5, "costs": -2.5, "simulationMode": [null, null, null], "rewards": [4, -8, 48], "path": ["0", "0", "5", "6", "8"], "rt": [12030, 94, 553], "actions": ["right", "right", "down"], "actionTimes": [13722, 14331, 15388], "queries": {"click": {"state": {"target": ["4", "3", "8", "7", "6", "5", "2", "1", "11", "12"], "time": [2540, 3467, 5541, 6405, 7110, 7746, 8611, 9260, 10128, 11031]}, "edge": {"target": [], "time": []}}, "mouseover": {"state": {"target": ["1", "4", "2", "3", "11", "1", "1", "5", "8", "6", "7", "6", "5", "2", "1", "11", "11", "10", "12"], "time": [2050, 2301, 2935, 3003, 3934, 4384, 4601, 5015, 5099, 5886, 6103, 6800, 7450, 8336, 8952, 9634, 9800, 10469, 10602]}, "edge": {"target": [], "time": []}}, "mouseout": {"state": {"target": ["9", "0", "0", "1", "4", "2", "3", "11", "1", "1", "5", "8", "6", "7", "6", "5", "2", "1", "11", "11", "10", "12"], "time": [550, 618, 2036, 2100, 2917, 2967, 3802, 4351, 4434, 4998, 5065, 5869, 5986, 6751, 7434, 8032, 8919, 9577, 9653, 10453, 10520, 16724]}, "edge": {"target": [], "time": []}}}, "displayed_time": "15.90", "trialTime": 17460, "trial_type": "mouselab-mdp", "trial_index": 65, "time_elapsed": 998577, "internal_node_id": "0.0-4.0-3.0-19.0"}}, {"uniqueid": "w43014207:a45951005", "current_trial": 66, "dateTime": 1664556568634, "trialdata": {"revealed_states": [], "num_clicks_accrued": [0, 0, 0, 0, 0, 0, 0, 0, 0, 0, 0, 0, 0], "stateRewards": ["", -4, -4, -48, -24, 2, 8, 24, -48, 4, 4, 48, 48], "withholdReward": true, "trial_id": "mdp_693501840209", "block": "test2", "trialIndex": 54, "score": 59, "costs": -2, "simulationMode": [null, null, null], "rewards": [4, 4, 48], "path": ["0", "0", "9", "10", "11"], "rt": [8788, 63, 99], "actions": ["left", "left", "up"], "actionTimes": [10068, 10640, 11243], "queries": {"click": {"state": {"target": ["4", "3", "7", "11", "12", "8", "10", "9"], "time": [2969, 3701, 4543, 5360, 6280, 7310, 8255, 8990]}, "edge": {"target": [], "time": []}}, "mouseover": {"state": {"target": ["1", "4", "4", "2", "3", "7", "1", "11", "10", "12", "8", "10", "9"], "time": [1607, 1891, 2632, 3375, 3449, 4209, 4909, 4992, 5642, 5725, 6775, 7775, 8674]}, "edge": {"target": [], "time": []}}, "mouseout": {"state": {"target": ["0", "1", "4", "4", "2", "3", "7", "1", "11", "10", "12", "8", "10"], "time": [926, 1625, 1958, 3359, 3409, 4175, 4886, 4926, 5625, 5692, 6559, 7613, 8623]}, "edge": {"target": [], "time": []}}}, "displayed_time": "11.76", "trialTime": 12596, "trial_type": "mouselab-mdp", "trial_index": 66, "time_elapsed": 1011322, "internal_node_id": "0.0-4.0-3.0-20.0"}}, {"uniqueid": "w43014207:a45951005", "current_trial": 67, "dateTime": 1664556580830, "trialdata": {"revealed_states": [], "num_clicks_accrued": [0, 0, 0, 0, 0, 0, 0, 0, 0, 0, 0, 0, 0], "stateRewards": ["", 2, -8, 24, 24, 2, 4, -48, -48, 4, 4, -24, 48], "withholdReward": true, "trial_id": "mdp_985707010949", "block": "test2", "trialIndex": 55, "score": 59, "costs": -2, "simulationMode": [null, null, null], "rewards": [4, 4, 48], "path": ["0", "0", "9", "10", "12"], "rt": [7702, 66, 16], "actions": ["left", "left", "down"], "actionTimes": [8957, 9530, 10061], "queries": {"click": {"state": {"target": ["11", "7", "3", "12", "4", "8", "10", "9"], "time": [2142, 2976, 3812, 4712, 5573, 6414, 7250, 8026]}, "edge": {"target": [], "time": []}}, "mouseover": {"state": {"target": ["11", "1", "7", "3", "1", "9", "12", "4", "5", "8", "10", "9"], "time": [1897, 2480, 2663, 3494, 4147, 4214, 4315, 5130, 5946, 5996, 6930, 7713]}, "edge": {"target": [], "time": []}}, "mouseout": {"state": {"target": ["9", "0", "11", "1", "7", "3", "1", "9", "12", "4", "5", "8", "10"], "time": [781, 1630, 2447, 2514, 3320, 4130, 4180, 4264, 5047, 5880, 5963, 6729, 7646]}, "edge": {"target": [], "time": []}}}, "displayed_time": "10.58", "trialTime": 12049, "trial_type": "mouselab-mdp", "trial_index": 67, "time_elapsed": 1023519, "internal_node_id": "0.0-4.0-3.0-21.0"}}, {"uniqueid": "w43014207:a45951005", "current_trial": 68, "dateTime": 1664556594370, "trialdata": {"revealed_states": [], "num_clicks_accrued": [0, 0, 0, 0, 0, 0, 0, 0, 0, 0, 0, 0, 0], "stateRewards": ["", -4, 8, 24, -24, 4, 8, -24, -48, 2, 4, 24, -24], "withholdReward": true, "trial_id": "mdp_782187007008", "block": "test2", "trialIndex": 56, "score": 32.5, "costs": -2.5, "simulationMode": [null, null, null], "rewards": [2, 4, 24], "path": ["0", "0", "9", "10", "11"], "rt": [9624, 91, 21], "actions": ["left", "left", "up"], "actionTimes": [10846, 11445, 11971], "queries": {"click": {"state": {"target": ["4", "3", "7", "8", "12", "11", "2", "10", "1", "9"], "time": [1913, 2758, 3456, 4128, 5087, 5950, 7155, 7986, 8802, 9644]}, "edge": {"target": [], "time": []}}, "mouseover": {"state": {"target": ["4", "2", "3", "7", "6", "8", "12", "12", "10", "11", "2", "10", "9", "1", "9"], "time": [1619, 2284, 2352, 3129, 3751, 3852, 4535, 4766, 5400, 5519, 6852, 7600, 8286, 8387, 9235]}, "edge": {"target": [], "time": []}}, "mouseout": {"state": {"target": ["9", "0", "4", "2", "3", "7", "6", "8", "12", "12", "10", "11", "2", "10", "9", "1"], "time": [550, 700, 2267, 2319, 3069, 3735, 3802, 4402, 4602, 5384, 5434, 6686, 7436, 8270, 8320, 9181]}, "edge": {"target": [], "time": []}}}, "displayed_time": "12.48", "trialTime": 13395, "trial_type": "mouselab-mdp", "trial_index": 68, "time_elapsed": 1037058, "internal_node_id": "0.0-4.0-3.0-22.0"}}, {"uniqueid": "w43014207:a45951005", "current_trial": 69, "dateTime": 1664556608977, "trialdata": {"revealed_states": [], "num_clicks_accrued": [0, 0, 0, 0, 0, 0, 0, 0, 0, 0, 0, 0, 0], "stateRewards": ["", 4, -4, 24, 48, 4, 8, -24, -24, -2, 4, 48, 48], "withholdReward": false, "trial_id": "mdp_624998450453", "block": "test2", "trialIndex": 57, "score": 52.5, "costs": -2.5, "simulationMode": [null, null, null], "rewards": [-2, 4, 48], "path": ["0", "0", "9", "10", "11"], "rt": [10217, 89, 570], "actions": ["left", "left", "up"], "actionTimes": [11319, 11922, 13002], "queries": {"click": {"state": {"target": ["4", "12", "11", "7", "8", "3", "10", "2", "1", "9"], "time": [1834, 3269, 3968, 4890, 5942, 6834, 7955, 8891, 9601, 10341]}, "edge": {"target": [], "time": []}}, "mouseover": {"state": {"target": ["4", "2", "1", "9", "12", "10", "11", "7", "6", "8", "3", "10", "2", "1", "9"], "time": [1514, 2582, 2764, 2832, 2965, 3586, 3634, 4615, 5197, 5265, 6548, 7615, 8495, 9200, 9964]}, "edge": {"target": [], "time": []}}, "mouseout": {"state": {"target": ["9", "0", "4", "2", "1", "9", "12", "10", "11", "7", "6", "8", "3", "10", "2", "1"], "time": [653, 1365, 2538, 2732, 2781, 2865, 3553, 3617, 4282, 5181, 5231, 6264, 7231, 8331, 9150, 9898]}, "edge": {"target": [], "time": []}}}, "displayed_time": "13.52", "trialTime": 14483, "trial_type": "mouselab-mdp", "trial_index": 69, "time_elapsed": 1051666, "internal_node_id": "0.0-4.0-3.0-23.0"}}, {"uniqueid": "w43014207:a45951005", "current_trial": 70, "dateTime": 1664556623341, "trialdata": {"revealed_states": [], "num_clicks_accrued": [0, 0, 0, 0, 0, 0, 0, 0, 0, 0, 0, 0, 0], "stateRewards": ["", 2, -8, 48, -24, -4, -8, -24, 48, -2, 4, 24, -48], "withholdReward": true, "trial_id": "mdp_186932504904", "block": "test2", "trialIndex": 58, "score": 44.5, "costs": -2.5, "simulationMode": [null, null, null], "rewards": [2, -8, 48], "path": ["0", "0", "1", "2", "3"], "rt": [9479, 34, 839], "actions": ["up", "up", "right"], "actionTimes": [10846, 11398, 12756], "queries": {"click": {"state": {"target": ["4", "11", "7", "3", "8", "12", "6", "2", "1", "5"], "time": [2168, 3217, 4160, 4870, 5900, 6789, 7684, 8652, 9376, 10081]}, "edge": {"target": [], "time": []}}, "mouseover": {"state": {"target": ["1", "4", "11", "11", "7", "3", "6", "8", "12", "6", "2", "1", "5"], "time": [1732, 1850, 2532, 2935, 3901, 4550, 5279, 5513, 6348, 7398, 8381, 9033, 9733]}, "edge": {"target": [], "time": []}}, "mouseout": {"state": {"target": ["9", "0", "1", "4", "11", "11", "7", "3", "6", "8", "12", "6", "3", "2", "1"], "time": [931, 1146, 1748, 2465, 2582, 3518, 4501, 5196, 5346, 6248, 7082, 8051, 8149, 8954, 9674]}, "edge": {"target": [], "time": []}}}, "displayed_time": "13.27", "trialTime": 14220, "trial_type": "mouselab-mdp", "trial_index": 70, "time_elapsed": 1066029, "internal_node_id": "0.0-4.0-3.0-24.0"}}, {"uniqueid": "w43014207:a45951005", "current_trial": 71, "dateTime": 1664556638860, "trialdata": {"revealed_states": [], "num_clicks_accrued": [0, 0, 0, 0, 0, 0, 0, 0, 0, 0, 0, 0, 0], "stateRewards": ["", 2, 4, 48, 24, -2, -8, 24, 24, -2, 4, -48, 24], "withholdReward": true, "trial_id": "mdp_130849500124", "block": "test2", "trialIndex": 59, "score": 56, "costs": -3, "simulationMode": [null, null, null], "rewards": [2, 4, 48], "path": ["0", "0", "1", "2", "3"], "rt": [11304, 58, 352], "actions": ["up", "up", "right"], "actionTimes": [12282, 12837, 13716], "queries": {"click": {"state": {"target": ["11", "12", "8", "7", "3", "4", "5", "6", "2", "1", "10", "9"], "time": [1937, 2664, 3613, 4445, 5287, 6095, 7130, 7814, 9223, 9893, 10858, 11584]}, "edge": {"target": [], "time": []}}, "mouseover": {"state": {"target": ["11", "10", "12", "8", "8", "6", "7", "3", "2", "4", "1", "5", "6", "1", "2", "1", "9", "10", "9"], "time": [1512, 2261, 2345, 3045, 3311, 3899, 4114, 4960, 5628, 5694, 6462, 6529, 7494, 8395, 8854, 9531, 10395, 10444, 11311]}, "edge": {"target": [], "time": []}}, "mouseout": {"state": {"target": ["5", "0", "11", "10", "12", "8", "8", "6", "7", "3", "2", "4", "1", "5", "6", "5", "1", "2", "1", "9", "10"], "time": [615, 1396, 2245, 2311, 2966, 3095, 3882, 3948, 4776, 5617, 5678, 6446, 6479, 7460, 8159, 8210, 8814, 9502, 10344, 10415, 11244]}, "edge": {"target": [], "time": []}}}, "displayed_time": "14.21", "trialTime": 15389, "trial_type": "mouselab-mdp", "trial_index": 71, "time_elapsed": 1081549, "internal_node_id": "0.0-4.0-3.0-25.0"}}, {"uniqueid": "w43014207:a45951005", "current_trial": 72, "dateTime": 1664556659243, "trialdata": {"revealed_states": [], "num_clicks_accrued": [0, 0, 0, 0, 0, 0, 0, 0, 0, 0, 0, 0, 0], "stateRewards": ["", -2, 8, 48, 48, 4, -8, -48, 48, 2, -4, -48, 48], "withholdReward": false, "trial_id": "mdp_132958048709", "block": "test2", "trialIndex": 60, "score": 56, "costs": -3, "simulationMode": [null, null, null], "rewards": [-2, 8, 48], "path": ["0", "0", "1", "2", "3"], "rt": [16520, 21, 26], "actions": ["up", "up", "right"], "actionTimes": [17889, 18431, 18966], "queries": {"click": {"state": {"target": ["4", "12", "7", "3", "11", "8", "2", "6", "10", "1", "5", "9"], "time": [2710, 3995, 4916, 5803, 6786, 7847, 8988, 10578, 11632, 15556, 16296, 17178]}, "edge": {"target": [], "time": []}}, "mouseover": {"state": {"target": ["4", "11", "9", "12", "5", "7", "3", "2", "11", "0", "8", "2", "6", "5", "0", "9", "10", "9", "1", "1", "9", "1", "5", "9"], "time": [2056, 3123, 3405, 3687, 4440, 4506, 5356, 6176, 6306, 7173, 7305, 8707, 9556, 10953, 11004, 11054, 11324, 12206, 13421, 13819, 14556, 14905, 15973, 16671]}, "edge": {"target": [], "time": []}}, "mouseout": {"state": {"target": ["9", "0", "4", "11", "9", "12", "5", "7", "3", "2", "11", "0", "8", "2", "6", "5", "0", "9", "10", "9", "1", "2", "1", "9", "1", "5"], "time": [606, 1707, 3056, 3304, 3521, 4339, 4456, 5297, 6160, 6190, 7139, 7189, 8278, 9439, 10936, 10986, 11036, 11136, 12005, 13355, 13455, 13769, 14438, 14838, 15888, 16605]}, "edge": {"target": [], "time": []}}}, "displayed_time": "19.46", "trialTime": 20318, "trial_type": "mouselab-mdp", "trial_index": 72, "time_elapsed": 1101932, "internal_node_id": "0.0-4.0-3.0-26.0"}}, {"uniqueid": "w43014207:a45951005", "current_trial": 73, "dateTime": 1664556675542, "trialdata": {"revealed_states": [], "num_clicks_accrued": [0, 0, 0, 0, 0, 0, 0, 0, 0, 0, 0, 0, 0], "stateRewards": ["", -4, -4, -24, 24, -4, 4, -24, 48, -2, 4, 48, -48], "withholdReward": false, "trial_id": "mdp_774757609669", "block": "test2", "trialIndex": 61, "score": 52.5, "costs": -2.5, "simulationMode": [null, null, null], "rewards": [-2, 4, 48], "path": ["0", "0", "9", "10", "11"], "rt": [11362, 181, 239], "actions": ["left", "left", "up"], "actionTimes": [12878, 13580, 14334], "queries": {"click": {"state": {"target": ["12", "11", "4", "3", "7", "8", "9", "5", "6", "10"], "time": [2493, 3305, 4056, 4816, 5532, 6250, 7920, 8851, 10395, 11427]}, "edge": {"target": [], "time": []}}, "mouseover": {"state": {"target": ["12", "10", "11", "4", "2", "3", "7", "6", "8", "5", "0", "9", "10", "9", "0", "5", "6", "10"], "time": [2081, 2880, 3064, 3680, 4379, 4461, 5198, 5825, 5911, 6911, 7011, 7061, 7163, 7596, 8232, 8332, 9246, 10952]}, "edge": {"target": [], "time": []}}, "mouseout": {"state": {"target": ["9", "0", "12", "10", "11", "4", "2", "3", "7", "6", "8", "5", "0", "9", "10", "9", "0", "5", "6", "10"], "time": [1047, 1880, 2853, 2912, 3630, 4361, 4412, 5148, 5806, 5865, 6811, 6995, 7044, 7112, 7546, 8200, 8266, 9213, 10663, 15948]}, "edge": {"target": [], "time": []}}}, "displayed_time": "14.83", "trialTime": 16226, "trial_type": "mouselab-mdp", "trial_index": 73, "time_elapsed": 1118231, "internal_node_id": "0.0-4.0-3.0-27.0"}}, {"uniqueid": "w43014207:a45951005", "current_trial": 74, "dateTime": 1664556701936, "trialdata": {"revealed_states": [], "num_clicks_accrued": [0, 0, 0, 0, 0, 0, 0, 0, 0, 0, 0, 0, 0], "stateRewards": ["", 2, 4, 48, 48, -2, 4, 48, -24, -4, 8, -48, 48], "withholdReward": true, "trial_id": "mdp_407586865939", "block": "test2", "trialIndex": 62, "score": 54, "costs": -3, "simulationMode": [null, null, null], "rewards": [-4, 8, 48], "path": ["0", "0", "9", "10", "12"], "rt": [18488, 114, 3442], "actions": ["left", "left", "down"], "actionTimes": [19748, 20381, 24328], "queries": {"click": {"state": {"target": ["4", "11", "12", "8", "7", "3", "6", "5", "10", "9", "2", "1"], "time": [2916, 3776, 4896, 5936, 6773, 7577, 9115, 9763, 11297, 11954, 12825, 13777]}, "edge": {"target": [], "time": []}}, "mouseover": {"state": {"target": ["1", "2", "1", "4", "11", "10", "12", "8", "8", "6", "7", "3", "2", "1", "5", "6", "5", "0", "9", "1", "9", "10", "9", "1", "2", "1"], "time": [1685, 1719, 1967, 2633, 3368, 4116, 4292, 5318, 5652, 6268, 6318, 7172, 8102, 8518, 8601, 8634, 9450, 10152, 10217, 10518, 10834, 10951, 11638, 12303, 12402, 13186]}, "edge": {"target": [], "time": []}}, "mouseout": {"state": {"target": ["9", "1", "2", "1", "4", "11", "10", "12", "8", "8", "6", "7", "3", "2", "1", "5", "6", "5", "0", "9", "1", "9", "10", "9", "1", "2"], "time": [668, 1702, 1917, 2266, 3270, 4082, 4167, 5201, 5485, 6251, 6300, 7118, 8051, 8455, 8568, 8617, 9435, 10135, 10184, 10417, 10769, 10867, 11603, 12270, 12353, 13153]}, "edge": {"target": [], "time": []}}}, "displayed_time": "24.83", "trialTime": 26292, "trial_type": "mouselab-mdp", "trial_index": 74, "time_elapsed": 1144625, "internal_node_id": "0.0-4.0-3.0-28.0"}}, {"uniqueid": "w43014207:a45951005", "current_trial": 75, "dateTime": 1664556717388, "trialdata": {"revealed_states": [], "num_clicks_accrued": [0, 0, 0, 0, 0, 0, 0, 0, 0, 0, 0, 0, 0], "stateRewards": ["", -4, -4, 24, -24, 4, 4, 24, 48, 4, -4, 48, -48], "withholdReward": true, "trial_id": "mdp_522385334882", "block": "test2", "trialIndex": 63, "score": 58.25, "costs": -2.75, "simulationMode": [null, null, null], "rewards": [4, 4, 48], "path": ["0", "0", "5", "6", "8"], "rt": [10595, 117, 747], "actions": ["right", "right", "down"], "actionTimes": [12129, 12753, 14018], "queries": {"click": {"state": {"target": ["4", "11", "12", "8", "7", "3", "6", "10", "2", "5", "9"], "time": [2417, 3382, 4399, 5313, 6009, 6661, 7501, 8929, 9851, 10695, 11417]}, "edge": {"target": [], "time": []}}, "mouseover": {"state": {"target": ["1", "4", "10", "11", "10", "12", "8", "8", "6", "7", "3", "6", "5", "0", "9", "10", "2", "5", "0", "9"], "time": [1952, 2170, 2818, 3035, 3702, 4199, 4884, 5052, 5603, 5687, 6335, 7002, 7972, 8035, 8088, 8319, 9487, 10334, 11019, 11117]}, "edge": {"target": [], "time": []}}, "mouseout": {"state": {"target": ["1", "0", "1", "4", "10", "11", "10", "12", "8", "8", "6", "7", "3", "6", "5", "0", "9", "10", "2", "5", "0"], "time": [1055, 1917, 2019, 2719, 3002, 3672, 3736, 4755, 4954, 5587, 5638, 6302, 6952, 7970, 8001, 8052, 8152, 9205, 10268, 10989, 11051]}, "edge": {"target": [], "time": []}}}, "displayed_time": "14.52", "trialTime": 15382, "trial_type": "mouselab-mdp", "trial_index": 75, "time_elapsed": 1160077, "internal_node_id": "0.0-4.0-3.0-29.0"}}, {"uniqueid": "w43014207:a45951005", "current_trial": 76, "dateTime": 1664556721895, "trialdata": {"rt": 4495, "stimulus": "<h1> End of block! </h1>\n\nYou have reached the end of the block 2/4. If you need a short break, feel free to take one now before moving on.\n\n<br><br>\nIn the next block, you will complete another 30 rounds of this game.\n\n<br><br>\n<div style='text-align: center;'>Press <code>space</code> to begin.</div>\n<br><br>\n<div style='text-align: center;'>(If the experiment doesn't continue, try clicking on the text and then pressing <code>space</code>.)</div>", "response": " ", "trial_id": "mdp_ready_3", "trial_type": "html-keyboard-response", "trial_index": 76, "time_elapsed": 1164584, "internal_node_id": "0.0-4.0-4.0"}}, {"uniqueid": "w43014207:a45951005", "current_trial": 77, "dateTime": 1664556737334, "trialdata": {"revealed_states": [], "num_clicks_accrued": [0, 0, 0, 0, 0, 0, 0, 0, 0, 0, 0, 0, 0], "stateRewards": ["", -2, 8, 48, -48, 4, -8, 24, 24, 4, 4, -48, -24], "withholdReward": true, "trial_id": "mdp_746937869927", "block": "test3", "trialIndex": 64, "score": 56.5, "costs": -2.5, "simulationMode": [null, null, null], "rewards": [-2, 8, 48], "path": ["0", "0", "1", "2", "3"], "rt": [10424, 68, 371], "actions": ["up", "up", "right"], "actionTimes": [12471, 13035, 13921], "queries": {"click": {"state": {"target": ["4", "11", "12", "8", "7", "3", "2", "5", "6", "1"], "time": [3914, 4803, 5580, 6513, 7299, 8071, 9412, 10497, 11144, 12064]}, "edge": {"target": [], "time": []}}, "mouseover": {"state": {"target": ["1", "4", "11", "10", "12", "8", "6", "7", "3", "2", "2", "1", "5", "5", "6", "1"], "time": [3448, 3581, 4464, 5146, 5263, 6232, 6865, 7032, 7683, 8682, 9104, 9735, 9937, 10235, 10849, 11765]}, "edge": {"target": [], "time": []}}, "mouseout": {"state": {"target": ["9", "0", "1", "4", "11", "10", "12", "8", "6", "7", "3", "2", "2", "1", "5", "5", "6", "5"], "time": [1281, 1465, 3498, 4364, 5118, 5196, 5899, 6832, 6948, 7616, 8665, 8782, 9690, 9852, 10067, 10816, 11682, 11716]}, "edge": {"target": [], "time": []}}}, "displayed_time": "14.44", "trialTime": 15327, "trial_type": "mouselab-mdp", "trial_index": 77, "time_elapsed": 1180023, "internal_node_id": "0.0-4.0-5.0-0.0"}}, {"uniqueid": "w43014207:a45951005", "current_trial": 78, "dateTime": 1664556748641, "trialdata": {"revealed_states": [], "num_clicks_accrued": [0, 0, 0, 0, 0, 0, 0, 0, 0, 0, 0, 0, 0], "stateRewards": ["", 2, 8, -48, -24, 2, -4, -48, 24, 2, -4, -24, -24], "withholdReward": true, "trial_id": "mdp_954659099093", "block": "test3", "trialIndex": 65, "score": 25.25, "costs": -1.75, "simulationMode": [null, null, null], "rewards": [2, -4, 24], "path": ["0", "0", "5", "6", "8"], "rt": [7515, 119, 67], "actions": ["right", "right", "down"], "actionTimes": [8568, 9179, 9743], "queries": {"click": {"state": {"target": ["4", "11", "12", "8", "7", "3", "6"], "time": [1979, 2696, 3436, 4299, 5149, 5867, 7823]}, "edge": {"target": [], "time": []}}, "mouseover": {"state": {"target": ["4", "4", "11", "10", "12", "8", "6", "7", "3", "5", "6", "6"], "time": [1396, 1626, 2359, 3008, 3142, 4007, 4628, 4796, 5495, 7140, 7240, 7507]}, "edge": {"target": [], "time": []}}, "mouseout": {"state": {"target": ["1", "0", "4", "4", "11", "10", "12", "8", "6", "7", "3", "5", "6", "6"], "time": [592, 1329, 1409, 2293, 2991, 3059, 3739, 4611, 4699, 5445, 7042, 7174, 7273, 10729]}, "edge": {"target": [], "time": []}}}, "displayed_time": "10.24", "trialTime": 11245, "trial_type": "mouselab-mdp", "trial_index": 78, "time_elapsed": 1191330, "internal_node_id": "0.0-4.0-5.0-1.0"}}, {"uniqueid": "w43014207:a45951005", "current_trial": 79, "dateTime": 1664556762443, "trialdata": {"revealed_states": [], "num_clicks_accrued": [0, 0, 0, 0, 0, 0, 0, 0, 0, 0, 0, 0, 0], "stateRewards": ["", 2, -8, 48, -24, 2, 8, 24, -24, 4, -4, -48, -48], "withholdReward": false, "trial_id": "mdp_130946197263", "block": "test3", "trialIndex": 66, "score": 44.5, "costs": -2.5, "simulationMode": [null, null, null], "rewards": [2, -8, 48], "path": ["0", "0", "1", "2", "3"], "rt": [10297, 51, 47], "actions": ["up", "up", "right"], "actionTimes": [11369, 11932, 12510], "queries": {"click": {"state": {"target": ["7", "4", "12", "11", "3", "8", "2", "6", "5", "1"], "time": [2118, 2947, 3768, 4507, 5332, 6497, 7684, 8615, 9299, 9992]}, "edge": {"target": [], "time": []}}, "mouseover": {"state": {"target": ["5", "7", "4", "11", "10", "12", "10", "11", "3", "6", "8", "6", "2", "6", "5", "1"], "time": [1413, 1898, 2561, 3297, 3346, 3430, 4066, 4133, 4963, 5713, 6179, 6994, 7395, 8179, 8948, 9665]}, "edge": {"target": [], "time": []}}, "mouseout": {"state": {"target": ["0", "5", "7", "4", "11", "10", "12", "10", "11", "3", "6", "8", "6", "7", "3", "2", "6", "5"], "time": [1388, 1432, 2461, 3233, 3313, 3384, 4054, 4100, 4831, 5646, 5763, 6977, 7027, 7094, 7329, 7995, 8915, 9599]}, "edge": {"target": [], "time": []}}}, "displayed_time": "13.03", "trialTime": 13736, "trial_type": "mouselab-mdp", "trial_index": 79, "time_elapsed": 1205132, "internal_node_id": "0.0-4.0-5.0-2.0"}}, {"uniqueid": "w43014207:a45951005", "current_trial": 80, "dateTime": 1664556795584, "trialdata": {"revealed_states": [], "num_clicks_accrued": [0, 0, 0, 0, 0, 0, 0, 0, 0, 0, 0, 0, 0], "stateRewards": ["", 2, -4, 24, -24, 2, -8, 48, 48, 4, -4, 24, 48], "withholdReward": false, "trial_id": "mdp_947836623875", "block": "test3", "trialIndex": 67, "score": 50, "costs": -3, "simulationMode": [null, null, null], "rewards": [4, -4, 48], "path": ["0", "0", "9", "10", "12"], "rt": [27696, 1621, 409], "actions": ["left", "left", "down"], "actionTimes": [28982, 31102, 32024], "queries": {"click": {"state": {"target": ["3", "7", "4", "11", "12", "8", "5", "2", "1", "10", "6", "9"], "time": [2116, 2827, 3687, 4349, 5137, 6082, 6982, 8754, 9423, 10143, 11325, 12605]}, "edge": {"target": [], "time": []}}, "mouseover": {"state": {"target": ["3", "7", "4", "11", "10", "12", "8", "8", "5", "6", "1", "2", "1", "9", "10", "9", "0", "6", "0", "9"], "time": [1805, 2505, 3337, 4054, 4687, 4771, 5538, 5787, 6654, 7518, 8253, 8437, 9106, 9753, 9804, 10554, 10620, 10737, 12087, 12320]}, "edge": {"target": [], "time": []}}, "mouseout": {"state": {"target": ["1", "3", "7", "4", "11", "10", "12", "8", "8", "5", "6", "5", "1", "2", "1", "9", "10", "9", "0", "5", "6", "5", "0"], "time": [854, 2455, 3102, 3988, 4671, 4737, 5428, 5621, 6438, 7468, 8174, 8220, 8371, 9040, 9720, 9771, 10537, 10589, 10653, 10704, 12054, 12086, 12119]}, "edge": {"target": [], "time": []}}}, "displayed_time": "32.53", "trialTime": 33069, "trial_type": "mouselab-mdp", "trial_index": 80, "time_elapsed": 1238273, "internal_node_id": "0.0-4.0-5.0-3.0"}}, {"uniqueid": "w43014207:a45951005", "current_trial": 81, "dateTime": 1664556807635, "trialdata": {"revealed_states": [], "num_clicks_accrued": [0, 0, 0, 0, 0, 0, 0, 0, 0, 0, 0, 0, 0], "stateRewards": ["", 2, 8, -48, 48, -4, -8, 24, 24, -2, -8, 24, -24], "withholdReward": true, "trial_id": "mdp_910248289075", "block": "test3", "trialIndex": 68, "score": 61.5, "costs": -1.5, "simulationMode": [null, null, null], "rewards": [2, 8, 48], "path": ["0", "0", "1", "2", "4"], "rt": [5754, 32, 24], "actions": ["up", "up", "left"], "actionTimes": [8000, 8556, 9090], "queries": {"click": {"state": {"target": ["4", "11", "12", "8", "7", "3"], "time": [3110, 3871, 4624, 5408, 6091, 6752]}, "edge": {"target": [], "time": []}}, "mouseover": {"state": {"target": ["1", "4", "11", "10", "12", "8", "6", "7", "3", "2", "2"], "time": [2652, 2751, 3519, 4201, 4268, 5118, 5677, 5735, 6451, 7151, 7568]}, "edge": {"target": [], "time": []}}, "mouseout": {"state": {"target": ["9", "1", "4", "11", "10", "12", "8", "6", "7", "3", "2", "4"], "time": [1602, 2688, 3485, 4170, 4235, 4899, 5675, 5718, 6418, 7122, 7201, 7551]}, "edge": {"target": [], "time": []}}}, "displayed_time": "11.25", "trialTime": 11910, "trial_type": "mouselab-mdp", "trial_index": 81, "time_elapsed": 1250324, "internal_node_id": "0.0-4.0-5.0-4.0"}}, {"uniqueid": "w43014207:a45951005", "current_trial": 82, "dateTime": 1664556821768, "trialdata": {"revealed_states": [], "num_clicks_accrued": [0, 0, 0, 0, 0, 0, 0, 0, 0, 0, 0, 0, 0], "stateRewards": ["", 4, -4, 24, 48, 4, 8, -24, -24, -2, 4, 48, 48], "withholdReward": false, "trial_id": "mdp_624998450453", "block": "test3", "trialIndex": 69, "score": 52.5, "costs": -2.5, "simulationMode": [null, null, null], "rewards": [-2, 4, 48], "path": ["0", "0", "9", "10", "12"], "rt": [9363, 811, 126], "actions": ["left", "left", "down"], "actionTimes": [10919, 12242, 12860], "queries": {"click": {"state": {"target": ["4", "11", "12", "8", "7", "3", "10", "2", "9", "1"], "time": [2267, 2993, 4321, 5221, 5916, 6573, 7616, 8433, 9117, 10153]}, "edge": {"target": [], "time": []}}, "mouseover": {"state": {"target": ["4", "11", "9", "12", "12", "8", "6", "7", "3", "1", "9", "10", "2", "9", "1", "1"], "time": [1901, 2632, 3433, 3566, 4026, 4799, 5552, 5602, 6252, 6980, 7164, 7265, 8103, 8802, 9448, 9849]}, "edge": {"target": [], "time": []}}, "mouseout": {"state": {"target": ["2", "1", "0", "0", "4", "11", "9", "12", "12", "8", "6", "7", "3", "1", "9", "10", "2", "9", "1"], "time": [812, 883, 1032, 1783, 2557, 3391, 3499, 3649, 4631, 5536, 5568, 6218, 6936, 7064, 7198, 7902, 8702, 9417, 9504]}, "edge": {"target": [], "time": []}}}, "displayed_time": "13.41", "trialTime": 14060, "trial_type": "mouselab-mdp", "trial_index": 82, "time_elapsed": 1264457, "internal_node_id": "0.0-4.0-5.0-5.0"}}, {"uniqueid": "w43014207:a45951005", "current_trial": 83, "dateTime": 1664556833937, "trialdata": {"revealed_states": [], "num_clicks_accrued": [0, 0, 0, 0, 0, 0, 0, 0, 0, 0, 0, 0, 0], "stateRewards": ["", 2, 4, -48, -24, 2, 8, 24, 48, -2, 4, 48, -48], "withholdReward": true, "trial_id": "mdp_551894842204", "block": "test3", "trialIndex": 70, "score": 60.5, "costs": -2.5, "simulationMode": [null, null, null], "rewards": [2, 8, 48], "path": ["0", "0", "5", "6", "8"], "rt": [8430, 92, 96], "actions": ["right", "right", "down"], "actionTimes": [9683, 10287, 10890], "queries": {"click": {"state": {"target": ["4", "8", "7", "3", "11", "12", "10", "9", "5", "6"], "time": [1957, 2739, 3472, 4166, 5036, 5937, 6911, 7523, 8665, 9269]}, "edge": {"target": [], "time": []}}, "mouseover": {"state": {"target": ["4", "6", "8", "6", "7", "3", "11", "10", "12", "10", "9", "0", "5", "6"], "time": [1643, 2328, 2364, 3045, 3096, 3894, 4775, 5361, 5424, 6375, 7208, 7825, 7925, 8975]}, "edge": {"target": [], "time": []}}, "mouseout": {"state": {"target": ["1", "0", "4", "6", "8", "6", "7", "3", "11", "10", "12", "10", "9", "0", "5"], "time": [803, 1560, 2263, 2349, 3030, 3062, 3826, 4457, 5327, 5390, 6342, 7191, 7809, 7858, 8942]}, "edge": {"target": [], "time": []}}}, "displayed_time": "11.41", "trialTime": 12107, "trial_type": "mouselab-mdp", "trial_index": 83, "time_elapsed": 1276626, "internal_node_id": "0.0-4.0-5.0-6.0"}}, {"uniqueid": "w43014207:a45951005", "current_trial": 84, "dateTime": 1664556847053, "trialdata": {"revealed_states": [], "num_clicks_accrued": [0, 0, 0, 0, 0, 0, 0, 0, 0, 0, 0, 0, 0], "stateRewards": ["", 2, -4, 24, 24, 4, -4, -24, 24, -4, -4, 48, 48], "withholdReward": true, "trial_id": "mdp_566306223773", "block": "t