{"condition": 0, "counterbalance": 0, "assignmentId": "a99536375", "workerId": "w83265234", "hitId": "h22028274", "currenttrial": 977, "bonus": 0, "data": [{"uniqueid": "w83265234:a99536375", "current_trial": 0, "dateTime": 1664368421166, "trialdata": {"success": true, "trial_type": "fullscreen", "trial_index": 0, "time_elapsed": 5788, "internal_node_id": "0.0-0.0"}}, {"uniqueid": "w83265234:a99536375", "current_trial": 1, "dateTime": 1664368447770, "trialdata": {"view_history": [{"page_index": 0, "viewing_time": 26586}], "rt": 26587, "trial_id": "exp_instructions_distractor", "trial_type": "instructions", "trial_index": 1, "time_elapsed": 32393, "internal_node_id": "0.0-1.0"}}, {"uniqueid": "w83265234:a99536375", "current_trial": 2, "dateTime": 1664368473564, "trialdata": {"view_history": [{"page_index": 0, "viewing_time": 25792}], "rt": 25793, "trial_id": "color_game_instructions", "trial_type": "instructions", "trial_index": 2, "time_elapsed": 58187, "internal_node_id": "0.0-2.0"}}, {"uniqueid": "w83265234:a99536375", "current_trial": 3, "dateTime": 1664368475155, "trialdata": {"rt": 1588, "stimulus": "<h1> Get ready to start the game! </h1>\n\nThank you for reading the instructions. Get ready start with the first of 5 block(s) of this game.\n<br><br>\nIn this first block, you will complete 90 rounds of this game before moving on.\n<br><br>\nRemember, the better you perform, the bigger your bonus will be!\n<br><br>\n<div style='text-align: center;'>Press <code>space</code> to begin.</div>", "response": " ", "trial_id": "stroop_1_ready_1", "trial_type": "html-keyboard-response", "trial_index": 3, "time_elapsed": 59778, "internal_node_id": "0.0-3.0"}}, {"uniqueid": "w83265234:a99536375", "current_trial": 4, "dateTime": 1664368478027, "trialdata": {"rt": 2859, "stimulus": "<p id='stroop-text' class='stroop-green'>RED</p>", "response": "g", "stimulus-type": "incongruent", "word": "red", "color": "green", "correct_response": "g", "trial_id": "stroop-trial-1-incongruent-12", "trial_type": "html-keyboard-response", "trial_index": 4, "time_elapsed": 62649, "internal_node_id": "0.0-4.0-0.0"}}, {"uniqueid": "w83265234:a99536375", "current_trial": 5, "dateTime": 1664368479914, "trialdata": {"rt": 1383, "stimulus": "<p id='stroop-text' class='stroop-blue'>BLUE</p>", "response": "b", "stimulus-type": "congruent", "word": "blue", "color": "blue", "correct_response": "b", "trial_id": "stroop-trial-1-congruent-9", "trial_type": "html-keyboard-response", "trial_index": 5, "time_elapsed": 64536, "internal_node_id": "0.0-4.0-1.0"}}, {"uniqueid": "w83265234:a99536375", "current_trial": 6, "dateTime": 1664368481306, "trialdata": {"rt": 887, "stimulus": "<p id='stroop-text' class='stroop-yellow'>CHAIR</p>", "response": "y", "stimulus-type": "unrelated", "word": "CHAIR", "color": "yellow", "correct_response": "y", "trial_id": "stroop-trial-1-unrelated-3", "trial_type": "html-keyboard-response", "trial_index": 6, "time_elapsed": 65929, "internal_node_id": "0.0-4.0-2.0"}}, {"uniqueid": "w83265234:a99536375", "current_trial": 7, "dateTime": 1664368482785, "trialdata": {"rt": 975, "stimulus": "<p id='stroop-text' class='stroop-red'>RED</p>", "response": "r", "stimulus-type": "congruent", "word": "red", "color": "red", "correct_response": "r", "trial_id": "stroop-trial-1-congruent-8", "trial_type": "html-keyboard-response", "trial_index": 7, "time_elapsed": 67407, "internal_node_id": "0.0-4.0-3.0"}}, {"uniqueid": "w83265234:a99536375", "current_trial": 8, "dateTime": 1664368484347, "trialdata": {"rt": 1057, "stimulus": "<p id='stroop-text' class='stroop-yellow'>BRIDGE</p>", "response": "y", "stimulus-type": "unrelated", "word": "BRIDGE", "color": "yellow", "correct_response": "y", "trial_id": "stroop-trial-1-unrelated-21", "trial_type": "html-keyboard-response", "trial_index": 8, "time_elapsed": 68969, "internal_node_id": "0.0-4.0-4.0"}}, {"uniqueid": "w83265234:a99536375", "current_trial": 9, "dateTime": 1664368485647, "trialdata": {"rt": 794, "stimulus": "<p id='stroop-text' class='stroop-yellow'>YELLOW</p>", "response": "y", "stimulus-type": "congruent", "word": "yellow", "color": "yellow", "correct_response": "y", "trial_id": "stroop-trial-1-congruent-14", "trial_type": "html-keyboard-response", "trial_index": 9, "time_elapsed": 70269, "internal_node_id": "0.0-4.0-5.0"}}, {"uniqueid": "w83265234:a99536375", "current_trial": 10, "dateTime": 1664368486984, "trialdata": {"rt": 833, "stimulus": "<p id='stroop-text' class='stroop-yellow'>WINDOW</p>", "response": "y", "stimulus-type": "unrelated", "word": "WINDOW", "color": "yellow", "correct_response": "y", "trial_id": "stroop-trial-1-unrelated-4", "trial_type": "html-keyboard-response", "trial_index": 10, "time_elapsed": 71606, "internal_node_id": "0.0-4.0-6.0"}}, {"uniqueid": "w83265234:a99536375", "current_trial": 11, "dateTime": 1664368488253, "trialdata": {"rt": 764, "stimulus": "<p id='stroop-text' class='stroop-blue'>BLUE</p>", "response": "b", "stimulus-type": "congruent", "word": "blue", "color": "blue", "correct_response": "b", "trial_id": "stroop-trial-1-congruent-20", "trial_type": "html-keyboard-response", "trial_index": 11, "time_elapsed": 72875, "internal_node_id": "0.0-4.0-7.0"}}, {"uniqueid": "w83265234:a99536375", "current_trial": 12, "dateTime": 1664368489658, "trialdata": {"rt": 900, "stimulus": "<p id='stroop-text' class='stroop-blue'>BLUE</p>", "response": "b", "stimulus-type": "congruent", "word": "blue", "color": "blue", "correct_response": "b", "trial_id": "stroop-trial-1-congruent-10", "trial_type": "html-keyboard-response", "trial_index": 12, "time_elapsed": 74280, "internal_node_id": "0.0-4.0-8.0"}}, {"uniqueid": "w83265234:a99536375", "current_trial": 13, "dateTime": 1664368490882, "trialdata": {"rt": 719, "stimulus": "<p id='stroop-text' class='stroop-red'>RED</p>", "response": "r", "stimulus-type": "congruent", "word": "red", "color": "red", "correct_response": "r", "trial_id": "stroop-trial-1-congruent-1", "trial_type": "html-keyboard-response", "trial_index": 13, "time_elapsed": 75504, "internal_node_id": "0.0-4.0-9.0"}}, {"uniqueid": "w83265234:a99536375", "current_trial": 14, "dateTime": 1664368492291, "trialdata": {"rt": 904, "stimulus": "<p id='stroop-text' class='stroop-green'>GREEN</p>", "response": "g", "stimulus-type": "congruent", "word": "green", "color": "green", "correct_response": "g", "trial_id": "stroop-trial-1-congruent-6", "trial_type": "html-keyboard-response", "trial_index": 14, "time_elapsed": 76913, "internal_node_id": "0.0-4.0-10.0"}}, {"uniqueid": "w83265234:a99536375", "current_trial": 15, "dateTime": 1664368493621, "trialdata": {"rt": 824, "stimulus": "<p id='stroop-text' class='stroop-green'>GREEN</p>", "response": "g", "stimulus-type": "congruent", "word": "green", "color": "green", "correct_response": "g", "trial_id": "stroop-trial-1-congruent-19", "trial_type": "html-keyboard-response", "trial_index": 15, "time_elapsed": 78243, "internal_node_id": "0.0-4.0-11.0"}}, {"uniqueid": "w83265234:a99536375", "current_trial": 16, "dateTime": 1664368495207, "trialdata": {"rt": 1082, "stimulus": "<p id='stroop-text' class='stroop-green'>BLUE</p>", "response": "b", "stimulus-type": "incongruent", "word": "blue", "color": "green", "correct_response": "g", "trial_id": "stroop-trial-1-incongruent-10", "trial_type": "html-keyboard-response", "trial_index": 16, "time_elapsed": 79829, "internal_node_id": "0.0-4.0-12.0"}}, {"uniqueid": "w83265234:a99536375", "current_trial": 17, "dateTime": 1664368496587, "trialdata": {"rt": 872, "stimulus": "<p id='stroop-text' class='stroop-yellow'>RED</p>", "response": "r", "stimulus-type": "incongruent", "word": "red", "color": "yellow", "correct_response": "y", "trial_id": "stroop-trial-1-incongruent-29", "trial_type": "html-keyboard-response", "trial_index": 17, "time_elapsed": 81209, "internal_node_id": "0.0-4.0-13.0"}}, {"uniqueid": "w83265234:a99536375", "current_trial": 18, "dateTime": 1664368498132, "trialdata": {"rt": 1041, "stimulus": "<p id='stroop-text' class='stroop-red'>DOG</p>", "response": "r", "stimulus-type": "unrelated", "word": "DOG", "color": "red", "correct_response": "r", "trial_id": "stroop-trial-1-unrelated-8", "trial_type": "html-keyboard-response", "trial_index": 18, "time_elapsed": 82754, "internal_node_id": "0.0-4.0-14.0"}}, {"uniqueid": "w83265234:a99536375", "current_trial": 19, "dateTime": 1664368500387, "trialdata": {"rt": 1750, "stimulus": "<p id='stroop-text' class='stroop-green'>YELLOW</p>", "response": "y", "stimulus-type": "incongruent", "word": "yellow", "color": "green", "correct_response": "g", "trial_id": "stroop-trial-1-incongruent-1", "trial_type": "html-keyboard-response", "trial_index": 19, "time_elapsed": 85009, "internal_node_id": "0.0-4.0-15.0"}}, {"uniqueid": "w83265234:a99536375", "current_trial": 20, "dateTime": 1664368501741, "trialdata": {"rt": 851, "stimulus": "<p id='stroop-text' class='stroop-green'>YELLOW</p>", "response": "y", "stimulus-type": "incongruent", "word": "yellow", "color": "green", "correct_response": "g", "trial_id": "stroop-trial-1-incongruent-7", "trial_type": "html-keyboard-response", "trial_index": 20, "time_elapsed": 86363, "internal_node_id": "0.0-4.0-16.0"}}, {"uniqueid": "w83265234:a99536375", "current_trial": 21, "dateTime": 1664368503411, "trialdata": {"rt": 1155, "stimulus": "<p id='stroop-text' class='stroop-blue'>MONKEY</p>", "response": "b", "stimulus-type": "unrelated", "word": "MONKEY", "color": "blue", "correct_response": "b", "trial_id": "stroop-trial-1-unrelated-13", "trial_type": "html-keyboard-response", "trial_index": 21, "time_elapsed": 88034, "internal_node_id": "0.0-4.0-17.0"}}, {"uniqueid": "w83265234:a99536375", "current_trial": 22, "dateTime": 1664368504653, "trialdata": {"rt": 737, "stimulus": "<p id='stroop-text' class='stroop-blue'>BRIDGE</p>", "response": "b", "stimulus-type": "unrelated", "word": "BRIDGE", "color": "blue", "correct_response": "b", "trial_id": "stroop-trial-1-unrelated-6", "trial_type": "html-keyboard-response", "trial_index": 22, "time_elapsed": 89275, "internal_node_id": "0.0-4.0-18.0"}}, {"uniqueid": "w83265234:a99536375", "current_trial": 23, "dateTime": 1664368506092, "trialdata": {"rt": 935, "stimulus": "<p id='stroop-text' class='stroop-green'>STONE</p>", "response": "g", "stimulus-type": "unrelated", "word": "STONE", "color": "green", "correct_response": "g", "trial_id": "stroop-trial-1-unrelated-17", "trial_type": "html-keyboard-response", "trial_index": 23, "time_elapsed": 90715, "internal_node_id": "0.0-4.0-19.0"}}, {"uniqueid": "w83265234:a99536375", "current_trial": 24, "dateTime": 1664368507440, "trialdata": {"rt": 842, "stimulus": "<p id='stroop-text' class='stroop-blue'>GREEN</p>", "response": "g", "stimulus-type": "incongruent", "word": "green", "color": "blue", "correct_response": "b", "trial_id": "stroop-trial-1-incongruent-15", "trial_type": "html-keyboard-response", "trial_index": 24, "time_elapsed": 92063, "internal_node_id": "0.0-4.0-20.0"}}, {"uniqueid": "w83265234:a99536375", "current_trial": 25, "dateTime": 1664368508896, "trialdata": {"rt": 942, "stimulus": "<p id='stroop-text' class='stroop-red'>MONKEY</p>", "response": "r", "stimulus-type": "unrelated", "word": "MONKEY", "color": "red", "correct_response": "r", "trial_id": "stroop-trial-1-unrelated-10", "trial_type": "html-keyboard-response", "trial_index": 25, "time_elapsed": 93519, "internal_node_id": "0.0-4.0-21.0"}}, {"uniqueid": "w83265234:a99536375", "current_trial": 26, "dateTime": 1664368510251, "trialdata": {"rt": 849, "stimulus": "<p id='stroop-text' class='stroop-yellow'>YELLOW</p>", "response": "y", "stimulus-type": "congruent", "word": "yellow", "color": "yellow", "correct_response": "y", "trial_id": "stroop-trial-1-congruent-23", "trial_type": "html-keyboard-response", "trial_index": 26, "time_elapsed": 94873, "internal_node_id": "0.0-4.0-22.0"}}, {"uniqueid": "w83265234:a99536375", "current_trial": 27, "dateTime": 1664368511578, "trialdata": {"rt": 823, "stimulus": "<p id='stroop-text' class='stroop-green'>BLUE</p>", "response": "b", "stimulus-type": "incongruent", "word": "blue", "color": "green", "correct_response": "g", "trial_id": "stroop-trial-1-incongruent-16", "trial_type": "html-keyboard-response", "trial_index": 27, "time_elapsed": 96200, "internal_node_id": "0.0-4.0-23.0"}}, {"uniqueid": "w83265234:a99536375", "current_trial": 28, "dateTime": 1664368512964, "trialdata": {"rt": 882, "stimulus": "<p id='stroop-text' class='stroop-blue'>GREEN</p>", "response": "g", "stimulus-type": "incongruent", "word": "green", "color": "blue", "correct_response": "b", "trial_id": "stroop-trial-1-incongruent-27", "trial_type": "html-keyboard-response", "trial_index": 28, "time_elapsed": 97587, "internal_node_id": "0.0-4.0-24.0"}}, {"uniqueid": "w83265234:a99536375", "current_trial": 29, "dateTime": 1664368514801, "trialdata": {"rt": 1332, "stimulus": "<p id='stroop-text' class='stroop-green'>GREEN</p>", "response": "g", "stimulus-type": "congruent", "word": "green", "color": "green", "correct_response": "g", "trial_id": "stroop-trial-1-congruent-24", "trial_type": "html-keyboard-response", "trial_index": 29, "time_elapsed": 99423, "internal_node_id": "0.0-4.0-25.0"}}, {"uniqueid": "w83265234:a99536375", "current_trial": 30, "dateTime": 1664368516050, "trialdata": {"rt": 739, "stimulus": "<p id='stroop-text' class='stroop-red'>RED</p>", "response": "r", "stimulus-type": "congruent", "word": "red", "color": "red", "correct_response": "r", "trial_id": "stroop-trial-1-congruent-28", "trial_type": "html-keyboard-response", "trial_index": 30, "time_elapsed": 100673, "internal_node_id": "0.0-4.0-26.0"}}, {"uniqueid": "w83265234:a99536375", "current_trial": 31, "dateTime": 1664368517944, "trialdata": {"rt": 1390, "stimulus": "<p id='stroop-text' class='stroop-blue'>WINDOW</p>", "response": "b", "stimulus-type": "unrelated", "word": "WINDOW", "color": "blue", "correct_response": "b", "trial_id": "stroop-trial-1-unrelated-5", "trial_type": "html-keyboard-response", "trial_index": 31, "time_elapsed": 102567, "internal_node_id": "0.0-4.0-27.0"}}, {"uniqueid": "w83265234:a99536375", "current_trial": 32, "dateTime": 1664368519653, "trialdata": {"rt": 1204, "stimulus": "<p id='stroop-text' class='stroop-yellow'>BRIDGE</p>", "response": "y", "stimulus-type": "unrelated", "word": "BRIDGE", "color": "yellow", "correct_response": "y", "trial_id": "stroop-trial-1-unrelated-2", "trial_type": "html-keyboard-response", "trial_index": 32, "time_elapsed": 104276, "internal_node_id": "0.0-4.0-28.0"}}, {"uniqueid": "w83265234:a99536375", "current_trial": 33, "dateTime": 1664368521124, "trialdata": {"rt": 967, "stimulus": "<p id='stroop-text' class='stroop-blue'>YELLOW</p>", "response": "y", "stimulus-type": "incongruent", "word": "yellow", "color": "blue", "correct_response": "b", "trial_id": "stroop-trial-1-incongruent-30", "trial_type": "html-keyboard-response", "trial_index": 33, "time_elapsed": 105747, "internal_node_id": "0.0-4.0-29.0"}}, {"uniqueid": "w83265234:a99536375", "current_trial": 34, "dateTime": 1664368524738, "trialdata": {"rt": 3109, "stimulus": "<p id='stroop-text' class='stroop-red'>BLUE</p>", "response": "r", "stimulus-type": "incongruent", "word": "blue", "color": "red", "correct_response": "r", "trial_id": "stroop-trial-1-incongruent-8", "trial_type": "html-keyboard-response", "trial_index": 34, "time_elapsed": 109361, "internal_node_id": "0.0-4.0-30.0"}}, {"uniqueid": "w83265234:a99536375", "current_trial": 35, "dateTime": 1664368526130, "trialdata": {"rt": 887, "stimulus": "<p id='stroop-text' class='stroop-red'>RED</p>", "response": "r", "stimulus-type": "congruent", "word": "red", "color": "red", "correct_response": "r", "trial_id": "stroop-trial-1-congruent-2", "trial_type": "html-keyboard-response", "trial_index": 35, "time_elapsed": 110752, "internal_node_id": "0.0-4.0-31.0"}}, {"uniqueid": "w83265234:a99536375", "current_trial": 36, "dateTime": 1664368527737, "trialdata": {"rt": 1102, "stimulus": "<p id='stroop-text' class='stroop-blue'>RED</p>", "response": "b", "stimulus-type": "incongruent", "word": "red", "color": "blue", "correct_response": "b", "trial_id": "stroop-trial-1-incongruent-19", "trial_type": "html-keyboard-response", "trial_index": 36, "time_elapsed": 112360, "internal_node_id": "0.0-4.0-32.0"}}, {"uniqueid": "w83265234:a99536375", "current_trial": 37, "dateTime": 1664368529624, "trialdata": {"rt": 1382, "stimulus": "<p id='stroop-text' class='stroop-green'>GREEN</p>", "response": "g", "stimulus-type": "congruent", "word": "green", "color": "green", "correct_response": "g", "trial_id": "stroop-trial-1-congruent-16", "trial_type": "html-keyboard-response", "trial_index": 37, "time_elapsed": 114247, "internal_node_id": "0.0-4.0-33.0"}}, {"uniqueid": "w83265234:a99536375", "current_trial": 38, "dateTime": 1664368531059, "trialdata": {"rt": 917, "stimulus": "<p id='stroop-text' class='stroop-green'>GREEN</p>", "response": "g", "stimulus-type": "congruent", "word": "green", "color": "green", "correct_response": "g", "trial_id": "stroop-trial-1-congruent-25", "trial_type": "html-keyboard-response", "trial_index": 38, "time_elapsed": 115681, "internal_node_id": "0.0-4.0-34.0"}}, {"uniqueid": "w83265234:a99536375", "current_trial": 39, "dateTime": 1664368532555, "trialdata": {"rt": 993, "stimulus": "<p id='stroop-text' class='stroop-green'>BLUE</p>", "response": "b", "stimulus-type": "incongruent", "word": "blue", "color": "green", "correct_response": "g", "trial_id": "stroop-trial-1-incongruent-21", "trial_type": "html-keyboard-response", "trial_index": 39, "time_elapsed": 117177, "internal_node_id": "0.0-4.0-35.0"}}, {"uniqueid": "w83265234:a99536375", "current_trial": 40, "dateTime": 1664368535591, "trialdata": {"rt": 2533, "stimulus": "<p id='stroop-text' class='stroop-blue'>WINDOW</p>", "response": "b", "stimulus-type": "unrelated", "word": "WINDOW", "color": "blue", "correct_response": "b", "trial_id": "stroop-trial-1-unrelated-23", "trial_type": "html-keyboard-response", "trial_index": 40, "time_elapsed": 120214, "internal_node_id": "0.0-4.0-36.0"}}, {"uniqueid": "w83265234:a99536375", "current_trial": 41, "dateTime": 1664368538068, "trialdata": {"rt": 1962, "stimulus": "<p id='stroop-text' class='stroop-blue'>YELLOW</p>", "response": "b", "stimulus-type": "incongruent", "word": "yellow", "color": "blue", "correct_response": "b", "trial_id": "stroop-trial-1-incongruent-18", "trial_type": "html-keyboard-response", "trial_index": 41, "time_elapsed": 122691, "internal_node_id": "0.0-4.0-37.0"}}, {"uniqueid": "w83265234:a99536375", "current_trial": 42, "dateTime": 1664368541036, "trialdata": {"rt": 2464, "stimulus": "<p id='stroop-text' class='stroop-blue'>GREEN</p>", "response": "b", "stimulus-type": "incongruent", "word": "green", "color": "blue", "correct_response": "b", "trial_id": "stroop-trial-1-incongruent-25", "trial_type": "html-keyboard-response", "trial_index": 42, "time_elapsed": 125659, "internal_node_id": "0.0-4.0-38.0"}}, {"uniqueid": "w83265234:a99536375", "current_trial": 43, "dateTime": 1664368542666, "trialdata": {"rt": 1127, "stimulus": "<p id='stroop-text' class='stroop-blue'>WINDOW</p>", "response": "b", "stimulus-type": "unrelated", "word": "WINDOW", "color": "blue", "correct_response": "b", "trial_id": "stroop-trial-1-unrelated-22", "trial_type": "html-keyboard-response", "trial_index": 43, "time_elapsed": 127288, "internal_node_id": "0.0-4.0-39.0"}}, {"uniqueid": "w83265234:a99536375", "current_trial": 44, "dateTime": 1664368544398, "trialdata": {"rt": 1227, "stimulus": "<p id='stroop-text' class='stroop-red'>RED</p>", "response": "r", "stimulus-type": "congruent", "word": "red", "color": "red", "correct_response": "r", "trial_id": "stroop-trial-1-congruent-15", "trial_type": "html-keyboard-response", "trial_index": 44, "time_elapsed": 129020, "internal_node_id": "0.0-4.0-40.0"}}, {"uniqueid": "w83265234:a99536375", "current_trial": 45, "dateTime": 1664368546321, "trialdata": {"rt": 1418, "stimulus": "<p id='stroop-text' class='stroop-yellow'>BLUE</p>", "response": "y", "stimulus-type": "incongruent", "word": "blue", "color": "yellow", "correct_response": "y", "trial_id": "stroop-trial-1-incongruent-5", "trial_type": "html-keyboard-response", "trial_index": 45, "time_elapsed": 130943, "internal_node_id": "0.0-4.0-41.0"}}, {"uniqueid": "w83265234:a99536375", "current_trial": 46, "dateTime": 1664368547626, "trialdata": {"rt": 793, "stimulus": "<p id='stroop-text' class='stroop-yellow'>YELLOW</p>", "response": "y", "stimulus-type": "congruent", "word": "yellow", "color": "yellow", "correct_response": "y", "trial_id": "stroop-trial-1-congruent-12", "trial_type": "html-keyboard-response", "trial_index": 46, "time_elapsed": 132248, "internal_node_id": "0.0-4.0-42.0"}}, {"uniqueid": "w83265234:a99536375", "current_trial": 47, "dateTime": 1664368551081, "trialdata": {"rt": 2951, "stimulus": "<p id='stroop-text' class='stroop-green'>GREEN</p>", "response": "g", "stimulus-type": "congruent", "word": "green", "color": "green", "correct_response": "g", "trial_id": "stroop-trial-1-congruent-18", "trial_type": "html-keyboard-response", "trial_index": 47, "time_elapsed": 135704, "internal_node_id": "0.0-4.0-43.0"}}, {"uniqueid": "w83265234:a99536375", "current_trial": 48, "dateTime": 1664368552520, "trialdata": {"rt": 932, "stimulus": "<p id='stroop-text' class='stroop-blue'>FORK</p>", "response": "b", "stimulus-type": "unrelated", "word": "FORK", "color": "blue", "correct_response": "b", "trial_id": "stroop-trial-1-unrelated-12", "trial_type": "html-keyboard-response", "trial_index": 48, "time_elapsed": 137142, "internal_node_id": "0.0-4.0-44.0"}}, {"uniqueid": "w83265234:a99536375", "current_trial": 49, "dateTime": 1664368554000, "trialdata": {"rt": 976, "stimulus": "<p id='stroop-text' class='stroop-green'>RED</p>", "response": "r", "stimulus-type": "incongruent", "word": "red", "color": "green", "correct_response": "g", "trial_id": "stroop-trial-1-incongruent-14", "trial_type": "html-keyboard-response", "trial_index": 49, "time_elapsed": 138623, "internal_node_id": "0.0-4.0-45.0"}}, {"uniqueid": "w83265234:a99536375", "current_trial": 50, "dateTime": 1664368555945, "trialdata": {"rt": 1440, "stimulus": "<p id='stroop-text' class='stroop-red'>YELLOW</p>", "response": "y", "stimulus-type": "incongruent", "word": "yellow", "color": "red", "correct_response": "r", "trial_id": "stroop-trial-1-incongruent-23", "trial_type": "html-keyboard-response", "trial_index": 50, "time_elapsed": 140568, "internal_node_id": "0.0-4.0-46.0"}}, {"uniqueid": "w83265234:a99536375", "current_trial": 51, "dateTime": 1664368558612, "trialdata": {"rt": 2162, "stimulus": "<p id='stroop-text' class='stroop-yellow'>STONE</p>", "response": "y", "stimulus-type": "unrelated", "word": "STONE", "color": "yellow", "correct_response": "y", "trial_id": "stroop-trial-1-unrelated-18", "trial_type": "html-keyboard-response", "trial_index": 51, "time_elapsed": 143235, "internal_node_id": "0.0-4.0-47.0"}}, {"uniqueid": "w83265234:a99536375", "current_trial": 52, "dateTime": 1664368560213, "trialdata": {"rt": 1095, "stimulus": "<p id='stroop-text' class='stroop-green'>STONE</p>", "response": "g", "stimulus-type": "unrelated", "word": "STONE", "color": "green", "correct_response": "g", "trial_id": "stroop-trial-1-unrelated-16", "trial_type": "html-keyboard-response", "trial_index": 52, "time_elapsed": 144835, "internal_node_id": "0.0-4.0-48.0"}}, {"uniqueid": "w83265234:a99536375", "current_trial": 53, "dateTime": 1664368561933, "trialdata": {"rt": 1215, "stimulus": "<p id='stroop-text' class='stroop-green'>YELLOW</p>", "response": "g", "stimulus-type": "incongruent", "word": "yellow", "color": "green", "correct_response": "g", "trial_id": "stroop-trial-1-incongruent-11", "trial_type": "html-keyboard-response", "trial_index": 53, "time_elapsed": 146555, "internal_node_id": "0.0-4.0-49.0"}}, {"uniqueid": "w83265234:a99536375", "current_trial": 54, "dateTime": 1664368563580, "trialdata": {"rt": 1142, "stimulus": "<p id='stroop-text' class='stroop-green'>GREEN</p>", "response": "g", "stimulus-type": "congruent", "word": "green", "color": "green", "correct_response": "g", "trial_id": "stroop-trial-1-congruent-11", "trial_type": "html-keyboard-response", "trial_index": 54, "time_elapsed": 148203, "internal_node_id": "0.0-4.0-50.0"}}, {"uniqueid": "w83265234:a99536375", "current_trial": 55, "dateTime": 1664368564959, "trialdata": {"rt": 873, "stimulus": "<p id='stroop-text' class='stroop-blue'>MONKEY</p>", "response": "b", "stimulus-type": "unrelated", "word": "MONKEY", "color": "blue", "correct_response": "b", "trial_id": "stroop-trial-1-unrelated-1", "trial_type": "html-keyboard-response", "trial_index": 55, "time_elapsed": 149581, "internal_node_id": "0.0-4.0-51.0"}}, {"uniqueid": "w83265234:a99536375", "current_trial": 56, "dateTime": 1664368566880, "trialdata": {"rt": 1417, "stimulus": "<p id='stroop-text' class='stroop-green'>BOAT</p>", "response": "g", "stimulus-type": "unrelated", "word": "BOAT", "color": "green", "correct_response": "g", "trial_id": "stroop-trial-1-unrelated-20", "trial_type": "html-keyboard-response", "trial_index": 56, "time_elapsed": 151503, "internal_node_id": "0.0-4.0-52.0"}}, {"uniqueid": "w83265234:a99536375", "current_trial": 57, "dateTime": 1664368568236, "trialdata": {"rt": 849, "stimulus": "<p id='stroop-text' class='stroop-green'>BOTTLE</p>", "response": "g", "stimulus-type": "unrelated", "word": "BOTTLE", "color": "green", "correct_response": "g", "trial_id": "stroop-trial-1-unrelated-29", "trial_type": "html-keyboard-response", "trial_index": 57, "time_elapsed": 152859, "internal_node_id": "0.0-4.0-53.0"}}, {"uniqueid": "w83265234:a99536375", "current_trial": 58, "dateTime": 1664368569763, "trialdata": {"rt": 1022, "stimulus": "<p id='stroop-text' class='stroop-green'>YELLOW</p>", "response": "g", "stimulus-type": "incongruent", "word": "yellow", "color": "green", "correct_response": "g", "trial_id": "stroop-trial-1-incongruent-3", "trial_type": "html-keyboard-response", "trial_index": 58, "time_elapsed": 154385, "internal_node_id": "0.0-4.0-54.0"}}, {"uniqueid": "w83265234:a99536375", "current_trial": 59, "dateTime": 1664368571227, "trialdata": {"rt": 960, "stimulus": "<p id='stroop-text' class='stroop-blue'>YELLOW</p>", "response": "b", "stimulus-type": "incongruent", "word": "yellow", "color": "blue", "correct_response": "b", "trial_id": "stroop-trial-1-incongruent-17", "trial_type": "html-keyboard-response", "trial_index": 59, "time_elapsed": 155850, "internal_node_id": "0.0-4.0-55.0"}}, {"uniqueid": "w83265234:a99536375", "current_trial": 60, "dateTime": 1664368573136, "trialdata": {"rt": 1403, "stimulus": "<p id='stroop-text' class='stroop-green'>BLUE</p>", "response": "g", "stimulus-type": "incongruent", "word": "blue", "color": "green", "correct_response": "g", "trial_id": "stroop-trial-1-incongruent-2", "trial_type": "html-keyboard-response", "trial_index": 60, "time_elapsed": 157758, "internal_node_id": "0.0-4.0-56.0"}}, {"uniqueid": "w83265234:a99536375", "current_trial": 61, "dateTime": 1664368574458, "trialdata": {"rt": 815, "stimulus": "<p id='stroop-text' class='stroop-blue'>BRIDGE</p>", "response": "b", "stimulus-type": "unrelated", "word": "BRIDGE", "color": "blue", "correct_response": "b", "trial_id": "stroop-trial-1-unrelated-27", "trial_type": "html-keyboard-response", "trial_index": 61, "time_elapsed": 159080, "internal_node_id": "0.0-4.0-57.0"}}, {"uniqueid": "w83265234:a99536375", "current_trial": 62, "dateTime": 1664368575789, "trialdata": {"rt": 826, "stimulus": "<p id='stroop-text' class='stroop-blue'>BLUE</p>", "response": "b", "stimulus-type": "congruent", "word": "blue", "color": "blue", "correct_response": "b", "trial_id": "stroop-trial-1-congruent-30", "trial_type": "html-keyboard-response", "trial_index": 62, "time_elapsed": 160411, "internal_node_id": "0.0-4.0-58.0"}}, {"uniqueid": "w83265234:a99536375", "current_trial": 63, "dateTime": 1664368577056, "trialdata": {"rt": 763, "stimulus": "<p id='stroop-text' class='stroop-green'>BRAIN</p>", "response": "g", "stimulus-type": "unrelated", "word": "BRAIN", "color": "green", "correct_response": "g", "trial_id": "stroop-trial-1-unrelated-25", "trial_type": "html-keyboard-response", "trial_index": 63, "time_elapsed": 161678, "internal_node_id": "0.0-4.0-59.0"}}, {"uniqueid": "w83265234:a99536375", "current_trial": 64, "dateTime": 1664368578538, "trialdata": {"rt": 976, "stimulus": "<p id='stroop-text' class='stroop-blue'>WINDOW</p>", "response": "b", "stimulus-type": "unrelated", "word": "WINDOW", "color": "blue", "correct_response": "b", "trial_id": "stroop-trial-1-unrelated-15", "trial_type": "html-keyboard-response", "trial_index": 64, "time_elapsed": 163160, "internal_node_id": "0.0-4.0-60.0"}}, {"uniqueid": "w83265234:a99536375", "current_trial": 65, "dateTime": 1664368579907, "trialdata": {"rt": 858, "stimulus": "<p id='stroop-text' class='stroop-blue'>BLUE</p>", "response": "b", "stimulus-type": "congruent", "word": "blue", "color": "blue", "correct_response": "b", "trial_id": "stroop-trial-1-congruent-7", "trial_type": "html-keyboard-response", "trial_index": 65, "time_elapsed": 164529, "internal_node_id": "0.0-4.0-61.0"}}, {"uniqueid": "w83265234:a99536375", "current_trial": 66, "dateTime": 1664368581039, "trialdata": {"rt": 628, "stimulus": "<p id='stroop-text' class='stroop-blue'>SHIP</p>", "response": "b", "stimulus-type": "unrelated", "word": "SHIP", "color": "blue", "correct_response": "b", "trial_id": "stroop-trial-1-unrelated-30", "trial_type": "html-keyboard-response", "trial_index": 66, "time_elapsed": 165662, "internal_node_id": "0.0-4.0-62.0"}}, {"uniqueid": "w83265234:a99536375", "current_trial": 67, "dateTime": 1664368582675, "trialdata": {"rt": 1133, "stimulus": "<p id='stroop-text' class='stroop-green'>GREEN</p>", "response": "g", "stimulus-type": "congruent", "word": "green", "color": "green", "correct_response": "g", "trial_id": "stroop-trial-1-congruent-3", "trial_type": "html-keyboard-response", "trial_index": 67, "time_elapsed": 167298, "internal_node_id": "0.0-4.0-63.0"}}, {"uniqueid": "w83265234:a99536375", "current_trial": 68, "dateTime": 1664368584092, "trialdata": {"rt": 912, "stimulus": "<p id='stroop-text' class='stroop-yellow'>YELLOW</p>", "response": "y", "stimulus-type": "congruent", "word": "yellow", "color": "yellow", "correct_response": "y", "trial_id": "stroop-trial-1-congruent-17", "trial_type": "html-keyboard-response", "trial_index": 68, "time_elapsed": 168714, "internal_node_id": "0.0-4.0-64.0"}}, {"uniqueid": "w83265234:a99536375", "current_trial": 69, "dateTime": 1664368585490, "trialdata": {"rt": 893, "stimulus": "<p id='stroop-text' class='stroop-green'>CHAIR</p>", "response": "g", "stimulus-type": "unrelated", "word": "CHAIR", "color": "green", "correct_response": "g", "trial_id": "stroop-trial-1-unrelated-26", "trial_type": "html-keyboard-response", "trial_index": 69, "time_elapsed": 170112, "internal_node_id": "0.0-4.0-65.0"}}, {"uniqueid": "w83265234:a99536375", "current_trial": 70, "dateTime": 1664368586926, "trialdata": {"rt": 930, "stimulus": "<p id='stroop-text' class='stroop-yellow'>YELLOW</p>", "response": "y", "stimulus-type": "congruent", "word": "yellow", "color": "yellow", "correct_response": "y", "trial_id": "stroop-trial-1-congruent-5", "trial_type": "html-keyboard-response", "trial_index": 70, "time_elapsed": 171548, "internal_node_id": "0.0-4.0-66.0"}}, {"uniqueid": "w83265234:a99536375", "current_trial": 71, "dateTime": 1664368588706, "trialdata": {"rt": 1276, "stimulus": "<p id='stroop-text' class='stroop-blue'>BLUE</p>", "response": "b", "stimulus-type": "congruent", "word": "blue", "color": "blue", "correct_response": "b", "trial_id": "stroop-trial-1-congruent-29", "trial_type": "html-keyboard-response", "trial_index": 71, "time_elapsed": 173329, "internal_node_id": "0.0-4.0-67.0"}}, {"uniqueid": "w83265234:a99536375", "current_trial": 72, "dateTime": 1664368590218, "trialdata": {"rt": 1005, "stimulus": "<p id='stroop-text' class='stroop-red'>STONE</p>", "response": "r", "stimulus-type": "unrelated", "word": "STONE", "color": "red", "correct_response": "r", "trial_id": "stroop-trial-1-unrelated-14", "trial_type": "html-keyboard-response", "trial_index": 72, "time_elapsed": 174840, "internal_node_id": "0.0-4.0-68.0"}}, {"uniqueid": "w83265234:a99536375", "current_trial": 73, "dateTime": 1664368591700, "trialdata": {"rt": 978, "stimulus": "<p id='stroop-text' class='stroop-blue'>YELLOW</p>", "response": "b", "stimulus-type": "incongruent", "word": "yellow", "color": "blue", "correct_response": "b", "trial_id": "stroop-trial-1-incongruent-24", "trial_type": "html-keyboard-response", "trial_index": 73, "time_elapsed": 176323, "internal_node_id": "0.0-4.0-69.0"}}, {"uniqueid": "w83265234:a99536375", "current_trial": 74, "dateTime": 1664368593474, "trialdata": {"rt": 1268, "stimulus": "<p id='stroop-text' class='stroop-green'>YELLOW</p>", "response": "g", "stimulus-type": "incongruent", "word": "yellow", "color": "green", "correct_response": "g", "trial_id": "stroop-trial-1-incongruent-6", "trial_type": "html-keyboard-response", "trial_index": 74, "time_elapsed": 178097, "internal_node_id": "0.0-4.0-70.0"}}, {"uniqueid": "w83265234:a99536375", "current_trial": 75, "dateTime": 1664368594810, "trialdata": {"rt": 830, "stimulus": "<p id='stroop-text' class='stroop-yellow'>YELLOW</p>", "response": "y", "stimulus-type": "congruent", "word": "yellow", "color": "yellow", "correct_response": "y", "trial_id": "stroop-trial-1-congruent-27", "trial_type": "html-keyboard-response", "trial_index": 75, "time_elapsed": 179432, "internal_node_id": "0.0-4.0-71.0"}}, {"uniqueid": "w83265234:a99536375", "current_trial": 76, "dateTime": 1664368596243, "trialdata": {"rt": 930, "stimulus": "<p id='stroop-text' class='stroop-red'>BRAIN</p>", "response": "r", "stimulus-type": "unrelated", "word": "BRAIN", "color": "red", "correct_response": "r", "trial_id": "stroop-trial-1-unrelated-11", "trial_type": "html-keyboard-response", "trial_index": 76, "time_elapsed": 180866, "internal_node_id": "0.0-4.0-72.0"}}, {"uniqueid": "w83265234:a99536375", "current_trial": 77, "dateTime": 1664368597837, "trialdata": {"rt": 1088, "stimulus": "<p id='stroop-text' class='stroop-yellow'>RED</p>", "response": "y", "stimulus-type": "incongruent", "word": "red", "color": "yellow", "correct_response": "y", "trial_id": "stroop-trial-1-incongruent-28", "trial_type": "html-keyboard-response", "trial_index": 77, "time_elapsed": 182459, "internal_node_id": "0.0-4.0-73.0"}}, {"uniqueid": "w83265234:a99536375", "current_trial": 78, "dateTime": 1664368599427, "trialdata": {"rt": 1085, "stimulus": "<p id='stroop-text' class='stroop-green'>BRAIN</p>", "response": "g", "stimulus-type": "unrelated", "word": "BRAIN", "color": "green", "correct_response": "g", "trial_id": "stroop-trial-1-unrelated-28", "trial_type": "html-keyboard-response", "trial_index": 78, "time_elapsed": 184050, "internal_node_id": "0.0-4.0-74.0"}}, {"uniqueid": "w83265234:a99536375", "current_trial": 79, "dateTime": 1664368600888, "trialdata": {"rt": 956, "stimulus": "<p id='stroop-text' class='stroop-yellow'>WINDOW</p>", "response": "y", "stimulus-type": "unrelated", "word": "WINDOW", "color": "yellow", "correct_response": "y", "trial_id": "stroop-trial-1-unrelated-19", "trial_type": "html-keyboard-response", "trial_index": 79, "time_elapsed": 185511, "internal_node_id": "0.0-4.0-75.0"}}, {"uniqueid": "w83265234:a99536375", "current_trial": 80, "dateTime": 1664368602221, "trialdata": {"rt": 828, "stimulus": "<p id='stroop-text' class='stroop-yellow'>GREEN</p>", "response": "y", "stimulus-type": "incongruent", "word": "green", "color": "yellow", "correct_response": "y", "trial_id": "stroop-trial-1-incongruent-26", "trial_type": "html-keyboard-response", "trial_index": 80, "time_elapsed": 186843, "internal_node_id": "0.0-4.0-76.0"}}, {"uniqueid": "w83265234:a99536375", "current_trial": 81, "dateTime": 1664368603434, "trialdata": {"rt": 710, "stimulus": "<p id='stroop-text' class='stroop-yellow'>RED</p>", "response": "y", "stimulus-type": "incongruent", "word": "red", "color": "yellow", "correct_response": "y", "trial_id": "stroop-trial-1-incongruent-13", "trial_type": "html-keyboard-response", "trial_index": 81, "time_elapsed": 188057, "internal_node_id": "0.0-4.0-77.0"}}, {"uniqueid": "w83265234:a99536375", "current_trial": 82, "dateTime": 1664368604714, "trialdata": {"rt": 774, "stimulus": "<p id='stroop-text' class='stroop-red'>BLUE</p>", "response": "r", "stimulus-type": "incongruent", "word": "blue", "color": "red", "correct_response": "r", "trial_id": "stroop-trial-1-incongruent-22", "trial_type": "html-keyboard-response", "trial_index": 82, "time_elapsed": 189337, "internal_node_id": "0.0-4.0-78.0"}}, {"uniqueid": "w83265234:a99536375", "current_trial": 83, "dateTime": 1664368606648, "trialdata": {"rt": 1415, "stimulus": "<p id='stroop-text' class='stroop-red'>RED</p>", "response": "r", "stimulus-type": "congruent", "word": "red", "color": "red", "correct_response": "r", "trial_id": "stroop-trial-1-congruent-13", "trial_type": "html-keyboard-response", "trial_index": 83, "time_elapsed": 191271, "internal_node_id": "0.0-4.0-79.0"}}, {"uniqueid": "w83265234:a99536375", "current_trial": 84, "dateTime": 1664368607976, "trialdata": {"rt": 822, "stimulus": "<p id='stroop-text' class='stroop-yellow'>BOAT</p>", "response": "y", "stimulus-type": "unrelated", "word": "BOAT", "color": "yellow", "correct_response": "y", "trial_id": "stroop-trial-1-unrelated-24", "trial_type": "html-keyboard-response", "trial_index": 84, "time_elapsed": 192598, "internal_node_id": "0.0-4.0-80.0"}}, {"uniqueid": "w83265234:a99536375", "current_trial": 85, "dateTime": 1664368609625, "trialdata": {"rt": 1143, "stimulus": "<p id='stroop-text' class='stroop-yellow'>YELLOW</p>", "response": "y", "stimulus-type": "congruent", "word": "yellow", "color": "yellow", "correct_response": "y", "trial_id": "stroop-trial-1-congruent-4", "trial_type": "html-keyboard-response", "trial_index": 85, "time_elapsed": 194247, "internal_node_id": "0.0-4.0-81.0"}}, {"uniqueid": "w83265234:a99536375", "current_trial": 86, "dateTime": 1664368610919, "trialdata": {"rt": 789, "stimulus": "<p id='stroop-text' class='stroop-blue'>BLUE</p>", "response": "b", "stimulus-type": "congruent", "word": "blue", "color": "blue", "correct_response": "b", "trial_id": "stroop-trial-1-congruent-21", "trial_type": "html-keyboard-response", "trial_index": 86, "time_elapsed": 195541, "internal_node_id": "0.0-4.0-82.0"}}, {"uniqueid": "w83265234:a99536375", "current_trial": 87, "dateTime": 1664368612108, "trialdata": {"rt": 683, "stimulus": "<p id='stroop-text' class='stroop-red'>BLUE</p>", "response": "r", "stimulus-type": "incongruent", "word": "blue", "color": "red", "correct_response": "r", "trial_id": "stroop-trial-1-incongruent-9", "trial_type": "html-keyboard-response", "trial_index": 87, "time_elapsed": 196730, "internal_node_id": "0.0-4.0-83.0"}}, {"uniqueid": "w83265234:a99536375", "current_trial": 88, "dateTime": 1664368613378, "trialdata": {"rt": 765, "stimulus": "<p id='stroop-text' class='stroop-yellow'>BLUE</p>", "response": "y", "stimulus-type": "incongruent", "word": "blue", "color": "yellow", "correct_response": "y", "trial_id": "stroop-trial-1-incongruent-4", "trial_type": "html-keyboard-response", "trial_index": 88, "time_elapsed": 198000, "internal_node_id": "0.0-4.0-84.0"}}, {"uniqueid": "w83265234:a99536375", "current_trial": 89, "dateTime": 1664368614779, "trialdata": {"rt": 897, "stimulus": "<p id='stroop-text' class='stroop-green'>RED</p>", "response": "g", "stimulus-type": "incongruent", "word": "red", "color": "green", "correct_response": "g", "trial_id": "stroop-trial-1-incongruent-20", "trial_type": "html-keyboard-response", "trial_index": 89, "time_elapsed": 199402, "internal_node_id": "0.0-4.0-85.0"}}, {"uniqueid": "w83265234:a99536375", "current_trial": 90, "dateTime": 1664368616132, "trialdata": {"rt": 848, "stimulus": "<p id='stroop-text' class='stroop-red'>BOTTLE</p>", "response": "r", "stimulus-type": "unrelated", "word": "BOTTLE", "color": "red", "correct_response": "r", "trial_id": "stroop-trial-1-unrelated-7", "trial_type": "html-keyboard-response", "trial_index": 90, "time_elapsed": 200755, "internal_node_id": "0.0-4.0-86.0"}}, {"uniqueid": "w83265234:a99536375", "current_trial": 91, "dateTime": 1664368617406, "trialdata": {"rt": 768, "stimulus": "<p id='stroop-text' class='stroop-blue'>BLUE</p>", "response": "b", "stimulus-type": "congruent", "word": "blue", "color": "blue", "correct_response": "b", "trial_id": "stroop-trial-1-congruent-22", "trial_type": "html-keyboard-response", "trial_index": 91, "time_elapsed": 202029, "internal_node_id": "0.0-4.0-87.0"}}, {"uniqueid": "w83265234:a99536375", "current_trial": 92, "dateTime": 1664368618989, "trialdata": {"rt": 1075, "stimulus": "<p id='stroop-text' class='stroop-red'>RED</p>", "response": "r", "stimulus-type": "congruent", "word": "red", "color": "red", "correct_response": "r", "trial_id": "stroop-trial-1-congruent-26", "trial_type": "html-keyboard-response", "trial_index": 92, "time_elapsed": 203612, "internal_node_id": "0.0-4.0-88.0"}}, {"uniqueid": "w83265234:a99536375", "current_trial": 93, "dateTime": 1664368620207, "trialdata": {"rt": 712, "stimulus": "<p id='stroop-text' class='stroop-yellow'>CHAIR</p>", "response": "y", "stimulus-type": "unrelated", "word": "CHAIR", "color": "yellow", "correct_response": "y", "trial_id": "stroop-trial-1-unrelated-9", "trial_type": "html-keyboard-response", "trial_index": 93, "time_elapsed": 204829, "internal_node_id": "0.0-4.0-89.0"}}, {"uniqueid": "w83265234:a99536375", "current_trial": 94, "dateTime": 1664368628528, "trialdata": {"rt": 7814, "stimulus": "  <h1> End of block! </h1>\n\n  You have reached the end of the block 1/5. If you need a short break, feel free to take one now before moving on.\n\n  <br><br>\n  In the next block, you will complete another 90 rounds of this game.\n\n  <br><br>\n  <div style='text-align: center;'>Press <code>space</code> to begin.</div>\n  <br><br>\n<div style='text-align: center;'>(If the experiment doesn't continue, try clicking on the text and then pressing <code>space</code>.)</div>", "response": " ", "trial_id": "stroop_1_ready_2", "trial_type": "html-keyboard-response", "trial_index": 94, "time_elapsed": 213151, "internal_node_id": "0.0-5.0"}}, {"uniqueid": "w83265234:a99536375", "current_trial": 95, "dateTime": 1664368629568, "trialdata": {"rt": 1034, "stimulus": "<p id='stroop-text' class='stroop-green'>CHAIR</p>", "response": "g", "stimulus-type": "unrelated", "word": "CHAIR", "color": "green", "correct_response": "g", "trial_id": "stroop-trial-1-unrelated-7", "trial_type": "html-keyboard-response", "trial_index": 95, "time_elapsed": 214191, "internal_node_id": "0.0-6.0-0.0"}}, {"uniqueid": "w83265234:a99536375", "current_trial": 96, "dateTime": 1664368630945, "trialdata": {"rt": 872, "stimulus": "<p id='stroop-text' class='stroop-green'>GREEN</p>", "response": "g", "stimulus-type": "congruent", "word": "green", "color": "green", "correct_response": "g", "trial_id": "stroop-trial-1-congruent-9", "trial_type": "html-keyboard-response", "trial_index": 96, "time_elapsed": 215568, "internal_node_id": "0.0-6.0-1.0"}}, {"uniqueid": "w83265234:a99536375", "current_trial": 97, "dateTime": 1664368632329, "trialdata": {"rt": 876, "stimulus": "<p id='stroop-text' class='stroop-yellow'>YELLOW</p>", "response": "y", "stimulus-type": "congruent", "word": "yellow", "color": "yellow", "correct_response": "y", "trial_id": "stroop-trial-1-congruent-12", "trial_type": "html-keyboard-response", "trial_index": 97, "time_elapsed": 216951, "internal_node_id": "0.0-6.0-2.0"}}, {"uniqueid": "w83265234:a99536375", "current_trial": 98, "dateTime": 1664368633663, "trialdata": {"rt": 829, "stimulus": "<p id='stroop-text' class='stroop-green'>BOAT</p>", "response": "g", "stimulus-type": "unrelated", "word": "BOAT", "color": "green", "correct_response": "g", "trial_id": "stroop-trial-1-unrelated-3", "trial_type": "html-keyboard-response", "trial_index": 98, "time_elapsed": 218285, "internal_node_id": "0.0-6.0-3.0"}}, {"uniqueid": "w83265234:a99536375", "current_trial": 99, "dateTime": 1664368634857, "trialdata": {"rt": 690, "stimulus": "<p id='stroop-text' class='stroop-green'>GREEN</p>", "response": "g", "stimulus-type": "congruent", "word": "green", "color": "green", "correct_response": "g", "trial_id": "stroop-trial-1-congruent-14", "trial_type": "html-keyboard-response", "trial_index": 99, "time_elapsed": 219480, "internal_node_id": "0.0-6.0-4.0"}}, {"uniqueid": "w83265234:a99536375", "current_trial": 100, "dateTime": 1664368636030, "trialdata": {"rt": 669, "stimulus": "<p id='stroop-text' class='stroop-red'>RED</p>", "response": "r", "stimulus-type": "congruent", "word": "red", "color": "red", "correct_response": "r", "trial_id": "stroop-trial-1-congruent-23", "trial_type": "html-keyboard-response", "trial_index": 100, "time_elapsed": 220652, "internal_node_id": "0.0-6.0-5.0"}}, {"uniqueid": "w83265234:a99536375", "current_trial": 101, "dateTime": 1664368637307, "trialdata": {"rt": 773, "stimulus": "<p id='stroop-text' class='stroop-green'>GREEN</p>", "response": "g", "stimulus-type": "congruent", "word": "green", "color": "green", "correct_response": "g", "trial_id": "stroop-trial-1-congruent-5", "trial_type": "html-keyboard-response", "trial_index": 101, "time_elapsed": 221929, "internal_node_id": "0.0-6.0-6.0"}}, {"uniqueid": "w83265234:a99536375", "current_trial": 102, "dateTime": 1664368638965, "trialdata": {"rt": 1152, "stimulus": "<p id='stroop-text' class='stroop-red'>STONE</p>", "response": "r", "stimulus-type": "unrelated", "word": "STONE", "color": "red", "correct_response": "r", "trial_id": "stroop-trial-1-unrelated-23", "trial_type": "html-keyboard-response", "trial_index": 102, "time_elapsed": 223587, "internal_node_id": "0.0-6.0-7.0"}}, {"uniqueid": "w83265234:a99536375", "current_trial": 103, "dateTime": 1664368640614, "trialdata": {"rt": 1144, "stimulus": "<p id='stroop-text' class='stroop-red'>YELLOW</p>", "response": "r", "stimulus-type": "incongruent", "word": "yellow", "color": "red", "correct_response": "r", "trial_id": "stroop-trial-1-incongruent-12", "trial_type": "html-keyboard-response", "trial_index": 103, "time_elapsed": 225237, "internal_node_id": "0.0-6.0-8.0"}}, {"uniqueid": "w83265234:a99536375", "current_trial": 104, "dateTime": 1664368641788, "trialdata": {"rt": 657, "stimulus": "<p id='stroop-text' class='stroop-red'>YELLOW</p>", "response": "r", "stimulus-type": "incongruent", "word": "yellow", "color": "red", "correct_response": "r", "trial_id": "stroop-trial-1-incongruent-17", "trial_type": "html-keyboard-response", "trial_index": 104, "time_elapsed": 226410, "internal_node_id": "0.0-6.0-9.0"}}, {"uniqueid": "w83265234:a99536375", "current_trial": 105, "dateTime": 1664368642978, "trialdata": {"rt": 684, "stimulus": "<p id='stroop-text' class='stroop-red'>RED</p>", "response": "r", "stimulus-type": "congruent", "word": "red", "color": "red", "correct_response": "r", "trial_id": "stroop-trial-1-congruent-17", "trial_type": "html-keyboard-response", "trial_index": 105, "time_elapsed": 227600, "internal_node_id": "0.0-6.0-10.0"}}, {"uniqueid": "w83265234:a99536375", "current_trial": 106, "dateTime": 1664368644403, "trialdata": {"rt": 919, "stimulus": "<p id='stroop-text' class='stroop-yellow'>BLUE</p>", "response": "y", "stimulus-type": "incongruent", "word": "blue", "color": "yellow", "correct_response": "y", "trial_id": "stroop-trial-1-incongruent-2", "trial_type": "html-keyboard-response", "trial_index": 106, "time_elapsed": 229026, "internal_node_id": "0.0-6.0-11.0"}}, {"uniqueid": "w83265234:a99536375", "current_trial": 107, "dateTime": 1664368645630, "trialdata": {"rt": 722, "stimulus": "<p id='stroop-text' class='stroop-red'>RED</p>", "response": "r", "stimulus-type": "congruent", "word": "red", "color": "red", "correct_response": "r", "trial_id": "stroop-trial-1-congruent-3", "trial_type": "html-keyboard-response", "trial_index": 107, "time_elapsed": 230253, "internal_node_id": "0.0-6.0-12.0"}}, {"uniqueid": "w83265234:a99536375", "current_trial": 108, "dateTime": 1664368646922, "trialdata": {"rt": 785, "stimulus": "<p id='stroop-text' class='stroop-green'>WINDOW</p>", "response": "g", "stimulus-type": "unrelated", "word": "WINDOW", "color": "green", "correct_response": "g", "trial_id": "stroop-trial-1-unrelated-27", "trial_type": "html-keyboard-response", "trial_index": 108, "time_elapsed": 231545, "internal_node_id": "0.0-6.0-13.0"}}, {"uniqueid": "w83265234:a99536375", "current_trial": 109, "dateTime": 1664368648215, "trialdata": {"rt": 787, "stimulus": "<p id='stroop-text' class='stroop-green'>GREEN</p>", "response": "g", "stimulus-type": "congruent", "word": "green", "color": "green", "correct_response": "g", "trial_id": "stroop-trial-1-congruent-30", "trial_type": "html-keyboard-response", "trial_index": 109, "time_elapsed": 232837, "internal_node_id": "0.0-6.0-14.0"}}, {"uniqueid": "w83265234:a99536375", "current_trial": 110, "dateTime": 1664368649446, "trialdata": {"rt": 721, "stimulus": "<p id='stroop-text' class='stroop-blue'>BLUE</p>", "response": "b", "stimulus-type": "congruent", "word": "blue", "color": "blue", "correct_response": "b", "trial_id": "stroop-trial-1-congruent-29", "trial_type": "html-keyboard-response", "trial_index": 110, "time_elapsed": 234069, "internal_node_id": "0.0-6.0-15.0"}}, {"uniqueid": "w83265234:a99536375", "current_trial": 111, "dateTime": 1664368651639, "trialdata": {"rt": 1687, "stimulus": "<p id='stroop-text' class='stroop-yellow'>BLUE</p>", "response": "y", "stimulus-type": "incongruent", "word": "blue", "color": "yellow", "correct_response": "y", "trial_id": "stroop-trial-1-incongruent-16", "trial_type": "html-keyboard-response", "trial_index": 111, "time_elapsed": 236262, "internal_node_id": "0.0-6.0-16.0"}}, {"uniqueid": "w83265234:a99536375", "current_trial": 112, "dateTime": 1664368653004, "trialdata": {"rt": 860, "stimulus": "<p id='stroop-text' class='stroop-yellow'>GREEN</p>", "response": "y", "stimulus-type": "incongruent", "word": "green", "color": "yellow", "correct_response": "y", "trial_id": "stroop-trial-1-incongruent-27", "trial_type": "html-keyboard-response", "trial_index": 112, "time_elapsed": 237627, "internal_node_id": "0.0-6.0-17.0"}}, {"uniqueid": "w83265234:a99536375", "current_trial": 113, "dateTime": 1664368654418, "trialdata": {"rt": 911, "stimulus": "<p id='stroop-text' class='stroop-green'>GREEN</p>", "response": "g", "stimulus-type": "congruent", "word": "green", "color": "green", "correct_response": "g", "trial_id": "stroop-trial-1-congruent-8", "trial_type": "html-keyboard-response", "trial_index": 113, "time_elapsed": 239041, "internal_node_id": "0.0-6.0-18.0"}}, {"uniqueid": "w83265234:a99536375", "current_trial": 114, "dateTime": 1664368655746, "trialdata": {"rt": 821, "stimulus": "<p id='stroop-text' class='stroop-green'>GREEN</p>", "response": "g", "stimulus-type": "congruent", "word": "green", "color": "green", "correct_response": "g", "trial_id": "stroop-trial-1-congruent-6", "trial_type": "html-keyboard-response", "trial_index": 114, "time_elapsed": 240368, "internal_node_id": "0.0-6.0-19.0"}}, {"uniqueid": "w83265234:a99536375", "current_trial": 115, "dateTime": 1664368657094, "trialdata": {"rt": 844, "stimulus": "<p id='stroop-text' class='stroop-red'>STONE</p>", "response": "r", "stimulus-type": "unrelated", "word": "STONE", "color": "red", "correct_response": "r", "trial_id": "stroop-trial-1-unrelated-30", "trial_type": "html-keyboard-response", "trial_index": 115, "time_elapsed": 241716, "internal_node_id": "0.0-6.0-20.0"}}, {"uniqueid": "w83265234:a99536375", "current_trial": 116, "dateTime": 1664368659243, "trialdata": {"rt": 1644, "stimulus": "<p id='stroop-text' class='stroop-yellow'>BRAIN</p>", "response": "y", "stimulus-type": "unrelated", "word": "BRAIN", "color": "yellow", "correct_response": "y", "trial_id": "stroop-trial-1-unrelated-1", "trial_type": "html-keyboard-response", "trial_index": 116, "time_elapsed": 243865, "internal_node_id": "0.0-6.0-21.0"}}, {"uniqueid": "w83265234:a99536375", "current_trial": 117, "dateTime": 1664368660536, "trialdata": {"rt": 789, "stimulus": "<p id='stroop-text' class='stroop-green'>GREEN</p>", "response": "g", "stimulus-type": "congruent", "word": "green", "color": "green", "correct_response": "g", "trial_id": "stroop-trial-1-congruent-4", "trial_type": "html-keyboard-response", "trial_index": 117, "time_elapsed": 245159, "internal_node_id": "0.0-6.0-22.0"}}, {"uniqueid": "w83265234:a99536375", "current_trial": 118, "dateTime": 1664368662517, "trialdata": {"rt": 1478, "stimulus": "<p id='stroop-text' class='stroop-yellow'>GREEN</p>", "response": "y", "stimulus-type": "incongruent", "word": "green", "color": "yellow", "correct_response": "y", "trial_id": "stroop-trial-1-incongruent-6", "trial_type": "html-keyboard-response", "trial_index": 118, "time_elapsed": 247140, "internal_node_id": "0.0-6.0-23.0"}}, {"uniqueid": "w83265234:a99536375", "current_trial": 119, "dateTime": 1664368664502, "trialdata": {"rt": 1478, "stimulus": "<p id='stroop-text' class='stroop-red'>YELLOW</p>", "response": "r", "stimulus-type": "incongruent", "word": "yellow", "color": "red", "correct_response": "r", "trial_id": "stroop-trial-1-incongruent-26", "trial_type": "html-keyboard-response", "trial_index": 119, "time_elapsed": 249124, "internal_node_id": "0.0-6.0-24.0"}}, {"uniqueid": "w83265234:a99536375", "current_trial": 120, "dateTime": 1664368666028, "trialdata": {"rt": 1021, "stimulus": "<p id='stroop-text' class='stroop-yellow'>YELLOW</p>", "response": "y", "stimulus-type": "congruent", "word": "yellow", "color": "yellow", "correct_response": "y", "trial_id": "stroop-trial-1-congruent-25", "trial_type": "html-keyboard-response", "trial_index": 120, "time_elapsed": 250651, "internal_node_id": "0.0-6.0-25.0"}}, {"uniqueid": "w83265234:a99536375", "current_trial": 121, "dateTime": 1664368667289, "trialdata": {"rt": 757, "stimulus": "<p id='stroop-text' class='stroop-blue'>FORK</p>", "response": "b", "stimulus-type": "unrelated", "word": "FORK", "color": "blue", "correct_response": "b", "trial_id": "stroop-trial-1-unrelated-16", "trial_type": "html-keyboard-response", "trial_index": 121, "time_elapsed": 251912, "internal_node_id": "0.0-6.0-26.0"}}, {"uniqueid": "w83265234:a99536375", "current_trial": 122, "dateTime": 1664368668684, "trialdata": {"rt": 892, "stimulus": "<p id='stroop-text' class='stroop-blue'>FORK</p>", "response": "b", "stimulus-type": "unrelated", "word": "FORK", "color": "blue", "correct_response": "b", "trial_id": "stroop-trial-1-unrelated-28", "trial_type": "html-keyboard-response", "trial_index": 122, "time_elapsed": 253307, "internal_node_id": "0.0-6.0-27.0"}}, {"uniqueid": "w83265234:a99536375", "current_trial": 123, "dateTime": 1664368669878, "trialdata": {"rt": 688, "stimulus": "<p id='stroop-text' class='stroop-blue'>BRAIN</p>", "response": "b", "stimulus-type": "unrelated", "word": "BRAIN", "color": "blue", "correct_response": "b", "trial_id": "stroop-trial-1-unrelated-26", "trial_type": "html-keyboard-response", "trial_index": 123, "time_elapsed": 254500, "internal_node_id": "0.0-6.0-28.0"}}, {"uniqueid": "w83265234:a99536375", "current_trial": 124, "dateTime": 1664368671073, "trialdata": {"rt": 690, "stimulus": "<p id='stroop-text' class='stroop-blue'>GREEN</p>", "response": "b", "stimulus-type": "incongruent", "word": "green", "color": "blue", "correct_response": "b", "trial_id": "stroop-trial-1-incongruent-21", "trial_type": "html-keyboard-response", "trial_index": 124, "time_elapsed": 255695, "internal_node_id": "0.0-6.0-29.0"}}, {"uniqueid": "w83265234:a99536375", "current_trial": 125, "dateTime": 1664368672540, "trialdata": {"rt": 964, "stimulus": "<p id='stroop-text' class='stroop-red'>GREEN</p>", "response": "r", "stimulus-type": "incongruent", "word": "green", "color": "red", "correct_response": "r", "trial_id": "stroop-trial-1-incongruent-13", "trial_type": "html-keyboard-response", "trial_index": 125, "time_elapsed": 257163, "internal_node_id": "0.0-6.0-30.0"}}, {"uniqueid": "w83265234:a99536375", "current_trial": 126, "dateTime": 1664368673888, "trialdata": {"rt": 843, "stimulus": "<p id='stroop-text' class='stroop-green'>BLUE</p>", "response": "g", "stimulus-type": "incongruent", "word": "blue", "color": "green", "correct_response": "g", "trial_id": "stroop-trial-1-incongruent-14", "trial_type": "html-keyboard-response", "trial_index": 126, "time_elapsed": 258510, "internal_node_id": "0.0-6.0-31.0"}}, {"uniqueid": "w83265234:a99536375", "current_trial": 127, "dateTime": 1664368675619, "trialdata": {"rt": 1224, "stimulus": "<p id='stroop-text' class='stroop-yellow'>RED</p>", "response": "y", "stimulus-type": "incongruent", "word": "red", "color": "yellow", "correct_response": "y", "trial_id": "stroop-trial-1-incongruent-7", "trial_type": "html-keyboard-response", "trial_index": 127, "time_elapsed": 260241, "internal_node_id": "0.0-6.0-32.0"}}, {"uniqueid": "w83265234:a99536375", "current_trial": 128, "dateTime": 1664368677242, "trialdata": {"rt": 1118, "stimulus": "<p id='stroop-text' class='stroop-blue'>BRIDGE</p>", "response": "b", "stimulus-type": "unrelated", "word": "BRIDGE", "color": "blue", "correct_response": "b", "trial_id": "stroop-trial-1-unrelated-25", "trial_type": "html-keyboard-response", "trial_index": 128, "time_elapsed": 261864, "internal_node_id": "0.0-6.0-33.0"}}, {"uniqueid": "w83265234:a99536375", "current_trial": 129, "dateTime": 1664368678830, "trialdata": {"rt": 1082, "stimulus": "<p id='stroop-text' class='stroop-yellow'>BRAIN</p>", "response": "y", "stimulus-type": "unrelated", "word": "BRAIN", "color": "yellow", "correct_response": "y", "trial_id": "stroop-trial-1-unrelated-13", "trial_type": "html-keyboard-response", "trial_index": 129, "time_elapsed": 263452, "internal_node_id": "0.0-6.0-34.0"}}, {"uniqueid": "w83265234:a99536375", "current_trial": 130, "dateTime": 1664368680222, "trialdata": {"rt": 887, "stimulus": "<p id='stroop-text' class='stroop-green'>BOAT</p>", "response": "g", "stimulus-type": "unrelated", "word": "BOAT", "color": "green", "correct_response": "g", "trial_id": "stroop-trial-1-unrelated-29", "trial_type": "html-keyboard-response", "trial_index": 130, "time_elapsed": 264845, "internal_node_id": "0.0-6.0-35.0"}}, {"uniqueid": "w83265234:a99536375", "current_trial": 131, "dateTime": 1664368681555, "trialdata": {"rt": 826, "stimulus": "<p id='stroop-text' class='stroop-green'>GREEN</p>", "response": "g", "stimulus-type": "congruent", "word": "green", "color": "green", "correct_response": "g", "trial_id": "stroop-trial-1-congruent-22", "trial_type": "html-keyboard-response", "trial_index": 131, "time_elapsed": 266178, "internal_node_id": "0.0-6.0-36.0"}}, {"uniqueid": "w83265234:a99536375", "current_trial": 132, "dateTime": 1664368682870, "trialdata": {"rt": 808, "stimulus": "<p id='stroop-text' class='stroop-red'>RED</p>", "response": "r", "stimulus-type": "congruent", "word": "red", "color": "red", "correct_response": "r", "trial_id": "stroop-trial-1-congruent-2", "trial_type": "html-keyboard-response", "trial_index": 132, "time_elapsed": 267492, "internal_node_id": "0.0-6.0-37.0"}}, {"uniqueid": "w83265234:a99536375", "current_trial": 133, "dateTime": 1664368684028, "trialdata": {"rt": 652, "stimulus": "<p id='stroop-text' class='stroop-red'>RED</p>", "response": "r", "stimulus-type": "congruent", "word": "red", "color": "red", "correct_response": "r", "trial_id": "stroop-trial-1-congruent-15", "trial_type": "html-keyboard-response", "trial_index": 133, "time_elapsed": 268651, "internal_node_id": "0.0-6.0-38.0"}}, {"uniqueid": "w83265234:a99536375", "current_trial": 134, "dateTime": 1664368685366, "trialdata": {"rt": 834, "stimulus": "<p id='stroop-text' class='stroop-blue'>CHAIR</p>", "response": "b", "stimulus-type": "unrelated", "word": "CHAIR", "color": "blue", "correct_response": "b", "trial_id": "stroop-trial-1-unrelated-10", "trial_type": "html-keyboard-response", "trial_index": 134, "time_elapsed": 269988, "internal_node_id": "0.0-6.0-39.0"}}, {"uniqueid": "w83265234:a99536375", "current_trial": 135, "dateTime": 1664368686452, "trialdata": {"rt": 581, "stimulus": "<p id='stroop-text' class='stroop-blue'>BLUE</p>", "response": "b", "stimulus-type": "congruent", "word": "blue", "color": "blue", "correct_response": "b", "trial_id": "stroop-trial-1-congruent-19", "trial_type": "html-keyboard-response", "trial_index": 135, "time_elapsed": 271075, "internal_node_id": "0.0-6.0-40.0"}}, {"uniqueid": "w83265234:a99536375", "current_trial": 136, "dateTime": 1664368687864, "trialdata": {"rt": 906, "stimulus": "<p id='stroop-text' class='stroop-blue'>RED</p>", "response": "b", "stimulus-type": "incongruent", "word": "red", "color": "blue", "correct_response": "b", "trial_id": "stroop-trial-1-incongruent-22", "trial_type": "html-keyboard-response", "trial_index": 136, "time_elapsed": 272487, "internal_node_id": "0.0-6.0-41.0"}}, {"uniqueid": "w83265234:a99536375", "current_trial": 137, "dateTime": 1664368689838, "trialdata": {"rt": 1468, "stimulus": "<p id='stroop-text' class='stroop-red'>YELLOW</p>", "response": "r", "stimulus-type": "incongruent", "word": "yellow", "color": "red", "correct_response": "r", "trial_id": "stroop-trial-1-incongruent-8", "trial_type": "html-keyboard-response", "trial_index": 137, "time_elapsed": 274461, "internal_node_id": "0.0-6.0-42.0"}}, {"uniqueid": "w83265234:a99536375", "current_trial": 138, "dateTime": 1664368691526, "trialdata": {"rt": 1184, "stimulus": "<p id='stroop-text' class='stroop-yellow'>FORK</p>", "response": "y", "stimulus-type": "unrelated", "word": "FORK", "color": "yellow", "correct_response": "y", "trial_id": "stroop-trial-1-unrelated-12", "trial_type": "html-keyboard-response", "trial_index": 138, "time_elapsed": 276148, "internal_node_id": "0.0-6.0-43.0"}}, {"uniqueid": "w83265234:a99536375", "current_trial": 139, "dateTime": 1664368693671, "trialdata": {"rt": 1642, "stimulus": "<p id='stroop-text' class='stroop-green'>GREEN</p>", "response": "g", "stimulus-type": "congruent", "word": "green", "color": "green", "correct_response": "g", "trial_id": "stroop-trial-1-congruent-24", "trial_type": "html-keyboard-response", "trial_index": 139, "time_elapsed": 278294, "internal_node_id": "0.0-6.0-44.0"}}, {"uniqueid": "w83265234:a99536375", "current_trial": 140, "dateTime": 1664368695183, "trialdata": {"rt": 996, "stimulus": "<p id='stroop-text' class='stroop-green'>DOG</p>", "response": "g", "stimulus-type": "unrelated", "word": "DOG", "color": "green", "correct_response": "g", "trial_id": "stroop-trial-1-unrelated-24", "trial_type": "html-keyboard-response", "trial_index": 140, "time_elapsed": 279806, "internal_node_id": "0.0-6.0-45.0"}}, {"uniqueid": "w83265234:a99536375", "current_trial": 141, "dateTime": 1664368696794, "trialdata": {"rt": 1106, "stimulus": "<p id='stroop-text' class='stroop-blue'>YELLOW</p>", "response": "b", "stimulus-type": "incongruent", "word": "yellow", "color": "blue", "correct_response": "b", "trial_id": "stroop-trial-1-incongruent-20", "trial_type": "html-keyboard-response", "trial_index": 141, "time_elapsed": 281416, "internal_node_id": "0.0-6.0-46.0"}}, {"uniqueid": "w83265234:a99536375", "current_trial": 142, "dateTime": 1664368698217, "trialdata": {"rt": 917, "stimulus": "<p id='stroop-text' class='stroop-green'>GREEN</p>", "response": "g", "stimulus-type": "congruent", "word": "green", "color": "green", "correct_response": "g", "trial_id": "stroop-trial-1-congruent-16", "trial_type": "html-keyboard-response", "trial_index": 142, "time_elapsed": 282840, "internal_node_id": "0.0-6.0-47.0"}}, {"uniqueid": "w83265234:a99536375", "current_trial": 143, "dateTime": 1664368699752, "trialdata": {"rt": 1031, "stimulus": "<p id='stroop-text' class='stroop-red'>BRIDGE</p>", "response": "r", "stimulus-type": "unrelated", "word": "BRIDGE", "color": "red", "correct_response": "r", "trial_id": "stroop-trial-1-unrelated-15", "trial_type": "html-keyboard-response", "trial_index": 143, "time_elapsed": 284375, "internal_node_id": "0.0-6.0-48.0"}}, {"uniqueid": "w83265234:a99536375", "current_trial": 144, "dateTime": 1664368701529, "trialdata": {"rt": 1271, "stimulus": "<p id='stroop-text' class='stroop-yellow'>BRIDGE</p>", "response": "y", "stimulus-type": "unrelated", "word": "BRIDGE", "color": "yellow", "correct_response": "y", "trial_id": "stroop-trial-1-unrelated-18", "trial_type": "html-keyboard-response", "trial_index": 144, "time_elapsed": 286151, "internal_node_id": "0.0-6.0-49.0"}}, {"uniqueid": "w83265234:a99536375", "current_trial": 145, "dateTime": 1664368703492, "trialdata": {"rt": 1456, "stimulus": "<p id='stroop-text' class='stroop-red'>GREEN</p>", "response": "r", "stimulus-type": "incongruent", "word": "green", "color": "red", "correct_response": "r", "trial_id": "stroop-trial-1-incongruent-9", "trial_type": "html-keyboard-response", "trial_index": 145, "time_elapsed": 288114, "internal_node_id": "0.0-6.0-50.0"}}, {"uniqueid": "w83265234:a99536375", "current_trial": 146, "dateTime": 1664368705077, "trialdata": {"rt": 1079, "stimulus": "<p id='stroop-text' class='stroop-blue'>BLUE</p>", "response": "b", "stimulus-type": "congruent", "word": "blue", "color": "blue", "correct_response": "b", "trial_id": "stroop-trial-1-congruent-7", "trial_type": "html-keyboard-response", "trial_index": 146, "time_elapsed": 289700, "internal_node_id": "0.0-6.0-51.0"}}, {"uniqueid": "w83265234:a99536375", "current_trial": 147, "dateTime": 1664368706270, "trialdata": {"rt": 689, "stimulus": "<p id='stroop-text' class='stroop-blue'>BLUE</p>", "response": "b", "stimulus-type": "congruent", "word": "blue", "color": "blue", "correct_response": "b", "trial_id": "stroop-trial-1-congruent-26", "trial_type": "html-keyboard-response", "trial_index": 147, "time_elapsed": 290893, "internal_node_id": "0.0-6.0-52.0"}}, {"uniqueid": "w83265234:a99536375", "current_trial": 148, "dateTime": 1664368708180, "trialdata": {"rt": 1403, "stimulus": "<p id='stroop-text' class='stroop-yellow'>SHIP</p>", "response": "y", "stimulus-type": "unrelated", "word": "SHIP", "color": "yellow", "correct_response": "y", "trial_id": "stroop-trial-1-unrelated-5", "trial_type": "html-keyboard-response", "trial_index": 148, "time_elapsed": 292803, "internal_node_id": "0.0-6.0-53.0"}}, {"uniqueid": "w83265234:a99536375", "current_trial": 149, "dateTime": 1664368709444, "trialdata": {"rt": 757, "stimulus": "<p id='stroop-text' class='stroop-yellow'>DOG</p>", "response": "y", "stimulus-type": "unrelated", "word": "DOG", "color": "yellow", "correct_response": "y", "trial_id": "stroop-trial-1-unrelated-20", "trial_type": "html-keyboard-response", "trial_index": 149, "time_elapsed": 294066, "internal_node_id": "0.0-6.0-54.0"}}, {"uniqueid": "w83265234:a99536375", "current_trial": 150, "dateTime": 1664368711231, "trialdata": {"rt": 1282, "stimulus": "<p id='stroop-text' class='stroop-yellow'>GREEN</p>", "response": "y", "stimulus-type": "incongruent", "word": "green", "color": "yellow", "correct_response": "y", "trial_id": "stroop-trial-1-incongruent-4", "trial_type": "html-keyboard-response", "trial_index": 150, "time_elapsed": 295854, "internal_node_id": "0.0-6.0-55.0"}}, {"uniqueid": "w83265234:a99536375", "current_trial": 151, "dateTime": 1664368713348, "trialdata": {"rt": 1614, "stimulus": "<p id='stroop-text' class='stroop-green'>RED</p>", "response": "g", "stimulus-type": "incongruent", "word": "red", "color": "green", "correct_response": "g", "trial_id": "stroop-trial-1-incongruent-28", "trial_type": "html-keyboard-response", "trial_index": 151, "time_elapsed": 297971, "internal_node_id": "0.0-6.0-56.0"}}, {"uniqueid": "w83265234:a99536375", "current_trial": 152, "dateTime": 1664368714547, "trialdata": {"rt": 693, "stimulus": "<p id='stroop-text' class='stroop-green'>FORK</p>", "response": "g", "stimulus-type": "unrelated", "word": "FORK", "color": "green", "correct_response": "g", "trial_id": "stroop-trial-1-unrelated-8", "trial_type": "html-keyboard-response", "trial_index": 152, "time_elapsed": 299170, "internal_node_id": "0.0-6.0-57.0"}}, {"uniqueid": "w83265234:a99536375", "current_trial": 153, "dateTime": 1664368716062, "trialdata": {"rt": 1010, "stimulus": "<p id='stroop-text' class='stroop-yellow'>RED</p>", "response": "y", "stimulus-type": "incongruent", "word": "red", "color": "yellow", "correct_response": "y", "trial_id": "stroop-trial-1-incongruent-19", "trial_type": "html-keyboard-response", "trial_index": 153, "time_elapsed": 300685, "internal_node_id": "0.0-6.0-58.0"}}, {"uniqueid": "w83265234:a99536375", "current_trial": 154, "dateTime": 1664368717196, "trialdata": {"rt": 630, "stimulus": "<p id='stroop-text' class='stroop-yellow'>GREEN</p>", "response": "y", "stimulus-type": "incongruent", "word": "green", "color": "yellow", "correct_response": "y", "trial_id": "stroop-trial-1-incongruent-18", "trial_type": "html-keyboard-response", "trial_index": 154, "time_elapsed": 301819, "internal_node_id": "0.0-6.0-59.0"}}, {"uniqueid": "w83265234:a99536375", "current_trial": 155, "dateTime": 1664368718918, "trialdata": {"rt": 1217, "stimulus": "<p id='stroop-text' class='stroop-green'>RED</p>", "response": "g", "stimulus-type": "incongruent", "word": "red", "color": "green", "correct_response": "g", "trial_id": "stroop-trial-1-incongruent-5", "trial_type": "html-keyboard-response", "trial_index": 155, "time_elapsed": 303541, "internal_node_id": "0.0-6.0-60.0"}}, {"uniqueid": "w83265234:a99536375", "current_trial": 156, "dateTime": 1664368720360, "trialdata": {"rt": 936, "stimulus": "<p id='stroop-text' class='stroop-red'>SHIP</p>", "response": "r", "stimulus-type": "unrelated", "word": "SHIP", "color": "red", "correct_response": "r", "trial_id": "stroop-trial-1-unrelated-4", "trial_type": "html-keyboard-response", "trial_index": 156, "time_elapsed": 304982, "internal_node_id": "0.0-6.0-61.0"}}, {"uniqueid": "w83265234:a99536375", "current_trial": 157, "dateTime": 1664368721711, "trialdata": {"rt": 845, "stimulus": "<p id='stroop-text' class='stroop-yellow'>MONKEY</p>", "response": "y", "stimulus-type": "unrelated", "word": "MONKEY", "color": "yellow", "correct_response": "y", "trial_id": "stroop-trial-1-unrelated-19", "trial_type": "html-keyboard-response", "trial_index": 157, "time_elapsed": 306334, "internal_node_id": "0.0-6.0-62.0"}}, {"uniqueid": "w83265234:a99536375", "current_trial": 158, "dateTime": 1664368722986, "trialdata": {"rt": 768, "stimulus": "<p id='stroop-text' class='stroop-yellow'>YELLOW</p>", "response": "y", "stimulus-type": "congruent", "word": "yellow", "color": "yellow", "correct_response": "y", "trial_id": "stroop-trial-1-congruent-18", "trial_type": "html-keyboard-response", "trial_index": 158, "time_elapsed": 307608, "internal_node_id": "0.0-6.0-63.0"}}, {"uniqueid": "w83265234:a99536375", "current_trial": 159, "dateTime": 1664368724292, "trialdata": {"rt": 801, "stimulus": "<p id='stroop-text' class='stroop-yellow'>YELLOW</p>", "response": "y", "stimulus-type": "congruent", "word": "yellow", "color": "yellow", "correct_response": "y", "trial_id": "stroop-trial-1-congruent-27", "trial_type": "html-keyboard-response", "trial_index": 159, "time_elapsed": 308914, "internal_node_id": "0.0-6.0-64.0"}}, {"uniqueid": "w83265234:a99536375", "current_trial": 160, "dateTime": 1664368726024, "trialdata": {"rt": 1224, "stimulus": "<p id='stroop-text' class='stroop-green'>BLUE</p>", "response": "g", "stimulus-type": "incongruent", "word": "blue", "color": "green", "correct_response": "g", "trial_id": "stroop-trial-1-incongruent-3", "trial_type": "html-keyboard-response", "trial_index": 160, "time_elapsed": 310647, "internal_node_id": "0.0-6.0-65.0"}}, {"uniqueid": "w83265234:a99536375", "current_trial": 161, "dateTime": 1664368727522, "trialdata": {"rt": 991, "stimulus": "<p id='stroop-text' class='stroop-blue'>BLUE</p>", "response": "b", "stimulus-type": "congruent", "word": "blue", "color": "blue", "correct_response": "b", "trial_id": "stroop-trial-1-congruent-13", "trial_type": "html-keyboard-response", "trial_index": 161, "time_elapsed": 312145, "internal_node_id": "0.0-6.0-66.0"}}, {"uniqueid": "w83265234:a99536375", "current_trial": 162, "dateTime": 1664368728760, "trialdata": {"rt": 732, "stimulus": "<p id='stroop-text' class='stroop-green'>BOTTLE</p>", "response": "g", "stimulus-type": "unrelated", "word": "BOTTLE", "color": "green", "correct_response": "g", "trial_id": "stroop-trial-1-unrelated-17", "trial_type": "html-keyboard-response", "trial_index": 162, "time_elapsed": 313383, "internal_node_id": "0.0-6.0-67.0"}}, {"uniqueid": "w83265234:a99536375", "current_trial": 163, "dateTime": 1664368730085, "trialdata": {"rt": 819, "stimulus": "<p id='stroop-text' class='stroop-yellow'>RED</p>", "response": "y", "stimulus-type": "incongruent", "word": "red", "color": "yellow", "correct_response": "y", "trial_id": "stroop-trial-1-incongruent-30", "trial_type": "html-keyboard-response", "trial_index": 163, "time_elapsed": 314707, "internal_node_id": "0.0-6.0-68.0"}}, {"uniqueid": "w83265234:a99536375", "current_trial": 164, "dateTime": 1664368731253, "trialdata": {"rt": 662, "stimulus": "<p id='stroop-text' class='stroop-yellow'>DOG</p>", "response": "y", "stimulus-type": "unrelated", "word": "DOG", "color": "yellow", "correct_response": "y", "trial_id": "stroop-trial-1-unrelated-6", "trial_type": "html-keyboard-response", "trial_index": 164, "time_elapsed": 315875, "internal_node_id": "0.0-6.0-69.0"}}, {"uniqueid": "w83265234:a99536375", "current_trial": 165, "dateTime": 1664368732893, "trialdata": {"rt": 1134, "stimulus": "<p id='stroop-text' class='stroop-red'>YELLOW</p>", "response": "r", "stimulus-type": "incongruent", "word": "yellow", "color": "red", "correct_response": "r", "trial_id": "stroop-trial-1-incongruent-29", "trial_type": "html-keyboard-response", "trial_index": 165, "time_elapsed": 317516, "internal_node_id": "0.0-6.0-70.0"}}, {"uniqueid": "w83265234:a99536375", "current_trial": 166, "dateTime": 1664368734136, "trialdata": {"rt": 735, "stimulus": "<p id='stroop-text' class='stroop-green'>BOAT</p>", "response": "g", "stimulus-type": "unrelated", "word": "BOAT", "color": "green", "correct_response": "g", "trial_id": "stroop-trial-1-unrelated-11", "trial_type": "html-keyboard-response", "trial_index": 166, "time_elapsed": 318758, "internal_node_id": "0.0-6.0-71.0"}}, {"uniqueid": "w83265234:a99536375", "current_trial": 167, "dateTime": 1664368735569, "trialdata": {"rt": 928, "stimulus": "<p id='stroop-text' class='stroop-blue'>YELLOW</p>", "response": "y", "stimulus-type": "incongruent", "word": "yellow", "color": "blue", "correct_response": "b", "trial_id": "stroop-trial-1-incongruent-11", "trial_type": "html-keyboard-response", "trial_index": 167, "time_elapsed": 320191, "internal_node_id": "0.0-6.0-72.0"}}, {"uniqueid": "w83265234:a99536375", "current_trial": 168, "dateTime": 1664368738562, "trialdata": {"rt": 2486, "stimulus": "<p id='stroop-text' class='stroop-blue'>GREEN</p>", "response": "b", "stimulus-type": "incongruent", "word": "green", "color": "blue", "correct_response": "b", "trial_id": "stroop-trial-1-incongruent-25", "trial_type": "html-keyboard-response", "trial_index": 168, "time_elapsed": 323185, "internal_node_id": "0.0-6.0-73.0"}}, {"uniqueid": "w83265234:a99536375", "current_trial": 169, "dateTime": 1664368739981, "trialdata": {"rt": 912, "stimulus": "<p id='stroop-text' class='stroop-yellow'>WINDOW</p>", "response": "y", "stimulus-type": "unrelated", "word": "WINDOW", "color": "yellow", "correct_response": "y", "trial_id": "stroop-trial-1-unrelated-22", "trial_type": "html-keyboard-response", "trial_index": 169, "time_elapsed": 324603, "internal_node_id": "0.0-6.0-74.0"}}, {"uniqueid": "w83265234:a99536375", "current_trial": 170, "dateTime": 1664368741827, "trialdata": {"rt": 1340, "stimulus": "<p id='stroop-text' class='stroop-yellow'>GREEN</p>", "response": "y", "stimulus-type": "incongruent", "word": "green", "color": "yellow", "correct_response": "y", "trial_id": "stroop-trial-1-incongruent-24", "trial_type": "html-keyboard-response", "trial_index": 170, "time_elapsed": 326449, "internal_node_id": "0.0-6.0-75.0"}}, {"uniqueid": "w83265234:a99536375", "current_trial": 171, "dateTime": 1664368743395, "trialdata": {"rt": 1062, "stimulus": "<p id='stroop-text' class='stroop-yellow'>BLUE</p>", "response": "y", "stimulus-type": "incongruent", "word": "blue", "color": "yellow", "correct_response": "y", "trial_id": "stroop-trial-1-incongruent-15", "trial_type": "html-keyboard-response", "trial_index": 171, "time_elapsed": 328017, "internal_node_id": "0.0-6.0-76.0"}}, {"uniqueid": "w83265234:a99536375", "current_trial": 172, "dateTime": 1664368744434, "trialdata": {"rt": 533, "stimulus": "<p id='stroop-text' class='stroop-yellow'>YELLOW</p>", "response": "y", "stimulus-type": "congruent", "word": "yellow", "color": "yellow", "correct_response": "y", "trial_id": "stroop-trial-1-congruent-21", "trial_type": "html-keyboard-response", "trial_index": 172, "time_elapsed": 329056, "internal_node_id": "0.0-6.0-77.0"}}, {"uniqueid": "w83265234:a99536375", "current_trial": 173, "dateTime": 1664368745813, "trialdata": {"rt": 872, "stimulus": "<p id='stroop-text' class='stroop-red'>BOTTLE</p>", "response": "r", "stimulus-type": "unrelated", "word": "BOTTLE", "color": "red", "correct_response": "r", "trial_id": "stroop-trial-1-unrelated-21", "trial_type": "html-keyboard-response", "trial_index": 173, "time_elapsed": 330435, "internal_node_id": "0.0-6.0-78.0"}}, {"uniqueid": "w83265234:a99536375", "current_trial": 174, "dateTime": 1664368748658, "trialdata": {"rt": 2326, "stimulus": "<p id='stroop-text' class='stroop-yellow'>WINDOW</p>", "response": "y", "stimulus-type": "unrelated", "word": "WINDOW", "color": "yellow", "correct_response": "y", "trial_id": "stroop-trial-1-unrelated-9", "trial_type": "html-keyboard-response", "trial_index": 174, "time_elapsed": 333280, "internal_node_id": "0.0-6.0-79.0"}}, {"uniqueid": "w83265234:a99536375", "current_trial": 175, "dateTime": 1664368750382, "trialdata": {"rt": 1218, "stimulus": "<p id='stroop-text' class='stroop-blue'>YELLOW</p>", "response": "b", "stimulus-type": "incongruent", "word": "yellow", "color": "blue", "correct_response": "b", "trial_id": "stroop-trial-1-incongruent-10", "trial_type": "html-keyboard-response", "trial_index": 175, "time_elapsed": 335005, "internal_node_id": "0.0-6.0-80.0"}}, {"uniqueid": "w83265234:a99536375", "current_trial": 176, "dateTime": 1664368751694, "trialdata": {"rt": 805, "stimulus": "<p id='stroop-text' class='stroop-blue'>BLUE</p>", "response": "b", "stimulus-type": "congruent", "word": "blue", "color": "blue", "correct_response": "b", "trial_id": "stroop-trial-1-congruent-1", "trial_type": "html-keyboard-response", "trial_index": 176, "time_elapsed": 336317, "internal_node_id": "0.0-6.0-81.0"}}, {"uniqueid": "w83265234:a99536375", "current_trial": 177, "dateTime": 1664368752871, "trialdata": {"rt": 664, "stimulus": "<p id='stroop-text' class='stroop-red'>RED</p>", "response": "r", "stimulus-type": "congruent", "word": "red", "color": "red", "correct_response": "r", "trial_id": "stroop-trial-1-congruent-10", "trial_type": "html-keyboard-response", "trial_index": 177, "time_elapsed": 337494, "internal_node_id": "0.0-6.0-82.0"}}, {"uniqueid": "w83265234:a99536375", "current_trial": 178, "dateTime": 1664368754512, "trialdata": {"rt": 1134, "stimulus": "<p id='stroop-text' class='stroop-blue'>BLUE</p>", "response": "b", "stimulus-type": "congruent", "word": "blue", "color": "blue", "correct_response": "b", "trial_id": "stroop-trial-1-congruent-20", "trial_type": "html-keyboard-response", "trial_index": 178, "time_elapsed": 339135, "internal_node_id": "0.0-6.0-83.0"}}, {"uniqueid": "w83265234:a99536375", "current_trial": 179, "dateTime": 1664368755862, "trialdata": {"rt": 845, "stimulus": "<p id='stroop-text' class='stroop-green'>RED</p>", "response": "g", "stimulus-type": "incongruent", "word": "red", "color": "green", "correct_response": "g", "trial_id": "stroop-trial-1-incongruent-1", "trial_type": "html-keyboard-response", "trial_index": 179, "time_elapsed": 340485, "internal_node_id": "0.0-6.0-84.0"}}, {"uniqueid": "w83265234:a99536375", "current_trial": 180, "dateTime": 1664368757146, "trialdata": {"rt": 777, "stimulus": "<p id='stroop-text' class='stroop-yellow'>YELLOW</p>", "response": "y", "stimulus-type": "congruent", "word": "yellow", "color": "yellow", "correct_response": "y", "trial_id": "stroop-trial-1-congruent-28", "trial_type": "html-keyboard-response", "trial_index": 180, "time_elapsed": 341768, "internal_node_id": "0.0-6.0-85.0"}}, {"uniqueid": "w83265234:a99536375", "current_trial": 181, "dateTime": 1664368758695, "trialdata": {"rt": 1041, "stimulus": "<p id='stroop-text' class='stroop-blue'>CHAIR</p>", "response": "b", "stimulus-type": "unrelated", "word": "CHAIR", "color": "blue", "correct_response": "b", "trial_id": "stroop-trial-1-unrelated-14", "trial_type": "html-keyboard-response", "trial_index": 181, "time_elapsed": 343317, "internal_node_id": "0.0-6.0-86.0"}}, {"uniqueid": "w83265234:a99536375", "current_trial": 182, "dateTime": 1664368760575, "trialdata": {"rt": 1374, "stimulus": "<p id='stroop-text' class='stroop-red'>STONE</p>", "response": "r", "stimulus-type": "unrelated", "word": "STONE", "color": "red", "correct_response": "r", "trial_id": "stroop-trial-1-unrelated-2", "trial_type": "html-keyboard-response", "trial_index": 182, "time_elapsed": 345198, "internal_node_id": "0.0-6.0-87.0"}}, {"uniqueid": "w83265234:a99536375", "current_trial": 183, "dateTime": 1664368762675, "trialdata": {"rt": 1595, "stimulus": "<p id='stroop-text' class='stroop-blue'>BLUE</p>", "response": "b", "stimulus-type": "congruent", "word": "blue", "color": "blue", "correct_response": "b", "trial_id": "stroop-trial-1-congruent-11", "trial_type": "html-keyboard-response", "trial_index": 183, "time_elapsed": 347298, "internal_node_id": "0.0-6.0-88.0"}}, {"uniqueid": "w83265234:a99536375", "current_trial": 184, "dateTime": 1664368765770, "trialdata": {"rt": 2590, "stimulus": "<p id='stroop-text' class='stroop-blue'>RED</p>", "response": "b", "stimulus-type": "incongruent", "word": "red", "color": "blue", "correct_response": "b", "trial_id": "stroop-trial-1-incongruent-23", "trial_type": "html-keyboard-response", "trial_index": 184, "time_elapsed": 350392, "internal_node_id": "0.0-6.0-89.0"}}, {"uniqueid": "w83265234:a99536375", "current_trial": 185, "dateTime": 1664368812482, "trialdata": {"rt": 46203, "stimulus": "  <h1> End of block! </h1>\n\n  You have reached the end of the block 2/5. If you need a short break, feel free to take one now before moving on.\n\n  <br><br>\n  In the next block, you will complete another 90 rounds of this game.\n\n  <br><br>\n  <div style='text-align: center;'>Press <code>space</code> to begin.</div>\n  <br><br>\n<div style='text-align: center;'>(If the experiment doesn't continue, try clicking on the text and then pressing <code>space</code>.)</div>", "response": " ", "trial_id": "stroop_1_ready_3", "trial_type": "html-keyboard-response", "trial_index": 185, "time_elapsed": 397105, "internal_node_id": "0.0-7.0"}}, {"uniqueid": "w83265234:a99536375", "current_trial": 186, "dateTime": 1664368813465, "trialdata": {"rt": 977, "stimulus": "<p id='stroop-text' class='stroop-yellow'>RED</p>", "response": "y", "stimulus-type": "incongruent", "word": "red", "color": "yellow", "correct_response": "y", "trial_id": "stroop-trial-1-incongruent-23", "trial_type": "html-keyboard-response", "trial_index": 186, "time_elapsed": 398088, "internal_node_id": "0.0-8.0-0.0"}}, {"uniqueid": "w83265234:a99536375", "current_trial": 187, "dateTime": 1664368814809, "trialdata": {"rt": 838, "stimulus": "<p id='stroop-text' class='stroop-blue'>RED</p>", "response": "b", "stimulus-type": "incongruent", "word": "red", "color": "blue", "correct_response": "b", "trial_id": "stroop-trial-1-incongruent-7", "trial_type": "html-keyboard-response", "trial_index": 187, "time_elapsed": 399432, "internal_node_id": "0.0-8.0-1.0"}}, {"uniqueid": "w83265234:a99536375", "current_trial": 188, "dateTime": 1664368816048, "trialdata": {"rt": 733, "stimulus": "<p id='stroop-text' class='stroop-green'>FORK</p>", "response": "g", "stimulus-type": "unrelated", "word": "FORK", "color": "green", "correct_response": "g", "trial_id": "stroop-trial-1-unrelated-4", "trial_type": "html-keyboard-response", "trial_index": 188, "time_elapsed": 400670, "internal_node_id": "0.0-8.0-2.0"}}, {"uniqueid": "w83265234:a99536375", "current_trial": 189, "dateTime": 1664368817535, "trialdata": {"rt": 983, "stimulus": "<p id='stroop-text' class='stroop-blue'>BLUE</p>", "response": "b", "stimulus-type": "congruent", "word": "blue", "color": "blue", "correct_response": "b", "trial_id": "stroop-trial-1-congruent-17", "trial_type": "html-keyboard-response", "trial_index": 189, "time_elapsed": 402158, "internal_node_id": "0.0-8.0-3.0"}}, {"uniqueid": "w83265234:a99536375", "current_trial": 190, "dateTime": 1664368818909, "trialdata": {"rt": 868, "stimulus": "<p id='stroop-text' class='stroop-yellow'>YELLOW</p>", "response": "y", "stimulus-type": "congruent", "word": "yellow", "color": "yellow", "correct_response": "y", "trial_id": "stroop-trial-1-congruent-7", "trial_type": "html-keyboard-response", "trial_index": 190, "time_elapsed": 403532, "internal_node_id": "0.0-8.0-4.0"}}, {"uniqueid": "w83265234:a99536375", "current_trial": 191, "dateTime": 1664368820163, "trialdata": {"rt": 744, "stimulus": "<p id='stroop-text' class='stroop-yellow'>YELLOW</p>", "response": "y", "stimulus-type": "congruent", "word": "yellow", "color": "yellow", "correct_response": "y", "trial_id": "stroop-trial-1-congruent-5", "trial_type": "html-keyboard-response", "trial_index": 191, "time_elapsed": 404786, "internal_node_id": "0.0-8.0-5.0"}}, {"uniqueid": "w83265234:a99536375", "current_trial": 192, "dateTime": 1664368822377, "trialdata": {"rt": 1708, "stimulus": "<p id='stroop-text' class='stroop-red'>RED</p>", "response": "r", "stimulus-type": "congruent", "word": "red", "color": "red", "correct_response": "r", "trial_id": "stroop-trial-1-congruent-3", "trial_type": "html-keyboard-response", "trial_index": 192, "time_elapsed": 407000, "internal_node_id": "0.0-8.0-6.0"}}, {"uniqueid": "w83265234:a99536375", "current_trial": 193, "dateTime": 1664368823653, "trialdata": {"rt": 769, "stimulus": "<p id='stroop-text' class='stroop-blue'>BOTTLE</p>", "response": "b", "stimulus-type": "unrelated", "word": "BOTTLE", "color": "blue", "correct_response": "b", "trial_id": "stroop-trial-1-unrelated-6", "trial_type": "html-keyboard-response", "trial_index": 193, "time_elapsed": 408276, "internal_node_id": "0.0-8.0-7.0"}}, {"uniqueid": "w83265234:a99536375", "current_trial": 194, "dateTime": 1664368825252, "trialdata": {"rt": 1092, "stimulus": "<p id='stroop-text' class='stroop-blue'>GREEN</p>", "response": "g", "stimulus-type": "incongruent", "word": "green", "color": "blue", "correct_response": "b", "trial_id": "stroop-trial-1-incongruent-5", "trial_type": "html-keyboard-response", "trial_index": 194, "time_elapsed": 409875, "internal_node_id": "0.0-8.0-8.0"}}, {"uniqueid": "w83265234:a99536375", "current_trial": 195, "dateTime": 1664368826643, "trialdata": {"rt": 883, "stimulus": "<p id='stroop-text' class='stroop-red'>YELLOW</p>", "response": "y", "stimulus-type": "incongruent", "word": "yellow", "color": "red", "correct_response": "r", "trial_id": "stroop-trial-1-incongruent-28", "trial_type": "html-keyboard-response", "trial_index": 195, "time_elapsed": 411265, "internal_node_id": "0.0-8.0-9.0"}}, {"uniqueid": "w83265234:a99536375", "current_trial": 196, "dateTime": 1664368828968, "trialdata": {"rt": 1818, "stimulus": "<p id='stroop-text' class='stroop-green'>GREEN</p>", "response": "g", "stimulus-type": "congruent", "word": "green", "color": "green", "correct_response": "g", "trial_id": "stroop-trial-1-congruent-19", "trial_type": "html-keyboard-response", "trial_index": 196, "time_elapsed": 413591, "internal_node_id": "0.0-8.0-10.0"}}, {"uniqueid": "w83265234:a99536375", "current_trial": 197, "dateTime": 1664368830295, "trialdata": {"rt": 822, "stimulus": "<p id='stroop-text' class='stroop-yellow'>BLUE</p>", "response": "y", "stimulus-type": "incongruent", "word": "blue", "color": "yellow", "correct_response": "y", "trial_id": "stroop-trial-1-incongruent-24", "trial_type": "html-keyboard-response", "trial_index": 197, "time_elapsed": 414917, "internal_node_id": "0.0-8.0-11.0"}}, {"uniqueid": "w83265234:a99536375", "current_trial": 198, "dateTime": 1664368831982, "trialdata": {"rt": 1181, "stimulus": "<p id='stroop-text' class='stroop-red'>RED</p>", "response": "r", "stimulus-type": "congruent", "word": "red", "color": "red", "correct_response": "r", "trial_id": "stroop-trial-1-congruent-11", "trial_type": "html-keyboard-response", "trial_index": 198, "time_elapsed": 416604, "internal_node_id": "0.0-8.0-12.0"}}, {"uniqueid": "w83265234:a99536375", "current_trial": 199, "dateTime": 1664368833239, "trialdata": {"rt": 745, "stimulus": "<p id='stroop-text' class='stroop-blue'>BLUE</p>", "response": "b", "stimulus-type": "congruent", "word": "blue", "color": "blue", "correct_response": "b", "trial_id": "stroop-trial-1-congruent-2", "trial_type": "html-keyboard-response", "trial_index": 199, "time_elapsed": 417862, "internal_node_id": "0.0-8.0-13.0"}}, {"uniqueid": "w83265234:a99536375", "current_trial": 200, "dateTime": 1664368834747, "trialdata": {"rt": 1004, "stimulus": "<p id='stroop-text' class='stroop-red'>RED</p>", "response": "r", "stimulus-type": "congruent", "word": "red", "color": "red", "correct_response": "r", "trial_id": "stroop-trial-1-congruent-14", "trial_type": "html-keyboard-response", "trial_index": 200, "time_elapsed": 419370, "internal_node_id": "0.0-8.0-14.0"}}, {"uniqueid": "w83265234:a99536375", "current_trial": 201, "dateTime": 1664368836623, "trialdata": {"rt": 1369, "stimulus": "<p id='stroop-text' class='stroop-blue'>GREEN</p>", "response": "b", "stimulus-type": "incongruent", "word": "green", "color": "blue", "correct_response": "b", "trial_id": "stroop-trial-1-incongruent-8", "trial_type": "html-keyboard-response", "trial_index": 201, "time_elapsed": 421245, "internal_node_id": "0.0-8.0-15.0"}}, {"uniqueid": "w83265234:a99536375", "current_trial": 202, "dateTime": 1664368837876, "trialdata": {"rt": 746, "stimulus": "<p id='stroop-text' class='stroop-yellow'>YELLOW</p>", "response": "y", "stimulus-type": "congruent", "word": "yellow", "color": "yellow", "correct_response": "y", "trial_id": "stroop-trial-1-congruent-6", "trial_type": "html-keyboard-response", "trial_index": 202, "time_elapsed": 422498, "internal_node_id": "0.0-8.0-16.0"}}, {"uniqueid": "w83265234:a99536375", "current_trial": 203, "dateTime": 1664368839600, "trialdata": {"rt": 1217, "stimulus": "<p id='stroop-text' class='stroop-red'>GREEN</p>", "response": "r", "stimulus-type": "incongruent", "word": "green", "color": "red", "correct_response": "r", "trial_id": "stroop-trial-1-incongruent-25", "trial_type": "html-keyboard-response", "trial_index": 203, "time_elapsed": 424222, "internal_node_id": "0.0-8.0-17.0"}}, {"uniqueid": "w83265234:a99536375", "current_trial": 204, "dateTime": 1664368841015, "trialdata": {"rt": 910, "stimulus": "<p id='stroop-text' class='stroop-yellow'>GREEN</p>", "response": "y", "stimulus-type": "incongruent", "word": "green", "color": "yellow", "correct_response": "y", "trial_id": "stroop-trial-1-incongruent-21", "trial_type": "html-keyboard-response", "trial_index": 204, "time_elapsed": 425638, "internal_node_id": "0.0-8.0-18.0"}}, {"uniqueid": "w83265234:a99536375", "current_trial": 205, "dateTime": 1664368842572, "trialdata": {"rt": 1052, "stimulus": "<p id='stroop-text' class='stroop-red'>YELLOW</p>", "response": "r", "stimulus-type": "incongruent", "word": "yellow", "color": "red", "correct_response": "r", "trial_id": "stroop-trial-1-incongruent-26", "trial_type": "html-keyboard-response", "trial_index": 205, "time_elapsed": 427194, "internal_node_id": "0.0-8.0-19.0"}}, {"uniqueid": "w83265234:a99536375", "current_trial": 206, "dateTime": 1664368843911, "trialdata": {"rt": 832, "stimulus": "<p id='stroop-text' class='stroop-red'>SHIP</p>", "response": "r", "stimulus-type": "unrelated", "word": "SHIP", "color": "red", "correct_response": "r", "trial_id": "stroop-trial-1-unrelated-14", "trial_type": "html-keyboard-response", "trial_index": 206, "time_elapsed": 428533, "internal_node_id": "0.0-8.0-20.0"}}, {"uniqueid": "w83265234:a99536375", "current_trial": 207, "dateTime": 1664368845007, "trialdata": {"rt": 589, "stimulus": "<p id='stroop-text' class='stroop-red'>RED</p>", "response": "r", "stimulus-type": "congruent", "word": "red", "color": "red", "correct_response": "r", "trial_id": "stroop-trial-1-congruent-23", "trial_type": "html-keyboard-response", "trial_index": 207, "time_elapsed": 429630, "internal_node_id": "0.0-8.0-21.0"}}, {"uniqueid": "w83265234:a99536375", "current_trial": 208, "dateTime": 1664368847157, "trialdata": {"rt": 1642, "stimulus": "<p id='stroop-text' class='stroop-blue'>YELLOW</p>", "response": "b", "stimulus-type": "incongruent", "word": "yellow", "color": "blue", "correct_response": "b", "trial_id": "stroop-trial-1-incongruent-11", "trial_type": "html-keyboard-response", "trial_index": 208, "time_elapsed": 431779, "internal_node_id": "0.0-8.0-22.0"}}, {"uniqueid": "w83265234:a99536375", "current_trial": 209, "dateTime": 1664368848365, "trialdata": {"rt": 703, "stimulus": "<p id='stroop-text' class='stroop-blue'>MONKEY</p>", "response": "b", "stimulus-type": "unrelated", "word": "MONKEY", "color": "blue", "correct_response": "b", "trial_id": "stroop-trial-1-unrelated-5", "trial_type": "html-keyboard-response", "trial_index": 209, "time_elapsed": 432987, "internal_node_id": "0.0-8.0-23.0"}}, {"uniqueid": "w83265234:a99536375", "current_trial": 210, "dateTime": 1664368849744, "trialdata": {"rt": 873, "stimulus": "<p id='stroop-text' class='stroop-green'>DOG</p>", "response": "g", "stimulus-type": "unrelated", "word": "DOG", "color": "green", "correct_response": "g", "trial_id": "stroop-trial-1-unrelated-9", "trial_type": "html-keyboard-response", "trial_index": 210, "time_elapsed": 434367, "internal_node_id": "0.0-8.0-24.0"}}, {"uniqueid": "w83265234:a99536375", "current_trial": 211, "dateTime": 1664368851507, "trialdata": {"rt": 1257, "stimulus": "<p id='stroop-text' class='stroop-red'>RED</p>", "response": "r", "stimulus-type": "congruent", "word": "red", "color": "red", "correct_response": "r", "trial_id": "stroop-trial-1-congruent-29", "trial_type": "html-keyboard-response", "trial_index": 211, "time_elapsed": 436130, "internal_node_id": "0.0-8.0-25.0"}}, {"uniqueid": "w83265234:a99536375", "current_trial": 212, "dateTime": 1664368853032, "trialdata": {"rt": 1019, "stimulus": "<p id='stroop-text' class='stroop-green'>GREEN</p>", "response": "g", "stimulus-type": "congruent", "word": "green", "color": "green", "correct_response": "g", "trial_id": "stroop-trial-1-congruent-15", "trial_type": "html-keyboard-response", "trial_index": 212, "time_elapsed": 437655, "internal_node_id": "0.0-8.0-26.0"}}, {"uniqueid": "w83265234:a99536375", "current_trial": 213, "dateTime": 1664368854544, "trialdata": {"rt": 997, "stimulus": "<p id='stroop-text' class='stroop-green'>SHIP</p>", "response": "g", "stimulus-type": "unrelated", "word": "SHIP", "color": "green", "correct_response": "g", "trial_id": "stroop-trial-1-unrelated-10", "trial_type": "html-keyboard-response", "trial_index": 213, "time_elapsed": 439166, "internal_node_id": "0.0-8.0-27.0"}}, {"uniqueid": "w83265234:a99536375", "current_trial": 214, "dateTime": 1664368856044, "trialdata": {"rt": 995, "stimulus": "<p id='stroop-text' class='stroop-blue'>GREEN</p>", "response": "b", "stimulus-type": "incongruent", "word": "green", "color": "blue", "correct_response": "b", "trial_id": "stroop-trial-1-incongruent-14", "trial_type": "html-keyboard-response", "trial_index": 214, "time_elapsed": 440667, "internal_node_id": "0.0-8.0-28.0"}}, {"uniqueid": "w83265234:a99536375", "current_trial": 215, "dateTime": 1664368857519, "trialdata": {"rt": 969, "stimulus": "<p id='stroop-text' class='stroop-yellow'>BLUE</p>", "response": "y", "stimulus-type": "incongruent", "word": "blue", "color": "yellow", "correct_response": "y", "trial_id": "stroop-trial-1-incongruent-20", "trial_type": "html-keyboard-response", "trial_index": 215, "time_elapsed": 442141, "internal_node_id": "0.0-8.0-29.0"}}, {"uniqueid": "w83265234:a99536375", "current_trial": 216, "dateTime": 1664368858842, "trialdata": {"rt": 810, "stimulus": "<p id='stroop-text' class='stroop-blue'>RED</p>", "response": "r", "stimulus-type": "incongruent", "word": "red", "color": "blue", "correct_response": "b", "trial_id": "stroop-trial-1-incongruent-12", "trial_type": "html-keyboard-response", "trial_index": 216, "time_elapsed": 443465, "internal_node_id": "0.0-8.0-30.0"}}, {"uniqueid": "w83265234:a99536375", "current_trial": 217, "dateTime": 1664368862039, "trialdata": {"rt": 2689, "stimulus": "<p id='stroop-text' class='stroop-green'>BOAT</p>", "response": "g", "stimulus-type": "unrelated", "word": "BOAT", "color": "green", "correct_response": "g", "trial_id": "stroop-trial-1-unrelated-21", "trial_type": "html-keyboard-response", "trial_index": 217, "time_elapsed": 446661, "internal_node_id": "0.0-8.0-31.0"}}, {"uniqueid": "w83265234:a99536375", "current_trial": 218, "dateTime": 1664368863675, "trialdata": {"rt": 1129, "stimulus": "<p id='stroop-text' class='stroop-red'>RED</p>", "response": "r", "stimulus-type": "congruent", "word": "red", "color": "red", "correct_response": "r", "trial_id": "stroop-trial-1-congruent-22", "trial_type": "html-keyboard-response", "trial_index": 218, "time_elapsed": 448298, "internal_node_id": "0.0-8.0-32.0"}}, {"uniqueid": "w83265234:a99536375", "current_trial": 219, "dateTime": 1664368865105, "trialdata": {"rt": 920, "stimulus": "<p id='stroop-text' class='stroop-green'>GREEN</p>", "response": "g", "stimulus-type": "congruent", "word": "green", "color": "green", "correct_response": "g", "trial_id": "stroop-trial-1-congruent-30", "trial_type": "html-keyboard-response", "trial_index": 219, "time_elapsed": 449728, "internal_node_id": "0.0-8.0-33.0"}}, {"uniqueid": "w83265234:a99536375", "current_trial": 220, "dateTime": 1664368866341, "trialdata": {"rt": 730, "stimulus": "<p id='stroop-text' class='stroop-yellow'>CHAIR</p>", "response": "y", "stimulus-type": "unrelated", "word": "CHAIR", "color": "yellow", "correct_response": "y", "trial_id": "stroop-trial-1-unrelated-8", "trial_type": "html-keyboard-response", "trial_index": 220, "time_elapsed": 450964, "internal_node_id": "0.0-8.0-34.0"}}, {"uniqueid": "w83265234:a99536375", "current_trial": 221, "dateTime": 1664368868340, "trialdata": {"rt": 1494, "stimulus": "<p id='stroop-text' class='stroop-yellow'>RED</p>", "response": "y", "stimulus-type": "incongruent", "word": "red", "color": "yellow", "correct_response": "y", "trial_id": "stroop-trial-1-incongruent-2", "trial_type": "html-keyboard-response", "trial_index": 221, "time_elapsed": 452962, "internal_node_id": "0.0-8.0-35.0"}}, {"uniqueid": "w83265234:a99536375", "current_trial": 222, "dateTime": 1664368869885, "trialdata": {"rt": 1037, "stimulus": "<p id='stroop-text' class='stroop-blue'>FORK</p>", "response": "b", "stimulus-type": "unrelated", "word": "FORK", "color": "blue", "correct_response": "b", "trial