{"condition": 1, "counterbalance": 0, "assignmentId": "a35119653", "workerId": "w97614728", "hitId": "h20993129", "currenttrial": 149, "bonus": 0, "data": [{"uniqueid": "w97614728:a35119653", "current_trial": 0, "dateTime": 1664464314610, "trialdata": {"success": true, "trial_type": "fullscreen", "trial_index": 0, "time_elapsed": 120810, "internal_node_id": "0.0-0.0"}}, {"uniqueid": "w97614728:a35119653", "current_trial": 1, "dateTime": 1664464324024, "trialdata": {"view_history": [{"page_index": 0, "viewing_time": 9406}], "rt": 9407, "trial_id": "exp_instructions_no_distractor", "trial_type": "instructions", "trial_index": 1, "time_elapsed": 130225, "internal_node_id": "0.0-1.0"}}, {"uniqueid": "w97614728:a35119653", "current_trial": 2, "dateTime": 1664464350779, "trialdata": {"success": true, "trial_type": "fullscreen", "trial_index": 2, "time_elapsed": 156980, "internal_node_id": "0.0-2.0-0.0"}}, {"uniqueid": "w97614728:a35119653", "current_trial": 3, "dateTime": 1664464498800, "trialdata": {"view_history": [{"page_index": 0, "viewing_time": 75447}, {"page_index": 1, "viewing_time": 46838}, {"page_index": 2, "viewing_time": 6233}, {"page_index": 3, "viewing_time": 6050}, {"page_index": 4, "viewing_time": 13451}], "rt": 148020, "trial_id": "mouselab_instructions_1", "trial_type": "instructions", "trial_index": 3, "time_elapsed": 305001, "internal_node_id": "0.0-2.0-1.0"}}, {"uniqueid": "w97614728:a35119653", "current_trial": 4, "dateTime": 1664464544952, "trialdata": {"revealed_states": [], "num_clicks_accrued": [0, 0, 0, 0, 0, 0, 0, 0, 0, 0, 0, 0, 0], "stateRewards": ["", 10, 10, -10, -10, 10, 10, 10, -10, -10, 10, 10, -10], "withholdReward": false, "trial_id": "practice_1", "block": "test", "trialIndex": 0, "score": 41.25, "costs": -0.75, "simulationMode": [null, null, null, null, null, null, null], "rewards": [10, 10, 10, 10], "path": ["0", "0", "5", "5", "6", "7"], "rt": [9881, 2916, 925, 440, 1260, 770, 785], "actions": ["right", "right", "right", "right", "right", "right", "up"], "actionTimes": [2914, 2918, 3846, 3848, 5110, 5112, 6393], "queries": {"click": {"state": {"target": ["5", "6", "7"], "time": [null, null, null]}, "edge": {"target": [], "time": []}}, "mouseover": {"state": {"target": ["5", "6", "7"], "time": [null, null, null]}, "edge": {"target": [], "time": []}}, "mouseout": {"state": {"target": ["0", "5", "6", "7"], "time": [null, null, null, null]}, "edge": {"target": [], "time": []}}}, "displayed_time": "6.89", "trialTime": 36628, "trial_type": "mouselab-mdp", "trial_index": 4, "time_elapsed": 351152, "internal_node_id": "0.0-2.0-2.0-0.0"}}, {"uniqueid": "w97614728:a35119653", "current_trial": 5, "dateTime": 1664464610982, "trialdata": {"revealed_states": [], "num_clicks_accrued": [0, 0, 0, 0, 0, 0, 0, 0, 0, 0, 0, 0, 0], "stateRewards": ["", -10, -10, -10, -10, 10, -10, -10, 10, -10, -10, -10, -10], "withholdReward": false, "trial_id": "practice_2", "block": "test", "trialIndex": 1, "score": 10.5, "costs": -1.5, "simulationMode": [null, null, null], "rewards": [10, -10, 10], "path": ["0", "0", "5", "6", "8"], "rt": [8690, 308, 208], "actions": ["right", "right", "down"], "actionTimes": [10529, 11339, 12039], "queries": {"click": {"state": {"target": ["1", "9", "5", "6", "7", "8"], "time": [2752, 5103, 6184, 7000, 8017, 9000]}, "edge": {"target": [], "time": []}}, "mouseover": {"state": {"target": ["1", "2", "9", "5", "6", "7", "8"], "time": [2564, 3663, 4977, 5778, 6760, 7694, 8761]}, "edge": {"target": [], "time": []}}, "mouseout": {"state": {"target": ["0", "1", "2", "1", "9", "5", "6", "6", "7", "6", "8", "6"], "time": [2462, 3529, 4662, 4813, 5628, 6712, 7494, 7661, 8478, 8594, 9528, 9864]}, "edge": {"target": [], "time": []}}}, "displayed_time": "12.53", "trialTime": 65929, "trial_type": "mouselab-mdp", "trial_index": 5, "time_elapsed": 417183, "internal_node_id": "0.0-2.0-2.0-1.0"}}, {"uniqueid": "w97614728:a35119653", "current_trial": 6, "dateTime": 1664464857338, "trialdata": {"view_history": [{"page_index": 0, "viewing_time": 176949}, {"page_index": 1, "viewing_time": 62605}, {"page_index": 2, "viewing_time": 6799}], "rt": 246353, "trial_id": "mouselab_instructions_2_scarce", "trial_type": "instructions", "trial_index": 6, "time_elapsed": 663539, "internal_node_id": "0.0-2.0-3.0"}}, {"uniqueid": "w97614728:a35119653", "current_trial": 7, "dateTime": 1664464903459, "trialdata": {"rt": 46114, "response": {"Q0": "$-48 to $48", "Q1": "The cost is always $0.25.", "Q2": "The better I perform the higher my bonus will be.", "Q3": "Yes.", "Q4": "The values of the nodes walked through from start to finish.", "Q5": "No, the score will only be displayed once at the end of the game."}, "question_order": [0, 1, 2, 3, 4, 5], "correct": {"Q0": "$-48 to $48", "Q1": "The cost is always $0.25.", "Q2": "The better I perform the higher my bonus will be.", "Q3": "No, the amount of cash at each node of the web may be different each time.", "Q4": "The values of the nodes walked through from start to finish.", "Q5": "No, the spider might forget to count the money on some rounds."}, "trial_id": "mouselab_quiz_scarce", "trial_type": "survey-multi-choice", "trial_index": 7, "time_elapsed": 709660, "internal_node_id": "0.0-2.0-4.0"}}, {"uniqueid": "w97614728:a35119653", "current_trial": 8, "dateTime": 1664464912761, "trialdata": {"success": true, "trial_type": "fullscreen", "trial_index": 8, "time_elapsed": 718962, "internal_node_id": "0.0-2.1-0.1"}}, {"uniqueid": "w97614728:a35119653", "current_trial": 9, "dateTime": 1664465340750, "trialdata": {"view_history": [{"page_index": 0, "viewing_time": 207724}, {"page_index": 1, "viewing_time": 131509}, {"page_index": 2, "viewing_time": 78156}, {"page_index": 3, "viewing_time": 1583}, {"page_index": 4, "viewing_time": 9017}], "rt": 427990, "trial_id": "mouselab_instructions_1", "trial_type": "instructions", "trial_index": 9, "time_elapsed": 1146951, "internal_node_id": "0.0-2.1-1.1"}}, {"uniqueid": "w97614728:a35119653", "current_trial": 10, "dateTime": 1664465375464, "trialdata": {"revealed_states": [], "num_clicks_accrued": [0, 0, 0, 0, 0, 0, 0, 0, 0, 0, 0, 0, 0], "stateRewards": ["", 10, 10, -10, -10, 10, 10, 10, -10, -10, 10, 10, -10], "withholdReward": false, "trial_id": "practice_1", "block": "test", "trialIndex": 2, "score": 31.25, "costs": -0.75, "simulationMode": [null, null, null], "rewards": [10, 10, 10], "path": ["0", "0", "5", "6", "7"], "rt": [2378, 107, 119], "actions": ["right", "right", "up"], "actionTimes": [4042, 4649, 5262], "queries": {"click": {"state": {"target": ["5", "6", "7"], "time": [2299, 2881, 3447]}, "edge": {"target": [], "time": []}}, "mouseover": {"state": {"target": ["5", "6", "7"], "time": [2126, 2758, 3274]}, "edge": {"target": [], "time": []}}, "mouseout": {"state": {"target": ["5", "6", "7", "6"], "time": [2694, 3243, 6810, 6857]}, "edge": {"target": [], "time": []}}}, "displayed_time": "5.76", "trialTime": 34592, "trial_type": "mouselab-mdp", "trial_index": 10, "time_elapsed": 1181664, "internal_node_id": "0.0-2.1-2.1-0.1"}}, {"uniqueid": "w97614728:a35119653", "current_trial": 11, "dateTime": 1664465383367, "trialdata": {"revealed_states": [], "num_clicks_accrued": [0, 0, 0, 0, 0, 0, 0, 0, 0, 0, 0, 0, 0], "stateRewards": ["", -10, -10, -10, -10, 10, -10, -10, 10, -10, -10, -10, -10], "withholdReward": false, "trial_id": "practice_2", "block": "test", "trialIndex": 3, "score": 11.25, "costs": -0.75, "simulationMode": [null, null, null], "rewards": [10, -10, 10], "path": ["0", "0", "5", "6", "8"], "rt": [2522, 3, 198], "actions": ["right", "right", "down"], "actionTimes": [4620, 5116, 5826], "queries": {"click": {"state": {"target": ["5", "6", "8"], "time": [2832, 3516, 4132]}, "edge": {"target": [], "time": []}}, "mouseover": {"state": {"target": ["5", "6", "8"], "time": [2525, 3293, 3944]}, "edge": {"target": [], "time": []}}, "mouseout": {"state": {"target": ["5", "6", "8", "8"], "time": [3244, 3909, 6970, 7042]}, "edge": {"target": [], "time": []}}}, "displayed_time": "6.33", "trialTime": 7811, "trial_type": "mouselab-mdp", "trial_index": 11, "time_elapsed": 1189568, "internal_node_id": "0.0-2.1-2.1-1.1"}}, {"uniqueid": "w97614728:a35119653", "current_trial": 12, "dateTime": 1664465436972, "trialdata": {"view_history": [{"page_index": 0, "viewing_time": 38718}, {"page_index": 1, "viewing_time": 11667}, {"page_index": 2, "viewing_time": 3217}], "rt": 53603, "trial_id": "mouselab_instructions_2_scarce", "trial_type": "instructions", "trial_index": 12, "time_elapsed": 1243173, "internal_node_id": "0.0-2.1-3.1"}}, {"uniqueid": "w97614728:a35119653", "current_trial": 13, "dateTime": 1664465470842, "trialdata": {"rt": 33866, "response": {"Q0": "$-10 to $10", "Q1": "The cost is always $0.25.", "Q2": "The better I perform the higher my bonus will be.", "Q3": "No, the amount of cash at each node of the web may be different each time.", "Q4": "The values of the nodes walked through from start to finish.", "Q5": "No, the spider might forget to count the money on some rounds."}, "question_order": [0, 1, 2, 3, 4, 5], "correct": {"Q0": "$-48 to $48", "Q1": "The cost is always $0.25.", "Q2": "The better I perform the higher my bonus will be.", "Q3": "No, the amount of cash at each node of the web may be different each time.", "Q4": "The values of the nodes walked through from start to finish.", "Q5": "No, the spider might forget to count the money on some rounds."}, "trial_id": "mouselab_quiz_scarce", "trial_type": "survey-multi-choice", "trial_index": 13, "time_elapsed": 1277043, "internal_node_id": "0.0-2.1-4.1"}}, {"uniqueid": "w97614728:a35119653", "current_trial": 14, "dateTime": 1664465479978, "trialdata": {"success": true, "trial_type": "fullscreen", "trial_index": 14, "time_elapsed": 1286179, "internal_node_id": "0.0-2.2-0.2"}}, {"uniqueid": "w97614728:a35119653", "current_trial": 15, "dateTime": 1664465556013, "trialdata": {"view_history": [{"page_index": 0, "viewing_time": 30795}, {"page_index": 1, "viewing_time": 15369}, {"page_index": 2, "viewing_time": 8200}, {"page_index": 3, "viewing_time": 5683}, {"page_index": 4, "viewing_time": 15985}], "rt": 76032, "trial_id": "mouselab_instructions_1", "trial_type": "instructions", "trial_index": 15, "time_elapsed": 1362214, "internal_node_id": "0.0-2.2-1.2"}}, {"uniqueid": "w97614728:a35119653", "current_trial": 16, "dateTime": 1664465566524, "trialdata": {"revealed_states": [], "num_clicks_accrued": [0, 0, 0, 0, 0, 0, 0, 0, 0, 0, 0, 0, 0], "stateRewards": ["", 10, 10, -10, -10, 10, 10, 10, -10, -10, 10, 10, -10], "withholdReward": false, "trial_id": "practice_1", "block": "test", "trialIndex": 4, "score": 11.25, "costs": -0.75, "simulationMode": [null, null, null], "rewards": [10, 10, -10], "path": ["0", "0", "1", "2", "3"], "rt": [3302, 1323, 4], "actions": ["up", "up", "right"], "actionTimes": [5375, 7203, 7704], "queries": {"click": {"state": {"target": ["1", "2", "4"], "time": [2602, 3785, 4569]}, "edge": {"target": [], "time": []}}, "mouseover": {"state": {"target": ["1", "2", "4"], "time": [2428, 3645, 4329]}, "edge": {"target": [], "time": []}}, "mouseout": {"state": {"target": ["0", "1", "1", "2", "4", "2", "3", "5"], "time": [2348, 3045, 3429, 4247, 6329, 6395, 9028, 9097]}, "edge": {"target": [], "time": []}}}, "displayed_time": "8.21", "trialTime": 10411, "trial_type": "mouselab-mdp", "trial_index": 16, "time_elapsed": 1372725, "internal_node_id": "0.0-2.2-2.2-0.2"}}, {"uniqueid": "w97614728:a35119653", "current_trial": 17, "dateTime": 1664465583090, "trialdata": {"revealed_states": [], "num_clicks_accrued": [0, 0, 0, 0, 0, 0, 0, 0, 0, 0, 0, 0, 0], "stateRewards": ["", -10, -10, -10, -10, 10, -10, -10, 10, -10, -10, -10, -10], "withholdReward": false, "trial_id": "practice_2", "block": "test", "trialIndex": 5, "score": 9, "costs": -3, "simulationMode": [null, null, null], "rewards": [10, -10, 10], "path": ["0", "0", "5", "6", "8"], "rt": [7183, 231, 233], "actions": ["right", "right", "down"], "actionTimes": [9095, 9831, 10566], "queries": {"click": {"state": {"target": ["9", "10", "12", "11", "1", "2", "4", "3", "5", "6", "7", "8"], "time": [2354, 2904, 3403, 4136, 4870, 5353, 5837, 6437, 7087, 7571, 8053, 8637]}, "edge": {"target": [], "time": []}}, "mouseover": {"state": {"target": ["9", "10", "12", "11", "1", "2", "4", "3", "5", "6", "7", "8"], "time": [2265, 2783, 3265, 3963, 4748, 5213, 5781, 6214, 6865, 7449, 7914, 8396]}, "edge": {"target": [], "time": []}}, "mouseout": {"state": {"target": ["0", "0", "9", "10", "12", "10", "11", "1", "2", "4", "2", "3", "5", "6", "7", "6"], "time": [1045, 2199, 2747, 3214, 3779, 3847, 4482, 5180, 5697, 6132, 6197, 6763, 7396, 7882, 8315, 8364]}, "edge": {"target": [], "time": []}}}, "displayed_time": "11.06", "trialTime": 16478, "trial_type": "mouselab-mdp", "trial_index": 17, "time_elapsed": 1389291, "internal_node_id": "0.0-2.2-2.2-1.2"}}, {"uniqueid": "w97614728:a35119653", "current_trial": 18, "dateTime": 1664465601399, "trialdata": {"view_history": [{"page_index": 0, "viewing_time": 14938}, {"page_index": 1, "viewing_time": 2150}, {"page_index": 2, "viewing_time": 1217}], "rt": 18306, "trial_id": "mouselab_instructions_2_scarce", "trial_type": "instructions", "trial_index": 18, "time_elapsed": 1407600, "internal_node_id": "0.0-2.2-3.2"}}, {"uniqueid": "w97614728:a35119653", "current_trial": 19, "dateTime": 1664465623485, "trialdata": {"rt": 22081, "response": {"Q0": "$-48 to $48", "Q1": "The cost is always $0.25.", "Q2": "The better I perform the higher my bonus will be.", "Q3": "No, the amount of cash at each node of the web may be different each time.", "Q4": "The values of the nodes walked through from start to finish.", "Q5": "No, the spider might forget to count the money on some rounds."}, "question_order": [0, 1, 2, 3, 4, 5], "correct": {"Q0": "$-48 to $48", "Q1": "The cost is always $0.25.", "Q2": "The better I perform the higher my bonus will be.", "Q3": "No, the amount of cash at each node of the web may be different each time.", "Q4": "The values of the nodes walked through from start to finish.", "Q5": "No, the spider might forget to count the money on some rounds."}, "trial_id": "mouselab_quiz_scarce", "trial_type": "survey-multi-choice", "trial_index": 19, "time_elapsed": 1429686, "internal_node_id": "0.0-2.2-4.2"}}, {"uniqueid": "w97614728:a35119653", "current_trial": 20, "dateTime": 1664465636483, "trialdata": {"rt": 12988, "stimulus": "\n<h1> Get ready to start the game! </h1>\n\nThank you for reading the instructions. Get ready start with the first of 4 block(s) of this game.\n<br><br>\nIn this first block, you will complete 30 rounds of this game before moving on.\n<br><br>\nRemember, the more money the spider gets, the bigger your bonus will be!\n<br><br>\n<div style='text-align: center;'>Press <code>space</code> to begin.</div>\n\n<br><br>\n(If, at any point, the <code>space</code> key does not take you to the next page, click once on the text and try again.)", "response": " ", "trial_id": "mdp_ready_1", "trial_type": "html-keyboard-response", "trial_index": 20, "time_elapsed": 1442684, "internal_node_id": "0.0-4.0-0.0"}}, {"uniqueid": "w97614728:a35119653", "current_trial": 21, "dateTime": 1664465651135, "trialdata": {"revealed_states": [], "num_clicks_accrued": [0, 0, 0, 0, 0, 0, 0, 0, 0, 0, 0, 0, 0], "stateRewards": ["", 2, 4, -48, -24, -4, 4, -24, 24, -2, -8, -24, 24], "withholdReward": true, "trial_id": "mdp_640720803523", "block": "test1", "trialIndex": 6, "score": 27, "costs": -2, "simulationMode": [null, null, null], "rewards": [-4, 4, 24], "path": ["0", "0", "5", "6", "8"], "rt": [8196, 48, 161], "actions": ["right", "right", "down"], "actionTimes": [9766, 10318, 10996], "queries": {"click": {"state": {"target": ["1", "2", "4", "3", "5", "6", "7", "8"], "time": [2157, 2974, 3640, 5191, 6858, 7591, 8108, 8991]}, "edge": {"target": [], "time": []}}, "mouseover": {"state": {"target": ["1", "2", "4", "3", "3", "5", "6", "6", "7", "8"], "time": [2002, 2586, 3487, 4834, 5101, 6602, 7219, 7451, 7951, 8651]}, "edge": {"target": [], "time": []}}, "mouseout": {"state": {"target": ["0", "1", "2", "4", "2", "3", "3", "5", "6", "6", "7", "6", "8"], "time": [1233, 2550, 3433, 4753, 4818, 4867, 6468, 7202, 7284, 7919, 8584, 8634, 9352]}, "edge": {"target": [], "time": []}}}, "displayed_time": "11.49", "trialTime": 14555, "trial_type": "mouselab-mdp", "trial_index": 21, "time_elapsed": 1457335, "internal_node_id": "0.0-4.0-1.0-0.0"}}, {"uniqueid": "w97614728:a35119653", "current_trial": 22, "dateTime": 1664465665600, "trialdata": {"revealed_states": [], "num_clicks_accrued": [0, 0, 0, 0, 0, 0, 0, 0, 0, 0, 0, 0, 0], "stateRewards": ["", 2, -4, -48, -48, -2, -4, -24, -48, -2, 8, 24, 24], "withholdReward": false, "trial_id": "mdp_656069446729", "block": "test1", "trialIndex": 7, "score": 32.25, "costs": -2.75, "simulationMode": [null, null, null], "rewards": [-2, 8, 24], "path": ["0", "0", "9", "10", "11"], "rt": [8489, 40, 265], "actions": ["left", "left", "up"], "actionTimes": [10255, 10793, 11568], "queries": {"click": {"state": {"target": ["5", "6", "7", "8", "1", "2", "4", "3", "9", "10", "11"], "time": [2558, 3157, 3741, 4541, 5524, 6174, 6641, 7375, 8257, 9160, 9673]}, "edge": {"target": [], "time": []}}, "mouseover": {"state": {"target": ["5", "6", "7", "8", "1", "2", "4", "3", "9", "9", "10", "11"], "time": [2486, 3001, 3568, 4299, 5033, 5985, 6585, 7184, 7870, 8119, 9009, 9504]}, "edge": {"target": [], "time": []}}, "mouseout": {"state": {"target": ["5", "0", "5", "6", "7", "6", "8", "5", "1", "2", "4", "2", "3", "1", "9", "9", "10"], "time": [1150, 2304, 2984, 3535, 4201, 4267, 4919, 4968, 5952, 6518, 7071, 7151, 7735, 7785, 7935, 8535, 9435]}, "edge": {"target": [], "time": []}}}, "displayed_time": "12.07", "trialTime": 14353, "trial_type": "mouselab-mdp", "trial_index": 22, "time_elapsed": 1471801, "internal_node_id": "0.0-4.0-1.0-1.0"}}, {"uniqueid": "w97614728:a35119653", "current_trial": 23, "dateTime": 1664465677808, "trialdata": {"revealed_states": [], "num_clicks_accrued": [0, 0, 0, 0, 0, 0, 0, 0, 0, 0, 0, 0, 0], "stateRewards": ["", 2, 4, -48, -48, 2, 4, 48, -24, -2, 8, 48, -48], "withholdReward": true, "trial_id": "mdp_258528916140", "block": "test1", "trialIndex": 8, "score": 58, "costs": -1, "simulationMode": [null, null, null], "rewards": [2, 4, 48], "path": ["0", "0", "5", "6", "7"], "rt": [4465, 119, 145], "actions": ["right", "right", "up"], "actionTimes": [5888, 6510, 7155], "queries": {"click": {"state": {"target": ["1", "4", "2", "7"], "time": [2180, 2863, 3513, 4847]}, "edge": {"target": [], "time": []}}, "mouseover": {"state": {"target": ["1", "4", "2", "3", "7", "6"], "time": [1974, 2675, 3324, 4091, 4623, 5340]}, "edge": {"target": [], "time": []}}, "mouseout": {"state": {"target": ["11", "9", "0", "1", "4", "2", "3", "7", "6"], "time": [675, 773, 1173, 2607, 3289, 4023, 4342, 5308, 5357]}, "edge": {"target": [], "time": []}}}, "displayed_time": "9.43", "trialTime": 12116, "trial_type": "mouselab-mdp", "trial_index": 23, "time_elapsed": 1484008, "internal_node_id": "0.0-4.0-1.0-2.0"}}, {"uniqueid": "w97614728:a35119653", "current_trial": 24, "dateTime": 1664465689987, "trialdata": {"revealed_states": [], "num_clicks_accrued": [0, 0, 0, 0, 0, 0, 0, 0, 0, 0, 0, 0, 0], "stateRewards": ["", -4, -8, 48, 24, 4, -8, 24, -48, -2, -8, 24, -48], "withholdReward": true, "trial_id": "mdp_952038635544", "block": "test1", "trialIndex": 9, "score": 24, "costs": -1, "simulationMode": [null, null, null], "rewards": [4, -8, 24], "path": ["0", "0", "5", "6", "7"], "rt": [4705, 294, 294], "actions": ["right", "right", "up"], "actionTimes": [5930, 6738, 7525], "queries": {"click": {"state": {"target": ["8", "7", "5", "6"], "time": [2837, 3835, 4703, 5169]}, "edge": {"target": [], "time": []}}, "mouseover": {"state": {"target": ["5", "5", "6", "8", "6", "7", "5", "5", "6"], "time": [1729, 2030, 2312, 2464, 3264, 3329, 4464, 4579, 5062]}, "edge": {"target": [], "time": []}}, "mouseout": {"state": {"target": ["6", "5", "5", "5", "6", "8", "6", "7", "5", "5"], "time": [746, 795, 1778, 2295, 2363, 3229, 3297, 4246, 4514, 5030]}, "edge": {"target": [], "time": []}}}, "displayed_time": "9.23", "trialTime": 12084, "trial_type": "mouselab-mdp", "trial_index": 24, "time_elapsed": 1496188, "internal_node_id": "0.0-4.0-1.0-3.0"}}, {"uniqueid": "w97614728:a35119653", "current_trial": 25, "dateTime": 1664465704935, "trialdata": {"revealed_states": [], "num_clicks_accrued": [0, 0, 0, 0, 0, 0, 0, 0, 0, 0, 0, 0, 0], "stateRewards": ["", 4, 4, 48, -48, -2, -8, -48, -24, 2, 4, -24, -48], "withholdReward": true, "trial_id": "mdp_239929662917", "block": "test1", "trialIndex": 10, "score": 60, "costs": -1, "simulationMode": [null, null, null], "rewards": [4, 4, 48], "path": ["0", "0", "1", "2", "3"], "rt": [7738, 236, 314], "actions": ["up", "up", "right"], "actionTimes": [8627, 9368, 10179], "queries": {"click": {"state": {"target": ["1", "2", "4", "3"], "time": [1519, 2685, 3485, 4452]}, "edge": {"target": [], "time": []}}, "mouseover": {"state": {"target": ["1", "2", "4", "3", "5", "5"], "time": [1329, 1997, 3263, 4095, 4945, 5647]}, "edge": {"target": [], "time": []}}, "mouseout": {"state": {"target": ["6", "5", "0", "1", "2", "4", "2", "3", "5", "5"], "time": [529, 611, 1281, 1962, 3231, 3962, 4014, 4880, 4997, 7929]}, "edge": {"target": [], "time": []}}}, "displayed_time": "10.68", "trialTime": 14831, "trial_type": "mouselab-mdp", "trial_index": 25, "time_elapsed": 1511136, "internal_node_id": "0.0-4.0-1.0-4.0"}}, {"uniqueid": "w97614728:a35119653", "current_trial": 26, "dateTime": 1664465718623, "trialdata": {"revealed_states": [], "num_clicks_accrued": [0, 0, 0, 0, 0, 0, 0, 0, 0, 0, 0, 0, 0], "stateRewards": ["", -2, 4, 24, 48, 2, 4, -48, -48, 2, 8, 48, -48], "withholdReward": true, "trial_id": "mdp_409609775558", "block": "test1", "trialIndex": 11, "score": 61.25, "costs": -1.75, "simulationMode": [null, null, null], "rewards": [2, 8, 48], "path": ["0", "0", "9", "10", "11"], "rt": [7894, 227, 376], "actions": ["left", "left", "up"], "actionTimes": [8993, 9717, 10599], "queries": {"click": {"state": {"target": ["5", "6", "8", "7", "11", "10", "9"], "time": [2645, 3727, 4445, 5111, 6861, 7445, 8061]}, "edge": {"target": [], "time": []}}, "mouseover": {"state": {"target": ["5", "5", "6", "8", "7", "9", "10", "10", "11", "10", "9"], "time": [1638, 2504, 3189, 4271, 4940, 5622, 5655, 5871, 6671, 7270, 7905]}, "edge": {"target": [], "time": []}}, "mouseout": {"state": {"target": ["0", "5", "5", "6", "8", "6", "7", "9", "10", "10", "11", "10"], "time": [1589, 1739, 3140, 4222, 4854, 4921, 5571, 5637, 5691, 6087, 7238, 7854]}, "edge": {"target": [], "time": []}}}, "displayed_time": "11.09", "trialTime": 13594, "trial_type": "mouselab-mdp", "trial_index": 26, "time_elapsed": 1524824, "internal_node_id": "0.0-4.0-1.0-5.0"}}, {"uniqueid": "w97614728:a35119653", "current_trial": 27, "dateTime": 1664465732070, "trialdata": {"revealed_states": [], "num_clicks_accrued": [0, 0, 0, 0, 0, 0, 0, 0, 0, 0, 0, 0, 0], "stateRewards": ["", -4, -4, -48, -24, 2, 8, 24, -48, 4, 4, 48, 48], "withholdReward": true, "trial_id": "mdp_693501840209", "block": "test1", "trialIndex": 12, "score": 37.75, "costs": -1.25, "simulationMode": [null, null, null], "rewards": [2, 8, 24], "path": ["0", "0", "5", "6", "7"], "rt": [6954, 363, 408], "actions": ["right", "right", "up"], "actionTimes": [8123, 8978, 9891], "queries": {"click": {"state": {"target": ["1", "9", "5", "6", "7"], "time": [1854, 2454, 3487, 4104, 4653]}, "edge": {"target": [], "time": []}}, "mouseover": {"state": {"target": ["1", "9", "0", "5", "6", "7", "10"], "time": [1647, 2314, 2747, 3337, 3946, 4496, 5582]}, "edge": {"target": [], "time": []}}, "mouseout": {"state": {"target": ["9", "0", "1", "9", "0", "5", "6", "7", "9", "10", "9", "5"], "time": [780, 1597, 2247, 2731, 2799, 3914, 4430, 5150, 5247, 5847, 5880, 5982]}, "edge": {"target": [], "time": []}}}, "displayed_time": "11.17", "trialTime": 13349, "trial_type": "mouselab-mdp", "trial_index": 27, "time_elapsed": 1538271, "internal_node_id": "0.0-4.0-1.0-6.0"}}, {"uniqueid": "w97614728:a35119653", "current_trial": 28, "dateTime": 1664465749125, "trialdata": {"revealed_states": [], "num_clicks_accrued": [0, 0, 0, 0, 0, 0, 0, 0, 0, 0, 0, 0, 0], "stateRewards": ["", 2, 8, -48, -24, 4, 4, 24, 48, 4, -4, -48, 48], "withholdReward": true, "trial_id": "mdp_665096999232", "block": "test1", "trialIndex": 13, "score": 60, "costs": -1, "simulationMode": [null, null, null], "rewards": [4, 4, 48], "path": ["0", "0", "5", "6", "8"], "rt": [11628, 405, 201], "actions": ["right", "right", "down"], "actionTimes": [13203, 14101, 14797], "queries": {"click": {"state": {"target": ["5", "6", "8", "7"], "time": [4033, 4682, 5866, 8150]}, "edge": {"target": [], "time": []}}, "mouseover": {"state": {"target": ["5", "6", "8", "8", "1", "2", "7", "7", "9"], "time": [3861, 4577, 5143, 5743, 7525, 7759, 7827, 8046, 9527]}, "edge": {"target": [], "time": []}}, "mouseout": {"state": {"target": ["0", "5", "6", "8", "8", "1", "2", "7", "7", "5", "9"], "time": [3776, 4544, 5126, 5210, 7477, 7543, 7776, 7893, 9275, 9442, 11927]}, "edge": {"target": [], "time": []}}}, "displayed_time": "15.29", "trialTime": 16949, "trial_type": "mouselab-mdp", "trial_index": 28, "time_elapsed": 1555326, "internal_node_id": "0.0-4.0-1.0-7.0"}}, {"uniqueid": "w97614728:a35119653", "current_trial": 29, "dateTime": 1664465761693, "trialdata": {"revealed_states": [], "num_clicks_accrued": [0, 0, 0, 0, 0, 0, 0, 0, 0, 0, 0, 0, 0], "stateRewards": ["", 2, 4, 48, 24, -4, 8, 48, 48, 2, -4, -48, -24], "withholdReward": true, "trial_id": "mdp_822099887466", "block": "test1", "trialIndex": 14, "score": 54.25, "costs": -2.75, "simulationMode": [null, null, null], "rewards": [-4, 8, 48], "path": ["0", "0", "5", "6", "8"], "rt": [8012, 545, 334], "actions": ["right", "right", "down"], "actionTimes": [8703, 9748, 10587], "queries": {"click": {"state": {"target": ["1", "2", "4", "9", "10", "11", "12", "5", "6", "7", "8"], "time": [1190, 1724, 2241, 2874, 3424, 3890, 4591, 5758, 6307, 6858, 7574]}, "edge": {"target": [], "time": []}}, "mouseover": {"state": {"target": ["1", "2", "4", "9", "10", "11", "12", "5", "6", "7", "8"], "time": [1067, 1568, 2135, 2735, 3335, 3766, 4518, 5600, 6168, 6702, 7319]}, "edge": {"target": [], "time": []}}, "mouseout": {"state": {"target": ["0", "1", "2", "4", "9", "10", "11", "10", "12", "9", "5", "6", "7", "6", "8", "6", "7", "6"], "time": [501, 1551, 2101, 2601, 3283, 3734, 4167, 4249, 4919, 4984, 6136, 6667, 7234, 7300, 7984, 8021, 8167, 8218]}, "edge": {"target": [], "time": []}}}, "displayed_time": "11.09", "trialTime": 12474, "trial_type": "mouselab-mdp", "trial_index": 29, "time_elapsed": 1567894, "internal_node_id": "0.0-4.0-1.0-8.0"}}, {"uniqueid": "w97614728:a35119653", "current_trial": 30, "dateTime": 1664465773062, "trialdata": {"revealed_states": [], "num_clicks_accrued": [0, 0, 0, 0, 0, 0, 0, 0, 0, 0, 0, 0, 0], "stateRewards": ["", 2, -8, 24, -48, 2, 4, 48, -48, -2, -8, -48, 48], "withholdReward": true, "trial_id": "mdp_629420544881", "block": "test1", "trialIndex": 15, "score": 21.25, "costs": -1.75, "simulationMode": [null, null, null], "rewards": [2, -8, 24], "path": ["0", "0", "1", "2", "3"], "rt": [6194, 1204, 357], "actions": ["up", "up", "right"], "actionTimes": [7147, 8844, 9698], "queries": {"click": {"state": {"target": ["5", "6", "7", "8", "1", "2", "3"], "time": [1560, 2127, 2660, 3427, 4610, 5077, 5561]}, "edge": {"target": [], "time": []}}, "mouseover": {"state": {"target": ["5", "6", "7", "8", "1", "2", "3"], "time": [1405, 1986, 2554, 3170, 4471, 4954, 5421]}, "edge": {"target": [], "time": []}}, "mouseout": {"state": {"target": ["5", "5", "6", "7", "6", "8", "5", "1", "2", "3"], "time": [586, 1953, 2521, 3089, 3138, 3789, 3838, 4905, 5387, 5987]}, "edge": {"target": [], "time": []}}}, "displayed_time": "10.19", "trialTime": 11278, "trial_type": "mouselab-mdp", "trial_index": 30, "time_elapsed": 1579263, "internal_node_id": "0.0-4.0-1.0-9.0"}}, {"uniqueid": "w97614728:a35119653", "current_trial": 31, "dateTime": 1664465784922, "trialdata": {"revealed_states": [], "num_clicks_accrued": [0, 0, 0, 0, 0, 0, 0, 0, 0, 0, 0, 0, 0], "stateRewards": ["", -2, 4, -48, -48, 4, 4, 48, -48, 2, 8, 24, 48], "withholdReward": true, "trial_id": "mdp_686771069745", "block": "test1", "trialIndex": 16, "score": 60, "costs": -1, "simulationMode": [null, null, null], "rewards": [4, 4, 48], "path": ["0", "0", "5", "6", "7"], "rt": [5996, 682, 561], "actions": ["right", "right", "up"], "actionTimes": [7098, 8279, 9343], "queries": {"click": {"state": {"target": ["5", "6", "8", "7"], "time": [1669, 2236, 2834, 3636]}, "edge": {"target": [], "time": []}}, "mouseover": {"state": {"target": ["5", "6", "8", "7", "1"], "time": [1496, 2097, 2698, 3463, 4115]}, "edge": {"target": [], "time": []}}, "mouseout": {"state": {"target": ["5", "0", "5", "6", "8", "6", "7", "1", "5"], "time": [633, 1464, 2065, 2646, 3379, 3429, 4013, 4663, 4748]}, "edge": {"target": [], "time": []}}}, "displayed_time": "9.85", "trialTime": 11763, "trial_type": "mouselab-mdp", "trial_index": 31, "time_elapsed": 1591123, "internal_node_id": "0.0-4.0-1.0-10.0"}}, {"uniqueid": "w97614728:a35119653", "current_trial": 32, "dateTime": 1664465810328, "trialdata": {"revealed_states": [], "num_clicks_accrued": [0, 0, 0, 0, 0, 0, 0, 0, 0, 0, 0, 0, 0], "stateRewards": ["", -4, -4, 24, -48, 2, 4, -24, -48, -2, -8, -24, 24], "withholdReward": true, "trial_id": "mdp_565569130486", "block": "test1", "trialIndex": 17, "score": 20.25, "costs": -0.75, "simulationMode": [null, null, null], "rewards": [-4, -4, 24], "path": ["0", "0", "1", "2", "3"], "rt": [2992, 266, 224], "actions": ["up", "up", "right"], "actionTimes": [10157, 10928, 11653], "queries": {"click": {"state": {"target": ["1", "2", "3"], "time": [7650, 8200, 8717]}, "edge": {"target": [], "time": []}}, "mouseover": {"state": {"target": ["1", "2", "3"], "time": [7545, 8061, 8610]}, "edge": {"target": [], "time": []}}, "mouseout": {"state": {"target": ["0", "1", "2", "3", "5"], "time": [6960, 8010, 8562, 12532, 12628]}, "edge": {"target": [], "time": []}}}, "displayed_time": "16.17", "trialTime": 25299, "trial_type": "mouselab-mdp", "trial_index": 32, "time_elapsed": 1616528, "internal_node_id": "0.0-4.0-1.0-11.0"}}, {"uniqueid": "w97614728:a35119653", "current_trial": 33, "dateTime": 1664465827400, "trialdata": {"revealed_states": [], "num_clicks_accrued": [0, 0, 0, 0, 0, 0, 0, 0, 0, 0, 0, 0, 0], "stateRewards": ["", -2, -8, -24, 48, -2, -8, -48, -48, 2, -8, -48, 24], "withholdReward": true, "trial_id": "mdp_288324580942", "block": "test1", "trialIndex": 18, "score": 40, "costs": -3, "simulationMode": [null, null, null], "rewards": [-2, -8, 48], "path": ["0", "0", "1", "2", "4"], "rt": [11240, 2151, 303], "actions": ["up", "up", "left"], "actionTimes": [12053, 14706, 15508], "queries": {"click": {"state": {"target": ["9", "10", "11", "1", "2", "4", "3", "5", "6", "7", "8", "12"], "time": [1526, 2093, 2609, 3292, 3810, 4343, 5027, 5659, 6143, 6676, 7226, 7993]}, "edge": {"target": [], "time": []}}, "mouseover": {"state": {"target": ["9", "10", "11", "1", "2", "4", "3", "5", "6", "7", "8", "12"], "time": [1387, 1952, 2472, 3070, 3669, 4219, 4787, 5471, 6035, 6537, 7088, 7754]}, "edge": {"target": [], "time": []}}, "mouseout": {"state": {"target": ["0", "9", "10", "11", "1", "2", "4", "2", "3", "5", "6", "7", "6", "8"], "time": [619, 1920, 2436, 2953, 3635, 4170, 4703, 4754, 5370, 6003, 6488, 6970, 7036, 7637]}, "edge": {"target": [], "time": []}}}, "displayed_time": "16.02", "trialTime": 16963, "trial_type": "mouselab-mdp", "trial_index": 33, "time_elapsed": 1633601, "internal_node_id": "0.0-4.0-1.0-12.0"}}, {"uniqueid": "w97614728:a35119653", "current_trial": 34, "dateTime": 1664465840351, "trialdata": {"revealed_states": [], "num_clicks_accrued": [0, 0, 0, 0, 0, 0, 0, 0, 0, 0, 0, 0, 0], "stateRewards": ["", 4, 4, 48, -24, 2, -4, 48, 24, -4, -4, -48, 24], "withholdReward": true, "trial_id": "mdp_496003763005", "block": "test1", "trialIndex": 19, "score": 59.5, "costs": -1.5, "simulationMode": [null, null, null], "rewards": [4, 4, 48], "path": ["0", "0", "1", "2", "3"], "rt": [6951, 274, 401], "actions": ["up", "up", "right"], "actionTimes": [7780, 8556, 9451], "queries": {"click": {"state": {"target": ["1", "2", "3", "7", "6", "5"], "time": [1337, 2236, 2754, 5070, 6054, 6488]}, "edge": {"target": [], "time": []}}, "mouseover": {"state": {"target": ["1", "2", "2", "3", "7", "6", "5"], "time": [1213, 1996, 2098, 2612, 4948, 5866, 6414]}, "edge": {"target": [], "time": []}}, "mouseout": {"state": {"target": ["12", "9", "1", "2", "2", "3", "7", "6"], "time": [364, 548, 1665, 2030, 2579, 4597, 5797, 6346]}, "edge": {"target": [], "time": []}}}, "displayed_time": "10.83", "trialTime": 12856, "trial_type": "mouselab-mdp", "trial_index": 34, "time_elapsed": 1646552, "internal_node_id": "0.0-4.0-1.0-13.0"}}, {"uniqueid": "w97614728:a35119653", "current_trial": 35, "dateTime": 1664465855165, "trialdata": {"revealed_states": [], "num_clicks_accrued": [0, 0, 0, 0, 0, 0, 0, 0, 0, 0, 0, 0, 0], "stateRewards": ["", 4, -8, -48, -24, 2, -8, -48, 48, -4, 8, 48, -48], "withholdReward": false, "trial_id": "mdp_605757196263", "block": "test1", "trialIndex": 20, "score": 45.5, "costs": -1.5, "simulationMode": [null, null, null], "rewards": [2, -8, 48], "path": ["0", "0", "5", "6", "8"], "rt": [7652, 55, 145], "actions": ["right", "right", "down"], "actionTimes": [8646, 9204, 9845], "queries": {"click": {"state": {"target": ["1", "2", "4", "3", "5", "6"], "time": [2070, 2787, 3370, 4070, 4737, 5854]}, "edge": {"target": [], "time": []}}, "mouseover": {"state": {"target": ["1", "2", "4", "3", "5", "6", "6"], "time": [1738, 2631, 3248, 3882, 4531, 5146, 5714]}, "edge": {"target": [], "time": []}}, "mouseout": {"state": {"target": ["5", "5", "0", "1", "2", "4", "2", "3", "5", "6", "6"], "time": [630, 712, 1448, 2597, 3212, 3796, 3848, 4463, 5113, 5215, 7181]}, "edge": {"target": [], "time": []}}}, "displayed_time": "10.35", "trialTime": 14719, "trial_type": "mouselab-mdp", "trial_index": 35, "time_elapsed": 1661365, "internal_node_id": "0.0-4.0-1.0-14.0"}}, {"uniqueid": "w97614728:a35119653", "current_trial": 36, "dateTime": 1664465866884, "trialdata": {"revealed_states": [], "num_clicks_accrued": [0, 0, 0, 0, 0, 0, 0, 0, 0, 0, 0, 0, 0], "stateRewards": ["", 2, 4, 48, 48, -2, 4, 48, -24, -4, 8, -48, 48], "withholdReward": true, "trial_id": "mdp_407586865939", "block": "test1", "trialIndex": 21, "score": 58.5, "costs": -0.5, "simulationMode": [null, null, null], "rewards": [2, 4, 48], "path": ["0", "0", "1", "2", "3"], "rt": [2718, 1189, 661], "actions": ["up", "up", "right"], "actionTimes": [3924, 5618, 6773], "queries": {"click": {"state": {"target": ["1", "2"], "time": [1983, 2734]}, "edge": {"target": [], "time": []}}, "mouseover": {"state": {"target": ["1", "2"], "time": [1726, 2561]}, "edge": {"target": [], "time": []}}, "mouseout": {"state": {"target": ["6", "5", "1", "2", "1"], "time": [577, 943, 2545, 3260, 3313]}, "edge": {"target": [], "time": []}}}, "displayed_time": "10.21", "trialTime": 11618, "trial_type": "mouselab-mdp", "trial_index": 36, "time_elapsed": 1673085, "internal_node_id": "0.0-4.0-1.0-15.0"}}, {"uniqueid": "w97614728:a35119653", "current_trial": 37, "dateTime": 1664465880183, "trialdata": {"revealed_states": [], "num_clicks_accrued": [0, 0, 0, 0, 0, 0, 0, 0, 0, 0, 0, 0, 0], "stateRewards": ["", 2, 4, 48, -48, 2, -4, 48, 24, -2, -8, -24, 48], "withholdReward": true, "trial_id": "mdp_962424406744", "block": "test1", "trialIndex": 22, "score": -38.5, "costs": -1.5, "simulationMode": [null, null, null], "rewards": [2, 4, -48], "path": ["0", "0", "1", "2", "4"], "rt": [9591, 211, 70], "actions": ["up", "up", "left"], "actionTimes": [10550, 11260, 11834], "queries": {"click": {"state": {"target": ["5", "1", "9", "2", "6", "10"], "time": [3086, 3669, 4235, 6169, 6970, 7702]}, "edge": {"target": [], "time": []}}, "mouseover": {"state": {"target": ["5", "1", "9", "0", "2", "6", "0", "10", "0"], "time": [2362, 3564, 4129, 5815, 5912, 6814, 7362, 7497, 8045]}, "edge": {"target": [], "time": []}}, "mouseout": {"state": {"target": ["0", "0", "5", "1", "9", "0", "1", "2", "6", "5", "0", "9", "10", "9", "0"], "time": [495, 2329, 3511, 4047, 4663, 5832, 5896, 6464, 7313, 7346, 7379, 7430, 7981, 8030, 8064]}, "edge": {"target": [], "time": []}}}, "displayed_time": "12.33", "trialTime": 13201, "trial_type": "mouselab-mdp", "trial_index": 37, "time_elapsed": 1686384, "internal_node_id": "0.0-4.0-1.0-16.0"}}, {"uniqueid": "w97614728:a35119653", "current_trial": 38, "dateTime": 1664465893158, "trialdata": {"revealed_states": [], "num_clicks_accrued": [0, 0, 0, 0, 0, 0, 0, 0, 0, 0, 0, 0, 0], "stateRewards": ["", -4, -4, -24, 24, -4, 4, -24, 48, -2, 4, 48, -48], "withholdReward": false, "trial_id": "mdp_774757609669", "block": "test1", "trialIndex": 23, "score": 53.5, "costs": -1.5, "simulationMode": [null, null, null], "rewards": [-2, 4, 48], "path": ["0", "0", "9", "10", "11"], "rt": [7046, 402, 590], "actions": ["left", "left", "up"], "actionTimes": [7861, 8766, 9855], "queries": {"click": {"state": {"target": ["1", "2", "4", "11", "10", "9"], "time": [1385, 1935, 3185, 5120, 5685, 6168]}, "edge": {"target": [], "time": []}}, "mouseover": {"state": {"target": ["1", "2", "4", "9", "10", "11", "10", "9", "0"], "time": [1211, 1795, 2395, 3979, 4847, 5012, 5546, 6028, 6930]}, "edge": {"target": [], "time": []}}, "mouseout": {"state": {"target": ["0", "1", "2", "4", "9", "10", "11", "10", "9", "0"], "time": [1162, 1746, 2379, 3631, 4778, 4962, 5497, 5978, 6663, 6946]}, "edge": {"target": [], "time": []}}}, "displayed_time": "10.35", "trialTime": 12876, "trial_type": "mouselab-mdp", "trial_index": 38, "time_elapsed": 1699359, "internal_node_id": "0.0-4.0-1.0-17.0"}}, {"uniqueid": "w97614728:a35119653", "current_trial": 39, "dateTime": 1664465905510, "trialdata": {"revealed_states": [], "num_clicks_accrued": [0, 0, 0, 0, 0, 0, 0, 0, 0, 0, 0, 0, 0], "stateRewards": ["", -4, 4, -24, 48, -2, 8, -48, 24, 2, 4, 48, -48], "withholdReward": true, "trial_id": "mdp_366632183904", "block": "test1", "trialIndex": 24, "score": 57, "costs": -2, "simulationMode": [null, null, null], "rewards": [2, 4, 48], "path": ["0", "0", "9", "10", "11"], "rt": [8255, 99, 459], "actions": ["left", "left", "up"], "actionTimes": [9128, 9717, 10676], "queries": {"click": {"state": {"target": ["7", "3", "4", "11", "2", "1", "9", "10"], "time": [2889, 3822, 4589, 5156, 6356, 6907, 7807, 8240]}, "edge": {"target": [], "time": []}}, "mouseover": {"state": {"target": ["5", "6", "7", "3", "2", "4", "4", "11", "2", "10", "2", "1", "9", "10"], "time": [1582, 1718, 2701, 3667, 4234, 4283, 4436, 5017, 5584, 5884, 6068, 6700, 7716, 8132]}, "edge": {"target": [], "time": []}}, "mouseout": {"state": {"target": ["0", "5", "6", "7", "3", "2", "4", "4", "11", "2", "10", "2", "1", "9", "10", "9"], "time": [1534, 1632, 1799, 3399, 4218, 4267, 4382, 4965, 5516, 5749, 5966, 6667, 7650, 8099, 8566, 8618]}, "edge": {"target": [], "time": []}}}, "displayed_time": "11.17", "trialTime": 12248, "trial_type": "mouselab-mdp", "trial_index": 39, "time_elapsed": 1711711, "internal_node_id": "0.0-4.0-1.0-18.0"}}, {"uniqueid": "w97614728:a35119653", "current_trial": 40, "dateTime": 1664465917403, "trialdata": {"revealed_states": [], "num_clicks_accrued": [0, 0, 0, 0, 0, 0, 0, 0, 0, 0, 0, 0, 0], "stateRewards": ["", -4, -8, -24, 24, 2, 8, 24, 48, 2, 4, 24, -48], "withholdReward": false, "trial_id": "mdp_122352383932", "block": "test1", "trialIndex": 25, "score": 62, "costs": -1, "simulationMode": [null, null, null], "rewards": [2, 8, 48], "path": ["0", "0", "5", "6", "8"], "rt": [5487, 1690, 418], "actions": ["right", "right", "down"], "actionTimes": [6463, 8643, 9554], "queries": {"click": {"state": {"target": ["5", "6", "7", "8"], "time": [2074, 2858, 3624, 4324]}, "edge": {"target": [], "time": []}}, "mouseover": {"state": {"target": ["5", "6", "7", "8"], "time": [1733, 2601, 3434, 4169]}, "edge": {"target": [], "time": []}}, "mouseout": {"state": {"target": ["0", "5", "6", "7", "6", "8"], "time": [868, 2567, 3402, 4051, 4136, 4786]}, "edge": {"target": [], "time": []}}}, "displayed_time": "10.05", "trialTime": 11791, "trial_type": "mouselab-mdp", "trial_index": 40, "time_elapsed": 1723604, "internal_node_id": "0.0-4.0-1.0-19.0"}}, {"uniqueid": "w97614728:a35119653", "current_trial": 41, "dateTime": 1664465929391, "trialdata": {"revealed_states": [], "num_clicks_accrued": [0, 0, 0, 0, 0, 0, 0, 0, 0, 0, 0, 0, 0], "stateRewards": ["", -4, -4, -24, -48, -4, 8, -24, -48, 4, -8, 24, -24], "withholdReward": true, "trial_id": "mdp_924927483179", "block": "test1", "trialIndex": 26, "score": 23, "costs": -2, "simulationMode": [null, null, null], "rewards": [4, -8, 24], "path": ["0", "0", "9", "10", "11"], "rt": [7281, 695, 534], "actions": ["left", "left", "up"], "actionTimes": [8299, 9501, 10539], "queries": {"click": {"state": {"target": ["9", "10", "11", "12", "3", "4", "7", "8"], "time": [1743, 2509, 3109, 3992, 5059, 5626, 6309, 6843]}, "edge": {"target": [], "time": []}}, "mouseover": {"state": {"target": ["9", "10", "11", "12", "3", "2", "4", "2", "7", "6", "8", "6"], "time": [1603, 2218, 2971, 3703, 4969, 5452, 5570, 6019, 6121, 6671, 6737, 7253]}, "edge": {"target": [], "time": []}}, "mouseout": {"state": {"target": ["6", "5", "0", "9", "10", "11", "10", "12", "3", "2", "4", "2", "7", "6", "8", "6"], "time": [585, 752, 1537, 2186, 2921, 3622, 3671, 4421, 5420, 5505, 5986, 6036, 6652, 6705, 7219, 7620]}, "edge": {"target": [], "time": []}}}, "displayed_time": "11.04", "trialTime": 11881, "trial_type": "mouselab-mdp", "trial_index": 41, "time_elapsed": 1735592, "internal_node_id": "0.0-4.0-1.0-20.0"}}, {"uniqueid": "w97614728:a35119653", "current_trial": 42, "dateTime": 1664465941136, "trialdata": {"revealed_states": [], "num_clicks_accrued": [0, 0, 0, 0, 0, 0, 0, 0, 0, 0, 0, 0, 0], "stateRewards": ["", 2, 8, 24, 24, 2, -8, -24, -48, 2, 8, -48, 48], "withholdReward": false, "trial_id": "mdp_745175888812", "block": "test1", "trialIndex": 27, "score": 37.75, "costs": -1.25, "simulationMode": [null, null, null], "rewards": [2, 8, 24], "path": ["0", "0", "1", "2", "3"], "rt": [5229, 1598, 1399], "actions": ["up", "up", "right"], "actionTimes": [5952, 8044, 9945], "queries": {"click": {"state": {"target": ["7", "8", "3", "1", "2"], "time": [1285, 1885, 2968, 4234, 4785]}, "edge": {"target": [], "time": []}}, "mouseover": {"state": {"target": ["7", "6", "8", "6", "3", "2", "1", "2"], "time": [1161, 1680, 1744, 2161, 2880, 3394, 4114, 4630]}, "edge": {"target": [], "time": []}}, "mouseout": {"state": {"target": ["7", "6", "8", "6", "3", "2", "1"], "time": [1630, 1712, 2128, 2178, 3362, 3513, 4579]}, "edge": {"target": [], "time": []}}}, "displayed_time": "10.45", "trialTime": 11634, "trial_type": "mouselab-mdp", "trial_index": 42, "time_elapsed": 1747337, "internal_node_id": "0.0-4.0-1.0-21.0"}}, {"uniqueid": "w97614728:a35119653", "current_trial": 43, "dateTime": 1664465952200, "trialdata": {"revealed_states": [], "num_clicks_accrued": [0, 0, 0, 0, 0, 0, 0, 0, 0, 0, 0, 0, 0], "stateRewards": ["", 2, 4, 48, 24, -2, -8, 24, 24, -2, 4, -48, 24], "withholdReward": false, "trial_id": "mdp_130849500124", "block": "test1", "trialIndex": 28, "score": 58, "costs": -1, "simulationMode": [null, null, null], "rewards": [2, 4, 48], "path": ["0", "0", "1", "2", "3"], "rt": [6428, 525, 505], "actions": ["up", "up", "right"], "actionTimes": [7374, 8403, 9408], "queries": {"click": {"state": {"target": ["1", "2", "4", "3"], "time": [1666, 2332, 2916, 5583]}, "edge": {"target": [], "time": []}}, "mouseover": {"state": {"target": ["1", "2", "4", "5", "3", "3"], "time": [1493, 2161, 2793, 4075, 4811, 5493]}, "edge": {"target": [], "time": []}}, "mouseout": {"state": {"target": ["2", "1", "2", "4", "1", "5", "3"], "time": [492, 2127, 2761, 3926, 3994, 4725, 4860]}, "edge": {"target": [], "time": []}}}, "displayed_time": "9.91", "trialTime": 10962, "trial_type": "mouselab-mdp", "trial_index": 43, "time_elapsed": 1758401, "internal_node_id": "0.0-4.0-1.0-22.0"}}, {"uniqueid": "w97614728:a35119653", "current_trial": 44, "dateTime": 1664465965233, "trialdata": {"revealed_states": [], "num_clicks_accrued": [0, 0, 0, 0, 0, 0, 0, 0, 0, 0, 0, 0, 0], "stateRewards": ["", -2, -8, 48, 24, 2, 8, -48, 24, -4, 8, 48, 48], "withholdReward": true, "trial_id": "mdp_875436109858", "block": "test1", "trialIndex": 29, "score": 55, "costs": -2, "simulationMode": [null, null, null], "rewards": [-4, 8, 48], "path": ["0", "0", "9", "10", "11"], "rt": [6293, 415, 631], "actions": ["left", "left", "up"], "actionTimes": [8221, 9127, 10258], "queries": {"click": {"state": {"target": ["7", "3", "4", "2", "1", "11", "10", "9"], "time": [2883, 3499, 4082, 4549, 5016, 5650, 7049, 7499]}, "edge": {"target": [], "time": []}}, "mouseover": {"state": {"target": ["5", "6", "7", "3", "2", "4", "2", "1", "11", "10", "12", "10", "9"], "time": [2461, 2609, 2726, 3378, 3874, 3925, 4459, 4909, 5525, 6061, 6125, 6926, 7410]}, "edge": {"target": [], "time": []}}, "mouseout": {"state": {"target": ["3", "0", "0", "5", "6", "7", "3", "2", "4", "2", "1", "11", "10", "12", "10"], "time": [794, 1036, 2392, 2575, 2660, 3275, 3859, 3908, 4394, 4876, 5444, 6044, 6093, 6376, 7377]}, "edge": {"target": [], "time": []}}}, "displayed_time": "10.76", "trialTime": 12926, "trial_type": "mouselab-mdp", "trial_index": 44, "time_elapsed": 1771433, "internal_node_id": "0.0-4.0-1.0-23.0"}}, {"uniqueid": "w97614728:a35119653", "current_trial": 45, "dateTime": 1664465976084, "trialdata": {"revealed_states": [], "num_clicks_accrued": [0, 0, 0, 0, 0, 0, 0, 0, 0, 0, 0, 0, 0], "stateRewards": ["", 2, 4, -24, -48, 4, -4, 24, 48, -4, -4, -24, 48], "withholdReward": true, "trial_id": "mdp_181958792175", "block": "test1", "trialIndex": 30, "score": 52, "costs": -1, "simulationMode": [null, null, null], "rewards": [4, -4, 48], "path": ["0", "0", "5", "6", "8"], "rt": [3780, 1449, 1177], "actions": ["right", "right", "down"], "actionTimes": [4616, 6559, 8238], "queries": {"click": {"state": {"target": ["7", "6", "5", "8"], "time": [1499, 2181, 2664, 3114]}, "edge": {"target": [], "time": []}}, "mouseover": {"state": {"target": ["7", "6", "5", "8"], "time": [1458, 2023, 2558, 3008]}, "edge": {"target": [], "time": []}}, "mouseout": {"state": {"target": ["9", "0", "7", "6", "5"], "time": [508, 1174, 1991, 2510, 2959]}, "edge": {"target": [], "time": []}}}, "displayed_time": "9.84", "trialTime": 10743, "trial_type": "mouselab-mdp", "trial_index": 45, "time_elapsed": 1782285, "internal_node_id": "0.0-4.0-1.0-24.0"}}, {"uniqueid": "w97614728:a35119653", "current_trial": 46, "dateTime": 1664465986908, "trialdata": {"revealed_states": [], "num_clicks_accrued": [0, 0, 0, 0, 0, 0, 0, 0, 0, 0, 0, 0, 0], "stateRewards": ["", -2, 4, -24, -24, -2, 4, 48, 24, -4, -8, 24, -48], "withholdReward": true, "trial_id": "mdp_191839460481", "block": "test1", "trialIndex": 31, "score": 54, "costs": -1, "simulationMode": [null, null, null], "rewards": [-2, 4, 48], "path": ["0", "0", "5", "6", "7"], "rt": [4540, 1973, 863], "actions": ["right", "right", "up"], "actionTimes": [5441, 7907, 9266], "queries": {"click": {"state": {"target": ["5", "6", "7", "3"], "time": [1374, 1922, 2457, 3039]}, "edge": {"target": [], "time": []}}, "mouseover": {"state": {"target": ["5", "6", "7", "3"], "time": [1216, 1799, 2334, 2883]}, "edge": {"target": [], "time": []}}, "mouseout": {"state": {"target": ["8", "5", "5", "6", "7", "3"], "time": [417, 565, 1750, 2282, 2849, 3516]}, "edge": {"target": [], "time": []}}}, "displayed_time": "9.77", "trialTime": 10691, "trial_type": "mouselab-mdp", "trial_index": 46, "time_elapsed": 1793109, "internal_node_id": "0.0-4.0-1.0-25.0"}}, {"uniqueid": "w97614728:a35119653", "current_trial": 47, "dateTime": 1664465999887, "trialdata": {"revealed_states": [], "num_clicks_accrued": [0, 0, 0, 0, 0, 0, 0, 0, 0, 0, 0, 0, 0], "stateRewards": ["", 2, 4, 48, -24, 2, -8, -24, -24, 2, -8, -24, -48], "withholdReward": true, "trial_id": "mdp_274832552938", "block": "test1", "trialIndex": 32, "score": 57.5, "costs": -1.5, "simulationMode": [null, null, null], "rewards": [2, 4, 48], "path": ["0", "0", "1", "2", "3"], "rt": [6782, 1444, 1516], "actions": ["up", "up", "right"], "actionTimes": [7595, 9545, 11566], "queries": {"click": {"state": {"target": ["9", "10", "11", "12", "7", "3"], "time": [2988, 3471, 3988, 4571, 5472, 6405]}, "edge": {"target": [], "time": []}}, "mouseover": {"state": {"target": ["9", "10", "11", "12", "7", "7", "6", "5", "3", "1"], "time": [2915, 3364, 3884, 4447, 5016, 5366, 5915, 6065, 6315, 7017]}, "edge": {"target": [], "time": []}}, "mouseout": {"state": {"target": ["9", "9", "0", "9", "10", "11", "10", "12", "9", "7", "7", "6", "5", "3"], "time": [463, 581, 2581, 3348, 3832, 4365, 4414, 4900, 4932, 5182, 5882, 5966, 6081, 6850]}, "edge": {"target": [], "time": []}}}, "displayed_time": "12.07", "trialTime": 12867, "trial_type": "mouselab-mdp", "trial_index": 47, "time_elapsed": 1806087, "internal_node_id": "0.0-4.0-1.0-26.0"}}, {"uniqueid": "w97614728:a35119653", "current_trial": 48, "dateTime": 1664466008981, "trialdata": {"revealed_states": [], "num_clicks_accrued": [0, 0, 0, 0, 0, 0, 0, 0, 0, 0, 0, 0, 0], "stateRewards": ["", -2, 4, 24, 48, 2, 4, -48, -48, -2, 8, 48, -24], "withholdReward": false, "trial_id": "mdp_305701202606", "block": "test1", "trialIndex": 33, "score": 30.5, "costs": -0.5, "simulationMode": [null, null, null], "rewards": [-2, 4, 24], "path": ["0", "0", "1", "2", "3"], "rt": [2138, 1645, 1472], "actions": ["up", "up", "right"], "actionTimes": [2892, 5036, 7012], "queries": {"click": {"state": {"target": ["1", "2"], "time": [1228, 1929]}, "edge": {"target": [], "time": []}}, "mouseover": {"state": {"target": ["1", "2"], "time": [1122, 1890]}, "edge": {"target": [], "time": []}}, "mouseout": {"state": {"target": ["1", "1"], "time": [504, 1641]}, "edge": {"target": [], "time": []}}}, "displayed_time": "7.75", "trialTime": 8984, "trial_type": "mouselab-mdp", "trial_index": 48, "time_elapsed": 1815181, "internal_node_id": "0.0-4.0-1.0-27.0"}}, {"uniqueid": "w97614728:a35119653", "current_trial": 49, "dateTime": 1664466019938, "trialdata": {"revealed_states": [], "num_clicks_accrued": [0, 0, 0, 0, 0, 0, 0, 0, 0, 0, 0, 0, 0], "stateRewards": ["", 4, -4, 48, -48, 4, -4, 24, -24, 4, 8, -24, -48], "withholdReward": false, "trial_id": "mdp_433630527224", "block": "test1", "trialIndex": 34, "score": -19.25, "costs": -0.25, "simulationMode": [null, null, null], "rewards": [4, -4, -24], "path": ["0", "0", "5", "6", "8"], "rt": [2902, 918, 2373], "actions": ["right", "right", "down"], "actionTimes": [4179, 5600, 8470], "queries": {"click": {"state": {"target": ["5"], "time": [2336]}, "edge": {"target": [], "time": []}}, "mouseover": {"state": {"target": ["5", "6"], "time": [1962, 2746]}, "edge": {"target": [], "time": []}}, "mouseout": {"state": {"target": ["2", "1", "5", "6"], "time": [843, 1045, 2689, 3081]}, "edge": {"target": [], "time": []}}}, "displayed_time": "9.28", "trialTime": 10849, "trial_type": "mouselab-mdp", "trial_index": 49, "time_elapsed": 1826139, "internal_node_id": "0.0-4.0-1.0-28.0"}}, {"uniqueid": "w97614728:a35119653", "current_trial": 50, "dateTime": 1664466031859, "trialdata": {"revealed_states": [], "num_clicks_accrued": [0, 0, 0, 0, 0, 0, 0, 0, 0, 0, 0, 0, 0], "stateRewards": ["", -2, 8, -24, 24, 2, -8, 48, -24, 2, 8, -24, -24], "withholdReward": true, "trial_id": "mdp_674708270444", "block": "test1", "trialIndex": 35, "score": -9.75, "costs": -0.75, "simulationMode": [null, null, null], "rewards": [2, 8, -24], "path": ["0", "0", "9", "10", "11"], "rt": [3606, 1885, 1628], "actions": ["left", "left", "up"], "actionTimes": [5337, 7727, 9854], "queries": {"click": {"state": {"target": ["1", "9", "5"], "time": [3381, 4030, 4613]}, "edge": {"target": [], "time": []}}, "mouseover": {"state": {"target": ["1", "1", "9", "0", "5"], "time": [2058, 2967, 3856, 4323, 4376]}, "edge": {"target": [], "time": []}}, "mouseout": {"state": {"target": ["6", "5", "0", "1", "1", "9", "0"], "time": [1289, 1407, 1589, 2090, 3807, 4306, 4356]}, "edge": {"target": [], "time": []}}}, "displayed_time": "10.73", "trialTime": 11813, "trial_type": "mouselab-mdp", "trial_index": 50, "time_elapsed": 1838060, "internal_node_id": "0.0-4.0-1.0-29.0"}}, {"uniqueid": "w97614728:a35119653", "current_trial": 51, "dateTime": 1664466097134, "trialdata": {"rt": 65268, "stimulus": "<h1> End of block! </h1>\n\nYou have reached the end of the block 1/4. If you need a short break, feel free to take one now before moving on.\n\n<br><br>\nIn the next block, you will complete another 30 rounds of this game.\n\n<br><br>\n<div style='text-align: center;'>Press <code>space</code> to begin.</div>\n<br><br>\n<div style='text-align: center;'>(If the experiment doesn't continue, try clicking on the text and then pressing <code>space</code>.)</div>", "response": " ", "trial_id": "mdp_ready_2", "trial_type": "html-keyboard-response", "trial_index": 51, "time_elapsed": 1903334, "internal_node_id": "0.0-4.0-2.0"}}, {"uniqueid": "w97614728:a35119653", "current_trial": 52, "dateTime": 1664466107128, "trialdata": {"revealed_states": [], "num_clicks_accrued": [0, 0, 0, 0, 0, 0, 0, 0, 0, 0, 0, 0, 0], "stateRewards": ["", 4, -8, 48, -24, 4, -4, -48, -48, 4, -4, 24, 24], "withholdReward": false, "trial_id": "mdp_221562928904", "block": "test2", "trialIndex": 36, "score": -23.25, "costs": -0.25, "simulationMode": [null, null, null], "rewards": [4, -8, -24], "path": ["0", "0", "1", "2", "4"], "rt": [2223, 436, 602], "actions": ["up", "up", "left"], "actionTimes": [4112, 5046, 6145], "queries": {"click": {"state": {"target": ["1"], "time": [2498]}, "edge": {"target": [], "time": []}}, "mouseover": {"state": {"target": ["1"], "time": [2346]}, "edge": {"target": [], "time": []}}, "mouseout": {"state": {"target": ["7", "5", "0", "0"], "time": [542, 709, 1261, 2229]}, "edge": {"target": [], "time": []}}}, "displayed_time": "8.89", "trialTime": 9860, "trial_type": "mouselab-mdp", "trial_index": 52, "time_elapsed": 1913329, "internal_node_id": "0.0-4.0-3.0-0.0"}}, {"uniqueid": "w97614728:a35119653", "current_trial": 53, "dateTime": 1664466118557, "trialdata": {"revealed_states": [], "num_clicks_accrued": [0, 0, 0, 0, 0, 0, 0, 0, 0, 0, 0, 0, 0], "stateRewards": ["", -2, -8, 48, 24, 2, 4, 24, -24, -2, -4, 48, -48], "withholdReward": false, "trial_id": "mdp_411152402386", "block": "test2", "trialIndex": 37, "score": -13.75, "costs": -0.75, "simulationMode": [null, null, null], "rewards": [2, 4, -24], "path": ["0", "0", "5", "6", "8"], "rt": [3712, 1505, 1030], "actions": ["right", "right", "down"], "actionTimes": [4986, 6988, 8513], "queries": {"click": {"state": {"target": ["5", "1", "9"], "time": [2096, 2912, 3336]}, "edge": {"target": [], "time": []}}, "mouseover": {"state": {"target": ["5", "1", "9"], "time": [1938, 2714, 3230]}, "edge": {"target": [], "time": []}}, "mouseout": {"state": {"target": ["1", "5", "1", "9", "1"], "time": [914, 2309, 3122, 3653, 3830]}, "edge": {"target": [], "time": []}}}, "displayed_time": "10.28", "trialTime": 11295, "trial_type": "mouselab-mdp", "trial_index": 53, "time_elapsed": 1924758, "internal_node_id": "0.0-4.0-3.0-1.0"}}, {"uniqueid": "w97614728:a35119653", "current_trial": 54, "dateTime": 1664466129176, "trialdata": {"revealed_states": [], "num_clicks_accrued": [0, 0, 0, 0, 0, 0, 0, 0, 0, 0, 0, 0, 0], "stateRewards": ["", 2, 4, 24, 48, -2, 8, 24, -24, -4, -4, 48, 48], "withholdReward": true, "trial_id": "mdp_753439303214", "block": "test2", "trialIndex": 38, "score": 34.5, "costs": -0.5, "simulationMode": [null, null, null], "rewards": [2, 4, 24], "path": ["0", "0", "1", "2", "3"], "rt": [2219, 2706, 1629], "actions": ["up", "up", "right"], "actionTimes": [3497, 6707, 8831], "queries": {"click": {"state": {"target": ["1", "2"], "time": [1715, 2406]}, "edge": {"target": [], "time": []}}, "mouseover": {"state": {"target": ["1", "2", "2"], "time": [1640, 1978, 2318]}, "edge": {"target": [], "time": []}}, "mouseout": {"state": {"target": ["1", "1", "2", "2"], "time": [360, 1939, 2018, 2757]}, "edge": {"target": [], "time": []}}}, "displayed_time": "9.34", "trialTime": 10468, "trial_type": "mouselab-mdp", "trial_index": 54, "time_elapsed": 1935377, "internal_node_id": "0.0-4.0-3.0-2.0"}}, {"uniqueid": "w97614728:a35119653", "current_trial": 55, "dateTime": 1664466141249, "trialdata": {"revealed_states": [], "num_clicks_accrued": [0, 0, 0, 0, 0, 0, 0, 0, 0, 0, 0, 0, 0], "stateRewards": ["", -4, 4, -24, 48, 2, 4, -48, 24, 4, -8, -24, 24], "withholdReward": true, "trial_id": "mdp_740130150937", "block": "test2", "trialIndex": 39, "score": -37, "costs": 0, "simulationMode": [null, null, null], "rewards": [2, 4, -48], "path": ["0", "0", "5", "6", "7"], "rt": [1881, 2715, 3203], "actions": ["right", "right", "up"], "actionTimes": [3443, 6661, 10366], "queries": {"click": {"state": {"target": [], "time": []}, "edge": {"target": [], "time": []}}, "mouseover": {"state": {"target": [], "time": []}, "edge": {"target": [], "time": []}}, "mouseout": {"state": {"target": ["2", "0"], "time": [1154, 1396]}, "edge": {"target": [], "time": []}}}, "displayed_time": "10.86", "trialTime": 11950, "trial_type": "mouselab-mdp", "trial_index": 55, "time_elapsed": 1947450, "internal_node_id": "0.0-4.0-3.0-3.0"}}, {"uniqueid": "w97614728:a35119653", "current_trial": 56, "dateTime": 1664466151811, "trialdata": {"revealed_states": [], "num_clicks_accrued": [0, 0, 0, 0, 0, 0, 0, 0, 0, 0, 0, 0, 0], "stateRewards": ["", -2, -4, -24, -48, -2, 8, -48, 24, 4, -4, -24, -24], "withholdReward": false, "trial_id": "mdp_915304165774", "block": "test2", "trialIndex": 40, "score": -19.75, "costs": -0.75, "simulationMode": [null, null, null], "rewards": [4, -4, -24], "path": ["0", "0", "9", "10", "11"], "rt": [3810, 1387, 1120], "actions": ["left", "left", "up"], "actionTimes": [4448, 6332, 7949], "queries": {"click": {"state": {"target": ["1", "9", "5"], "time": [1448, 2686, 3109]}, "edge": {"target": [], "time": []}}, "mouseover": {"state": {"target": ["1", "5", "9", "0", "5"], "time": [1360, 2363, 2514, 2919, 2977]}, "edge": {"target": [], "time": []}}, "mouseout": {"state": {"target": ["0", "1", "5", "9", "0"], "time": [383, 1994, 2425, 2898, 2950]}, "edge": {"target": [], "time": []}}}, "displayed_time": "9.64", "trialTime": 10445, "trial_type": "mouselab-mdp", "trial_index": 56, "time_elapsed": 1958012, "internal_node_id": "0.0-4.0-3.0-4.0"}}, {"uniqueid": "w97614728:a35119653", "current_trial": 57, "dateTime": 1664466164063, "trialdata": {"revealed_states": [], "num_clicks_accrued": [0, 0, 0, 0, 0, 0, 0, 0, 0, 0, 0, 0, 0], "stateRewards": ["", 2, -4, 24, 48, -2, 4, -48, -48, -4, 4, 24, -24], "withholdReward": true, "trial_id": "mdp_900363662757", "block": "test2", "trialIndex": 41, "score": -41.75, "costs": -0.75, "simulationMode": [null, null, null], "rewards": [-2, 4, -48], "path": ["0", "0", "5", "6", "8"], "rt": [3287, 2516, 2639], "actions": ["right", "right", "down"], "actionTimes": [4370, 7382, 10524], "queries": {"click": {"state": {"target": ["1", "9", "5"], "time": [1996, 2995, 3671]}, "edge": {"target": [], "time": []}}, "mouseover": {"state": {"target": ["1", "9", "5"], "time": [1832, 2835, 3571]}, "edge": {"target": [], "time": []}}, "mouseout": {"state": {"target": ["5", "0", "0", "1", "9"], "time": [766, 855, 1297, 2454, 3154]}, "edge": {"target": [], "time": []}}}, "displayed_time": "11.02", "trialTime": 12118, "trial_type": "mouselab-mdp", "trial_index": 57, "time_elapsed": 1970264, "internal_node_id": "0.0-4.0-3.0-5.0"}}, {"uniqueid": "w97614728:a35119653", "current_trial": 58, "dateTime": 1664466175316, "trialdata": {"revealed_states": [], "num_clicks_accrued": [0, 0, 0, 0, 0, 0, 0, 0, 0, 0, 0, 0, 0], "stateRewards": ["", -4, 8, -24, 48, 2, -8, 24, 48, 2, -8, -24, -48], "withholdReward": true, "trial_id": "mdp_493778446445", "block": "test2", "trialIndex": 42, "score": -15.5, "costs": -0.5, "simulationMode": [null, null, null], "rewards": [-4, 8, -24], "path": ["0", "0", "1", "2", "3"], "rt": [2325, 516, 3513], "actions": ["up", "up", "right"], "actionTimes": [3519, 4535, 8548], "queries": {"click": {"state": {"target": ["1", "2"], "time": [1956, 2681]}, "edge": {"target": [], "time": []}}, "mouseover": {"state": {"target": ["1", "2", "2", "3"], "time": [1819, 2450, 2621, 2968]}, "edge": {"target": [], "time": []}}, "mouseout": {"state": {"target": ["5", "6", "5", "0", "1", "2", "2"], "time": [596, 746, 990, 1453, 2141, 2511, 2916]}, "edge": {"target": [], "time": []}}}, "displayed_time": "9.05", "trialTime": 11139, "trial_type": "mouselab-mdp", "trial_index": 58, "time_elapsed": 1981517, "internal_node_id": "0.0-4.0-3.0-6.0"}}, {"uniqueid": "w97614728:a35119653", "current_trial": 59, "dateTime": 1664466186538, "trialdata": {"revealed_states": [], "num_clicks_accrued": [0, 0, 0, 0, 0, 0, 0, 0, 0, 0, 0, 0, 0], "stateRewards": ["", 2, 4, -48, 48, -4, 8, -48, -24, -4, -4, 48, 48], "withholdReward": false, "trial_id": "mdp_613582696541", "block": "test2", "trialIndex": 43, "score": -38, "costs": -1, "simulationMode": [null, null, null], "rewards": [2, 4, -48], "path": ["0", "0", "1", "2", "3"], "rt": [3265, 2038, 1684], "actions": ["up", "up", "right"], "actionTimes": [4258, 6791, 8970], "queries": {"click": {"state": {"target": ["1", "5", "10", "9"], "time": [1588, 2055, 2591, 3263]}, "edge": {"target": [], "time": []}}, "mouseover": {"state": {"target": ["1", "5", "9", "10", "9"], "time": [1458, 1986, 2355, 2382, 3152]}, "edge": {"target": [], "time": []}}, "mouseout": {"state": {"target": ["3", "0", "1", "5", "9", "10"], "time": [574, 1257, 1777, 2310, 2375, 2734]}, "edge": {"target": [], "time": []}}}, "displayed_time": "9.99", "trialTime": 11126, "trial_type": "mouselab-mdp", "trial_index": 59, "time_elapsed": 1992739, "internal_node_id": "0.0-4.0-3.0-7.0"}}, {"uniqueid": "w97614728:a35119653", "current_trial": 60, "dateTime": 1664466198447, "trialdata": {"revealed_states": [], "num_clicks_accrued": [0, 0, 0, 0, 0, 0, 0, 0, 0, 0, 0, 0, 0], "stateRewards": ["", -4, -4, -48, 48, -4, -8, -24, -48, -2, 8, 48, 24], "withholdReward": true, "trial_id": "mdp_365393526663", "block": "test2", "trialIndex": 44, "score": 33.75, "costs": -1.25, "simulationMode": [null, null, null], "rewards": [-2, 8, 24], "path": ["0", "0", "9", "10", "12"], "rt": [3965, 1250, 1011], "actions": ["left", "left", "down"], "actionTimes": [5433, 7182, 8687], "queries": {"click": {"state": {"target": ["5", "6", "1", "9", "10"], "time": [1979, 2518, 3149, 3485, 4321]}, "edge": {"target": [], "time": []}}, "mouseover": {"state": {"target": ["5", "6", "6", "1", "9", "10"], "time": [1609, 2234, 2460, 3009, 3458, 4231]}, "edge": {"target": [], "time": []}}, "mouseout": {"state": {"target": ["9", "0", "5", "6", "6", "1", "9"], "time": [842, 1589, 2201, 2276, 2809, 3333, 3843]}, "edge": {"target": [], "time": []}}}, "displayed_time": "10.47", "trialTime": 11791, "trial_type": "mouselab-mdp", "trial_index": 60, "time_elapsed": 2004648, "internal_node_id": "0.0-4.0-3.0-8.0"}}, {"uniqueid": "w97614728:a35119653", "current_trial": 61, "dateTime": 1664466208096, "trialdata": {"revealed_states": [], "num_clicks_accrued": [0, 0, 0, 0, 0, 0, 0, 0, 0, 0, 0, 0, 0], "stateRewards": ["", 2, -4, 48, -24, 4, -8, -24, 48, -2, -4, 24, -48], "withholdReward": true, "trial_id": "mdp_357328205509", "block": "test2", "trialIndex": 45, "score": 48.5, "costs": -0.5, "simulationMode": [null, null, null], "rewards": [4, -8, 48], "path": ["0", "0", "5", "6", "8"], "rt": [2421, 2483, 1223], "actions": ["right", "right", "down"], "actionTimes": [3177, 6159, 7885], "queries": {"click": {"state": {"target": ["7", "8"], "time": [1605, 2295]}, "edge": {"target": [], "time": []}}, "mouseover": {"state": {"target": ["7", "6", "8", "5"], "time": [1495, 2060, 2139, 2511]}, "edge": {"target": [], "time": []}}, "mouseout": {"state": {"target": ["10", "0", "7", "6", "8", "5"], "time": [290, 436, 2000, 2116, 2468, 2529]}, "edge": {"target": [], "time": []}}}, "displayed_time": "8.38", "trialTime": 9525, "trial_type": "mouselab-mdp", "trial_index": 61, "time_elapsed": 2014297, "internal_node_id": "0.0-4.0-3.0-9.0"}}, {"uniqueid": "w97614728:a35119653", "current_trial": 62, "dateTime": 1664466218769, "trialdata": {"revealed_states": [], "num_clicks_accrued": [0, 0, 0, 0, 0, 0, 0, 0, 0, 0, 0, 0, 0], "stateRewards": ["", -2, -8, 48, 24, -2, 8, -48, -24, -2, 4, -48, 48], "withholdReward": true, "trial_id": "mdp_295220852217", "block": "test2", "trialIndex": 46, "score": 42.75, "costs": -0.25, "simulationMode": [null, null, null], "rewards": [-2, -8, 48], "path": ["0", "0", "1", "2", "3"], "rt": [1741, 2568, 1157], "actions": ["up", "up", "right"], "actionTimes": [2487, 5546, 7201], "queries": {"click": {"state": {"target": ["3"], "time": [1138]}, "edge": {"target": [], "time": []}}, "mouseover": {"state": {"target": ["3"], "time": [1025]}, "edge": {"target": [], "time": []}}, "mouseout": {"state": {"target": ["1"], "time": [498]}, "edge": {"target": [], "time": []}}}, "displayed_time": "9.75", "trialTime": 10531, "trial_type": "mouselab-mdp", "trial_index": 62, "time_elapsed": 2024970, "internal_node_id": "0.0-4.0-3.0-10.0"}}, {"uniqueid": "w97614728:a35119653", "current_trial": 63, "dateTime": 1664466231081, "trialdata": {"revealed_states": [], "num_clicks_accrued": [0, 0, 0, 0, 0, 0, 0, 0, 0, 0, 0, 0, 0], "stateRewards": ["", 2, 4, -24, -48, 4, -4, 24, 48, -4, -4, -24, 48], "withholdReward": true, "trial_id": "mdp_181958792175", "block": "test2", "trialIndex": 47, "score": -37.75, "costs": -0.75, "simulationMode": [null, null, null], "rewards": [2, 4, -48], "path": ["0", "0", "1", "2", "4"], "rt": [2977, 4342, 1047], "actions": ["up", "up", "left"], "actionTimes": [3914, 8759, 10297], "queries": {"click": {"state": {"target": ["2", "6", "10"], "time": [1573, 2186, 3053]}, "edge": {"target": [], "time": []}}, "mouseover": {"state": {"target": ["1", "2", "6", "0", "10", "10"], "time": [1170, 1455, 2065, 2469, 2527, 2867]}, "edge": {"target": [], "time": []}}, "mouseout": {"state": {"target": ["3", "0", "0", "1", "2", "6", "0", "10"], "time": [430, 634, 1066, 1331, 1806, 2400, 2517, 2598]}, "edge": {"target": [], "time": []}}}, "displayed_time": "10.80", "trialTime": 12182, "trial_type": "mouselab-mdp", "trial_index": 63, "time_elapsed": 2037282, "internal_node_id": "0.0-4.0-3.0-11.0"}}, {"uniqueid": "w97614728:a35119653", "current_trial": 64, "dateTime": 1664466243404, "trialdata": {"revealed_states": [], "num_clicks_accrued": [0, 0, 0, 0, 0, 0, 0, 0, 0, 0, 0, 0, 0], "stateRewards": ["", 4, 4, -24, -48, -4, 4, -48, 24, 4, -8, -48, 48], "withholdReward": true, "trial_id": "mdp_566768794366", "block": "test2", "trialIndex": 48, "score": -11.5, "costs": -0.5, "simulationMode": [null, null, null], "rewards": [4, 4, -24], "path": ["0", "0", "1", "2", "3"], "rt": [1901, 3176, 799], "actions": ["up", "up", "right"], "actionTimes": [2873, 6553, 7842], "queries": {"click": {"state": {"target": ["1", "2"], "time": [1466, 1857]}, "edge": {"target": [], "time": []}}, "mouseover": {"state": {"target": ["1", "2"], "time": [1361, 1751]}, "edge": {"target": [], "time": []}}, "mouseout": {"state": {"target": ["10", "9", "0", "1", "2", "1"], "time": [444, 606, 1094, 1703, 2082, 2158]}, "edge": {"target": [], "time": []}}}, "displayed_time": "10.98", "trialTime": 12230, "trial_type": "mouselab-mdp", "trial_index": 64, "time_elapsed": 2049605, "internal_node_id": "0.0-4.0-3.0-12.0"}}, {"uniqueid": "w97614728:a35119653", "current_trial": 65, "dateTime": 1664466258183, "trialdata": {"revealed_states": [], "num_clicks_accrued": [0, 0, 0, 0, 0, 0, 0, 0, 0, 0, 0, 0, 0], "stateRewards": ["", 2, -4, -24, -24, -2, -8, -48, 24, -4, -8, 24, 24], "withholdReward": true, "trial_id": "mdp_521351546461", "block": "test2", "trialIndex": 49, "score": -22, "costs": -1, "simulationMode": [null, null, null], "rewards": [2, -4, -24], "path": ["0", "0", "1", "2", "3"], "rt": [10184, 654, 468], "actions": ["up", "up", "right"], "actionTimes": [10925, 12083, 13046], "queries": {"click": {"state": {"target": ["1", "6", "10", "4"], "time": [4834, 7959, 8673, 9832]}, "edge": {"target": [], "time": []}}, "mouseover": {"state": {"target": ["1", "2", "7", "6", "5", "9", "10", "2", "4"], "time": [1194, 5997, 7337, 7894, 8251, 8355, 8527, 9340, 9684]}, "edge": {"target": [], "time": []}}, "mouseout": {"state": {"target": ["0", "1", "2", "7", "6", "5", "9", "10", "2"], "time": [1056, 5863, 7280, 7398, 8202, 8307, 8413, 8769, 9630]}, "edge": {"target": [], "time": []}}}, "displayed_time": "13.54", "trialTime": 14626, "trial_type": "mouselab-mdp", "trial_index": 65, "time_elapsed": 2064384, "internal_node_id": "0.0-4.0-3.0-13.0"}}, {"uniqueid": "w97614728:a35119653", "current_trial": 66, "dateTime": 1664466269988, "trialdata": {"revealed_states": [], "num_clicks_accrued": [0, 0, 0, 0, 0, 0, 0, 0, 0, 0, 0, 0, 0], "stateRewards": ["", 2, 8, -24, -48, 2, 4, -24, 48, 2, -8, 48, -24], "withholdReward": true, "trial_id": "mdp_791659307216", "block": "test2", "trialIndex": 50, "score": 56.5, "costs": -2.5, "simulationMode": [null, null, null], "rewards": [2, 4, 48], "path": ["0", "0", "5", "6", "8"], "rt": [7535, 402, 203], "actions": ["right", "right", "down"], "actionTimes": [8331, 9232, 9935], "queries": {"click": {"state": {"target": ["7", "8", "12", "11", "4", "3", "9", "10", "6", "5"], "time": [1283, 2608, 3280, 3985, 4420, 4849, 5597, 5873, 7244, 7554]}, "edge": {"target": [], "time": []}}, "mouseover": {"state": {"target": ["5", "7", "6", "8", "12", "12", "10", "11", "4", "2", "3", "1", "9", "10", "5", "6", "5"], "time": [934, 1246, 1545, 2518, 2878, 3218, 3481, 3763, 4297, 4599, 4778, 5214, 5562, 5805, 6857, 7118, 7513]}, "edge": {"target": [], "time": []}}, "mouseout": {"state": {"target": ["4", "1", "5", "7", "6", "8", "12", "12", "10", "11", "4", "2", "3", "1", "9", "10", "9", "5", "6"], "time": [297, 537, 984, 1489, 1645, 2803, 2929, 3455, 3535, 4219, 4587, 4777, 5166, 5236, 5746, 6049, 6823, 6882, 7469]}, "edge": {"target": [], "time": []}}}, "displayed_time": "10.43", "trialTime": 11683, "trial_type": "mouselab-mdp", "trial_index": 66, "time_elapsed": 2076189, "internal_node_id": "0.0-4.0-3.0-14.0"}}, {"uniqueid": "w97614728:a35119653", "current_trial": 67, "dateTime": 1664466282044, "trialdata": {"revealed_states": [], "num_clicks_accrued": [0, 0, 0, 0, 0, 0, 0, 0, 0, 0, 0, 0, 0], "stateRewards": ["", -2, 4, -24, 48, 4, -8, 48, -48, 2, -8, 48, 24], "withholdReward": false, "trial_id": "mdp_501111216502", "block": "test2", "trialIndex": 51, "score": 22.5, "costs": -0.5, "simulationMode": [null, null, null], "rewards": [2, -8, 24], "path": ["0", "0", "9", "10", "12"], "rt": [4998, 348, 451], "actions": ["left", "left", "down"], "actionTimes": [5715, 6559, 7512], "queries": {"click": {"state": {"target": ["1", "2"], "time": [1142, 1586]}, "edge": {"target": [], "time": []}}, "mouseover": {"state": {"target": ["1", "2"], "time": [1077, 1465]}, "edge": {"target": [], "time": []}}, "mouseout": {"state": {"target": ["5", "1", "2"], "time": [483, 1435, 1844]}, "edge": {"target": [], "time": []}}}, "displayed_time": "10.72", "trialTime": 11936, "trial_type": "mouselab-mdp", "trial_index": 67, "time_elapsed": 2088245, "internal_node_id": "0.0-4.0-3.0-15.0"}}, {"uniqueid": "w97614728:a35119653", "current_trial": 68, "dateTime": 1664466293673, "trialdata": {"revealed_states": [], "num_clicks_accrued": [0, 0, 0, 0, 0, 0, 0, 0, 0, 0, 0, 0, 0], "stateRewards": ["", -4, -8, -48, 48, -2, 8, 48, 48, -2, -4, -48, -48], "withholdReward": true, "trial_id": "mdp_752833580638", "block": "test2", "trialIndex": 52, "score": 58.25, "costs": -0.75, "simulationMode": [null, null, null], "rewards": [-2, 8, 48], "path": ["0", "0", "5", "6", "8"], "rt": [2972, 1613, 1972], "actions": ["right", "right", "down"], "actionTimes": [4581, 6692, 9169], "queries": {"click": {"state": {"target": ["1", "9", "5"], "time": [2068, 2609, 3401]}, "edge": {"target": [], "time": []}}, "mouseover": {"state": {"target": ["1", "9", "5", "5"], "time": [1899, 2532, 2909, 3346]}, "edge": {"target": [], "time": []}}, "mouseout": {"state": {"target": ["1", "1", "9", "5"], "time": [1392, 2279, 2818, 2954]}, "edge": {"target": [], "time": []}}}, "displayed_time": "10.62", "trialTime": 11533, "trial_type": "mouselab-mdp", "trial_index": 68, "time_elapsed": 2099874, "internal_node_id": "0.0-4.0-3.0-16.0"}}, {"uniqueid": "w97614728:a35119653", "current_trial": 69, "dateTime": 1664466306208, "trialdata": {"revealed_states": [], "num_clicks_accrued": [0, 0, 0, 0, 0, 0, 0, 0, 0, 0, 0, 0, 0], "stateRewards": ["", 4, 8, -48, -48, 2, 4, -24, -48, 2, 8, 48, -48], "withholdReward": true, "trial_id": "mdp_902172716465", "block": "test2", "trialIndex": 53, "score": 62.25, "costs": -0.75, "simulationMode": [null, null, null], "rewards": [2, 8, 48], "path": ["0", "0", "9", "10", "11"], "rt": [5333, 2450, 493], "actions": ["left", "left", "up"], "actionTimes": [7024, 9976, 10967], "queries": {"click": {"state": {"target": ["1", "6", "10"], "time": [2752, 5148, 5923]}, "edge": {"target": [], "time": []}}, "mouseover": {"state": {"target": ["1", "2", "7", "6", "5", "0", "10", "10"], "time": [2522, 3104, 4414, 4956, 5355, 5391, 5422, 5743]}, "edge": {"target": [], "time": []}}, "mouseout": {"state": {"target": ["5", "11", "11", "1", "2", "1", "7", "6", "5", "0", "10"], "time": [798, 883, 1045, 2988, 4282, 4334, 4607, 5327, 5382, 5419, 5445]}, "edge": {"target": [], "time": []}}}, "displayed_time": "11.46", "trialTime": 12395, "trial_type": "mouselab-mdp", "trial_index": 69, "time_elapsed": 2112408, "internal_node_id": "0.0-4.0-3.0-17.0"}}, {"uniqueid": "w97614728:a35119653", "current_trial": 70, "dateTime": 1664466321209, "trialdata": {"revealed_states": [], "num_clicks_accrued": [0, 0, 0, 0, 0, 0, 0, 0, 0, 0, 0, 0, 0], "stateRewards": ["", 2, 8, -48, 24, -2, 4, 48, 48, -2, -8, 48, 24], "withholdReward": true, "trial_id": "mdp_157355418411", "block": "test2", "trialIndex": 54, "score": 38.75, "costs": -0.25, "simulationMode": [null, null, null], "rewards": [2, 8, 24], "path": ["0", "0", "1", "2", "4"], "rt": [2370, 1725, 970], "actions": ["up", "up", "left"], "actionTimes": [7953, 10177, 11639], "queries": {"click": {"state": {"target": ["1"], "time": [6079]}, "edge": {"target": [], "time": []}}, "mouseover": {"state": {"target": ["1"], "time": [5942]}, "edge": {"target": [], "time": []}}, "mouseout": {"state": {"target": ["10", "0", "0", "1"], "time": [5052, 5366, 5808, 6277]}, "edge": {"target": [], "time": []}}}, "displayed_time": "13.59", "trialTime": 14855, "trial_type": "mouselab-mdp", "trial_index": 70, "time_elapsed": 2127410, "internal_node_id": "0.0-4.0-3.0-18.0"}}, {"uniqueid": "w97614728:a35119653", "current_trial": 71, "dateTime": 1664466331107, "trialdata": {"revealed_states": [], "num_clicks_accrued": [0, 0, 0, 0, 0, 0, 0, 0, 0, 0, 0, 0, 0], "stateRewards": ["", -4, -4, 24, -24, 4, 4, 24, 48, 4, -4, 48, -48], "withholdReward": true, "trial_id": "mdp_522385334882", "block": "test2", "trialIndex": 55, "score": 36, "costs": -1, "simulationMode": [null, null, null], "rewards": [4, 4, 24], "path": ["0", "0", "5", "6", "7"], "rt": [5231, 486, 703], "actions": ["right", "right", "up"], "actionTimes": [6104, 7094, 8292], "queries": {"click": {"state": {"target": ["6", "10", "9", "5"], "time": [2865, 3617, 4370, 5023]}, "edge": {"target": [], "time": []}}, "mouseover": {"state": {"target": ["5", "6", "0", "10", "10", "9", "0", "5"], "time": [2450, 2589, 3092, 3130, 3522, 4205, 4640, 4942]}, "edge": {"target": [], "time": []}}, "mouseout": {"state": {"target": ["1", "0", "5", "6", "0", "10", "10", "9", "0", "5"], "time": [662, 2257, 2494, 3064, 3126, 3156, 3938, 4573, 4705, 5955]}, "edge": {"target": [], "time": []}}}, "displayed_time": "8.79", "trialTime": 9791, "trial_type": "mouselab-mdp", "trial_index": 71, "time_elapsed": 2137308, "internal_node_id": "0.0-4.0-3.0-19.0"}}, {"uniqueid": "w97614728:a35119653", "current_trial": 72, "dateTime": 1664466342033, "trialdata": {"revealed_states": [], "num_clicks_accrued": [0, 0, 0, 0, 0, 0, 0, 0, 0, 0, 0, 0, 0], "stateRewards": ["", 2, -8, -24, 48, -4, -8, 24, -48, 4, -8, -24, -24], "withholdReward": false, "trial_id": "mdp_928911266656", "block": "test2", "trialIndex": 56, "score": -23.75, "costs": -0.75, "simulationMode": [null, null, null], "rewards": [4, -8, -24], "path": ["0", "0", "9", "10", "12"], "rt": [2710, 2075, 847], "actions": ["left", "left", "down"], "actionTimes": [3519, 6090, 7467], "queries": {"click": {"state": {"target": ["5", "1", "9"], "time": [2085, 2468, 2817]}, "edge": {"target": [], "time": []}}, "mouseover": {"state": {"target": ["5", "1", "9"], "time": [1706, 2378, 2748]}, "edge": {"target": [], "time": []}}, "mouseout": {"state": {"target": ["0", "5", "1"], "time": [1690, 2248, 2632]}, "edge": {"target": [], "time": []}}}, "displayed_time": "9.82", "trialTime": 10790, "trial_type": "mouselab-mdp", "trial_index": 72, "time_elapsed": 2148234, "internal_node_id": "0.0-4.0-3.0-20.0"}}, {"uniqueid": "w97614728:a35119653", "current_trial": 73, "dateTime": 1664466354243, "trialdata": {"revealed_states": [], "num_clicks_accrued": [0, 0, 0, 0, 0, 0, 0, 0, 0, 0, 0, 0, 0], "stateRewards": ["", 4, -4, 48, -48, -2, -8, -24, 48, -2, 4, 24, -24], "withholdReward": true, "trial_id": "mdp_507290896735", "block": "test2", "trialIndex": 57, "score": 52, "costs": -1, "simulationMode": [null, null, null], "rewards": [4, -4, 48], "path": ["0", "0", "1", "2", "3"], "rt": [2860, 2283, 860], "actions": ["up", "up", "right"], "actionTimes": [3836, 6614, 7978], "queries": {"click": {"state": {"target": ["1", "2", "4", "3"], "time": [1338, 1662, 1960, 2676]}, "edge": {"target": [], "time": []}}, "mouseover": {"state": {"target": ["1", "2", "4", "3", "7"], "time": [1188, 1584, 1950, 2563, 3055]}, "edge": {"target": [], "time": []}}, "mouseout": {"state": {"target": ["9", "0", "1", "2", "4", "2", "3", "7"], "time": [650, 1048, 1518, 1842, 2081, 2184, 2918, 3068]}, "edge": {"target": [], "time": []}}}, "displayed_time": "10.98", "trialTime": 12119, "trial_type": "mouselab-mdp", "trial_index": 73, "time_elapsed": 2160444, "internal_node_id": "0.0-4.0-3.0-21.0"}}, {"uniqueid": "w97614728:a35119653", "current_trial": 74, "dateTime": 1664466366509, "trialdata": {"revealed_states": [], "num_clicks_accrued": [0, 0, 0, 0, 0, 0, 0, 0, 0, 0, 0, 0, 0], "stateRewards": ["", 4, -4, 48, -48, 2, 8, -48, 24, -2, -4, -24, 48], "withholdReward": true, "trial_id": "mdp_937564992306", "block": "test2", "trialIndex": 58, "score": 38.25, "costs": -0.75, "simulationMode": [null, null, null], "rewards": [2, 8, 24], "path": ["0", "0", "5", "6", "8"], "rt": [3796, 1634, 2932], "actions": ["right", "right", "down"], "actionTimes": [5065, 7197, 10628], "queries": {"click": {"state": {"target": ["5", "1", "9"], "time": [1631, 2813, 3131]}, "edge": {"target": [], "time": []}}, "mouseover": {"state": {"target": ["5", "6", "1", "9"], "time": [1415, 1949, 2737, 3095]}, "edge": {"target": [], "time": []}}, "mouseout": {"state": {"target": ["5", "5", "6", "1", "9"], "time": [984, 1845, 2480, 2999, 3294]}, "edge": {"target": [], "time": []}}}, "displayed_time": "11.13", "trialTime": 12164, "trial_type": "mouselab-mdp", "trial_index": 74, "time_elapsed": 2172710, "internal_node_id": "0.0-4.0-3.0-22.0"}}, {"uniqueid": "w97614728:a35119653", "current_trial": 75, "dateTime": 1664466377509, "trialdata": {"revealed_states": [], "num_clicks_accrued": [0, 0, 0, 0, 0, 0, 0, 0, 0, 0, 0, 0, 0], "stateRewards": ["", -4, -4, 24, -48, 2, 4, -24, -48, -2, -8, -24, 24], "withholdReward": true, "trial_id": "mdp_565569130486", "block": "test2", "trialIndex": 59, "score": 19.5, "costs": -1.5, "simulationMode": [null, null, null], "rewards": [-4, -4, 24], "path": ["0", "0", "1", "2", "3"], "rt": [4599, 757, 2054], "actions": ["up", "up", "right"], "actionTimes": [5621, 6880, 9427], "queries": {"click": {"state": {"target": ["5", "6", "7", "1", "2", "3"], "time": [1554, 1906, 2270, 3215, 3575, 3940]}, "edge": {"target": [], "time": []}}, "mouseover": {"state": {"target": ["5", "6", "7", "1", "2", "3"], "time": [1406, 1823, 2166, 3089, 3520, 3838]}, "edge": {"target": [], "time": []}}, "mouseout": {"state": {"target": ["12", "0", "5", "6", "7", "1", "2", "3", "1"], "time": [680, 1275, 1760, 2095, 2606, 3395, 3755, 4214, 4332]}, "edge": {"target": [], "time": []}}}, "displayed_time": "10.02", "trialTime": 10890, "trial_type": "mouselab-mdp", "trial_index": 75, "time_elapsed": 2183710, "internal_node_id": "0.0-4.0-3.0-23.0"}}, {"uniqueid": "w97614728:a35119653", "current_trial": 76, "dateTime": 1664466387922, "trialdata": {"revealed_states": [], "num_clicks_accrued": [0, 0, 0, 0, 0, 0, 0, 0, 0, 0, 0, 0, 0], "stateRewards": ["", -4, -4, -24, 48, -4, -8, -24, 48, 2, 4, 48, 48], "withholdReward": false, "trial_id": "mdp_810954007398", "block": "test2", "trialIndex": 60, "score": -31.25, "costs": -0.25, "simulationMode": [null, null, null], "rewards": [-4, -8, -24], "path": ["0", "0", "5", "6", "7"], "rt": [1970, 2012, 2489], "actions": ["right", "right", "up"], "actionTimes": [3068, 5577, 8569], "queries": {"click": {"state": {"target": ["9"], "time": [2001]}, "edge": {"target": [], "time": []}}, "mouseover": {"state": {"target": ["9"], "time": [1937]}, "edge": {"target": [], "time": []}}, "mouseout": {"state": {"target": [], "time": []}, "edge": {"target": [], "time": []}}}, "displayed_time": "9.10", "trialTime": 10310, "trial_type": "mouselab-mdp", "trial_index": 76, "time_elapsed": 2194123, "internal_node_id": "0.0-4.0-3.0-24.0"}}, {"uniqueid": "w97614728:a35119653", "current_trial": 77, "dateTime": 1664466398464, "trialdata": {"revealed_states": [], "num_clicks_accrued": [0, 0, 0, 0, 0, 0, 0, 0, 0, 0, 0, 0, 0], "stateRewards": ["", -2, 4, 24, 48, 2, 4, -48, -48, 2, 8, 48, -48], "withholdReward": true, "trial_id": "mdp_409609775558", "block": "test2", "trialIndex": 61, "score": 54.25, "costs": -0.75, "simulationMode": [null, null, null], "rewards": [-2, 4, 48], "path": ["0", "0", "1", "2", "4"], "rt": [4911, 911, 569], "actions": ["up", "up", "left"], "actionTimes": [6284, 7695, 8754], "queries": {"click": {"state": {"target": ["5", "1", "9"], "time": [4040, 4704, 5381]}, "edge": {"target": [], "time": []}}, "mouseover": {"state": {"target": ["5", "5", "1", "9"], "time": [3673, 3927, 4454, 5335]}, "edge": {"target": [], "time": []}}, "mouseout": {"state": {"target": ["9", "5", "5", "1"], "time": [1102, 3695, 4361, 4907]}, "edge": {"target": [], "time": []}}}, "displayed_time": "9.37", "trialTime": 10406, "trial_type": "mouselab-mdp", "trial_index": 77, "time_elapsed": 2204665, "internal_node_id": "0.0-4.0-3.0-25.0"}}, {"uniqueid": "w97614728:a35119653", "current_trial": 78, "dateTime": 1664466410871, "trialdata": {"revealed_states": [], "num_clicks_accrued": [0, 0, 0, 0, 0, 0, 0, 0, 0, 0, 0, 0, 0], "stateRewards": ["", 2, -8, 24, 24, 4, -4, -24, -48, 4, 8, 24, 24], "withholdReward": true, "trial_id": "mdp_249803813713", "block": "test2", "trialIndex": 62, "score": -43.75, "costs": -0.75, "simulationMode": [null, null, null], "rewards": [4, -4, -48], "path": ["0", "0", "5", "6", "8"], "rt": [2652, 1635, 660], "actions": ["right", "right", "down"], "actionTimes": [3906, 6035, 7193], "queries": {"click": {"state": {"target": ["1", "5", "9"], "time": [2236, 2804, 3177]}, "edge": {"target": [], "time": []}}, "mouseover": {"state": {"target": ["1", "5", "5", "9"], "time": [2050, 2402, 2698, 3096]}, "edge": {"target": [], "time": []}}, "mouseout": {"state": {"target": ["9", "0", "1", "5", "5"], "time": [402, 1114, 2377, 2435, 2991]}, "edge": {"target": [], "time": []}}}, "displayed_time": "11.26", "trialTime": 12277, "trial_type": "mouselab-mdp", "trial_index": 78, "time_elapsed": 2217072, "internal_node_id": "0.0-4.0-3.0-26.0"}}, {"uniqueid": "w97614728:a35119653", "current_trial": 79, "dateTime": 1664466421870, "trialdata": {"revealed_states": [], "num_clicks_accrued": [0, 0, 0, 0, 0, 0, 0, 0, 0, 0, 0, 0, 0], "stateRewards": ["", 2, -8, -24, -48, -2, -4, 48, 48, 4, 8, 48, 48], "withholdReward": true, "trial_id": "mdp_347285045422", "block": "test2", "trialIndex": 63, "score": 64, "costs": -1, "simulationMode": [null, null, null], "rewards": [4, 8, 48], "path": ["0", "0", "9", "10", "11"], "rt": [3750, 2427, 1021], "actions": ["left", "left", "up"], "actionTimes": [4582, 7505, 9018], "queries": {"click": {"state": {"target": ["1", "5", "10", "9"], "time": [1800, 2419, 2852, 3456]}, "edge": {"target": [], "time": []}}, "mouseover": {"state": {"target": ["1", "5", "10", "9"], "time": [1347, 2317, 2652, 3012]}, "edge": {"target": [], "time": []}}, "mouseout": {"state": {"target": ["9", "0", "1", "5", "10"], "time": [567, 1130, 2010, 2607, 2973]}, "edge": {"target": [], "time": []}}}, "displayed_time": "9.84", "trialTime": 10887, "trial_type": "mouselab-mdp", "trial_index": 79, "time_elapsed": 2228071, "internal_node_id": "0.0-4.0-3.0-27.0"}}, {"uniqueid": "w97614728:a35119653", "current_trial": 80, "dateTime": 1664466432515, "trialdata": {"revealed_states": [], "num_clicks_accrued": [0, 0, 0, 0, 0, 0, 0, 0, 0, 0, 0, 0, 0], "stateRewards": ["", -4, -4, 48, 24, -4, -4, -24, -48, -4, 4, 48, -24], "withholdReward": true, "trial_id": "mdp_896503755738", "block": "test2", "trialIndex": 64, "score": 44.75, "costs": -0.25, "simulationMode": [null, null, null], "rewards": [-4, -4, 48], "path": ["0", "0", "1", "2", "3"], "rt": [2121, 1405, 3619], "actions": ["up", "up", "right"], "actionTimes": [2984, 4889, 9004], "queries": {"click": {"state": {"target": ["1"], "time": [1799]}, "edge": {"target": [], "time": []}}, "mouseover": {"state": {"target": ["1", "0"], "time": [1679, 2283]}, "edge": {"target": [], "time": []}}, "mouseout": {"state": {"target": ["9", "0", "1"], "time": [457, 1198, 2201]}, "edge": {"target": [], "time": []}}}, "displayed_time": "9.50", "trialTime": 10488, "trial_type": "mouselab-mdp", "trial_index": 80, "time_elapsed": 2238716, "internal_node_id": "0.0-4.0-3.0-28.0"}}, {"uniqueid": "w97614728:a35119653", "current_trial": 81, "dateTime": 1664466473383, "trialdata": {"revealed_states": [], "num_clicks_accrued": [0, 0, 0, 0, 0, 0, 0, 0, 0, 0, 0, 0, 0], "stateRewards": ["", 4, 4, 48, -24, 2, -4, 48, 24, -4, -4, -48, 24], "withholdReward": false, "trial_id": "mdp_496003763005", "block": "test2", "trialIndex": 65, "score": 51, "costs": 0, "simulationMode": [null, null, null], "rewards": [2, -4, 48], "path": ["0", "0", "5", "6", "7"], "rt": [567, 146, 61], "actions": ["right", "right", "up"], "actionTimes": [1419, 2065, 2632], "queries": {"click": {"state": {"target": [], "time": []}, "edge": {"target": [], "time": []}}, "mouseover": {"state": {"target": [], "time": []}, "edge": {"target": [], "time": []}}, "mouseout": {"state": {"target": ["0", "0"], "time": [490, 36454]}, "edge": {"target": [], "time": []}}}, "displayed_time": "9.86", "trialTime": 40708, "trial_type": "mouselab-mdp", "trial_index": 81, "time_elapsed": 2279583, "internal_node_id": "0.0-4.0-3.0-29.0"}}, {"uniqueid": "w97614728:a35119653", "current_trial": 82, "dateTime": 1664466503569, "trialdata": {"rt": 30180, "stimulus": "<h1> End of block! </h1>\n\nYou have reached the end of the block 2/4. If you need a short break, feel free to take one now before moving on.\n\n<br><br>\nIn the next block, you will complete another 30 rounds of this game.\n\n<br><br>\n<div style='text-align: center;'>Press <code>space</code> to begin.</div>\n<br><br>\n<div style='text-align: center;'>(If the experiment doesn't continue, try clicking on the text and then pressing <code>space</code>.)</div>", "response": " ", "trial_id": "mdp_ready_3", "trial_type": "html-keyboard-response", "trial_index": 82, "time_elapsed": 2309770, "internal_node_id": "0.0-4.0-4.0"}}, {"uniqueid": "w97614728:a35119653", "current_trial": 83, "dateTime": 1664466514787, "trialdata": {"revealed_states": [], "num_clicks_accrued": [0, 0, 0, 0, 0, 0, 0, 0, 0, 0, 0, 0, 0], "stateRewards": ["", 4, 4, -24, -48, 2, 4, 24, -48, 2, 4, 24, 24], "withholdReward": true, "trial_id": "mdp_223558518218", "block": "test3", "trialIndex": 66, "score": -37.25, "costs": -0.25, "simulationMode": [null, null, null], "rewards": [2, 4, -48], "path": ["0", "0", "5", "6", "8"], "rt": [2367, 860, 702], "actions": ["right", "right", "down"], "actionTimes": [3590, 4944, 6151], "queries": {"click": {"state": {"target": ["1"], "time": [2105]}, "edge": {"target": [], "time": []}}, "mouseover": {"state": {"target": ["1", "2"], "time": [1932, 2661]}, "edge": {"target": [], "time": []}}, "mouseout": {"state": {"target": ["0", "1"], "time": [1821, 2639]}, "edge": {"target": [], "time": []}}}, "displayed_time": "10.22", "trialTime": 11104, "trial_type": "mouselab-mdp", "trial_index": 83, "time_elapsed": 2320988, "internal_node_id": "0.0-4.0-5.0-0.0"}}, {"uniqueid": "w97614728:a35119653", "current_trial": 84, "dateTime": 1664466525448, "trialdata": {"revealed_states": [], "num_clicks_accrued": [0, 0, 0, 0, 0, 0, 0, 0, 0, 0, 0, 0, 0], "stateRewards": ["", -2, -4, -24, 48, -2, -8, -48, -24, 4, 8, 48, 24], "withholdReward": false, "trial_id": "mdp_625355871626", "block": "test3", "trialIndex": 67, "score": -25.75, "costs": -0.75, "simulationMode": [null, null, null], "rewards": [-2, -4, -24], "path": ["0", "0", "1", "2", "3"], "rt": [3006, 1661, 1850], "actions": ["up", "up", "right"], "actionTimes": [4114, 6272, 8678], "queries": {"click": {"state": {"target": ["5", "1", "9"], "time": [1774, 2139, 2867]}, "edge": {"target": [], "time": []}}, "mouseover": {"state": {"target": ["5", "1", "9"], "time": [1635, 2010, 2793]}, "edge": {"target": [], "time": []}}, "mouseout": {"state": {"target": ["2", "3", "1", "5", "1"], "time": [584, 690, 798, 1964, 2297]}, "edge": {"target": [], "time": []}}}, "displayed_time": "9.18", "trialTime": 10556, "trial_type": "mouselab-mdp", "trial_index": 84, "time_elapsed": 2331648, "internal_node_id": "0.0-4.0-5.0-1.0"}}, {"uniqueid": "w97614728:a35119653", "current_trial": 85, "dateTime": 1664466536654, "trialdata": {"revealed_states": [], "num_clicks_accrued": [0, 0, 0, 0, 0, 0, 0, 0, 0, 0, 0, 0, 0], "stateRewards": ["", 4, -4, 48, 24, 2, -8, 24, -48, -2, -4, -48, -48], "withholdReward": true, "trial_id": "mdp_655302318695", "block": "test3", "trialIndex": 68, "score": 28.25, "costs": -0.75, "simulationMode": [null, null, null], "rewards": [4, -4, 24], "path": ["0", "0", "1", "2", "4"], "rt": [2858, 3759, 903], "actions": ["up", "up", "left"], "actionTimes": [3714, 7971, 9383], "queries": {"click": {"state": {"target": ["5", "1", "9"], "time": [1474, 1971, 2607]}, "edge": {"target": [], "time": []}}, "mouseover": {"state": {"target": ["5", "1", "9"], "time": [1392, 1743, 2593]}, "edge": {"target": [], "time": []}}, "mouseout": {"state": {"target": ["9", "0", "5", "1"], "time": [461, 1308, 1662, 2319]}, "edge": {"target": [], "time": []}}}, "displayed_time": "9.88", "trialTime": 11047, "trial_type": "mouselab-mdp", "trial_index": 85, "time_elapsed": 2342855, "internal_node_id": "0.0-4.0-5.0-2.0"}}, {"uniqueid": "w97614728:a35119653", "current_trial": 86, "dateTime": 1664466547702, "trialdata": {"revealed_states": [], "num_clicks_accrued": [0, 0, 0, 0, 0, 0, 0, 0, 0, 0, 0, 0, 0], "stateRewards": ["", -4, 4, -24, 48, -2, 8, -48, 24, 2, 4, 48, -48], "withholdReward": false, "trial_id": "mdp_366632183904", "block": "test3", "trialIndex": 69, "score": -37.75, "costs": -0.75, "simulationMode": [null, null, null], "rewards": [-2, 8, -48], "path": ["0", "0", "5", "6", "7"], "rt": [3574, 2041, 1204], "actions": ["right", "right", "up"], "actionTimes": [4411, 6954, 8652], "queries": {"click": {"state": {"target": ["1", "5", "9"], "time": [1867, 2560, 3611]}, "edge": {"target": [], "time": []}}, "mouseover": {"state": {"target": ["1", "5", "0", "9"], "time": [1383, 2432, 2902, 3463]}, "edge": {"target": [], "time": []}}, "mouseout": {"state": {"target": ["9", "0", "1", "5", "0"], "time": [356, 1162, 2151, 2837, 2933]}, "edge": {"target": [], "time": []}}}, "displayed_time": "9.84", "trialTime": 10881, "trial_type": "mouselab-mdp", "trial_index": 86, "time_elapsed": 2353903, "internal_node_id": "0.0-4.0-5.0-3.0"}}, {"uniqueid": "w97614728:a35119653", "current_trial": 87, "dateTime": 1664466558567, "trialdata": {"revealed_states": [], "num_clicks_accrued": [0, 0, 0, 0, 0, 0, 0, 0, 0, 0, 0, 0, 0], "stateRewards": ["", -4, -8, -48, -48, 4, -8, 48, 48, 2, 8, 48, 24], "withholdReward": true, "trial_id": "mdp_880437222492", "block": "test3", "trialIndex": 70, "score": 48.75, "costs": -0.25, "simulationMode": [null, null, null], "rewards": [4, -8, 48], "path": ["0", "0", "5", "6", "7"], "rt": [2972, 1291, 871], "actions": ["right", "right", "up"], "actionTimes": [3726, 5509, 6873], "queries": {"click": {"state": {"target": ["7"], "time": [1294]}, "edge": {"target": [], "time": []}}, "mouseover": {"state": {"target": ["5", "7"], "time": [987, 1256]}, "edge": {"target": [], "time": []}}, "mouseout": {"state": {"target": ["9", "0", "5"], "time": [371, 915, 1030]}, "edge": {"target": [], "time": []}}}, "displayed_time": "9.76", "trialTime": 10682, "trial_type": "mouselab-mdp", "trial_index": 87, "time_elapsed": 2364767, "internal_node_id": "0.0-4.0-5.0-4.0"}}, {"uniqueid": "w97614728:a35119653", "current_trial": 88, "dateTime": 1664466572149, "trialdata": {"revealed_states": [], "num_clicks_accrued": [0, 0, 0, 0, 0, 0, 0, 0, 0, 0, 0, 0, 0], "stateRewards": ["", 4, -8, 24, 48, 2, 4, 48, 48, 2, 8, -48, -48], "withholdReward": false, "trial_id": "mdp_783704746330", "block": "test3", "trialIndex": 71, "score": 24.5, "costs": -0.5, "simulationMode": [null, null, null], "rewards": [4, -8, 24], "path": ["0", "0", "1", "2", "3"], "rt": [6268, 1598, 1079], "actions": ["up", "up", "right"], "actionTimes": [8160, 10247, 11829], "queries": {"click": {"state": {"target": ["1", "2"], "time": [2925, 4714]}, "edge": {"target": [], "time": []}}, "mouseover": {"state": {"target": ["1", "2", "4"], "time": [2566, 3959, 6263]}, "edge": {"target": [], "time": []}}, "mouseout": {"state": {"target": ["7", "0", "1", "2", "4"], "time": [839, 2315, 3909, 5659, 7033]}, "edge": {"target": [], "time": []}}}, "displayed_time": "12.33", "trialTime": 13462, "trial_type": "mouselab-mdp", "trial_index": 88, "time_elapsed": 2378350, "internal_node_id": "0.0-4.0-5.0-5.0"}}, {"uniqueid": "w97614728:a35119653", "current_trial": 89, "dateTime": 1664466583085, "trialdata": {"revealed_states": [], "num_clicks_accrued": [0, 0, 0, 0, 0, 0, 0, 0, 0, 0, 0, 0, 0], "stateRewards": ["", -2, -8, 48, 24, -2, 8, -48, -24, -2, 4, -48, 48], "withholdReward": true, "trial_id": "mdp_295220852217", "block": "test3", "trialIndex": 72, "score": -37.5, "costs": -0.5, "simulationMode": [null, null, null], "rewards": [-2, 8, -48], "path": ["0", "0", "5", "6", "7"], "rt": [2590, 2392, 1781], "actions": ["right", "right", "up"], "actionTimes": [3588, 6479, 8752], "queries": {"click": {"state": {"target": ["5", "6"], "time": [1535, 2019]}, "edge": {"target": [], "time": []}}, "mouseover": {"state": {"target": ["0", "5", "6"], "time": [1238, 1373, 1854]}, "edge": {"target": [], "time": []}}, "mouseout": {"state": {"target": ["1", "5", "0", "5"], "time": [496, 727, 1320, 1802]}, "edge": {"target": [], "time": []}}}, "displayed_time": "10.00", "trialTime": 10784, "trial_type": "mouselab-mdp", "trial_index": 89, "time_elapsed": 2389285, "internal_node_id": "0.0-4.0-5.0-6.0"}}, {"uniqueid": "w97614728:a35119653", "current_trial": 90, "dateTime": 1664466596876, "trialdata": {"revealed_states": [], "num_clicks_accrued": [0, 0, 0, 0, 0, 0, 0, 0, 0, 0, 0, 0, 0], "stateRewards": ["", -2, -8, 48, 24, 2, 4, 24, -24, -2, -4, 48, -48], "withholdReward": true, "trial_id": "mdp_411152402386", "block": "test3", "trialIndex": 73, "score": -14.5, "costs": -1.5, "simulationMode": [null, null, null], "rewards": [2, 4, -24], "path": ["0", "0", "5", "6", "8"], "rt": [9531, 353, 543], "actions": ["right", "right", "down"], "actionTimes": [10523, 11371, 12411], "queries": {"click": {"state": {"target": ["5", "1", "9", "10", "2", "6"], "time": [5481, 6853, 7430, 8026, 8542, 9713]}, "edge": {"target": [], "time": []}}, "mouseover": {"state": {"target": ["0", "5", "6", "1", "1", "9", "10", "2", "6", "6"], "time": [4891, 5189, 5981, 6500, 6751, 7351, 7973, 8454, 8804, 9332]}, "edge": {"target": [], "time": []}}, "mouseout": {"state": {"target": ["6", "5", "0", "0", "5", "6", "1", "1", "9", "9", "10", "2", "6"], "time": [485, 756, 2532, 5004, 5869, 6439, 6533, 7071, 7766, 7872, 8161, 8725, 8853]}, "edge": {"target": [], "time": []}}}, "displayed_time": "12.90", "trialTime": 13672, "trial_type": "mouselab-mdp", "trial_index": 90, "time_elapsed": 2403077, "internal_node_id": "0.0-4.0-5.0-7.0"}}, {"uniqueid": "w97614728:a35119653", "current_trial": 91, "dateTime": 1664466606688, "trialdata": {"revealed_states": [], "num_clicks_accrued": [0, 0, 0, 0, 0, 0, 0, 0, 0, 0, 0, 0, 0], "stateRewards": ["", -4, 4, 24, 24, 4, -8, 48, -48, -2, -8, 24, 24], "withholdReward": false, "trial_id": "mdp_395264223239", "block": "test3", "trialIndex": 74, "score": 28, "costs": -1, "simulationMode": [null, null, null], "rewards": [-4, 4, 24], "path": ["0", "0", "1", "2", "3"], "rt": [4497, 409, 976], "actions": ["up", "up", "right"], "actionTimes": [5230, 6135, 7603], "queries": {"click": {"state": {"target": ["1", "9", "6", "5"], "time": [1580, 2564, 2873, 3601]}, "edge": {"target": [], "time": []}}, "mouseover": {"state": {"target": ["0", "1", "9", "5", "6", "5"], "time": [890, 1476, 2428, 2772, 2811, 3559]}, "edge": {"target": [], "time": []}}, "mouseout": {"state": {"target": ["6", "5", "0", "1", "9", "5", "6"], "time": [451, 480, 1193, 1997, 2705, 2808, 3080]}, "edge": {"target": [], "time": []}}}, "displayed_time": "8.74", "trialTime": 9677, "trial_type": "mouselab-mdp", "trial_index": 91, "time_elapsed": 2412889, "internal_node_id": "0.0-4.0-5.0-8.0"}}, {"uniqueid": "w97614728:a35119653", "current_trial": 92, "dateTime": 1664466617356, "trialdata": {"revealed_states": [], "num_clicks_accrued": [0, 0, 0, 0, 0, 0, 0, 0, 0, 0, 0, 0, 0], "stateRewards": ["", 2, -4, 24, -24, 2, -8, 48, 48, 4, -4, 24, 48], "withholdReward": true, "trial_id": "mdp_947836623875", "block": "test3", "trialIndex": 75, "score": 25.5, "costs": -1.5, "simulationMode": [null, null, null], "rewards": [2, -4, 24], "path": ["0", "0", "1", "2", "3"], "rt": [5282, 619, 917], "actions": ["up", "up", "right"], "actionTimes": [6079, 7194, 8608], "queries": {"click": {"state": {"target": ["5", "1", "9", "10", "2", "6"], "time": [1430, 1909, 2307, 2742, 3912, 4656]}, "edge": {"target": [], "time": []}}, "mouseover": {"state": {"target": ["5", "1", "9", "10", "2", "2", "6"], "time": [1288, 1724, 2183, 2624, 3529, 3841, 4404]}, "edge": {"target": [], "time": []}}, "mouseout": {"state": {"target": ["5", "5", "1", "9", "10", "9", "1", "2", "2", "6"], "time": [499, 1588, 2126, 2574, 2994, 3158, 3526, 3550, 4124, 4990]}, "edge": {"target": [], "time": []}}}, "displayed_time": "9.11", "trialTime": 10557, "trial_type": "mouselab-mdp", "trial_index": 92, "time_elapsed": 2423557, "internal_node_id": "0.0-4.0-5.0-9.0"}}, {"uniqueid": "w97614728:a35119653", "current_trial": 93, "dateTime": 1664466661282, "trialdata": {"revealed_states": [], "num_clicks_accrued": [0, 0, 0, 0, 0, 0, 0, 0, 0, 0, 0, 0, 0], "stateRewards": ["", 4, 8, -24, 48, 4, -8, -48, 48, -4, 8, -24, -48], "withholdReward": true, "trial_id": "mdp_376126356841", "block": "test3", "trialIndex": 76, "score": -47.75, "costs": -0.75, "simulationMode": [null, null, null], "rewards": [4, -8, -48], "path": ["0", "0", "5", "6", "7"], "rt": [4591, 857, 932], "actions": ["right", "right", "up"], "actionTimes": [5567, 6930, 8365