{"condition": 0, "counterbalance": 0, "assignmentId": "a39822050", "workerId": "w42323251", "hitId": "h38286102", "currenttrial": 971, "bonus": 0, "data": [{"uniqueid": "w42323251:a39822050", "current_trial": 0, "dateTime": 1664873176051, "trialdata": {"success": true, "trial_type": "fullscreen", "trial_index": 0, "time_elapsed": 6065, "internal_node_id": "0.0-0.0"}}, {"uniqueid": "w42323251:a39822050", "current_trial": 1, "dateTime": 1664873208892, "trialdata": {"view_history": [{"page_index": 0, "viewing_time": 32834}], "rt": 32836, "trial_id": "exp_instructions_distractor", "trial_type": "instructions", "trial_index": 1, "time_elapsed": 38906, "internal_node_id": "0.0-1.0"}}, {"uniqueid": "w42323251:a39822050", "current_trial": 2, "dateTime": 1664873243075, "trialdata": {"view_history": [{"page_index": 0, "viewing_time": 34180}], "rt": 34180, "trial_id": "color_game_instructions", "trial_type": "instructions", "trial_index": 2, "time_elapsed": 73089, "internal_node_id": "0.0-2.0"}}, {"uniqueid": "w42323251:a39822050", "current_trial": 3, "dateTime": 1664873277130, "trialdata": {"rt": 34054, "stimulus": "<h1> Get ready to start the game! </h1>\n\nThank you for reading the instructions. Get ready start with the first of 5 block(s) of this game.\n<br><br>\nIn this first block, you will complete 90 rounds of this game before moving on.\n<br><br>\nRemember, the better you perform, the bigger your bonus will be!\n<br><br>\n<div style='text-align: center;'>Press <code>space</code> to begin.</div>", "response": " ", "trial_id": "stroop_1_ready_1", "trial_type": "html-keyboard-response", "trial_index": 3, "time_elapsed": 107143, "internal_node_id": "0.0-3.0"}}, {"uniqueid": "w42323251:a39822050", "current_trial": 4, "dateTime": 1664873279460, "trialdata": {"rt": 2324, "stimulus": "<p id='stroop-text' class='stroop-yellow'>SHIP</p>", "response": "y", "stimulus-type": "unrelated", "word": "SHIP", "color": "yellow", "correct_response": "y", "trial_id": "stroop-trial-1-unrelated-18", "trial_type": "html-keyboard-response", "trial_index": 4, "time_elapsed": 109473, "internal_node_id": "0.0-4.0-0.0"}}, {"uniqueid": "w42323251:a39822050", "current_trial": 5, "dateTime": 1664873281456, "trialdata": {"rt": 1492, "stimulus": "<p id='stroop-text' class='stroop-yellow'>YELLOW</p>", "response": "y", "stimulus-type": "congruent", "word": "yellow", "color": "yellow", "correct_response": "y", "trial_id": "stroop-trial-1-congruent-10", "trial_type": "html-keyboard-response", "trial_index": 5, "time_elapsed": 111469, "internal_node_id": "0.0-4.0-1.0"}}, {"uniqueid": "w42323251:a39822050", "current_trial": 6, "dateTime": 1664873283424, "trialdata": {"rt": 1465, "stimulus": "<p id='stroop-text' class='stroop-blue'>GREEN</p>", "response": "b", "stimulus-type": "incongruent", "word": "green", "color": "blue", "correct_response": "b", "trial_id": "stroop-trial-1-incongruent-6", "trial_type": "html-keyboard-response", "trial_index": 6, "time_elapsed": 113437, "internal_node_id": "0.0-4.0-2.0"}}, {"uniqueid": "w42323251:a39822050", "current_trial": 7, "dateTime": 1664873285258, "trialdata": {"rt": 1331, "stimulus": "<p id='stroop-text' class='stroop-red'>RED</p>", "response": "r", "stimulus-type": "congruent", "word": "red", "color": "red", "correct_response": "r", "trial_id": "stroop-trial-1-congruent-18", "trial_type": "html-keyboard-response", "trial_index": 7, "time_elapsed": 115271, "internal_node_id": "0.0-4.0-3.0"}}, {"uniqueid": "w42323251:a39822050", "current_trial": 8, "dateTime": 1664873287142, "trialdata": {"rt": 1382, "stimulus": "<p id='stroop-text' class='stroop-yellow'>YELLOW</p>", "response": "y", "stimulus-type": "congruent", "word": "yellow", "color": "yellow", "correct_response": "y", "trial_id": "stroop-trial-1-congruent-14", "trial_type": "html-keyboard-response", "trial_index": 8, "time_elapsed": 117155, "internal_node_id": "0.0-4.0-4.0"}}, {"uniqueid": "w42323251:a39822050", "current_trial": 9, "dateTime": 1664873288656, "trialdata": {"rt": 1011, "stimulus": "<p id='stroop-text' class='stroop-red'>BOAT</p>", "response": "g", "stimulus-type": "unrelated", "word": "BOAT", "color": "red", "correct_response": "r", "trial_id": "stroop-trial-1-unrelated-20", "trial_type": "html-keyboard-response", "trial_index": 9, "time_elapsed": 118669, "internal_node_id": "0.0-4.0-5.0"}}, {"uniqueid": "w42323251:a39822050", "current_trial": 10, "dateTime": 1664873292034, "trialdata": {"rt": 2876, "stimulus": "<p id='stroop-text' class='stroop-blue'>YELLOW</p>", "response": "b", "stimulus-type": "incongruent", "word": "yellow", "color": "blue", "correct_response": "b", "trial_id": "stroop-trial-1-incongruent-5", "trial_type": "html-keyboard-response", "trial_index": 10, "time_elapsed": 122047, "internal_node_id": "0.0-4.0-6.0"}}, {"uniqueid": "w42323251:a39822050", "current_trial": 11, "dateTime": 1664873294005, "trialdata": {"rt": 1468, "stimulus": "<p id='stroop-text' class='stroop-yellow'>SHIP</p>", "response": "y", "stimulus-type": "unrelated", "word": "SHIP", "color": "yellow", "correct_response": "y", "trial_id": "stroop-trial-1-unrelated-14", "trial_type": "html-keyboard-response", "trial_index": 11, "time_elapsed": 124018, "internal_node_id": "0.0-4.0-7.0"}}, {"uniqueid": "w42323251:a39822050", "current_trial": 12, "dateTime": 1664873296173, "trialdata": {"rt": 1666, "stimulus": "<p id='stroop-text' class='stroop-green'>GREEN</p>", "response": "g", "stimulus-type": "congruent", "word": "green", "color": "green", "correct_response": "g", "trial_id": "stroop-trial-1-congruent-28", "trial_type": "html-keyboard-response", "trial_index": 12, "time_elapsed": 126187, "internal_node_id": "0.0-4.0-8.0"}}, {"uniqueid": "w42323251:a39822050", "current_trial": 13, "dateTime": 1664873298102, "trialdata": {"rt": 1426, "stimulus": "<p id='stroop-text' class='stroop-blue'>YELLOW</p>", "response": "b", "stimulus-type": "incongruent", "word": "yellow", "color": "blue", "correct_response": "b", "trial_id": "stroop-trial-1-incongruent-29", "trial_type": "html-keyboard-response", "trial_index": 13, "time_elapsed": 128116, "internal_node_id": "0.0-4.0-9.0"}}, {"uniqueid": "w42323251:a39822050", "current_trial": 14, "dateTime": 1664873300058, "trialdata": {"rt": 1452, "stimulus": "<p id='stroop-text' class='stroop-yellow'>GREEN</p>", "response": "y", "stimulus-type": "incongruent", "word": "green", "color": "yellow", "correct_response": "y", "trial_id": "stroop-trial-1-incongruent-19", "trial_type": "html-keyboard-response", "trial_index": 14, "time_elapsed": 130071, "internal_node_id": "0.0-4.0-10.0"}}, {"uniqueid": "w42323251:a39822050", "current_trial": 15, "dateTime": 1664873301887, "trialdata": {"rt": 1314, "stimulus": "<p id='stroop-text' class='stroop-yellow'>MONKEY</p>", "response": "y", "stimulus-type": "unrelated", "word": "MONKEY", "color": "yellow", "correct_response": "y", "trial_id": "stroop-trial-1-unrelated-1", "trial_type": "html-keyboard-response", "trial_index": 15, "time_elapsed": 131901, "internal_node_id": "0.0-4.0-11.0"}}, {"uniqueid": "w42323251:a39822050", "current_trial": 16, "dateTime": 1664873304066, "trialdata": {"rt": 1677, "stimulus": "<p id='stroop-text' class='stroop-blue'>SHIP</p>", "response": "b", "stimulus-type": "unrelated", "word": "SHIP", "color": "blue", "correct_response": "b", "trial_id": "stroop-trial-1-unrelated-24", "trial_type": "html-keyboard-response", "trial_index": 16, "time_elapsed": 134080, "internal_node_id": "0.0-4.0-12.0"}}, {"uniqueid": "w42323251:a39822050", "current_trial": 17, "dateTime": 1664873306237, "trialdata": {"rt": 1668, "stimulus": "<p id='stroop-text' class='stroop-green'>BLUE</p>", "response": "g", "stimulus-type": "incongruent", "word": "blue", "color": "green", "correct_response": "g", "trial_id": "stroop-trial-1-incongruent-2", "trial_type": "html-keyboard-response", "trial_index": 17, "time_elapsed": 136250, "internal_node_id": "0.0-4.0-13.0"}}, {"uniqueid": "w42323251:a39822050", "current_trial": 18, "dateTime": 1664873307950, "trialdata": {"rt": 1211, "stimulus": "<p id='stroop-text' class='stroop-blue'>BLUE</p>", "response": "b", "stimulus-type": "congruent", "word": "blue", "color": "blue", "correct_response": "b", "trial_id": "stroop-trial-1-congruent-8", "trial_type": "html-keyboard-response", "trial_index": 18, "time_elapsed": 137964, "internal_node_id": "0.0-4.0-14.0"}}, {"uniqueid": "w42323251:a39822050", "current_trial": 19, "dateTime": 1664873310448, "trialdata": {"rt": 1994, "stimulus": "<p id='stroop-text' class='stroop-blue'>RED</p>", "response": "b", "stimulus-type": "incongruent", "word": "red", "color": "blue", "correct_response": "b", "trial_id": "stroop-trial-1-incongruent-13", "trial_type": "html-keyboard-response", "trial_index": 19, "time_elapsed": 140462, "internal_node_id": "0.0-4.0-15.0"}}, {"uniqueid": "w42323251:a39822050", "current_trial": 20, "dateTime": 1664873311849, "trialdata": {"rt": 899, "stimulus": "<p id='stroop-text' class='stroop-blue'>RED</p>", "response": "b", "stimulus-type": "incongruent", "word": "red", "color": "blue", "correct_response": "b", "trial_id": "stroop-trial-1-incongruent-10", "trial_type": "html-keyboard-response", "trial_index": 20, "time_elapsed": 141863, "internal_node_id": "0.0-4.0-16.0"}}, {"uniqueid": "w42323251:a39822050", "current_trial": 21, "dateTime": 1664873313163, "trialdata": {"rt": 809, "stimulus": "<p id='stroop-text' class='stroop-blue'>DOG</p>", "response": "b", "stimulus-type": "unrelated", "word": "DOG", "color": "blue", "correct_response": "b", "trial_id": "stroop-trial-1-unrelated-25", "trial_type": "html-keyboard-response", "trial_index": 21, "time_elapsed": 143177, "internal_node_id": "0.0-4.0-17.0"}}, {"uniqueid": "w42323251:a39822050", "current_trial": 22, "dateTime": 1664873314537, "trialdata": {"rt": 871, "stimulus": "<p id='stroop-text' class='stroop-blue'>YELLOW</p>", "response": "b", "stimulus-type": "incongruent", "word": "yellow", "color": "blue", "correct_response": "b", "trial_id": "stroop-trial-1-incongruent-3", "trial_type": "html-keyboard-response", "trial_index": 22, "time_elapsed": 144550, "internal_node_id": "0.0-4.0-18.0"}}, {"uniqueid": "w42323251:a39822050", "current_trial": 23, "dateTime": 1664873316374, "trialdata": {"rt": 1334, "stimulus": "<p id='stroop-text' class='stroop-yellow'>RED</p>", "response": "y", "stimulus-type": "incongruent", "word": "red", "color": "yellow", "correct_response": "y", "trial_id": "stroop-trial-1-incongruent-23", "trial_type": "html-keyboard-response", "trial_index": 23, "time_elapsed": 146388, "internal_node_id": "0.0-4.0-19.0"}}, {"uniqueid": "w42323251:a39822050", "current_trial": 24, "dateTime": 1664873317918, "trialdata": {"rt": 1041, "stimulus": "<p id='stroop-text' class='stroop-yellow'>YELLOW</p>", "response": "y", "stimulus-type": "congruent", "word": "yellow", "color": "yellow", "correct_response": "y", "trial_id": "stroop-trial-1-congruent-15", "trial_type": "html-keyboard-response", "trial_index": 24, "time_elapsed": 147931, "internal_node_id": "0.0-4.0-20.0"}}, {"uniqueid": "w42323251:a39822050", "current_trial": 25, "dateTime": 1664873320003, "trialdata": {"rt": 1582, "stimulus": "<p id='stroop-text' class='stroop-red'>GREEN</p>", "response": "r", "stimulus-type": "incongruent", "word": "green", "color": "red", "correct_response": "r", "trial_id": "stroop-trial-1-incongruent-24", "trial_type": "html-keyboard-response", "trial_index": 25, "time_elapsed": 150017, "internal_node_id": "0.0-4.0-21.0"}}, {"uniqueid": "w42323251:a39822050", "current_trial": 26, "dateTime": 1664873321951, "trialdata": {"rt": 1444, "stimulus": "<p id='stroop-text' class='stroop-green'>GREEN</p>", "response": "g", "stimulus-type": "congruent", "word": "green", "color": "green", "correct_response": "g", "trial_id": "stroop-trial-1-congruent-13", "trial_type": "html-keyboard-response", "trial_index": 26, "time_elapsed": 151965, "internal_node_id": "0.0-4.0-22.0"}}, {"uniqueid": "w42323251:a39822050", "current_trial": 27, "dateTime": 1664873323907, "trialdata": {"rt": 1453, "stimulus": "<p id='stroop-text' class='stroop-blue'>GREEN</p>", "response": "b", "stimulus-type": "incongruent", "word": "green", "color": "blue", "correct_response": "b", "trial_id": "stroop-trial-1-incongruent-26", "trial_type": "html-keyboard-response", "trial_index": 27, "time_elapsed": 153921, "internal_node_id": "0.0-4.0-23.0"}}, {"uniqueid": "w42323251:a39822050", "current_trial": 28, "dateTime": 1664873325587, "trialdata": {"rt": 1179, "stimulus": "<p id='stroop-text' class='stroop-green'>CHAIR</p>", "response": "g", "stimulus-type": "unrelated", "word": "CHAIR", "color": "green", "correct_response": "g", "trial_id": "stroop-trial-1-unrelated-6", "trial_type": "html-keyboard-response", "trial_index": 28, "time_elapsed": 155601, "internal_node_id": "0.0-4.0-24.0"}}, {"uniqueid": "w42323251:a39822050", "current_trial": 29, "dateTime": 1664873327134, "trialdata": {"rt": 1043, "stimulus": "<p id='stroop-text' class='stroop-blue'>BLUE</p>", "response": "b", "stimulus-type": "congruent", "word": "blue", "color": "blue", "correct_response": "b", "trial_id": "stroop-trial-1-congruent-25", "trial_type": "html-keyboard-response", "trial_index": 29, "time_elapsed": 157148, "internal_node_id": "0.0-4.0-25.0"}}, {"uniqueid": "w42323251:a39822050", "current_trial": 30, "dateTime": 1664873328276, "trialdata": {"rt": 640, "stimulus": "<p id='stroop-text' class='stroop-blue'>BLUE</p>", "response": "b", "stimulus-type": "congruent", "word": "blue", "color": "blue", "correct_response": "b", "trial_id": "stroop-trial-1-congruent-24", "trial_type": "html-keyboard-response", "trial_index": 30, "time_elapsed": 158289, "internal_node_id": "0.0-4.0-26.0"}}, {"uniqueid": "w42323251:a39822050", "current_trial": 31, "dateTime": 1664873329790, "trialdata": {"rt": 1011, "stimulus": "<p id='stroop-text' class='stroop-red'>RED</p>", "response": "r", "stimulus-type": "congruent", "word": "red", "color": "red", "correct_response": "r", "trial_id": "stroop-trial-1-congruent-1", "trial_type": "html-keyboard-response", "trial_index": 31, "time_elapsed": 159804, "internal_node_id": "0.0-4.0-27.0"}}, {"uniqueid": "w42323251:a39822050", "current_trial": 32, "dateTime": 1664873331381, "trialdata": {"rt": 1088, "stimulus": "<p id='stroop-text' class='stroop-yellow'>STONE</p>", "response": "y", "stimulus-type": "unrelated", "word": "STONE", "color": "yellow", "correct_response": "y", "trial_id": "stroop-trial-1-unrelated-11", "trial_type": "html-keyboard-response", "trial_index": 32, "time_elapsed": 161395, "internal_node_id": "0.0-4.0-28.0"}}, {"uniqueid": "w42323251:a39822050", "current_trial": 33, "dateTime": 1664873333542, "trialdata": {"rt": 1657, "stimulus": "<p id='stroop-text' class='stroop-green'>BLUE</p>", "response": "g", "stimulus-type": "incongruent", "word": "blue", "color": "green", "correct_response": "g", "trial_id": "stroop-trial-1-incongruent-11", "trial_type": "html-keyboard-response", "trial_index": 33, "time_elapsed": 163554, "internal_node_id": "0.0-4.0-29.0"}}, {"uniqueid": "w42323251:a39822050", "current_trial": 34, "dateTime": 1664873335462, "trialdata": {"rt": 1418, "stimulus": "<p id='stroop-text' class='stroop-green'>GREEN</p>", "response": "g", "stimulus-type": "congruent", "word": "green", "color": "green", "correct_response": "g", "trial_id": "stroop-trial-1-congruent-11", "trial_type": "html-keyboard-response", "trial_index": 34, "time_elapsed": 165476, "internal_node_id": "0.0-4.0-30.0"}}, {"uniqueid": "w42323251:a39822050", "current_trial": 35, "dateTime": 1664873336819, "trialdata": {"rt": 855, "stimulus": "<p id='stroop-text' class='stroop-green'>BLUE</p>", "response": "g", "stimulus-type": "incongruent", "word": "blue", "color": "green", "correct_response": "g", "trial_id": "stroop-trial-1-incongruent-17", "trial_type": "html-keyboard-response", "trial_index": 35, "time_elapsed": 166833, "internal_node_id": "0.0-4.0-31.0"}}, {"uniqueid": "w42323251:a39822050", "current_trial": 36, "dateTime": 1664873338510, "trialdata": {"rt": 1189, "stimulus": "<p id='stroop-text' class='stroop-red'>GREEN</p>", "response": "r", "stimulus-type": "incongruent", "word": "green", "color": "red", "correct_response": "r", "trial_id": "stroop-trial-1-incongruent-12", "trial_type": "html-keyboard-response", "trial_index": 36, "time_elapsed": 168524, "internal_node_id": "0.0-4.0-32.0"}}, {"uniqueid": "w42323251:a39822050", "current_trial": 37, "dateTime": 1664873340098, "trialdata": {"rt": 1085, "stimulus": "<p id='stroop-text' class='stroop-green'>GREEN</p>", "response": "g", "stimulus-type": "congruent", "word": "green", "color": "green", "correct_response": "g", "trial_id": "stroop-trial-1-congruent-17", "trial_type": "html-keyboard-response", "trial_index": 37, "time_elapsed": 170112, "internal_node_id": "0.0-4.0-33.0"}}, {"uniqueid": "w42323251:a39822050", "current_trial": 38, "dateTime": 1664873341666, "trialdata": {"rt": 1066, "stimulus": "<p id='stroop-text' class='stroop-red'>BOTTLE</p>", "response": "r", "stimulus-type": "unrelated", "word": "BOTTLE", "color": "red", "correct_response": "r", "trial_id": "stroop-trial-1-unrelated-12", "trial_type": "html-keyboard-response", "trial_index": 38, "time_elapsed": 171680, "internal_node_id": "0.0-4.0-34.0"}}, {"uniqueid": "w42323251:a39822050", "current_trial": 39, "dateTime": 1664873343665, "trialdata": {"rt": 1497, "stimulus": "<p id='stroop-text' class='stroop-green'>BOAT</p>", "response": "g", "stimulus-type": "unrelated", "word": "BOAT", "color": "green", "correct_response": "g", "trial_id": "stroop-trial-1-unrelated-5", "trial_type": "html-keyboard-response", "trial_index": 39, "time_elapsed": 173679, "internal_node_id": "0.0-4.0-35.0"}}, {"uniqueid": "w42323251:a39822050", "current_trial": 40, "dateTime": 1664873345308, "trialdata": {"rt": 1141, "stimulus": "<p id='stroop-text' class='stroop-yellow'>YELLOW</p>", "response": "y", "stimulus-type": "congruent", "word": "yellow", "color": "yellow", "correct_response": "y", "trial_id": "stroop-trial-1-congruent-3", "trial_type": "html-keyboard-response", "trial_index": 40, "time_elapsed": 175321, "internal_node_id": "0.0-4.0-36.0"}}, {"uniqueid": "w42323251:a39822050", "current_trial": 41, "dateTime": 1664873347226, "trialdata": {"rt": 1399, "stimulus": "<p id='stroop-text' class='stroop-yellow'>RED</p>", "response": "y", "stimulus-type": "incongruent", "word": "red", "color": "yellow", "correct_response": "y", "trial_id": "stroop-trial-1-incongruent-7", "trial_type": "html-keyboard-response", "trial_index": 41, "time_elapsed": 177240, "internal_node_id": "0.0-4.0-37.0"}}, {"uniqueid": "w42323251:a39822050", "current_trial": 42, "dateTime": 1664873348495, "trialdata": {"rt": 755, "stimulus": "<p id='stroop-text' class='stroop-yellow'>BRIDGE</p>", "response": "y", "stimulus-type": "unrelated", "word": "BRIDGE", "color": "yellow", "correct_response": "y", "trial_id": "stroop-trial-1-unrelated-16", "trial_type": "html-keyboard-response", "trial_index": 42, "time_elapsed": 178509, "internal_node_id": "0.0-4.0-38.0"}}, {"uniqueid": "w42323251:a39822050", "current_trial": 43, "dateTime": 1664873351642, "trialdata": {"rt": 2643, "stimulus": "<p id='stroop-text' class='stroop-green'>BLUE</p>", "response": "g", "stimulus-type": "incongruent", "word": "blue", "color": "green", "correct_response": "g", "trial_id": "stroop-trial-1-incongruent-14", "trial_type": "html-keyboard-response", "trial_index": 43, "time_elapsed": 181656, "internal_node_id": "0.0-4.0-39.0"}}, {"uniqueid": "w42323251:a39822050", "current_trial": 44, "dateTime": 1664873352958, "trialdata": {"rt": 812, "stimulus": "<p id='stroop-text' class='stroop-green'>GREEN</p>", "response": "g", "stimulus-type": "congruent", "word": "green", "color": "green", "correct_response": "g", "trial_id": "stroop-trial-1-congruent-20", "trial_type": "html-keyboard-response", "trial_index": 44, "time_elapsed": 182971, "internal_node_id": "0.0-4.0-40.0"}}, {"uniqueid": "w42323251:a39822050", "current_trial": 45, "dateTime": 1664873354577, "trialdata": {"rt": 1117, "stimulus": "<p id='stroop-text' class='stroop-yellow'>STONE</p>", "response": "y", "stimulus-type": "unrelated", "word": "STONE", "color": "yellow", "correct_response": "y", "trial_id": "stroop-trial-1-unrelated-27", "trial_type": "html-keyboard-response", "trial_index": 45, "time_elapsed": 184591, "internal_node_id": "0.0-4.0-41.0"}}, {"uniqueid": "w42323251:a39822050", "current_trial": 46, "dateTime": 1664873356312, "trialdata": {"rt": 1231, "stimulus": "<p id='stroop-text' class='stroop-red'>BLUE</p>", "response": "r", "stimulus-type": "incongruent", "word": "blue", "color": "red", "correct_response": "r", "trial_id": "stroop-trial-1-incongruent-8", "trial_type": "html-keyboard-response", "trial_index": 46, "time_elapsed": 186326, "internal_node_id": "0.0-4.0-42.0"}}, {"uniqueid": "w42323251:a39822050", "current_trial": 47, "dateTime": 1664873357935, "trialdata": {"rt": 1120, "stimulus": "<p id='stroop-text' class='stroop-red'>YELLOW</p>", "response": "r", "stimulus-type": "incongruent", "word": "yellow", "color": "red", "correct_response": "r", "trial_id": "stroop-trial-1-incongruent-1", "trial_type": "html-keyboard-response", "trial_index": 47, "time_elapsed": 187949, "internal_node_id": "0.0-4.0-43.0"}}, {"uniqueid": "w42323251:a39822050", "current_trial": 48, "dateTime": 1664873359636, "trialdata": {"rt": 1198, "stimulus": "<p id='stroop-text' class='stroop-yellow'>BRAIN</p>", "response": "y", "stimulus-type": "unrelated", "word": "BRAIN", "color": "yellow", "correct_response": "y", "trial_id": "stroop-trial-1-unrelated-29", "trial_type": "html-keyboard-response", "trial_index": 48, "time_elapsed": 189650, "internal_node_id": "0.0-4.0-44.0"}}, {"uniqueid": "w42323251:a39822050", "current_trial": 49, "dateTime": 1664873361354, "trialdata": {"rt": 1216, "stimulus": "<p id='stroop-text' class='stroop-blue'>FORK</p>", "response": "b", "stimulus-type": "unrelated", "word": "FORK", "color": "blue", "correct_response": "b", "trial_id": "stroop-trial-1-unrelated-26", "trial_type": "html-keyboard-response", "trial_index": 49, "time_elapsed": 191368, "internal_node_id": "0.0-4.0-45.0"}}, {"uniqueid": "w42323251:a39822050", "current_trial": 50, "dateTime": 1664873362599, "trialdata": {"rt": 743, "stimulus": "<p id='stroop-text' class='stroop-blue'>FORK</p>", "response": "b", "stimulus-type": "unrelated", "word": "FORK", "color": "blue", "correct_response": "b", "trial_id": "stroop-trial-1-unrelated-13", "trial_type": "html-keyboard-response", "trial_index": 50, "time_elapsed": 192613, "internal_node_id": "0.0-4.0-46.0"}}, {"uniqueid": "w42323251:a39822050", "current_trial": 51, "dateTime": 1664873363675, "trialdata": {"rt": 573, "stimulus": "<p id='stroop-text' class='stroop-blue'>BLUE</p>", "response": "b", "stimulus-type": "congruent", "word": "blue", "color": "blue", "correct_response": "b", "trial_id": "stroop-trial-1-congruent-9", "trial_type": "html-keyboard-response", "trial_index": 51, "time_elapsed": 193689, "internal_node_id": "0.0-4.0-47.0"}}, {"uniqueid": "w42323251:a39822050", "current_trial": 52, "dateTime": 1664873365416, "trialdata": {"rt": 1238, "stimulus": "<p id='stroop-text' class='stroop-green'>DOG</p>", "response": "g", "stimulus-type": "unrelated", "word": "DOG", "color": "green", "correct_response": "g", "trial_id": "stroop-trial-1-unrelated-17", "trial_type": "html-keyboard-response", "trial_index": 52, "time_elapsed": 195430, "internal_node_id": "0.0-4.0-48.0"}}, {"uniqueid": "w42323251:a39822050", "current_trial": 53, "dateTime": 1664873367030, "trialdata": {"rt": 1110, "stimulus": "<p id='stroop-text' class='stroop-blue'>GREEN</p>", "response": "b", "stimulus-type": "incongruent", "word": "green", "color": "blue", "correct_response": "b", "trial_id": "stroop-trial-1-incongruent-21", "trial_type": "html-keyboard-response", "trial_index": 53, "time_elapsed": 197044, "internal_node_id": "0.0-4.0-49.0"}}, {"uniqueid": "w42323251:a39822050", "current_trial": 54, "dateTime": 1664873368927, "trialdata": {"rt": 1393, "stimulus": "<p id='stroop-text' class='stroop-yellow'>GREEN</p>", "response": "y", "stimulus-type": "incongruent", "word": "green", "color": "yellow", "correct_response": "y", "trial_id": "stroop-trial-1-incongruent-18", "trial_type": "html-keyboard-response", "trial_index": 54, "time_elapsed": 198941, "internal_node_id": "0.0-4.0-50.0"}}, {"uniqueid": "w42323251:a39822050", "current_trial": 55, "dateTime": 1664873370783, "trialdata": {"rt": 1351, "stimulus": "<p id='stroop-text' class='stroop-green'>GREEN</p>", "response": "g", "stimulus-type": "congruent", "word": "green", "color": "green", "correct_response": "g", "trial_id": "stroop-trial-1-congruent-21", "trial_type": "html-keyboard-response", "trial_index": 55, "time_elapsed": 200796, "internal_node_id": "0.0-4.0-51.0"}}, {"uniqueid": "w42323251:a39822050", "current_trial": 56, "dateTime": 1664873372028, "trialdata": {"rt": 743, "stimulus": "<p id='stroop-text' class='stroop-blue'>BLUE</p>", "response": "b", "stimulus-type": "congruent", "word": "blue", "color": "blue", "correct_response": "b", "trial_id": "stroop-trial-1-congruent-2", "trial_type": "html-keyboard-response", "trial_index": 56, "time_elapsed": 202042, "internal_node_id": "0.0-4.0-52.0"}}, {"uniqueid": "w42323251:a39822050", "current_trial": 57, "dateTime": 1664873373066, "trialdata": {"rt": 522, "stimulus": "<p id='stroop-text' class='stroop-blue'>RED</p>", "response": "b", "stimulus-type": "incongruent", "word": "red", "color": "blue", "correct_response": "b", "trial_id": "stroop-trial-1-incongruent-30", "trial_type": "html-keyboard-response", "trial_index": 57, "time_elapsed": 203079, "internal_node_id": "0.0-4.0-53.0"}}, {"uniqueid": "w42323251:a39822050", "current_trial": 58, "dateTime": 1664873374067, "trialdata": {"rt": 499, "stimulus": "<p id='stroop-text' class='stroop-blue'>MONKEY</p>", "response": "b", "stimulus-type": "unrelated", "word": "MONKEY", "color": "blue", "correct_response": "b", "trial_id": "stroop-trial-1-unrelated-22", "trial_type": "html-keyboard-response", "trial_index": 58, "time_elapsed": 204080, "internal_node_id": "0.0-4.0-54.0"}}, {"uniqueid": "w42323251:a39822050", "current_trial": 59, "dateTime": 1664873375642, "trialdata": {"rt": 1069, "stimulus": "<p id='stroop-text' class='stroop-yellow'>RED</p>", "response": "y", "stimulus-type": "incongruent", "word": "red", "color": "yellow", "correct_response": "y", "trial_id": "stroop-trial-1-incongruent-27", "trial_type": "html-keyboard-response", "trial_index": 59, "time_elapsed": 205656, "internal_node_id": "0.0-4.0-55.0"}}, {"uniqueid": "w42323251:a39822050", "current_trial": 60, "dateTime": 1664873377677, "trialdata": {"rt": 1532, "stimulus": "<p id='stroop-text' class='stroop-red'>RED</p>", "response": "r", "stimulus-type": "congruent", "word": "red", "color": "red", "correct_response": "r", "trial_id": "stroop-trial-1-congruent-22", "trial_type": "html-keyboard-response", "trial_index": 60, "time_elapsed": 207691, "internal_node_id": "0.0-4.0-56.0"}}, {"uniqueid": "w42323251:a39822050", "current_trial": 61, "dateTime": 1664873378771, "trialdata": {"rt": 592, "stimulus": "<p id='stroop-text' class='stroop-red'>WINDOW</p>", "response": "r", "stimulus-type": "unrelated", "word": "WINDOW", "color": "red", "correct_response": "r", "trial_id": "stroop-trial-1-unrelated-9", "trial_type": "html-keyboard-response", "trial_index": 61, "time_elapsed": 208785, "internal_node_id": "0.0-4.0-57.0"}}, {"uniqueid": "w42323251:a39822050", "current_trial": 62, "dateTime": 1664873380281, "trialdata": {"rt": 1006, "stimulus": "<p id='stroop-text' class='stroop-yellow'>WINDOW</p>", "response": "y", "stimulus-type": "unrelated", "word": "WINDOW", "color": "yellow", "correct_response": "y", "trial_id": "stroop-trial-1-unrelated-4", "trial_type": "html-keyboard-response", "trial_index": 62, "time_elapsed": 210294, "internal_node_id": "0.0-4.0-58.0"}}, {"uniqueid": "w42323251:a39822050", "current_trial": 63, "dateTime": 1664873381904, "trialdata": {"rt": 1121, "stimulus": "<p id='stroop-text' class='stroop-blue'>SHIP</p>", "response": "b", "stimulus-type": "unrelated", "word": "SHIP", "color": "blue", "correct_response": "b", "trial_id": "stroop-trial-1-unrelated-10", "trial_type": "html-keyboard-response", "trial_index": 63, "time_elapsed": 211918, "internal_node_id": "0.0-4.0-59.0"}}, {"uniqueid": "w42323251:a39822050", "current_trial": 64, "dateTime": 1664873383864, "trialdata": {"rt": 1457, "stimulus": "<p id='stroop-text' class='stroop-red'>SHIP</p>", "response": "r", "stimulus-type": "unrelated", "word": "SHIP", "color": "red", "correct_response": "r", "trial_id": "stroop-trial-1-unrelated-15", "trial_type": "html-keyboard-response", "trial_index": 64, "time_elapsed": 213877, "internal_node_id": "0.0-4.0-60.0"}}, {"uniqueid": "w42323251:a39822050", "current_trial": 65, "dateTime": 1664873385496, "trialdata": {"rt": 1130, "stimulus": "<p id='stroop-text' class='stroop-blue'>BLUE</p>", "response": "b", "stimulus-type": "congruent", "word": "blue", "color": "blue", "correct_response": "b", "trial_id": "stroop-trial-1-congruent-7", "trial_type": "html-keyboard-response", "trial_index": 65, "time_elapsed": 215510, "internal_node_id": "0.0-4.0-61.0"}}, {"uniqueid": "w42323251:a39822050", "current_trial": 66, "dateTime": 1664873386614, "trialdata": {"rt": 616, "stimulus": "<p id='stroop-text' class='stroop-blue'>BLUE</p>", "response": "b", "stimulus-type": "congruent", "word": "blue", "color": "blue", "correct_response": "b", "trial_id": "stroop-trial-1-congruent-6", "trial_type": "html-keyboard-response", "trial_index": 66, "time_elapsed": 216628, "internal_node_id": "0.0-4.0-62.0"}}, {"uniqueid": "w42323251:a39822050", "current_trial": 67, "dateTime": 1664873388250, "trialdata": {"rt": 1133, "stimulus": "<p id='stroop-text' class='stroop-yellow'>FORK</p>", "response": "y", "stimulus-type": "unrelated", "word": "FORK", "color": "yellow", "correct_response": "y", "trial_id": "stroop-trial-1-unrelated-3", "trial_type": "html-keyboard-response", "trial_index": 67, "time_elapsed": 218264, "internal_node_id": "0.0-4.0-63.0"}}, {"uniqueid": "w42323251:a39822050", "current_trial": 68, "dateTime": 1664873390048, "trialdata": {"rt": 1295, "stimulus": "<p id='stroop-text' class='stroop-red'>RED</p>", "response": "r", "stimulus-type": "congruent", "word": "red", "color": "red", "correct_response": "r", "trial_id": "stroop-trial-1-congruent-23", "trial_type": "html-keyboard-response", "trial_index": 68, "time_elapsed": 220062, "internal_node_id": "0.0-4.0-64.0"}}, {"uniqueid": "w42323251:a39822050", "current_trial": 69, "dateTime": 1664873391662, "trialdata": {"rt": 1097, "stimulus": "<p id='stroop-text' class='stroop-blue'>FORK</p>", "response": "b", "stimulus-type": "unrelated", "word": "FORK", "color": "blue", "correct_response": "b", "trial_id": "stroop-trial-1-unrelated-21", "trial_type": "html-keyboard-response", "trial_index": 69, "time_elapsed": 221676, "internal_node_id": "0.0-4.0-65.0"}}, {"uniqueid": "w42323251:a39822050", "current_trial": 70, "dateTime": 1664873393709, "trialdata": {"rt": 1544, "stimulus": "<p id='stroop-text' class='stroop-yellow'>SHIP</p>", "response": "y", "stimulus-type": "unrelated", "word": "SHIP", "color": "yellow", "correct_response": "y", "trial_id": "stroop-trial-1-unrelated-7", "trial_type": "html-keyboard-response", "trial_index": 70, "time_elapsed": 223723, "internal_node_id": "0.0-4.0-66.0"}}, {"uniqueid": "w42323251:a39822050", "current_trial": 71, "dateTime": 1664873395491, "trialdata": {"rt": 1279, "stimulus": "<p id='stroop-text' class='stroop-green'>YELLOW</p>", "response": "g", "stimulus-type": "incongruent", "word": "yellow", "color": "green", "correct_response": "g", "trial_id": "stroop-trial-1-incongruent-25", "trial_type": "html-keyboard-response", "trial_index": 71, "time_elapsed": 225504, "internal_node_id": "0.0-4.0-67.0"}}, {"uniqueid": "w42323251:a39822050", "current_trial": 72, "dateTime": 1664873397287, "trialdata": {"rt": 1287, "stimulus": "<p id='stroop-text' class='stroop-yellow'>WINDOW</p>", "response": "y", "stimulus-type": "unrelated", "word": "WINDOW", "color": "yellow", "correct_response": "y", "trial_id": "stroop-trial-1-unrelated-30", "trial_type": "html-keyboard-response", "trial_index": 72, "time_elapsed": 227301, "internal_node_id": "0.0-4.0-68.0"}}, {"uniqueid": "w42323251:a39822050", "current_trial": 73, "dateTime": 1664873400403, "trialdata": {"rt": 2613, "stimulus": "<p id='stroop-text' class='stroop-red'>RED</p>", "response": "r", "stimulus-type": "congruent", "word": "red", "color": "red", "correct_response": "r", "trial_id": "stroop-trial-1-congruent-12", "trial_type": "html-keyboard-response", "trial_index": 73, "time_elapsed": 230416, "internal_node_id": "0.0-4.0-69.0"}}, {"uniqueid": "w42323251:a39822050", "current_trial": 74, "dateTime": 1664873402111, "trialdata": {"rt": 1206, "stimulus": "<p id='stroop-text' class='stroop-green'>BRAIN</p>", "response": "g", "stimulus-type": "unrelated", "word": "BRAIN", "color": "green", "correct_response": "g", "trial_id": "stroop-trial-1-unrelated-2", "trial_type": "html-keyboard-response", "trial_index": 74, "time_elapsed": 232125, "internal_node_id": "0.0-4.0-70.0"}}, {"uniqueid": "w42323251:a39822050", "current_trial": 75, "dateTime": 1664873403692, "trialdata": {"rt": 1077, "stimulus": "<p id='stroop-text' class='stroop-red'>BLUE</p>", "response": "r", "stimulus-type": "incongruent", "word": "blue", "color": "red", "correct_response": "r", "trial_id": "stroop-trial-1-incongruent-16", "trial_type": "html-keyboard-response", "trial_index": 75, "time_elapsed": 233706, "internal_node_id": "0.0-4.0-71.0"}}, {"uniqueid": "w42323251:a39822050", "current_trial": 76, "dateTime": 1664873404816, "trialdata": {"rt": 613, "stimulus": "<p id='stroop-text' class='stroop-blue'>BRAIN</p>", "response": "b", "stimulus-type": "unrelated", "word": "BRAIN", "color": "blue", "correct_response": "b", "trial_id": "stroop-trial-1-unrelated-8", "trial_type": "html-keyboard-response", "trial_index": 76, "time_elapsed": 234830, "internal_node_id": "0.0-4.0-72.0"}}, {"uniqueid": "w42323251:a39822050", "current_trial": 77, "dateTime": 1664873406001, "trialdata": {"rt": 683, "stimulus": "<p id='stroop-text' class='stroop-blue'>BLUE</p>", "response": "b", "stimulus-type": "congruent", "word": "blue", "color": "blue", "correct_response": "b", "trial_id": "stroop-trial-1-congruent-26", "trial_type": "html-keyboard-response", "trial_index": 77, "time_elapsed": 236014, "internal_node_id": "0.0-4.0-73.0"}}, {"uniqueid": "w42323251:a39822050", "current_trial": 78, "dateTime": 1664873407505, "trialdata": {"rt": 1001, "stimulus": "<p id='stroop-text' class='stroop-green'>GREEN</p>", "response": "g", "stimulus-type": "congruent", "word": "green", "color": "green", "correct_response": "g", "trial_id": "stroop-trial-1-congruent-19", "trial_type": "html-keyboard-response", "trial_index": 78, "time_elapsed": 237519, "internal_node_id": "0.0-4.0-74.0"}}, {"uniqueid": "w42323251:a39822050", "current_trial": 79, "dateTime": 1664873408782, "trialdata": {"rt": 773, "stimulus": "<p id='stroop-text' class='stroop-green'>YELLOW</p>", "response": "g", "stimulus-type": "incongruent", "word": "yellow", "color": "green", "correct_response": "g", "trial_id": "stroop-trial-1-incongruent-28", "trial_type": "html-keyboard-response", "trial_index": 79, "time_elapsed": 238796, "internal_node_id": "0.0-4.0-75.0"}}, {"uniqueid": "w42323251:a39822050", "current_trial": 80, "dateTime": 1664873409785, "trialdata": {"rt": 502, "stimulus": "<p id='stroop-text' class='stroop-green'>GREEN</p>", "response": "g", "stimulus-type": "congruent", "word": "green", "color": "green", "correct_response": "g", "trial_id": "stroop-trial-1-congruent-5", "trial_type": "html-keyboard-response", "trial_index": 80, "time_elapsed": 239799, "internal_node_id": "0.0-4.0-76.0"}}, {"uniqueid": "w42323251:a39822050", "current_trial": 81, "dateTime": 1664873411487, "trialdata": {"rt": 1200, "stimulus": "<p id='stroop-text' class='stroop-yellow'>MONKEY</p>", "response": "y", "stimulus-type": "unrelated", "word": "MONKEY", "color": "yellow", "correct_response": "y", "trial_id": "stroop-trial-1-unrelated-28", "trial_type": "html-keyboard-response", "trial_index": 81, "time_elapsed": 241501, "internal_node_id": "0.0-4.0-77.0"}}, {"uniqueid": "w42323251:a39822050", "current_trial": 82, "dateTime": 1664873413037, "trialdata": {"rt": 1046, "stimulus": "<p id='stroop-text' class='stroop-blue'>GREEN</p>", "response": "b", "stimulus-type": "incongruent", "word": "green", "color": "blue", "correct_response": "b", "trial_id": "stroop-trial-1-incongruent-15", "trial_type": "html-keyboard-response", "trial_index": 82, "time_elapsed": 243051, "internal_node_id": "0.0-4.0-78.0"}}, {"uniqueid": "w42323251:a39822050", "current_trial": 83, "dateTime": 1664873414864, "trialdata": {"rt": 1324, "stimulus": "<p id='stroop-text' class='stroop-green'>RED</p>", "response": "g", "stimulus-type": "incongruent", "word": "red", "color": "green", "correct_response": "g", "trial_id": "stroop-trial-1-incongruent-9", "trial_type": "html-keyboard-response", "trial_index": 83, "time_elapsed": 244878, "internal_node_id": "0.0-4.0-79.0"}}, {"uniqueid": "w42323251:a39822050", "current_trial": 84, "dateTime": 1664873416512, "trialdata": {"rt": 1146, "stimulus": "<p id='stroop-text' class='stroop-yellow'>GREEN</p>", "response": "y", "stimulus-type": "incongruent", "word": "green", "color": "yellow", "correct_response": "y", "trial_id": "stroop-trial-1-incongruent-22", "trial_type": "html-keyboard-response", "trial_index": 84, "time_elapsed": 246526, "internal_node_id": "0.0-4.0-80.0"}}, {"uniqueid": "w42323251:a39822050", "current_trial": 85, "dateTime": 1664873418354, "trialdata": {"rt": 1339, "stimulus": "<p id='stroop-text' class='stroop-red'>RED</p>", "response": "r", "stimulus-type": "congruent", "word": "red", "color": "red", "correct_response": "r", "trial_id": "stroop-trial-1-congruent-27", "trial_type": "html-keyboard-response", "trial_index": 85, "time_elapsed": 248368, "internal_node_id": "0.0-4.0-81.0"}}, {"uniqueid": "w42323251:a39822050", "current_trial": 86, "dateTime": 1664873419375, "trialdata": {"rt": 505, "stimulus": "<p id='stroop-text' class='stroop-red'>RED</p>", "response": "r", "stimulus-type": "congruent", "word": "red", "color": "red", "correct_response": "r", "trial_id": "stroop-trial-1-congruent-29", "trial_type": "html-keyboard-response", "trial_index": 86, "time_elapsed": 249389, "internal_node_id": "0.0-4.0-82.0"}}, {"uniqueid": "w42323251:a39822050", "current_trial": 87, "dateTime": 1664873420795, "trialdata": {"rt": 916, "stimulus": "<p id='stroop-text' class='stroop-green'>GREEN</p>", "response": "g", "stimulus-type": "congruent", "word": "green", "color": "green", "correct_response": "g", "trial_id": "stroop-trial-1-congruent-4", "trial_type": "html-keyboard-response", "trial_index": 87, "time_elapsed": 250809, "internal_node_id": "0.0-4.0-83.0"}}, {"uniqueid": "w42323251:a39822050", "current_trial": 88, "dateTime": 1664873422586, "trialdata": {"rt": 1288, "stimulus": "<p id='stroop-text' class='stroop-red'>GREEN</p>", "response": "r", "stimulus-type": "incongruent", "word": "green", "color": "red", "correct_response": "r", "trial_id": "stroop-trial-1-incongruent-4", "trial_type": "html-keyboard-response", "trial_index": 88, "time_elapsed": 252600, "internal_node_id": "0.0-4.0-84.0"}}, {"uniqueid": "w42323251:a39822050", "current_trial": 89, "dateTime": 1664873424153, "trialdata": {"rt": 1063, "stimulus": "<p id='stroop-text' class='stroop-yellow'>BLUE</p>", "response": "y", "stimulus-type": "incongruent", "word": "blue", "color": "yellow", "correct_response": "y", "trial_id": "stroop-trial-1-incongruent-20", "trial_type": "html-keyboard-response", "trial_index": 89, "time_elapsed": 254167, "internal_node_id": "0.0-4.0-85.0"}}, {"uniqueid": "w42323251:a39822050", "current_trial": 90, "dateTime": 1664873425688, "trialdata": {"rt": 1030, "stimulus": "<p id='stroop-text' class='stroop-green'>GREEN</p>", "response": "g", "stimulus-type": "congruent", "word": "green", "color": "green", "correct_response": "g", "trial_id": "stroop-trial-1-congruent-30", "trial_type": "html-keyboard-response", "trial_index": 90, "time_elapsed": 255702, "internal_node_id": "0.0-4.0-86.0"}}, {"uniqueid": "w42323251:a39822050", "current_trial": 91, "dateTime": 1664873427308, "trialdata": {"rt": 1116, "stimulus": "<p id='stroop-text' class='stroop-blue'>WINDOW</p>", "response": "b", "stimulus-type": "unrelated", "word": "WINDOW", "color": "blue", "correct_response": "b", "trial_id": "stroop-trial-1-unrelated-19", "trial_type": "html-keyboard-response", "trial_index": 91, "time_elapsed": 257321, "internal_node_id": "0.0-4.0-87.0"}}, {"uniqueid": "w42323251:a39822050", "current_trial": 92, "dateTime": 1664873429276, "trialdata": {"rt": 1465, "stimulus": "<p id='stroop-text' class='stroop-green'>BOTTLE</p>", "response": "g", "stimulus-type": "unrelated", "word": "BOTTLE", "color": "green", "correct_response": "g", "trial_id": "stroop-trial-1-unrelated-23", "trial_type": "html-keyboard-response", "trial_index": 92, "time_elapsed": 259290, "internal_node_id": "0.0-4.0-88.0"}}, {"uniqueid": "w42323251:a39822050", "current_trial": 93, "dateTime": 1664873430687, "trialdata": {"rt": 907, "stimulus": "<p id='stroop-text' class='stroop-blue'>BLUE</p>", "response": "b", "stimulus-type": "congruent", "word": "blue", "color": "blue", "correct_response": "b", "trial_id": "stroop-trial-1-congruent-16", "trial_type": "html-keyboard-response", "trial_index": 93, "time_elapsed": 260701, "internal_node_id": "0.0-4.0-89.0"}}, {"uniqueid": "w42323251:a39822050", "current_trial": 94, "dateTime": 1664873444439, "trialdata": {"rt": 13234, "stimulus": "  <h1> End of block! </h1>\n\n  You have reached the end of the block 1/5. If you need a short break, feel free to take one now before moving on.\n\n  <br><br>\n  In the next block, you will complete another 90 rounds of this game.\n\n  <br><br>\n  <div style='text-align: center;'>Press <code>space</code> to begin.</div>\n  <br><br>\n<div style='text-align: center;'>(If the experiment doesn't continue, try clicking on the text and then pressing <code>space</code>.)</div>", "response": " ", "trial_id": "stroop_1_ready_2", "trial_type": "html-keyboard-response", "trial_index": 94, "time_elapsed": 274453, "internal_node_id": "0.0-5.0"}}, {"uniqueid": "w42323251:a39822050", "current_trial": 95, "dateTime": 1664873446069, "trialdata": {"rt": 1628, "stimulus": "<p id='stroop-text' class='stroop-yellow'>CHAIR</p>", "response": "y", "stimulus-type": "unrelated", "word": "CHAIR", "color": "yellow", "correct_response": "y", "trial_id": "stroop-trial-1-unrelated-22", "trial_type": "html-keyboard-response", "trial_index": 95, "time_elapsed": 276083, "internal_node_id": "0.0-6.0-0.0"}}, {"uniqueid": "w42323251:a39822050", "current_trial": 96, "dateTime": 1664873448082, "trialdata": {"rt": 1510, "stimulus": "<p id='stroop-text' class='stroop-red'>CHAIR</p>", "response": "r", "stimulus-type": "unrelated", "word": "CHAIR", "color": "red", "correct_response": "r", "trial_id": "stroop-trial-1-unrelated-21", "trial_type": "html-keyboard-response", "trial_index": 96, "time_elapsed": 278096, "internal_node_id": "0.0-6.0-1.0"}}, {"uniqueid": "w42323251:a39822050", "current_trial": 97, "dateTime": 1664873449535, "trialdata": {"rt": 951, "stimulus": "<p id='stroop-text' class='stroop-red'>GREEN</p>", "response": "r", "stimulus-type": "incongruent", "word": "green", "color": "red", "correct_response": "r", "trial_id": "stroop-trial-1-incongruent-15", "trial_type": "html-keyboard-response", "trial_index": 97, "time_elapsed": 279549, "internal_node_id": "0.0-6.0-2.0"}}, {"uniqueid": "w42323251:a39822050", "current_trial": 98, "dateTime": 1664873451149, "trialdata": {"rt": 1111, "stimulus": "<p id='stroop-text' class='stroop-yellow'>BOTTLE</p>", "response": "y", "stimulus-type": "unrelated", "word": "BOTTLE", "color": "yellow", "correct_response": "y", "trial_id": "stroop-trial-1-unrelated-14", "trial_type": "html-keyboard-response", "trial_index": 98, "time_elapsed": 281162, "internal_node_id": "0.0-6.0-3.0"}}, {"uniqueid": "w42323251:a39822050", "current_trial": 99, "dateTime": 1664873452950, "trialdata": {"rt": 1299, "stimulus": "<p id='stroop-text' class='stroop-blue'>CHAIR</p>", "response": "b", "stimulus-type": "unrelated", "word": "CHAIR", "color": "blue", "correct_response": "b", "trial_id": "stroop-trial-1-unrelated-20", "trial_type": "html-keyboard-response", "trial_index": 99, "time_elapsed": 282963, "internal_node_id": "0.0-6.0-4.0"}}, {"uniqueid": "w42323251:a39822050", "current_trial": 100, "dateTime": 1664873455050, "trialdata": {"rt": 1598, "stimulus": "<p id='stroop-text' class='stroop-red'>BLUE</p>", "response": "r", "stimulus-type": "incongruent", "word": "blue", "color": "red", "correct_response": "r", "trial_id": "stroop-trial-1-incongruent-14", "trial_type": "html-keyboard-response", "trial_index": 100, "time_elapsed": 285064, "internal_node_id": "0.0-6.0-5.0"}}, {"uniqueid": "w42323251:a39822050", "current_trial": 101, "dateTime": 1664873456191, "trialdata": {"rt": 632, "stimulus": "<p id='stroop-text' class='stroop-red'>BRAIN</p>", "response": "r", "stimulus-type": "unrelated", "word": "BRAIN", "color": "red", "correct_response": "r", "trial_id": "stroop-trial-1-unrelated-13", "trial_type": "html-keyboard-response", "trial_index": 101, "time_elapsed": 286204, "internal_node_id": "0.0-6.0-6.0"}}, {"uniqueid": "w42323251:a39822050", "current_trial": 102, "dateTime": 1664873457699, "trialdata": {"rt": 1005, "stimulus": "<p id='stroop-text' class='stroop-blue'>GREEN</p>", "response": "b", "stimulus-type": "incongruent", "word": "green", "color": "blue", "correct_response": "b", "trial_id": "stroop-trial-1-incongruent-20", "trial_type": "html-keyboard-response", "trial_index": 102, "time_elapsed": 287713, "internal_node_id": "0.0-6.0-7.0"}}, {"uniqueid": "w42323251:a39822050", "current_trial": 103, "dateTime": 1664873458758, "trialdata": {"rt": 556, "stimulus": "<p id='stroop-text' class='stroop-blue'>RED</p>", "response": "b", "stimulus-type": "incongruent", "word": "red", "color": "blue", "correct_response": "b", "trial_id": "stroop-trial-1-incongruent-2", "trial_type": "html-keyboard-response", "trial_index": 103, "time_elapsed": 288772, "internal_node_id": "0.0-6.0-8.0"}}, {"uniqueid": "w42323251:a39822050", "current_trial": 104, "dateTime": 1664873460378, "trialdata": {"rt": 1116, "stimulus": "<p id='stroop-text' class='stroop-green'>BLUE</p>", "response": "g", "stimulus-type": "incongruent", "word": "blue", "color": "green", "correct_response": "g", "trial_id": "stroop-trial-1-incongruent-6", "trial_type": "html-keyboard-response", "trial_index": 104, "time_elapsed": 290391, "internal_node_id": "0.0-6.0-9.0"}}, {"uniqueid": "w42323251:a39822050", "current_trial": 105, "dateTime": 1664873461624, "trialdata": {"rt": 742, "stimulus": "<p id='stroop-text' class='stroop-blue'>YELLOW</p>", "response": "b", "stimulus-type": "incongruent", "word": "yellow", "color": "blue", "correct_response": "b", "trial_id": "stroop-trial-1-incongruent-29", "trial_type": "html-keyboard-response", "trial_index": 105, "time_elapsed": 291637, "internal_node_id": "0.0-6.0-10.0"}}, {"uniqueid": "w42323251:a39822050", "current_trial": 106, "dateTime": 1664873462814, "trialdata": {"rt": 688, "stimulus": "<p id='stroop-text' class='stroop-blue'>BLUE</p>", "response": "b", "stimulus-type": "congruent", "word": "blue", "color": "blue", "correct_response": "b", "trial_id": "stroop-trial-1-congruent-25", "trial_type": "html-keyboard-response", "trial_index": 106, "time_elapsed": 292828, "internal_node_id": "0.0-6.0-11.0"}}, {"uniqueid": "w42323251:a39822050", "current_trial": 107, "dateTime": 1664873464098, "trialdata": {"rt": 780, "stimulus": "<p id='stroop-text' class='stroop-green'>GREEN</p>", "response": "g", "stimulus-type": "congruent", "word": "green", "color": "green", "correct_response": "g", "trial_id": "stroop-trial-1-congruent-24", "trial_type": "html-keyboard-response", "trial_index": 107, "time_elapsed": 294112, "internal_node_id": "0.0-6.0-12.0"}}, {"uniqueid": "w42323251:a39822050", "current_trial": 108, "dateTime": 1664873465275, "trialdata": {"rt": 674, "stimulus": "<p id='stroop-text' class='stroop-blue'>CHAIR</p>", "response": "b", "stimulus-type": "unrelated", "word": "CHAIR", "color": "blue", "correct_response": "b", "trial_id": "stroop-trial-1-unrelated-24", "trial_type": "html-keyboard-response", "trial_index": 108, "time_elapsed": 295289, "internal_node_id": "0.0-6.0-13.0"}}, {"uniqueid": "w42323251:a39822050", "current_trial": 109, "dateTime": 1664873466394, "trialdata": {"rt": 615, "stimulus": "<p id='stroop-text' class='stroop-blue'>BLUE</p>", "response": "b", "stimulus-type": "congruent", "word": "blue", "color": "blue", "correct_response": "b", "trial_id": "stroop-trial-1-congruent-14", "trial_type": "html-keyboard-response", "trial_index": 109, "time_elapsed": 296408, "internal_node_id": "0.0-6.0-14.0"}}, {"uniqueid": "w42323251:a39822050", "current_trial": 110, "dateTime": 1664873467437, "trialdata": {"rt": 540, "stimulus": "<p id='stroop-text' class='stroop-blue'>BLUE</p>", "response": "b", "stimulus-type": "congruent", "word": "blue", "color": "blue", "correct_response": "b", "trial_id": "stroop-trial-1-congruent-5", "trial_type": "html-keyboard-response", "trial_index": 110, "time_elapsed": 297450, "internal_node_id": "0.0-6.0-15.0"}}, {"uniqueid": "w42323251:a39822050", "current_trial": 111, "dateTime": 1664873468704, "trialdata": {"rt": 765, "stimulus": "<p id='stroop-text' class='stroop-green'>FORK</p>", "response": "g", "stimulus-type": "unrelated", "word": "FORK", "color": "green", "correct_response": "g", "trial_id": "stroop-trial-1-unrelated-12", "trial_type": "html-keyboard-response", "trial_index": 111, "time_elapsed": 298717, "internal_node_id": "0.0-6.0-16.0"}}, {"uniqueid": "w42323251:a39822050", "current_trial": 112, "dateTime": 1664873470084, "trialdata": {"rt": 866, "stimulus": "<p id='stroop-text' class='stroop-red'>BRAIN</p>", "response": "r", "stimulus-type": "unrelated", "word": "BRAIN", "color": "red", "correct_response": "r", "trial_id": "stroop-trial-1-unrelated-16", "trial_type": "html-keyboard-response", "trial_index": 112, "time_elapsed": 300098, "internal_node_id": "0.0-6.0-17.0"}}, {"uniqueid": "w42323251:a39822050", "current_trial": 113, "dateTime": 1664873471405, "trialdata": {"rt": 818, "stimulus": "<p id='stroop-text' class='stroop-blue'>YELLOW</p>", "response": "b", "stimulus-type": "incongruent", "word": "yellow", "color": "blue", "correct_response": "b", "trial_id": "stroop-trial-1-incongruent-27", "trial_type": "html-keyboard-response", "trial_index": 113, "time_elapsed": 301419, "internal_node_id": "0.0-6.0-18.0"}}, {"uniqueid": "w42323251:a39822050", "current_trial": 114, "dateTime": 1664873472881, "trialdata": {"rt": 974, "stimulus": "<p id='stroop-text' class='stroop-yellow'>YELLOW</p>", "response": "y", "stimulus-type": "congruent", "word": "yellow", "color": "yellow", "correct_response": "y", "trial_id": "stroop-trial-1-congruent-12", "trial_type": "html-keyboard-response", "trial_index": 114, "time_elapsed": 302895, "internal_node_id": "0.0-6.0-19.0"}}, {"uniqueid": "w42323251:a39822050", "current_trial": 115, "dateTime": 1664873474422, "trialdata": {"rt": 1037, "stimulus": "<p id='stroop-text' class='stroop-red'>RED</p>", "response": "r", "stimulus-type": "congruent", "word": "red", "color": "red", "correct_response": "r", "trial_id": "stroop-trial-1-congruent-28", "trial_type": "html-keyboard-response", "trial_index": 115, "time_elapsed": 304435, "internal_node_id": "0.0-6.0-20.0"}}, {"uniqueid": "w42323251:a39822050", "current_trial": 116, "dateTime": 1664873476307, "trialdata": {"rt": 1382, "stimulus": "<p id='stroop-text' class='stroop-yellow'>FORK</p>", "response": "y", "stimulus-type": "unrelated", "word": "FORK", "color": "yellow", "correct_response": "y", "trial_id": "stroop-trial-1-unrelated-2", "trial_type": "html-keyboard-response", "trial_index": 116, "time_elapsed": 306321, "internal_node_id": "0.0-6.0-21.0"}}, {"uniqueid": "w42323251:a39822050", "current_trial": 117, "dateTime": 1664873477623, "trialdata": {"rt": 813, "stimulus": "<p id='stroop-text' class='stroop-red'>RED</p>", "response": "r", "stimulus-type": "congruent", "word": "red", "color": "red", "correct_response": "r", "trial_id": "stroop-trial-1-congruent-19", "trial_type": "html-keyboard-response", "trial_index": 117, "time_elapsed": 307636, "internal_node_id": "0.0-6.0-22.0"}}, {"uniqueid": "w42323251:a39822050", "current_trial": 118, "dateTime": 1664873479002, "trialdata": {"rt": 876, "stimulus": "<p id='stroop-text' class='stroop-blue'>GREEN</p>", "response": "b", "stimulus-type": "incongruent", "word": "green", "color": "blue", "correct_response": "b", "trial_id": "stroop-trial-1-incongruent-7", "trial_type": "html-keyboard-response", "trial_index": 118, "time_elapsed": 309016, "internal_node_id": "0.0-6.0-23.0"}}, {"uniqueid": "w42323251:a39822050", "current_trial": 119, "dateTime": 1664873480434, "trialdata": {"rt": 927, "stimulus": "<p id='stroop-text' class='stroop-red'>GREEN</p>", "response": "r", "stimulus-type": "incongruent", "word": "green", "color": "red", "correct_response": "r", "trial_id": "stroop-trial-1-incongruent-9", "trial_type": "html-keyboard-response", "trial_index": 119, "time_elapsed": 310447, "internal_node_id": "0.0-6.0-24.0"}}, {"uniqueid": "w42323251:a39822050", "current_trial": 120, "dateTime": 1664873481743, "trialdata": {"rt": 805, "stimulus": "<p id='stroop-text' class='stroop-blue'>BLUE</p>", "response": "b", "stimulus-type": "congruent", "word": "blue", "color": "blue", "correct_response": "b", "trial_id": "stroop-trial-1-congruent-6", "trial_type": "html-keyboard-response", "trial_index": 120, "time_elapsed": 311756, "internal_node_id": "0.0-6.0-25.0"}}, {"uniqueid": "w42323251:a39822050", "current_trial": 121, "dateTime": 1664873482717, "trialdata": {"rt": 471, "stimulus": "<p id='stroop-text' class='stroop-blue'>BLUE</p>", "response": "b", "stimulus-type": "congruent", "word": "blue", "color": "blue", "correct_response": "b", "trial_id": "stroop-trial-1-congruent-8", "trial_type": "html-keyboard-response", "trial_index": 121, "time_elapsed": 312731, "internal_node_id": "0.0-6.0-26.0"}}, {"uniqueid": "w42323251:a39822050", "current_trial": 122, "dateTime": 1664873483702, "trialdata": {"rt": 484, "stimulus": "<p id='stroop-text' class='stroop-blue'>STONE</p>", "response": "b", "stimulus-type": "unrelated", "word": "STONE", "color": "blue", "correct_response": "b", "trial_id": "stroop-trial-1-unrelated-28", "trial_type": "html-keyboard-response", "trial_index": 122, "time_elapsed": 313716, "internal_node_id": "0.0-6.0-27.0"}}, {"uniqueid": "w42323251:a39822050", "current_trial": 123, "dateTime": 1664873484639, "trialdata": {"rt": 433, "stimulus": "<p id='stroop-text' class='stroop-blue'>BLUE</p>", "response": "b", "stimulus-type": "congruent", "word": "blue", "color": "blue", "correct_response": "b", "trial_id": "stroop-trial-1-congruent-2", "trial_type": "html-keyboard-response", "trial_index": 123, "time_elapsed": 314653, "internal_node_id": "0.0-6.0-28.0"}}, {"uniqueid": "w42323251:a39822050", "current_trial": 124, "dateTime": 1664873485840, "trialdata": {"rt": 696, "stimulus": "<p id='stroop-text' class='stroop-red'>RED</p>", "response": "r", "stimulus-type": "congruent", "word": "red", "color": "red", "correct_response": "r", "trial_id": "stroop-trial-1-congruent-21", "trial_type": "html-keyboard-response", "trial_index": 124, "time_elapsed": 315854, "internal_node_id": "0.0-6.0-29.0"}}, {"uniqueid": "w42323251:a39822050", "current_trial": 125, "dateTime": 1664873487436, "trialdata": {"rt": 1087, "stimulus": "<p id='stroop-text' class='stroop-green'>GREEN</p>", "response": "g", "stimulus-type": "congruent", "word": "green", "color": "green", "correct_response": "g", "trial_id": "stroop-trial-1-congruent-11", "trial_type": "html-keyboard-response", "trial_index": 125, "time_elapsed": 317450, "internal_node_id": "0.0-6.0-30.0"}}, {"uniqueid": "w42323251:a39822050", "current_trial": 126, "dateTime": 1664873488473, "trialdata": {"rt": 534, "stimulus": "<p id='stroop-text' class='stroop-green'>GREEN</p>", "response": "g", "stimulus-type": "congruent", "word": "green", "color": "green", "correct_response": "g", "trial_id": "stroop-trial-1-congruent-18", "trial_type": "html-keyboard-response", "trial_index": 126, "time_elapsed": 318487, "internal_node_id": "0.0-6.0-31.0"}}, {"uniqueid": "w42323251:a39822050", "current_trial": 127, "dateTime": 1664873490197, "trialdata": {"rt": 1221, "stimulus": "<p id='stroop-text' class='stroop-yellow'>MONKEY</p>", "response": "y", "stimulus-type": "unrelated", "word": "MONKEY", "color": "yellow", "correct_response": "y", "trial_id": "stroop-trial-1-unrelated-1", "trial_type": "html-keyboard-response", "trial_index": 127, "time_elapsed": 320211, "internal_node_id": "0.0-6.0-32.0"}}, {"uniqueid": "w42323251:a39822050", "current_trial": 128, "dateTime": 1664873491148, "trialdata": {"rt": 449, "stimulus": "<p id='stroop-text' class='stroop-yellow'>RED</p>", "response": "y", "stimulus-type": "incongruent", "word": "red", "color": "yellow", "correct_response": "y", "trial_id": "stroop-trial-1-incongruent-23", "trial_type": "html-keyboard-response", "trial_index": 128, "time_elapsed": 321161, "internal_node_id": "0.0-6.0-33.0"}}, {"uniqueid": "w42323251:a39822050", "current_trial": 129, "dateTime": 1664873492597, "trialdata": {"rt": 946, "stimulus": "<p id='stroop-text' class='stroop-red'>GREEN</p>", "response": "r", "stimulus-type": "incongruent", "word": "green", "color": "red", "correct_response": "r", "trial_id": "stroop-trial-1-incongruent-11", "trial_type": "html-keyboard-response", "trial_index": 129, "time_elapsed": 322611, "internal_node_id": "0.0-6.0-34.0"}}, {"uniqueid": "w42323251:a39822050", "current_trial": 130, "dateTime": 1664873494258, "trialdata": {"rt": 1149, "stimulus": "<p id='stroop-text' class='stroop-green'>STONE</p>", "response": "g", "stimulus-type": "unrelated", "word": "STONE", "color": "green", "correct_response": "g", "trial_id": "stroop-trial-1-unrelated-19", "trial_type": "html-keyboard-response", "trial_index": 130, "time_elapsed": 324272, "internal_node_id": "0.0-6.0-35.0"}}, {"uniqueid": "w42323251:a39822050", "current_trial": 131, "dateTime": 1664873496635, "trialdata": {"rt": 1873, "stimulus": "<p id='stroop-text' class='stroop-yellow'>WINDOW</p>", "response": "y", "stimulus-type": "unrelated", "word": "WINDOW", "color": "yellow", "correct_response": "y", "trial_id": "stroop-trial-1-unrelated-15", "trial_type": "html-keyboard-response", "trial_index": 131, "time_elapsed": 326648, "internal_node_id": "0.0-6.0-36.0"}}, {"uniqueid": "w42323251:a39822050", "current_trial": 132, "dateTime": 1664873498177, "trialdata": {"rt": 1039, "stimulus": "<p id='stroop-text' class='stroop-yellow'>BLUE</p>", "response": "y", "stimulus-type": "incongruent", "word": "blue", "color": "yellow", "correct_response": "y", "trial_id": "stroop-trial-1-incongruent-28", "trial_type": "html-keyboard-response", "trial_index": 132, "time_elapsed": 328191, "internal_node_id": "0.0-6.0-37.0"}}, {"uniqueid": "w42323251:a39822050", "current_trial": 133, "dateTime": 1664873499589, "trialdata": {"rt": 909, "stimulus": "<p id='stroop-text' class='stroop-red'>MONKEY</p>", "response": "r", "stimulus-type": "unrelated", "word": "MONKEY", "color": "red", "correct_response": "r", "trial_id": "stroop-trial-1-unrelated-7", "trial_type": "html-keyboard-response", "trial_index": 133, "time_elapsed": 329603, "internal_node_id": "0.0-6.0-38.0"}}, {"uniqueid": "w42323251:a39822050", "current_trial": 134, "dateTime": 1664873500635, "trialdata": {"rt": 542, "stimulus": "<p id='stroop-text' class='stroop-red'>RED</p>", "response": "r", "stimulus-type": "congruent", "word": "red", "color": "red", "correct_response": "r", "trial_id": "stroop-trial-1-congruent-13", "trial_type": "html-keyboard-response", "trial_index": 134, "time_elapsed": 330649, "internal_node_id": "0.0-6.0-39.0"}}, {"uniqueid": "w42323251:a39822050", "current_trial": 135, "dateTime": 1664873502125, "trialdata": {"rt": 987, "stimulus": "<p id='stroop-text' class='stroop-green'>GREEN</p>", "response": "g", "stimulus-type": "congruent", "word": "green", "color": "green", "correct_response": "g", "trial_id": "stroop-trial-1-congruent-3", "trial_type": "html-keyboard-response", "trial_index": 135, "time_elapsed": 332139, "internal_node_id": "0.0-6.0-40.0"}}, {"uniqueid": "w42323251:a39822050", "current_trial": 136, "dateTime": 1664873503577, "trialdata": {"rt": 950, "stimulus": "<p id='stroop-text' class='stroop-red'>DOG</p>", "response": "r", "stimulus-type": "unrelated", "word": "DOG", "color": "red", "correct_response": "r", "trial_id": "stroop-trial-1-unrelated-9", "trial_type": "html-keyboard-response", "trial_index": 136, "time_elapsed": 333591, "internal_node_id": "0.0-6.0-41.0"}}, {"uniqueid": "w42323251:a39822050", "current_trial": 137, "dateTime": 1664873504926, "trialdata": {"rt": 847, "stimulus": "<p id='stroop-text' class='stroop-red'>RED</p>", "response": "r", "stimulus-type": "congruent", "word": "red", "color": "red", "correct_response": "r", "trial_id": "stroop-trial-1-congruent-1", "trial_type": "html-keyboard-response", "trial_index": 137, "time_elapsed": 334939, "internal_node_id": "0.0-6.0-42.0"}}, {"uniqueid": "w42323251:a39822050", "current_trial": 138, "dateTime": 1664873506135, "trialdata": {"rt": 704, "stimulus": "<p id='stroop-text' class='stroop-blue'>BLUE</p>", "response": "b", "stimulus-type": "congruent", "word": "blue", "color": "blue", "correct_response": "b", "trial_id": "stroop-trial-1-congruent-20", "trial_type": "html-keyboard-response", "trial_index": 138, "time_elapsed": 336148, "internal_node_id": "0.0-6.0-43.0"}}, {"uniqueid": "w42323251:a39822050", "current_trial": 139, "dateTime": 1664873507109, "trialdata": {"rt": 471, "stimulus": "<p id='stroop-text' class='stroop-blue'>YELLOW</p>", "response": "b", "stimulus-type": "incongruent", "word": "yellow", "color": "blue", "correct_response": "b", "trial_id": "stroop-trial-1-incongruent-4", "trial_type": "html-keyboard-response", "trial_index": 139, "time_elapsed": 337122, "internal_node_id": "0.0-6.0-44.0"}}, {"uniqueid": "w42323251:a39822050", "current_trial": 140, "dateTime": 1664873508079, "trialdata": {"rt": 467, "stimulus": "<p id='stroop-text' class='stroop-blue'>WINDOW</p>", "response": "b", "stimulus-type": "unrelated", "word": "WINDOW", "color": "blue", "correct_response": "b", "trial_id": "stroop-trial-1-unrelated-18", "trial_type": "html-keyboard-response", "trial_index": 140, "time_elapsed": 338092, "internal_node_id": "0.0-6.0-45.0"}}, {"uniqueid": "w42323251:a39822050", "current_trial": 141, "dateTime": 1664873510178, "trialdata": {"rt": 1594, "stimulus": "<p id='stroop-text' class='stroop-green'>BRIDGE</p>", "response": "g", "stimulus-type": "unrelated", "word": "BRIDGE", "color": "green", "correct_response": "g", "trial_id": "stroop-trial-1-unrelated-17", "trial_type": "html-keyboard-response", "trial_index": 141, "time_elapsed": 340192, "internal_node_id": "0.0-6.0-46.0"}}, {"uniqueid": "w42323251:a39822050", "current_trial": 142, "dateTime": 1664873511153, "trialdata": {"rt": 457, "stimulus": "<p id='stroop-text' class='stroop-green'>GREEN</p>", "response": "g", "stimulus-type": "congruent", "word": "green", "color": "green", "correct_response": "g", "trial_id": "stroop-trial-1-congruent-4", "trial_type": "html-keyboard-response", "trial_index": 142, "time_elapsed": 341167, "internal_node_id": "0.0-6.0-47.0"}}, {"uniqueid": "w42323251:a39822050", "current_trial": 143, "dateTime": 1664873512374, "trialdata": {"rt": 718, "stimulus": "<p id='stroop-text' class='stroop-blue'>BRIDGE</p>", "response": "b", "stimulus-type": "unrelated", "word": "BRIDGE", "color": "blue", "correct_response": "b", "trial_id": "stroop-trial-1-unrelated-5", "trial_type": "html-keyboard-response", "trial_index": 143, "time_elapsed": 342388, "internal_node_id": "0.0-6.0-48.0"}}, {"uniqueid": "w42323251:a39822050", "current_trial": 144, "dateTime": 1664873513998, "trialdata": {"rt": 1120, "stimulus": "<p id='stroop-text' class='stroop-yellow'>YELLOW</p>", "response": "y", "stimulus-type": "congruent", "word": "yellow", "color": "yellow", "correct_response": "y", "trial_id": "stroop-trial-1-congruent-10", "trial_type": "html-keyboard-response", "trial_index": 144, "time_elapsed": 344011, "internal_node_id": "0.0-6.0-49.0"}}, {"uniqueid": "w42323251:a39822050", "current_trial": 145, "dateTime": 1664873515371, "trialdata": {"rt": 870, "stimulus": "<p id='stroop-text' class='stroop-green'>BRIDGE</p>", "response": "g", "stimulus-type": "unrelated", "word": "BRIDGE", "color": "green", "correct_response": "g", "trial_id": "stroop-trial-1-unrelated-27", "trial_type": "html-keyboard-response", "trial_index": 145, "time_elapsed": 345385, "internal_node_id": "0.0-6.0-50.0"}}, {"uniqueid": "w42323251:a39822050", "current_trial": 146, "dateTime": 1664873516796, "trialdata": {"rt": 922, "stimulus": "<p id='stroop-text' class='stroop-green'>WINDOW</p>", "response": "g", "stimulus-type": "unrelated", "word": "WINDOW", "color": "green", "correct_response": "g", "trial_id": "stroop-trial-1-unrelated-30", "trial_type": "html-keyboard-response", "trial_index": 146, "time_elapsed": 346810, "internal_node_id": "0.0-6.0-51.0"}}, {"uniqueid": "w42323251:a39822050", "current_trial": 147, "dateTime": 1664873518420, "trialdata": {"rt": 1120, "stimulus": "<p id='stroop-text' class='stroop-yellow'>YELLOW</p>", "response": "y", "stimulus-type": "congruent", "word": "yellow", "color": "yellow", "correct_response": "y", "trial_id": "stroop-trial-1-congruent-29", "trial_type": "html-keyboard-response", "trial_index": 147, "time_elapsed": 348434, "internal_node_id": "0.0-6.0-52.0"}}, {"uniqueid": "w42323251:a39822050", "current_trial": 148, "dateTime": 1664873519874, "trialdata": {"rt": 950, "stimulus": "<p id='stroop-text' class='stroop-red'>RED</p>", "response": "r", "stimulus-type": "congruent", "word": "red", "color": "red", "correct_response": "r", "trial_id": "stroop-trial-1-congruent-15", "trial_type": "html-keyboard-response", "trial_index": 148, "time_elapsed": 349888, "internal_node_id": "0.0-6.0-53.0"}}, {"uniqueid": "w42323251:a39822050", "current_trial": 149, "dateTime": 1664873520808, "trialdata": {"rt": 430, "stimulus": "<p id='stroop-text' class='stroop-red'>FORK</p>", "response": "r", "stimulus-type": "unrelated", "word": "FORK", "color": "red", "correct_response": "r", "trial_id": "stroop-trial-1-unrelated-29", "trial_type": "html-keyboard-response", "trial_index": 149, "time_elapsed": 350821, "internal_node_id": "0.0-6.0-54.0"}}, {"uniqueid": "w42323251:a39822050", "current_trial": 150, "dateTime": 1664873522512, "trialdata": {"rt": 1200, "stimulus": "<p id='stroop-text' class='stroop-yellow'>RED</p>", "response": "y", "stimulus-type": "incongruent", "word": "red", "color": "yellow", "correct_response": "y", "trial_id": "stroop-trial-1-incongruent-16", "trial_type": "html-keyboard-response", "trial_index": 150, "time_elapsed": 352526, "internal_node_id": "0.0-6.0-55.0"}}, {"uniqueid": "w42323251:a39822050", "current_trial": 151, "dateTime": 1664873524210, "trialdata": {"rt": 1194, "stimulus": "<p id='stroop-text' class='stroop-green'>BLUE</p>", "response": "g", "stimulus-type": "incongruent", "word": "blue", "color": "green", "correct_response": "g", "trial_id": "stroop-trial-1-incongruent-13", "trial_type": "html-keyboard-response", "trial_index": 151, "time_elapsed": 354223, "internal_node_id": "0.0-6.0-56.0"}}, {"uniqueid": "w42323251:a39822050", "current_trial": 152, "dateTime": 1664873525729, "trialdata": {"rt": 1017, "stimulus": "<p id='stroop-text' class='stroop-red'>FORK</p>", "response": "r", "stimulus-type": "unrelated", "word": "FORK", "color": "red", "correct_response": "r", "trial_id": "stroop-trial-1-unrelated-8", "trial_type": "html-keyboard-response", "trial_index": 152, "time_elapsed": 355743, "internal_node_id": "0.0-6.0-57.0"}}, {"uniqueid": "w42323251:a39822050", "current_trial": 153, "dateTime": 1664873529970, "trialdata": {"rt": 3737, "stimulus": "<p id='stroop-text' class='stroop-yellow'>BLUE</p>", "response": "y", "stimulus-type": "incongruent", "word": "blue", "color": "yellow", "correct_response": "y", "trial_id": "stroop-trial-1-incongruent-25", "trial_type": "html-keyboard-response", "trial_index": 153, "time_elapsed": 359984, "internal_node_id": "0.0-6.0-58.0"}}, {"uniqueid": "w42323251:a39822050", "current_trial": 154, "dateTime": 1664873531951, "trialdata": {"rt": 1477, "stimulus": "<p id='stroop-text' class='stroop-red'>YELLOW</p>", "response": "r", "stimulus-type": "incongruent", "word": "yellow", "color": "red", "correct_response": "r", "trial_id": "stroop-trial-1-incongruent-1", "trial_type": "html-keyboard-response", "trial_index": 154, "time_elapsed": 361964, "internal_node_id": "0.0-6.0-59.0"}}, {"uniqueid": "w42323251:a39822050", "current_trial": 155, "dateTime": 1664873532981, "trialdata": {"rt": 525, "stimulus": "<p id='stroop-text' class='stroop-red'>RED</p>", "response": "r", "stimulus-type": "congruent", "word": "red", "color": "red", "correct_response": "r", "trial_id": "stroop-trial-1-congruent-23", "trial_type": "html-keyboard-response", "trial_index": 155, "time_elapsed": 362995, "internal_node_id": "0.0-6.0-60.0"}}, {"uniqueid": "w42323251:a39822050", "current_trial": 156, "dateTime": 1664873534311, "trialdata": {"rt": 826, "stimulus": "<p id='stroop-text' class='stroop-blue'>BLUE</p>", "response": "b", "stimulus-type": "congruent", "word": "blue", "color": "blue", "correct_response": "b", "trial_id": "stroop-trial-1-congruent-22", "trial_type": "html-keyboard-response", "trial_index": 156, "time_elapsed": 364325, "internal_node_id": "0.0-6.0-61.0"}}, {"uniqueid": "w42323251:a39822050", "current_trial": 157, "dateTime": 1664873536143, "trialdata": {"rt": 1328, "stimulus": "<p id='stroop-text' class='stroop-yellow'>BLUE</p>", "response": "y", "stimulus-type": "incongruent", "word": "blue", "color": "yellow", "correct_response": "y", "trial_id": "stroop-trial-1-incongruent-8", "trial_type": "html-keyboard-response", "trial_index": 157, "time_elapsed": 366157, "internal_node_id": "0.0-6.0-62.0"}}, {"uniqueid": "w42323251:a39822050", "current_trial": 158, "dateTime": 1664873539528, "trialdata": {"rt": 2881, "stimulus": "<p id='stroop-text' class='stroop-red'>YELLOW</p>", "response": "r", "stimulus-type": "incongruent", "word": "yellow", "color": "red", "correct_response": "r", "trial_id": "stroop-trial-1-incongruent-24", "trial_type": "html-keyboard-response", "trial_index": 158, "time_elapsed": 369542, "internal_node_id": "0.0-6.0-63.0"}}, {"uniqueid": "w42323251:a39822050", "current_trial": 159, "dateTime": 1664873541594, "trialdata": {"rt": 1563, "stimulus": "<p id='stroop-text' class='stroop-green'>YELLOW</p>", "response": "g", "stimulus-type": "incongruent", "word": "yellow", "color": "green", "correct_response": "g", "trial_id": "stroop-trial-1-incongruent-30", "trial_type": "html-keyboard-response", "trial_index": 159, "time_elapsed": 371608, "internal_node_id": "0.0-6.0-64.0"}}, {"uniqueid": "w42323251:a39822050", "current_trial": 160, "dateTime": 1664873543284, "trialdata": {"rt": 1186, "stimulus": "<p id='stroop-text' class='stroop-blue'>BRIDGE</p>", "response": "b", "stimulus-type": "unrelated", "word": "BRIDGE", "color": "blue", "correct_response": "b", "trial_id": "stroop-trial-1-unrelated-6", "trial_type": "html-keyboard-response", "trial_index": 160, "time_elapsed": 373297, "internal_node_id": "0.0-6.0-65.0"}}, {"uniqueid": "w42323251:a39822050", "current_trial": 161, "dateTime": 1664873546204, "trialdata": {"rt": 2416, "stimulus": "<p id='stroop-text' class='stroop-yellow'>YELLOW</p>", "response": "y", "stimulus-type": "congruent", "word": "yellow", "color": "yellow", "correct_response": "y", "trial_id": "stroop-trial-1-congruent-9", "trial_type": "html-keyboard-response", "trial_index": 161, "time_elapsed": 376218, "internal_node_id": "0.0-6.0-66.0"}}, {"uniqueid": "w42323251:a39822050", "current_trial": 162, "dateTime": 1664873547865, "trialdata": {"rt": 1157, "stimulus": "<p id='stroop-text' class='stroop-green'>CHAIR</p>", "response": "g", "stimulus-type": "unrelated", "word": "CHAIR", "color": "green", "correct_response": "g", "trial_id": "stroop-trial-1-unrelated-26", "trial_type": "html-keyboard-response", "trial_index": 162, "time_elapsed": 377879, "internal_node_id": "0.0-6.0-67.0"}}, {"uniqueid": "w42323251:a39822050", "current_trial": 163, "dateTime": 1664873549805, "trialdata": {"rt": 1436, "stimulus": "<p id='stroop-text' class='stroop-green'>YELLOW</p>", "response": "g", "stimulus-type": "incongruent", "word": "yellow", "color": "green", "correct_response": "g", "trial_id": "stroop-trial-1-incongruent-10", "trial_type": "html-keyboard-response", "trial_index": 163, "time_elapsed": 379818, "internal_node_id": "0.0-6.0-68.0"}}, {"uniqueid": "w42323251:a39822050", "current_trial": 164, "dateTime": 1664873551124, "trialdata": {"rt": 815, "stimulus": "<p id='stroop-text' class='stroop-yellow'>SHIP</p>", "response": "y", "stimulus-type": "unrelated", "word": "SHIP", "color": "yellow", "correct_response": "y", "trial_id": "stroop-trial-1-unrelated-11", "trial_type": "html-keyboard-response", "trial_index": 164, "time_elapsed": 381138, "internal_node_id": "0.0-6.0-69.0"}}, {"uniqueid": "w42323251:a39822050", "current_trial": 165, "dateTime": 1664873553233, "trialdata": {"rt": 1606, "stimulus": "<p id='stroop-text' class='stroop-red'>BLUE</p>", "response": "r", "stimulus-type": "incongruent", "word": "blue", "color": "red", "correct_response": "r", "trial_id": "stroop-trial-1-incongruent-17", "trial_type": "html-keyboard-response", "trial_index": 165, "time_elapsed": 383247, "internal_node_id": "0.0-6.0-70.0"}}, {"uniqueid": "w42323251:a39822050", "current_trial": 166, "dateTime": 1664873554548, "trialdata": {"rt": 799, "stimulus": "<p id='stroop-text' class='stroop-blue'>DOG</p>", "response": "b", "stimulus-type": "unrelated", "word": "DOG", "color": "blue", "correct_response": "b", "trial_id": "stroop-trial-1-unrelated-25", "trial_type": "html-keyboard-response", "trial_index": 166, "time_elapsed": 384562, "internal_node_id": "0.0-6.0-71.0"}}, {"uniqueid": "w42323251:a39822050", "current_trial": 167, "dateTime": 1664873555830, "trialdata": {"rt": 771, "stimulus": "<p id='stroop-text' class='stroop-blue'>BLUE</p>", "response": "b", "stimulus-type": "congruent", "word": "blue", "color": "blue", "correct_response": "b", "trial_id": "stroop-trial-1-congruent-17", "trial_type": "html-keyboard-response", "trial_index": 167, "time_elapsed": 385844, "internal_node_id": "0.0-6.0-72.0"}}, {"uniqueid": "w42323251:a39822050", "current_trial": 168, "dateTime": 1664873557328, "trialdata": {"rt": 995, "stimulus": "<p id='stroop-text' class='stroop-green'>GREEN</p>", "response": "g", "stimulus-type": "congruent", "word": "green", "color": "green", "correct_response": "g", "trial_id": "stroop-trial-1-congruent-7", "trial_type": "html-keyboard-response", "trial_index": 168, "time_elapsed": 387342, "internal_node_id": "0.0-6.0-73.0"}}, {"uniqueid": "w42323251:a39822050", "current_trial": 169, "dateTime": 1664873558723, "trialdata": {"rt": 891, "stimulus": "<p id='stroop-text' class='stroop-blue'>RED</p>", "response": "b", "stimulus-type": "incongruent", "word": "red", "color": "blue", "correct_response": "b", "trial_id": "stroop-trial-1-incongruent-19", "trial_type": "html-keyboard-response", "trial_index": 169, "time_elapsed": 388737, "internal_node_id": "0.0-6.0-74.0"}}, {"uniqueid": "w42323251:a39822050", "current_trial": 170, "dateTime": 1664873560231, "trialdata": {"rt": 1006, "stimulus": "<p id='stroop-text' class='stroop-blue'>MONKEY</p>", "response": "b", "stimulus-type": "unrelated", "word": "MONKEY", "color": "blue", "correct_response": "b", "trial_id": "stroop-trial-1-unrelated-23", "trial_type": "html-keyboard-response", "trial_index": 170, "time_elapsed": 390245, "internal_node_id": "0.0-6.0-75.0"}}, {"uniqueid": "w42323251:a39822050", "current_trial": 171, "dateTime": 1664873561993, "trialdata": {"rt": 1259, "stimulus": "<p id='stroop-text' class='stroop-yellow'>FORK</p>", "response": "y", "stimulus-type": "unrelated", "word": "FORK", "color": "yellow", "correct_response": "y", "trial_id": "stroop-trial-1-unrelated-4", "trial_type": "html-keyboard-response", "trial_index": 171, "time_elapsed": 392007, "internal_node_id": "0.0-6.0-76.0"}}, {"uniqueid": "w42323251:a39822050", "current_trial": 172, "dateTime": 1664873564594, "trialdata": {"rt": 2097, "stimulus": "<p id='stroop-text' class='stroop-green'>BOTTLE</p>", "response": "g", "stimulus-type": "unrelated", "word": "BOTTLE", "color": "green", "correct_response": "g", "trial_id": "stroop-trial-1-unrelated-3", "trial_type": "html-keyboard-response", "trial_index": 172, "time_elapsed": 394608, "internal_node_id": "0.0-6.0-77.0"}}, {"uniqueid": "w42323251:a39822050", "current_trial": 173, "dateTime": 1664873566716, "trialdata": {"rt": 1619, "stimulus": "<p id='stroop-text' class='stroop-red'>RED</p>", "response": "r", "stimulus-type": "congruent", "word": "red", "color": "red", "correct_response": "r", "trial_id": "stroop-trial-1-congruent-26", "trial_type": "html-keyboard-response", "trial_index": 173, "time_elapsed": 396729, "internal_node_id": "0.0-6.0-78.0"}}, {"uniqueid": "w42323251:a39822050", "current_trial": 174, "dateTime": 1664873568537, "trialdata": {"rt": 1317, "stimulus": "<p id='stroop-text' class='stroop-green'>GREEN</p>", "response": "g", "stimulus-type": "congruent", "word": "green", "color": "green", "correct_response": "g", "trial_id": "stroop-trial-1-congruent-27", "trial_type": "html-keyboard-response", "trial_index": 174, "time_elapsed": 398551, "internal_node_id": "0.0-6.0-79.0"}}, {"uniqueid": "w42323251:a39822050", "current_trial": 175, "dateTime": 1664873569860, "trialdata": {"rt": 821, "stimulus": "<p id='stroop-text' class='stroop-blue'>BRAIN</p>", "response": "b", "stimulus-type": "unrelated", "word": "BRAIN", "color": "blue", "correct_response": "b", "trial_id": "stroop-trial-1-unrelated-10", "trial_type": "html-keyboard-response", "trial_index": 175, "time_elapsed": 399873, "internal_node_id": "0.0-6.0-80.0"}}, {"uniqueid": "w42323251:a39822050", "current_trial": 176, "dateTime": 1664873573458, "trialdata": {"rt": 3093, "stimulus": "<p id='stroop-text' class='stroop-green'>RED</p>", "response": "g", "stimulus-type": "incongruent", "word": "red", "color": "green", "correct_response": "g", "trial_id": "stroop-trial-1-incongruent-3", "trial_type": "html-keyboard-response", "trial_index": 176, "time_elapsed": 403471, "internal_node_id": "0.0-6.0-81.0"}}, {"uniqueid": "w42323251:a39822050", "current_trial": 177, "dateTime": 1664873575271, "trialdata": {"rt": 1310, "stimulus": "<p id='stroop-text' class='stroop-yellow'>BLUE</p>", "response": "y", "stimulus-type": "incongruent", "word": "blue", "color": "yellow", "correct_response": "y", "trial_id": "stroop-trial-1-incongruent-12", "trial_type": "html-keyboard-response", "trial_index": 177, "time_elapsed": 405285, "internal_node_id": "0.0-6.0-82.0"}}, {"uniqueid": "w42323251:a39822050", "current_trial": 178, "dateTime": 1664873581838, "trialdata": {"rt": 6063, "stimulus": "<p id='stroop-text' class='stroop-blue'>RED</p>", "response": "b", "stimulus-type": "incongruent", "word": "red", "color": "blue", "correct_response": "b", "trial_id": "stroop-trial-1-incongruent-26", "trial_type": "html-keyboard-response", "trial_index": 178, "time_elapsed": 411852, "internal_node_id": "0.0-6.0-83.0"}}, {"uniqueid": "w42323251:a39822050", "current_trial": 179, "dateTime": 1664873583557, "trialdata": {"rt": 1216, "stimulus": "<p id='stroop-text' class='stroop-green'>RED</p>", "response": "g", "stimulus-type": "incongruent", "word": "red", "color": "green", "correct_response": "g", "trial_id": "stroop-trial-1-incongruent-22", "trial_type": "html-keyboard-response", "trial_index": 179, "time_elapsed": 413571, "internal_node_id": "0.0-6.0-84.0"}}, {"uniqueid": "w42323251:a39822050", "current_trial": 180, "dateTime": 1664873584960, "trialdata": {"rt": 897, "stimulus": "<p id='stroop-text' class='stroop-red'>RED</p>", "response": "r", "stimulus-type": "congruent", "word": "red", "color": "red", "correct_response": "r", "trial_id": "stroop-trial-1-congruent-16", "trial_type": "html-keyboard-response", "trial_index": 180, "time_elapsed": 414973, "internal_node_id": "0.0-6.0-85.0"}}, {"uniqueid": "w42323251:a39822050", "current_trial": 181, "dateTime": 1664873587350, "trialdata": {"rt": 1886, "stimulus": "<p id='stroop-text' class='stroop-blue'>GREEN</p>", "response": "b", "stimulus-type": "incongruent", "word": "green", "color": "blue", "correct_response": "b", "trial_id": "stroop-trial-1-incongruent-5", "trial_type": "html-keyboard-response", "trial_index": 181, "time_elapsed": 417363, "internal_node_id": "0.0-6.0-86.0"}}, {"uniqueid": "w42323251:a39822050", "current_trial": 182, "dateTime": 1664873588714, "trialdata": {"rt": 856, "stimulus": "<p id='stroop-text' class='stroop-blue'>BLUE</p>", "response": "b", "stimulus-type": "congruent", "word": "blue", "color": "blue", "correct_response": "b", "trial_id": "stroop-trial-1-congruent-30", "trial_type": "html-keyboard-response", "trial_index": 182, "time_elapsed": 418728, "internal_node_id": "0.0-6.0-87.0"}}, {"uniqueid": "w42323251:a39822050", "current_trial": 183, "dateTime": 1664873590503, "trialdata": {"rt": 1287, "stimulus": "<p id='stroop-text' class='stroop-green'>RED</p>", "response": "g", "stimulus-type": "incongruent", "word": "red", "color": "green", "correct_response": "g", "trial_id": "stroop-trial-1-incongruent-18", "trial_type": "html-keyboard-response", "trial_index": 183, "time_elapsed": 420516, "internal_node_id": "0.0-6.0-88.0"}}, {"uniqueid": "w42323251:a39822050", "current_trial": 184, "dateTime": 1664873591676, "trialdata": {"rt": 669, "stimulus": "<p id='stroop-text' class='stroop-green'>BLUE</p>", "response": "g", "stimulus-type": "incongruent", "word": "blue", "color": "green", "correct_response": "g", "trial_id": "stroop-trial-1-incongruent-21", "trial_type": "html-keyboard-response", "trial_index": 184, "time_elapsed": 421690, "internal_node_id": "0.0-6.0-89.0"}}, {"uniqueid": "w42323251:a39822050", "current_trial": 185, "dateTime": 1664873605303, "trialdata": {"rt": 13122, "stimulus": "  <h1> End of block! </h1>\n\n  You have reached the end of the block 2/5. If you need a short break, feel free to take one now before moving on.\n\n  <br><br>\n  In the next block, you will complete another 90 rounds of this game.\n\n  <br><br>\n  <div style='text-align: center;'>Press <code>space</code> to begin.</div>\n  <br><br>\n<div style='text-align: center;'>(If the experiment doesn't continue, try clicking on the text and then pressing <code>space</code>.)</div>", "response": " ", "trial_id": "stroop_1_ready_3", "trial_type": "html-keyboard-response", "trial_index": 185, "time_elapsed": 435317, "internal_node_id": "0.0-7.0"}}, {"uniqueid": "w42323251:a39822050", "current_trial": 186, "dateTime": 1664873606825, "trialdata": {"rt": 1520, "stimulus": "<p id='stroop-text' class='stroop-yellow'>BRAIN</p>", "response": "y", "stimulus-type": "unrelated", "word": "BRAIN", "color": "yellow", "correct_response": "y", "trial_id": "stroop-trial-1-unrelated-5", "trial_type": "html-keyboard-response", "trial_index": 186, "time_elapsed": 436839, "internal_node_id": "0.0-8.0-0.0"}}, {"uniqueid": "w42323251:a39822050", "current_trial": 187, "dateTime": 1664873608733, "trialdata": {"rt": 1396, "stimulus": "<p id='stroop-text' class='stroop-green'>GREEN</p>", "response": "g", "stimulus-type": "congruent", "word": "green", "color": "green", "correct_response": "g", "trial_id": "stroop-trial-1-congruent-19", "trial_type": "html-keyboard-response", "trial_index": 187, "time_elapsed": 438747, "internal_node_id": "0.0-8.0-1.0"}}, {"uniqueid": "w42323251:a39822050", "current_trial": 188, "dateTime": 1664873610618, "trialdata": {"rt": 1382, "stimulus": "<p id='stroop-text' class='stroop-blue'>DOG</p>", "response": "b", "stimulus-type": "unrelated", "word": "DOG", "color": "blue", "correct_response": "b", "trial_id": "stroop-trial-1-unrelated-27", "trial_type": "html-keyboard-response", "trial_index": 188, "time_elapsed": 440632, "internal_node_id": "0.0-8.0-2.0"}}, {"uniqueid": "w42323251:a39822050", "current_trial": 189, "dateTime": 1664873612166, "trialdata": {"rt": 1030, "stimulus": "<p id='stroop-text' class='stroop-yellow'>YELLOW</p>", "response": "y", "stimulus-type": "congruent", "word": "yellow", "color": "yellow", "correct_response": "y", "trial_id": "stroop-trial-1-congruent-17", "trial_type": "html-keyboard-response", "trial_index": 189, "time_elapsed": 442180, "internal_node_id": "0.0-8.0-3.0"}}, {"uniqueid": "w42323251:a39822050", "current_trial": 190, "dateTime": 1664873613931, "trialdata": {"rt": 1261, "stimulus": "<p id='stroop-text' class='stroop-green'>RED</p>", "response": "g", "stimulus-type": "incongruent", "word": "red", "color": "green", "correct_response": "g", "trial_id": "stroop-trial-1-incongruent-28", "trial_type": "html-keyboard-response", "trial_index": 190, "time_elapsed": 443945, "internal_node_id": "0.0-8.0-4.0"}}, {"uniqueid": "w42323251:a39822050", "current_trial": 191, "dateTime": 1664873615320, "trialdata": {"rt": 887, "stimulus": "<p id='stroop-text' class='stroop-blue'>BOAT</p>", "response": "b", "stimulus-type": "unrelated", "word": "BOAT", "color": "blue", "correct_response": "b", "trial_id": "stroop-trial-1-unrelated-7", "trial_type": "html-keyboard-response", "trial_index": 191, "time_elapsed": 445334, "internal_node_id": "0.0-8.0-5.0"}}, {"uniqueid": "w42323251:a39822050", "current_trial": 192, "dateTime": 1664873616847, "trialdata": {"rt": 1024, "stimulus": "<p id='stroop-text' class='stroop-red'>GREEN</p>", "response": "r", "stimulus-type": "incongruent", "word": "green", "color": "red", "correct_response": "r", "trial_id": "stroop-trial-1-incongruent-15", "trial_type": "html-keyboard-response", "trial_index": 192, "time_elapsed": 446861, "internal_node_id": "0.0-8.0-6.0"}}, {"uniqueid": "w42323251:a39822050", "current_trial": 193, "dateTime": 1664873618486, "trialdata": {"rt": 1134, "stimulus": "<p id='stroop-text' class='stroop-yellow'>FORK</p>", "response": "y", "stimulus-type": "unrelated", "word": "FORK", "color": "yellow", "correct_response": "y", "trial_id": "stroop-trial-1-unrelated-13", "trial_type": "html-keyboard-response", "trial_index": 193, "time_elapsed": 448499, "internal_node_id": "0.0-8.0-7.0"}}, {"uniqueid": "w42323251:a39822050", "current_trial": 194, "dateTime": 1664873620011, "trialdata": {"rt": 1023, "stimulus": "<p id='stroop-text' class='stroop-red'>SHIP</p>", "response": "r", "stimulus-type": "unrelated", "word": "SHIP", "color": "red", "correct_response": "r", "trial_id": "stroop-trial-1-unrelated-19", "trial_type": "html-keyboard-response", "trial_index": 194, "time_elapsed": 450025, "internal_node_id": "0.0-8.0-8.0"}}, {"uniqueid": "w42323251:a39822050", "current_trial": 195, "dateTime": 1664873621506, "trialdata": {"rt": 991, "stimulus": "<p id='stroop-text' class='stroop-yellow'>GREEN</p>", "response": "y", "stimulus-type": "incongruent", "word": "green", "color": "yellow", "correct_response": "y", "trial_id": "stroop-trial-1-incongruent-21", "trial_type": "html-keyboard-response", "trial_index": 195, "time_elapsed": 451520, "internal_node_id": "0.0-8.0-9.0"}}, {"uniqueid": "w42323251:a39822050", "current_trial": 196, "dateTime": 1664873623642, "trialdata": {"rt": 1631, "stimulus": "<p id='stroop-text' class='stroop-blue'>BLUE</p>", "response": "b", "stimulus-type": "congruent", "word": "blue", "color": "blue", "correct_response": "b", "trial_id": "stroop-trial-1-congruent-22", "trial_type": "html-keyboard-response", "trial_index": 196, "time_elapsed": 453656, "internal_node_id": "0.0-8.0-10.0"}}, {"uniqueid": "w42323251:a39822050", "current_trial": 197, "dateTime": 1664873624903, "trialdata": {"rt": 757, "stimulus": "<p id='stroop-text' class='stroop-blue'>BLUE</p>", "response": "b", "stimulus-type": "congruent", "word": "blue", "color": "blue", "correct_response": "b", "trial_id": "stroop-trial-1-congruent-1", "trial_type": "html-keyboard-response", "trial_index": 197, "time_elapsed": 454917, "internal_node_id": "0.0-8.0-11.0"}}, {"uniqueid": "w42323251:a39822050", "current_trial": 198, "dateTime": 1664873626442, "trialdata": {"rt": 1034, "stimulus": "<p id='stroop-text' class='stroop-red'>RED</p>", "response": "r", "stimulus-type": "congruent", "word": "red", "color": "red", "correct_response": "r", "trial_id": "stroop-trial-1-congruent-5", "trial_type": "html-keyboard-response", "trial_index": 198, "time_elapsed": 456456, "internal_node_id": "0.0-8.0-12.0"}}, {"uniqueid": "w42323251:a39822050", "current_trial": 199, "dateTime": 1664873628296, "trialdata": {"rt": 1350, "stimulus": "<p id='stroop-text' class='stroop-yellow'>YELLOW</p>", "response": "y", "stimulus-type": "congruent", "word": "yellow", "color": "yellow", "correct_response": "y", "trial_id": "stroop-trial-1-congruent-12", "trial_type": "html-keyboard-response", "trial_index": 199, "time_elapsed": 458309, "internal_node_id": "0.0-8.0-13.0"}}, {"uniqueid": "w42323251:a39822050", "current_trial": 200, "dateTime": 1664873629767, "trialdata": {"rt": 968, "stimulus": "<p id='stroop-text' class='stroop-blue'>RED</p>", "response": "b", "stimulus-type": "incongruent", "word": "red", "color": "blue", "correct_response": "b", "trial_id": "stroop-trial-1-incongruent-14", "trial_type": "html-keyboard-response", "trial_index": 200, "time_elapsed": 459781, "internal_node_id": "0.0-8.0-14.0"}}, {"uniqueid": "w42323251:a39822050", "current_trial": 201, "dateTime": 1664873631986, "trialdata": {"rt": 1715, "stimulus": "<p id='stroop-text' class='stroop-green'>SHIP</p>", "response": "g", "stimulus-type": "unrelated", "word": "SHIP", "color": "green", "correct_response": "g", "trial_id": "stroop-trial-1-unrelated-16", "trial_type": "html-keyboard-response", "trial_index": 201, "time_elapsed": 462000, "internal_node_id": "0.0-8.0-15.0"}}, {"uniqueid": "w42323251:a39822050", "current_trial": 202, "dateTime": 1664873634213, "trialdata": {"rt": 1723, "stimulus": "<p id='stroop-text' class='stroop-red'>STONE</p>", "response": "r", "stimulus-type": "unrelated", "word": "STONE", "color": "red", "correct_response": "r", "trial_id": "stroop-trial-1-unrelated-20", "trial_type": "html-keyboard-response", "trial_index": 202, "time_elapsed": 464227, "internal_node_id": "0.0-8.0-16.0"}}, {"uniqueid": "w42323251:a39822050", "current_trial": 203, "dateTime": 1664873636199, "trialdata": {"rt": 1482, "stimulus": "<p id='stroop-text' class='stroop-yellow'>STONE</p>", "response": "y", "stimulus-type": "unrelated", "word": "STONE", "color": "yellow", "correct_response": "y", "trial_id": "stroop-trial-1-unrelated-30", "trial_type": "html-keyboard-response", "trial_index": 203, "time_elapsed": 466213, "internal_node_id": "0.0-8.0-17.0"}}, {"uniqueid": "w42323251:a39822050", "current_trial": 204, "dateTime": 1664873637931, "trialdata": {"rt": 1228, "stimulus": "<p id='stroop-text' class='stroop-green'>GREEN</p>", "response": "g", "stimulus-type": "congruent", "word": "green", "color": "green", "correct_response": "g", "trial_id": "stroop-trial-1-congruent-24", "trial_type": "html-keyboard-response", "trial_index": 204, "time_elapsed": 467944, "internal_node_id": "0.0-8.0-18.0"}}, {"uniqueid": "w42323251:a39822050", "current_trial": 205, "dateTime": 1664873639859, "trialdata": {"rt": 1425, "stimulus": "<p id='stroop-text' class='stroop-red'>RED</p>", "response": "r", "stimulus-type": "congruent", "word": "red", "color": "red", "correct_response": "r", "trial_id": "stroop-trial-1-congruent-27", "trial_type": "html-keyboard-response", "trial_index": 205, "time_elapsed": 469873, "internal_node_id": "0.0-8.0-19.0"}}, {"uniqueid": "w42323251:a39822050", "current_trial": 206, "dateTime": 1664873640824, "trialdata": {"rt": 460, "stimulus": "<p id='stroop-text' class='stroop-red'>DOG</p>", "response": "r", "stimulus-type": "unrelated", "word": "DOG", "color": "red", "correct_response": "r", "trial_id": "stroop-trial-1-unrelated-10", "trial_type": "html-keyboard-response", "trial_index": 206, "time_elapsed": 470838, "internal_node_id": "0.0-8.0-20.0"}}, {"uniqueid": "w42323251:a39822050", "current_trial": 207, "dateTime": 1664873642311, "trialdata": {"rt": 983, "stimulus": "<p id='stroop-text' class='stroop-yellow'>YELLOW</p>", "response": "y", "stimulus-type": "congruent", "word": "yellow", "color": "yellow", "correct_response": "y", "trial_id": "stroop-trial-1-congruent-14", "trial_type": "html-keyboard-response", "trial_index": 207, "time_elapsed": 472325, "internal_node_id": "0.0-8.0-21.0"}}, {"uniqueid": "w42323251:a39822050", "current_trial": 208, "dateTime": 1664873643951, "trialdata": {"rt": 1135, "stimulus": "<p id='stroop-text' class='stroop-green'>BLUE</p>", "response": "g", "stimulus-type": "incongruent", "word": "blue", "color": "green", "correct_response": "g", "trial_id": "stroop-trial-1-incongruent-5", "trial_type": "html-keyboard-response", "trial_index": 208, "time_elapsed": 473965, "internal_node_id": "0.0-8.0-22.0"}}, {"uniqueid": "w42323251:a39822050", "current_trial": 209, "dateTime": 1664873646139, "trialdata": {"rt": 1685, "stimulus": "<p id='stroop-text' class='stroop-green'>FORK</p>", "response": "g", "stimulus-type": "unrelated", "word": "FORK", "color": "green", "correct_response": "g", "trial_id": "stroop-trial-1-unrelated-1", "trial_type": "html-keyboard-response", "trial_index": 209, "time_elapsed": 476152, "internal_node_id": "0.0-8.0-23.0"}}, {"uniqueid": "w42323251:a39822050", "current_trial": 210, "dateTime": 1664873647434, "trialdata": {"rt": 791, "stimulus": "<p id='stroop-text' class='stroop-blue'>RED</p>", "response": "b", "stimulus-type": "incongruent", "word": "red", "color": "blue", "correct_response": "b", "trial_id": "stroop-trial-1-incongruent-8", "trial_type": "html-keyboard-response", "trial_index": 210, "time_elapsed": 477448, "internal_node_id": "0.0-8.0-24.0"}}, {"uniqueid": "w42323251:a39822050", "current_trial": 211, "dateTime": 1664873648396, "trialdata": {"rt": 459, "stimulus": "<p id='stroop-text' class='stroop-blue'>BLUE</p>", "response": "b", "stimulus-type": "congruent", "word": "blue", "color": "blue", "correct_response": "b", "trial_id": "stroop-trial-1-congruent-29", "trial_type": "html-keyboard-response", "trial_index": 211, "time_elapsed": 478409, "internal_node_id": "0.0-8.0-25.0"}}, {"uniqueid": "w42323251:a39822050", "current_trial": 212, "dateTime": 1664873649754, "trialdata": {"rt": 854, "stimulus": "<p id='stroop-text' class='stroop-green'>GREEN</p>", "response": "g", "stimulus-type": "congruent", "word": "green", "color": "green", "correct_response": "g", "trial_id": "stroop-trial-1-congruent-26", "trial_type": "html-keyboard-response", "trial_index": 212, "time_elapsed": 479768, "internal_node_id": "0.0-8.0-26.0"}}, {"uniqueid": "w42323251:a39822050", "current_trial": 213, "dateTime": 1664873651649, "trialdata": {"rt": 1390, "stimulus": "<p id='stroop-text' class='stroop-yellow'>RED</p>", "response": "y", "stimulus-type": "incongruent", "word": "red", "color": "yellow", "correct_response": "y", "trial_id": "stroop-trial-1-incongruent-20", "trial_type": "html-keyboard-response", "trial_index": 213, "time_elapsed": 481662, "internal_node_id": "0.0-8.0-27.0"}}, {"uniqueid": "w42323251:a39822050", "current_trial": 214, "dateTime": 1664873653945, "trialdata": {"rt": 1792, "stimulus": "<p id='stroop-text' class='stroop-red'>YELLOW</p>", "response": "r", "stimulus-type": "incongruent", "word": "yellow", "color": "red", "correct_response": "r", "trial_id": "stroop-trial-1-incongruent-2", "trial_type": "html-keyboard-response", "trial_index": 214, "time_elapsed": 483959, "internal_node_id": "0.0-8.0-28.0"}}, {"uniqueid": "w42323251:a39822050", "current_trial": 215, "dateTime": 1664873656069, "trialdata": {"rt": 1621, "stimulus": "<p id='stroop-text' class='stroop-yellow'>STONE</p>", "response": "y", "stimulus-type": "unrelated", "word": "STONE", "color": "yellow", "correct_response": "y", "trial_id": "stroop-trial-1-unrelated-12", "trial_type": "html-keyboard-response", "trial_index": 215, "time_elapsed": 486082, "internal_node_id": "0.0-8.0-29.0"}}, {"uniqueid": "w42323251:a39822050", "current_trial": 216, "dateTime": 1664873657613, "trialdata": {"rt": 1041, "stimulus": "<p id='stroop-text' class='stroop-red'>CHAIR</p>", "response": "r", "stimulus-type": "unrelated", "word": "CHAIR", "color": "red", "correct_response": "r", "trial_id": "stroop-trial-1-unrelated-25", "trial_type": "html-keyboard-response", "trial_index": 216, "time_elapsed": 487627, "internal_node_id": "0.0-8.0-30.0"}}, {"uniqueid": "w42323251:a39822050", "current_trial": 217, "dateTime": 1664873659252, "trialdata": {"rt": 1134, "stimulus": "<p id='stroop-text' class='stroop-yellow'>BLUE</p>", "response": "y", "stimulus-type": "incongruent", "word": "blue", "color": "yellow", "correct_response": "y", "trial_id": "stroop-trial-1-incongruent-16", "trial_type": "html-keyboard-response", "trial_index": 217, "time_elapsed": 489266, "internal_node_id": "0.0-8.0-31.0"}}, {"uniqueid": "w42323251:a39822050", "current_trial": 218, "dateTime": 1664873660646, "trialdata": {"rt": 890, "stimulus": "<p id='stroop-text' class='stroop-yellow'>YELLOW</p>", "response": "y", "stimulus-type": "congruent", "word": "yellow", "color": "yellow", "correct_response": "y", "trial_id": "stroop-trial-1-congruent-9", "trial_type": "html-keyboard-response", "trial_index": 218, "time_elapsed": 490659, "internal_node_id": "0.0-8.0-32.0"}}, {"uniqueid": "w42323251:a39822050", "current_trial": 219, "dateTime": 1664873661630, "trialdata": {"rt": 481, "stimulus": "<p id='stroop-text' class='stroop-yellow'>YELLOW</p>", "response": "y", "stimulus-type": "congruent", "word": "yellow", "color": "yellow", "correct_response": "y", "trial_id": "stroop-trial-1-congruent-8", "trial_type": "html-keyboard-response", "trial_index": 219, "time_elapsed": 491644, "internal_node_id": "0.0-8.0-33.0"}}, {"uniqueid": "w42323251:a39822050", "current_trial": 220, "dateTime": 1664873663295, "trialdata": {"rt": 1161, "stimulus": "<p id='stroop-text' class='stroop-red'>WINDOW</p>", "response": "r", "stimulus-type": "unrelated", "word": "WINDOW", "color": "red", "correct_response": "r", "trial_id": "stroop-trial-1-unrelated-8", "trial_type": "html-keyboard-response", "trial_index": 220, "time_elapsed": 493309, "internal_node_id": "0.0-8.0-34.0"}}, {"uniqueid": "w42323251:a39822050", "current_trial": 221, "dateTime": 1664873664417, "trialdata": {"rt": 619, "stimulus": "<p id='stroop-text' class='stroop-red'>YELLOW</p>", "response": "r", "stimulus-type": "incongruent", "word": "yellow", "color": "red", "correct_response": "r", "trial_id": "stroop-trial-1-incongruent-11", "trial_type": "html-keyboard-response", "trial_index": 221, "time_elapsed": 494431, "internal_node_id": "0.0-8.0-35.0"}}, {"uniqueid": "w42323251:a39822050", "current_trial": 222, "dateTime": 1664873665813, "trialdata": {"rt": 892, "stimulus": "<p id='stroop-text' class='stroop-blue'>BLUE</p>", "response": "b", "stimulus-type": "congruent", "word": "blue", "color": "blue", "correct_response": "b", "trial_id": "stroop-trial-1-congru