{"condition": 1, "counterbalance": 0, "assignmentId": "a90207682", "workerId": "w72929126", "hitId": "h64210178", "currenttrial": 79, "bonus": 0, "data": [{"uniqueid": "w72929126:a90207682", "current_trial": 0, "dateTime": 1664873268120, "trialdata": {"success": true, "trial_type": "fullscreen", "trial_index": 0, "time_elapsed": 4648, "internal_node_id": "0.0-0.0"}}, {"uniqueid": "w72929126:a90207682", "current_trial": 1, "dateTime": 1664873862634, "trialdata": {"view_history": [{"page_index": 0, "viewing_time": 586848}], "rt": 586852, "trial_id": "exp_instructions_no_distractor", "trial_type": "instructions", "trial_index": 1, "time_elapsed": 599164, "internal_node_id": "0.0-1.0"}}, {"uniqueid": "w72929126:a90207682", "current_trial": 2, "dateTime": 1664873866951, "trialdata": {"success": true, "trial_type": "fullscreen", "trial_index": 2, "time_elapsed": 603481, "internal_node_id": "0.0-2.0-0.0"}}, {"uniqueid": "w72929126:a90207682", "current_trial": 3, "dateTime": 1664874057348, "trialdata": {"view_history": [{"page_index": 0, "viewing_time": 75697}, {"page_index": 1, "viewing_time": 48170}, {"page_index": 2, "viewing_time": 14808}, {"page_index": 3, "viewing_time": 12177}, {"page_index": 4, "viewing_time": 39537}], "rt": 190390, "trial_id": "mouselab_instructions_1", "trial_type": "instructions", "trial_index": 3, "time_elapsed": 793878, "internal_node_id": "0.0-2.0-1.0"}}, {"uniqueid": "w72929126:a90207682", "current_trial": 4, "dateTime": 1664874120420, "trialdata": {"revealed_states": [], "num_clicks_accrued": [0, 0, 0, 0, 0, 0, 0, 0, 0, 0, 0, 0, 0], "stateRewards": ["", -10, -10, 10, -10, 10, -10, -10, -10, -10, -10, 10, 10], "withholdReward": false, "trial_id": "practice_1", "block": "test", "trialIndex": 0, "score": -11, "costs": -3, "simulationMode": [null, null, null], "rewards": [-10, -10, 10], "path": ["0", "0", "9", "10", "11"], "rt": [44817, 1787, 998], "actions": ["left", "left", "up"], "actionTimes": [48537, 50848, 52360], "queries": {"click": {"state": {"target": ["9", "5", "6", "7", "8", "10", "11", "12", "1", "2", "3", "4"], "time": [14623, 15933, 19718, 21494, 23094, 28838, 29709, 30501, 32046, 32758, 33461, 34174]}, "edge": {"target": [], "time": []}}, "mouseover": {"state": {"target": ["9", "9", "0", "5", "6", "7", "8", "10", "11", "12", "1", "2", "3", "4"], "time": [13929, 14092, 15358, 15597, 18996, 21154, 22501, 28635, 29497, 30285, 31831, 32549, 33241, 33975]}, "edge": {"target": [], "time": []}}, "mouseout": {"state": {"target": ["0", "9", "9", "0", "5", "6", "6", "7", "6", "8", "10", "10", "11", "10", "12", "9", "1", "2", "3", "2", "4", "10", "12"], "time": [13816, 13970, 15317, 15397, 16303, 20274, 21023, 21890, 22450, 23879, 29154, 29447, 29952, 30057, 31633, 31710, 32509, 33032, 33752, 33869, 34484, 35003, 35818]}, "edge": {"target": [], "time": []}}}, "displayed_time": "52.89", "trialTime": 62469, "trial_type": "mouselab-mdp", "trial_index": 4, "time_elapsed": 856948, "internal_node_id": "0.0-2.0-2.0-0.0"}}, {"uniqueid": "w72929126:a90207682", "current_trial": 5, "dateTime": 1664874145639, "trialdata": {"revealed_states": [], "num_clicks_accrued": [0, 0, 0, 0, 0, 0, 0, 0, 0, 0, 0, 0, 0], "stateRewards": ["", 10, -10, -10, -10, 10, 10, -10, 10, 10, 10, 10, -10], "withholdReward": false, "trial_id": "practice_2", "block": "test", "trialIndex": 1, "score": 29, "costs": -3, "simulationMode": [null, null, null], "rewards": [10, 10, 10], "path": ["0", "0", "9", "10", "11"], "rt": [14739, 231, 321], "actions": ["left", "left", "up"], "actionTimes": [17263, 18014, 18863], "queries": {"click": {"state": {"target": ["1", "2", "4", "3", "5", "6", "7", "8", "12", "10", "11", "9"], "time": [4717, 6325, 7109, 7980, 8597, 9070, 9493, 10082, 10997, 11421, 11892, 12397]}, "edge": {"target": [], "time": []}}, "mouseover": {"state": {"target": ["1", "2", "4", "3", "5", "6", "7", "8", "12", "10", "11", "9"], "time": [4454, 6133, 6946, 7774, 8347, 8865, 9345, 9833, 10651, 11278, 11772, 12158]}, "edge": {"target": [], "time": []}}, "mouseout": {"state": {"target": ["10", "9", "0", "1", "2", "4", "2", "3", "5", "6", "7", "6", "8", "12", "10", "11", "9", "12"], "time": [1820, 1977, 4301, 6002, 6881, 7507, 7585, 8228, 8774, 9265, 9721, 9811, 10307, 11174, 11610, 12065, 12624, 12798]}, "edge": {"target": [], "time": []}}}, "displayed_time": "19.38", "trialTime": 25047, "trial_type": "mouselab-mdp", "trial_index": 5, "time_elapsed": 882168, "internal_node_id": "0.0-2.0-2.0-1.0"}}, {"uniqueid": "w72929126:a90207682", "current_trial": 6, "dateTime": 1664874236150, "trialdata": {"view_history": [{"page_index": 0, "viewing_time": 63863}, {"page_index": 1, "viewing_time": 16280}, {"page_index": 2, "viewing_time": 10354}], "rt": 90500, "trial_id": "mouselab_instructions_2_scarce", "trial_type": "instructions", "trial_index": 6, "time_elapsed": 972680, "internal_node_id": "0.0-2.0-3.0"}}, {"uniqueid": "w72929126:a90207682", "current_trial": 7, "dateTime": 1664874282197, "trialdata": {"rt": 46037, "response": {"Q0": "$-48 to $48", "Q1": "The cost is always $0.25.", "Q2": "The better I perform the higher my bonus will be.", "Q3": "No, the amount of cash at each node of the web may be different each time.", "Q4": "The values of the nodes walked through from start to finish.", "Q5": "No, the spider might forget to count the money on some rounds."}, "question_order": [0, 1, 2, 3, 4, 5], "correct": {"Q0": "$-48 to $48", "Q1": "The cost is always $0.25.", "Q2": "The better I perform the higher my bonus will be.", "Q3": "No, the amount of cash at each node of the web may be different each time.", "Q4": "The values of the nodes walked through from start to finish.", "Q5": "No, the spider might forget to count the money on some rounds."}, "trial_id": "mouselab_quiz_scarce", "trial_type": "survey-multi-choice", "trial_index": 7, "time_elapsed": 1018727, "internal_node_id": "0.0-2.0-4.0"}}, {"uniqueid": "w72929126:a90207682", "current_trial": 8, "dateTime": 1664874299671, "trialdata": {"rt": 17452, "stimulus": "\n<h1> Get ready to start the game! </h1>\n\nThank you for reading the instructions. Get ready start with the first of 4 block(s) of this game.\n<br><br>\nIn this first block, you will complete 30 rounds of this game before moving on.\n<br><br>\nRemember, the more money the spider gets, the bigger your bonus will be!\n<br><br>\n<div style='text-align: center;'>Press <code>space</code> to begin.</div>\n\n<br><br>\n(If, at any point, the <code>space</code> key does not take you to the next page, click once on the text and try again.)", "response": " ", "trial_id": "mdp_ready_1", "trial_type": "html-keyboard-response", "trial_index": 8, "time_elapsed": 1036201, "internal_node_id": "0.0-4.0-0.0"}}, {"uniqueid": "w72929126:a90207682", "current_trial": 9, "dateTime": 1664874334861, "trialdata": {"revealed_states": [], "num_clicks_accrued": [0, 0, 0, 0, 0, 0, 0, 0, 0, 0, 0, 0, 0], "stateRewards": ["", -4, -8, 48, 48, -4, 4, 48, -24, 4, 8, -24, -48], "withholdReward": true, "trial_id": "mdp_142906093415", "block": "test1", "trialIndex": 2, "score": 50, "costs": -3, "simulationMode": [null, null, null], "rewards": [-4, 4, 48], "path": ["0", "0", "5", "6", "7"], "rt": [24409, 219, 190], "actions": ["right", "right", "up"], "actionTimes": [26992, 27728, 28439], "queries": {"click": {"state": {"target": ["9", "10", "12", "11", "1", "2", "4", "3", "5", "6", "7", "8"], "time": [5006, 6821, 8261, 9213, 11015, 12597, 13174, 13797, 14717, 15189, 15605, 16398]}, "edge": {"target": [], "time": []}}, "mouseover": {"state": {"target": ["9", "10", "12", "11", "0", "5", "1", "2", "4", "3", "5", "6", "7", "8"], "time": [4145, 5597, 7145, 8729, 10249, 10489, 10729, 12089, 12941, 13473, 14355, 15006, 15460, 15940]}, "edge": {"target": [], "time": []}}, "mouseout": {"state": {"target": ["0", "9", "10", "12", "10", "11", "10", "0", "5", "1", "1", "2", "4", "2", "3", "5", "6", "7", "6", "8"], "time": [3215, 5400, 7118, 8600, 8650, 9505, 10065, 10328, 10664, 11384, 12024, 12862, 13353, 13433, 14089, 14956, 15393, 15769, 15887, 16595]}, "edge": {"target": [], "time": []}}}, "displayed_time": "28.95", "trialTime": 35031, "trial_type": "mouselab-mdp", "trial_index": 9, "time_elapsed": 1071390, "internal_node_id": "0.0-4.0-1.0-0.0"}}, {"uniqueid": "w72929126:a90207682", "current_trial": 10, "dateTime": 1664874359253, "trialdata": {"revealed_states": [], "num_clicks_accrued": [0, 0, 0, 0, 0, 0, 0, 0, 0, 0, 0, 0, 0], "stateRewards": ["", -4, 4, -24, -24, -4, -8, 24, 48, 4, -4, 24, 48], "withholdReward": false, "trial_id": "mdp_175395325183", "block": "test1", "trialIndex": 3, "score": 52, "costs": -1, "simulationMode": [null, null, null], "rewards": [4, -4, 48], "path": ["0", "0", "9", "10", "12"], "rt": [14805, 336, 28], "actions": ["left", "left", "down"], "actionTimes": [17519, 18366, 18918], "queries": {"click": {"state": {"target": ["9", "10", "11", "12"], "time": [3853, 4428, 5282, 5891]}, "edge": {"target": [], "time": []}}, "mouseover": {"state": {"target": ["9", "10", "11", "12"], "time": [3547, 4201, 5104, 5609]}, "edge": {"target": [], "time": []}}, "mouseout": {"state": {"target": ["0", "0", "9", "10", "11", "10", "12"], "time": [1882, 3443, 4162, 5070, 5507, 5587, 14080]}, "edge": {"target": [], "time": []}}}, "displayed_time": "19.43", "trialTime": 24254, "trial_type": "mouselab-mdp", "trial_index": 10, "time_elapsed": 1095782, "internal_node_id": "0.0-4.0-1.0-1.0"}}, {"uniqueid": "w72929126:a90207682", "current_trial": 11, "dateTime": 1664874380989, "trialdata": {"revealed_states": [], "num_clicks_accrued": [0, 0, 0, 0, 0, 0, 0, 0, 0, 0, 0, 0, 0], "stateRewards": ["", 4, -4, 48, -48, -2, -8, -24, 48, -2, 4, 24, -24], "withholdReward": true, "trial_id": "mdp_507290896735", "block": "test1", "trialIndex": 4, "score": 50.5, "costs": -2.5, "simulationMode": [null, null, null], "rewards": [4, -4, 48], "path": ["0", "0", "1", "2", "3"], "rt": [15754, 136, 799], "actions": ["up", "up", "right"], "actionTimes": [17872, 18536, 19848], "queries": {"click": {"state": {"target": ["5", "6", "7", "8", "12", "11", "4", "3", "1", "2"], "time": [2990, 3751, 5381, 6230, 9662, 10532, 11421, 11971, 12814, 13317]}, "edge": {"target": [], "time": []}}, "mouseover": {"state": {"target": ["0", "5", "6", "7", "8", "10", "12", "10", "11", "4", "2", "3", "1", "2", "10"], "time": [2660, 2807, 3511, 4857, 6019, 8763, 9322, 10216, 10335, 11228, 11714, 11747, 12255, 13187, 13668]}, "edge": {"target": [], "time": []}}, "mouseout": {"state": {"target": ["10", "0", "5", "6", "5", "7", "6", "8", "10", "12", "10", "11", "4", "2", "3", "1", "2", "10"], "time": [1352, 2725, 3487, 4165, 4685, 5846, 5897, 7870, 9272, 10190, 10241, 11149, 11710, 11741, 12214, 13149, 13575, 13720]}, "edge": {"target": [], "time": []}}}, "displayed_time": "20.37", "trialTime": 21591, "trial_type": "mouselab-mdp", "trial_index": 11, "time_elapsed": 1117519, "internal_node_id": "0.0-4.0-1.0-2.0"}}, {"uniqueid": "w72929126:a90207682", "current_trial": 12, "dateTime": 1664874395567, "trialdata": {"revealed_states": [], "num_clicks_accrued": [0, 0, 0, 0, 0, 0, 0, 0, 0, 0, 0, 0, 0], "stateRewards": ["", -2, -4, 48, -24, 2, -4, -24, -48, 2, 8, -48, -24], "withholdReward": true, "trial_id": "mdp_238243948191", "block": "test1", "trialIndex": 5, "score": 45.5, "costs": -1.5, "simulationMode": [null, null, null], "rewards": [-2, -4, 48], "path": ["0", "0", "1", "2", "3"], "rt": [8252, 135, 912], "actions": ["up", "up", "right"], "actionTimes": [10551, 11198, 12623], "queries": {"click": {"state": {"target": ["11", "12", "8", "7", "3", "4"], "time": [3725, 4404, 5621, 6301, 7154, 7701]}, "edge": {"target": [], "time": []}}, "mouseover": {"state": {"target": ["9", "10", "11", "10", "12", "8", "8", "8", "6", "7", "3", "2", "4", "9"], "time": [3082, 3283, 3363, 4053, 4163, 4975, 5323, 5470, 5990, 6082, 6868, 7416, 7481, 9083]}, "edge": {"target": [], "time": []}}, "mouseout": {"state": {"target": ["0", "9", "10", "11", "10", "12", "8", "8", "8", "6", "7", "3", "2", "4", "9"], "time": [3047, 3203, 3305, 4029, 4109, 4923, 4995, 5345, 5962, 6012, 6750, 7389, 7441, 8628, 9110]}, "edge": {"target": [], "time": []}}}, "displayed_time": "13.14", "trialTime": 14415, "trial_type": "mouselab-mdp", "trial_index": 12, "time_elapsed": 1132096, "internal_node_id": "0.0-4.0-1.0-3.0"}}, {"uniqueid": "w72929126:a90207682", "current_trial": 13, "dateTime": 1664874412735, "trialdata": {"revealed_states": [], "num_clicks_accrued": [0, 0, 0, 0, 0, 0, 0, 0, 0, 0, 0, 0, 0], "stateRewards": ["", -2, -4, -48, 48, -4, 4, -48, 24, -4, -8, 24, 48], "withholdReward": true, "trial_id": "mdp_264482284450", "block": "test1", "trialIndex": 6, "score": 44.75, "costs": -2.25, "simulationMode": [null, null, null], "rewards": [-2, -4, 48], "path": ["0", "0", "1", "2", "4"], "rt": [12638, 18, 826], "actions": ["up", "up", "left"], "actionTimes": [13727, 14271, 15616], "queries": {"click": {"state": {"target": ["12", "10", "9", "8", "7", "3", "4", "2", "1"], "time": [1677, 4373, 4821, 9341, 9986, 10661, 11173, 12206, 12621]}, "edge": {"target": [], "time": []}}, "mouseover": {"state": {"target": ["0", "12", "10", "11", "10", "9", "0", "5", "6", "8", "6", "7", "3", "2", "4", "1", "2", "1"], "time": [1348, 1467, 2025, 2133, 4081, 4665, 8462, 8516, 8667, 9092, 9689, 9849, 10478, 10851, 11010, 11852, 12050, 12503]}, "edge": {"target": [], "time": []}}, "mouseout": {"state": {"target": ["0", "0", "12", "10", "11", "10", "9", "0", "5", "6", "8", "6", "7", "3", "2", "4", "1", "2", "1"], "time": [867, 1376, 1991, 2067, 3387, 4587, 8439, 8491, 8545, 8986, 9666, 9757, 10426, 10825, 10917, 11532, 11985, 12425, 12838]}, "edge": {"target": [], "time": []}}}, "displayed_time": "16.13", "trialTime": 16999, "trial_type": "mouselab-mdp", "trial_index": 13, "time_elapsed": 1149264, "internal_node_id": "0.0-4.0-1.0-4.0"}}, {"uniqueid": "w72929126:a90207682", "current_trial": 14, "dateTime": 1664874423911, "trialdata": {"revealed_states": [], "num_clicks_accrued": [0, 0, 0, 0, 0, 0, 0, 0, 0, 0, 0, 0, 0], "stateRewards": ["", 4, 8, 48, -48, -4, 8, -24, -24, -4, 8, 48, 48], "withholdReward": true, "trial_id": "mdp_377640328420", "block": "test1", "trialIndex": 7, "score": 56.25, "costs": -0.75, "simulationMode": [null, null, null], "rewards": [-4, 8, 48], "path": ["0", "0", "9", "10", "12"], "rt": [3561, 30, 22], "actions": ["left", "left", "down"], "actionTimes": [4520, 5071, 5631], "queries": {"click": {"state": {"target": ["12", "10", "9"], "time": [1819, 2637, 3093]}, "edge": {"target": [], "time": []}}, "mouseover": {"state": {"target": ["12", "10", "9"], "time": [1741, 2209, 2940]}, "edge": {"target": [], "time": []}}, "mouseout": {"state": {"target": ["0", "12", "10", "9"], "time": [1382, 2182, 2806, 3475]}, "edge": {"target": [], "time": []}}}, "displayed_time": "9.96", "trialTime": 11015, "trial_type": "mouselab-mdp", "trial_index": 14, "time_elapsed": 1160441, "internal_node_id": "0.0-4.0-1.0-5.0"}}, {"uniqueid": "w72929126:a90207682", "current_trial": 15, "dateTime": 1664874434927, "trialdata": {"revealed_states": [], "num_clicks_accrued": [0, 0, 0, 0, 0, 0, 0, 0, 0, 0, 0, 0, 0], "stateRewards": ["", 2, -4, 48, -48, 2, 4, -24, 24, -4, -8, 24, -48], "withholdReward": true, "trial_id": "mdp_238810765895", "block": "test1", "trialIndex": 8, "score": 49.75, "costs": -1.25, "simulationMode": [null, null, null], "rewards": [2, -4, 48], "path": ["0", "0", "1", "2", "3"], "rt": [5683, 78, 181], "actions": ["up", "up", "right"], "actionTimes": [6785, 7392, 8089], "queries": {"click": {"state": {"target": ["12", "11", "3", "2", "1"], "time": [1879, 2695, 4356, 5079, 5487]}, "edge": {"target": [], "time": []}}, "mouseover": {"state": {"target": ["12", "12", "10", "11", "1", "4", "3", "2", "1", "0"], "time": [1502, 1757, 2412, 2457, 3582, 3848, 4250, 4903, 5303, 6459]}, "edge": {"target": [], "time": []}}, "mouseout": {"state": {"target": ["0", "12", "12", "10", "11", "1", "4", "3", "2", "1", "0"], "time": [1465, 1521, 2383, 2431, 3275, 3635, 3981, 4809, 5246, 5730, 9048]}, "edge": {"target": [], "time": []}}}, "displayed_time": "10.10", "trialTime": 10865, "trial_type": "mouselab-mdp", "trial_index": 15, "time_elapsed": 1171457, "internal_node_id": "0.0-4.0-1.0-6.0"}}, {"uniqueid": "w72929126:a90207682", "current_trial": 16, "dateTime": 1664874445703, "trialdata": {"revealed_states": [], "num_clicks_accrued": [0, 0, 0, 0, 0, 0, 0, 0, 0, 0, 0, 0, 0], "stateRewards": ["", -2, -8, -24, -48, -2, -4, 48, -48, 4, 4, -48, 48], "withholdReward": false, "trial_id": "mdp_156977432949", "block": "test1", "trialIndex": 9, "score": 46, "costs": -1, "simulationMode": [null, null, null], "rewards": [-2, -4, 48], "path": ["0", "0", "5", "6", "7"], "rt": [4209, 73, 168], "actions": ["right", "right", "up"], "actionTimes": [5281, 5874, 6554], "queries": {"click": {"state": {"target": ["8", "7", "6", "5"], "time": [1741, 2511, 3239, 3584]}, "edge": {"target": [], "time": []}}, "mouseover": {"state": {"target": ["8", "6", "7", "6", "5"], "time": [1491, 2226, 2412, 3049, 3400]}, "edge": {"target": [], "time": []}}, "mouseout": {"state": {"target": ["0", "8", "6", "7", "6", "5"], "time": [1466, 2197, 2303, 2998, 3382, 4332]}, "edge": {"target": [], "time": []}}}, "displayed_time": "9.07", "trialTime": 10594, "trial_type": "mouselab-mdp", "trial_index": 16, "time_elapsed": 1182233, "internal_node_id": "0.0-4.0-1.0-7.0"}}, {"uniqueid": "w72929126:a90207682", "current_trial": 17, "dateTime": 1664874458167, "trialdata": {"revealed_states": [], "num_clicks_accrued": [0, 0, 0, 0, 0, 0, 0, 0, 0, 0, 0, 0, 0], "stateRewards": ["", 2, 8, -48, 24, -4, 8, 48, -24, 2, 8, 24, 24], "withholdReward": true, "trial_id": "mdp_175372499314", "block": "test1", "trialIndex": 10, "score": 55.5, "costs": -1.5, "simulationMode": [null, null, null], "rewards": [-4, 8, 48], "path": ["0", "0", "5", "6", "7"], "rt": [8581, 19, 50], "actions": ["right", "right", "up"], "actionTimes": [9744, 10287, 10855], "queries": {"click": {"state": {"target": ["11", "12", "8", "7", "5", "6"], "time": [2172, 3725, 6212, 6957, 7810, 8181]}, "edge": {"target": [], "time": []}}, "mouseover": {"state": {"target": ["9", "11", "10", "12", "8", "6", "7", "5", "6"], "time": [1792, 1988, 2506, 2671, 5628, 6667, 6827, 7589, 8004]}, "edge": {"target": [], "time": []}}, "mouseout": {"state": {"target": ["0", "9", "11", "10", "12", "8", "6", "7", "5", "6"], "time": [1764, 1842, 2482, 2550, 4628, 6642, 6721, 7294, 7986, 8893]}, "edge": {"target": [], "time": []}}}, "displayed_time": "11.37", "trialTime": 12254, "trial_type": "mouselab-mdp", "trial_index": 17, "time_elapsed": 1194697, "internal_node_id": "0.0-4.0-1.0-8.0"}}, {"uniqueid": "w72929126:a90207682", "current_trial": 18, "dateTime": 1664874469504, "trialdata": {"revealed_states": [], "num_clicks_accrued": [0, 0, 0, 0, 0, 0, 0, 0, 0, 0, 0, 0, 0], "stateRewards": ["", 2, 4, 48, -24, 2, -8, -24, -24, 2, -8, -24, -48], "withholdReward": true, "trial_id": "mdp_274832552938", "block": "test1", "trialIndex": 11, "score": 57.75, "costs": -1.25, "simulationMode": [null, null, null], "rewards": [2, 4, 48], "path": ["0", "0", "1", "2", "3"], "rt": [5174, 122, 779], "actions": ["up", "up", "right"], "actionTimes": [7488, 8135, 9439], "queries": {"click": {"state": {"target": ["11", "12", "3", "2", "1"], "time": [3277, 4069, 5293, 6094, 6501]}, "edge": {"target": [], "time": []}}, "mouseover": {"state": {"target": ["9", "11", "10", "12", "5", "3", "2", "1", "0"], "time": [2822, 3030, 3751, 3797, 4896, 5137, 5819, 6347, 7000]}, "edge": {"target": [], "time": []}}, "mouseout": {"state": {"target": ["0", "9", "11", "10", "12", "5", "3", "2", "1", "0"], "time": [2802, 2843, 3723, 3770, 4643, 4927, 5792, 6283, 6789, 7018]}, "edge": {"target": [], "time": []}}}, "displayed_time": "10.31", "trialTime": 11143, "trial_type": "mouselab-mdp", "trial_index": 18, "time_elapsed": 1206034, "internal_node_id": "0.0-4.0-1.0-9.0"}}, {"uniqueid": "w72929126:a90207682", "current_trial": 19, "dateTime": 1664874484009, "trialdata": {"revealed_states": [], "num_clicks_accrued": [0, 0, 0, 0, 0, 0, 0, 0, 0, 0, 0, 0, 0], "stateRewards": ["", -2, 8, -24, 24, -4, -8, -24, 48, -2, -8, -48, 48], "withholdReward": true, "trial_id": "mdp_238332601315", "block": "test1", "trialIndex": 12, "score": 40.75, "costs": -2.25, "simulationMode": [null, null, null], "rewards": [-2, -8, 48], "path": ["0", "0", "9", "10", "12"], "rt": [9149, 46, 556], "actions": ["left", "left", "down"], "actionTimes": [10356, 10931, 12004], "queries": {"click": {"state": {"target": ["12", "10", "9", "3", "4", "7", "8", "6", "5"], "time": [2177, 3118, 3896, 4993, 5681, 6520, 7097, 7856, 8177]}, "edge": {"target": [], "time": []}}, "mouseover": {"state": {"target": ["0", "12", "10", "11", "10", "9", "1", "2", "3", "2", "4", "5", "7", "6", "8", "6", "5"], "time": [1536, 2044, 2636, 2766, 2950, 3753, 4460, 4632, 4818, 5343, 5524, 6191, 6378, 6751, 6831, 7726, 8022]}, "edge": {"target": [], "time": []}}, "mouseout": {"state": {"target": ["0", "0", "12", "10", "11", "10", "9", "1", "2", "3", "2", "4", "5", "7", "6", "8", "6", "5"], "time": [952, 1568, 2608, 2686, 2915, 3273, 4394, 4552, 4779, 5315, 5392, 6073, 6270, 6713, 6791, 7675, 8004, 8540]}, "edge": {"target": [], "time": []}}}, "displayed_time": "12.52", "trialTime": 14283, "trial_type": "mouselab-mdp", "trial_index": 19, "time_elapsed": 1220538, "internal_node_id": "0.0-4.0-1.0-10.0"}}, {"uniqueid": "w72929126:a90207682", "current_trial": 20, "dateTime": 1664874493362, "trialdata": {"revealed_states": [], "num_clicks_accrued": [0, 0, 0, 0, 0, 0, 0, 0, 0, 0, 0, 0, 0], "stateRewards": ["", 4, -4, 48, -48, -4, -4, 48, -48, 4, 4, -48, -24], "withholdReward": false, "trial_id": "mdp_490058671112", "block": "test1", "trialIndex": 13, "score": 51.75, "costs": -1.25, "simulationMode": [null, null, null], "rewards": [4, -4, 48], "path": ["0", "0", "1", "2", "3"], "rt": [5152, 814, 11], "actions": ["up", "up", "right"], "actionTimes": [6146, 7474, 8011], "queries": {"click": {"state": {"target": ["11", "12", "3", "2", "1"], "time": [1680, 2592, 3568, 4301, 4672]}, "edge": {"target": [], "time": []}}, "mouseover": {"state": {"target": ["9", "10", "11", "10", "12", "0", "3", "2", "1", "5"], "time": [1348, 1396, 1532, 2286, 2341, 3227, 3399, 4199, 4492, 5078]}, "edge": {"target": [], "time": []}}, "mouseout": {"state": {"target": ["0", "9", "10", "11", "10", "12", "0", "3", "2", "1", "5"], "time": [1323, 1374, 1452, 2266, 2319, 3149, 3247, 3999, 4452, 5000, 5720]}, "edge": {"target": [], "time": []}}}, "displayed_time": "8.99", "trialTime": 9154, "trial_type": "mouselab-mdp", "trial_index": 20, "time_elapsed": 1229891, "internal_node_id": "0.0-4.0-1.0-11.0"}}, {"uniqueid": "w72929126:a90207682", "current_trial": 21, "dateTime": 1664874511169, "trialdata": {"revealed_states": [], "num_clicks_accrued": [0, 0, 0, 0, 0, 0, 0, 0, 0, 0, 0, 0, 0], "stateRewards": ["", -4, 8, -48, -48, -2, -8, -24, -48, 2, -4, -48, 24], "withholdReward": true, "trial_id": "mdp_743906784415", "block": "test1", "trialIndex": 14, "score": 25.5, "costs": -1.5, "simulationMode": [null, null, null], "rewards": [2, -4, 24], "path": ["0", "0", "9", "10", "12"], "rt": [11997, 101, 108], "actions": ["left", "left", "down"], "actionTimes": [14987, 15625, 16257], "queries": {"click": {"state": {"target": ["11", "12", "7", "8", "3", "4"], "time": [3800, 4655, 5727, 6431, 7445, 8095]}, "edge": {"target": [], "time": []}}, "mouseover": {"state": {"target": ["11", "10", "12", "8", "6", "7", "6", "8", "5", "3", "2", "4", "9", "10"], "time": [3639, 4294, 4333, 5343, 5435, 5528, 6130, 6222, 7072, 7289, 7763, 7955, 10741, 12261]}, "edge": {"target": [], "time": []}}, "mouseout": {"state": {"target": ["0", "11", "10", "12", "8", "6", "7", "6", "8", "5", "3", "2", "4", "9", "10"], "time": [3374, 4265, 4313, 5225, 5395, 5475, 6103, 6169, 7037, 7095, 7742, 7808, 10583, 12128, 12621]}, "edge": {"target": [], "time": []}}}, "displayed_time": "16.78", "trialTime": 17617, "trial_type": "mouselab-mdp", "trial_index": 21, "time_elapsed": 1247699, "internal_node_id": "0.0-4.0-1.0-12.0"}}, {"uniqueid": "w72929126:a90207682", "current_trial": 22, "dateTime": 1664874526059, "trialdata": {"revealed_states": [], "num_clicks_accrued": [0, 0, 0, 0, 0, 0, 0, 0, 0, 0, 0, 0, 0], "stateRewards": ["", 2, 4, -24, -48, 4, -4, 24, 48, -4, -4, -24, 48], "withholdReward": true, "trial_id": "mdp_181958792175", "block": "test1", "trialIndex": 15, "score": 44, "costs": -1, "simulationMode": [null, null, null], "rewards": [-4, -4, 48], "path": ["0", "0", "9", "10", "12"], "rt": [9864, 1104, 61], "actions": ["left", "left", "down"], "actionTimes": [10720, 12336, 12920], "queries": {"click": {"state": {"target": ["11", "12", "9", "10"], "time": [1587, 2293, 3086, 3515]}, "edge": {"target": [], "time": []}}, "mouseover": {"state": {"target": ["9", "11", "10", "12", "9", "10"], "time": [1218, 1378, 1981, 2044, 2937, 3310]}, "edge": {"target": [], "time": []}}, "mouseout": {"state": {"target": ["0", "9", "11", "10", "12", "9", "10", "12"], "time": [1192, 1299, 1953, 2007, 2873, 3270, 3873, 8710]}, "edge": {"target": [], "time": []}}}, "displayed_time": "13.43", "trialTime": 14640, "trial_type": "mouselab-mdp", "trial_index": 22, "time_elapsed": 1262588, "internal_node_id": "0.0-4.0-1.0-13.0"}}, {"uniqueid": "w72929126:a90207682", "current_trial": 23, "dateTime": 1664874540859, "trialdata": {"revealed_states": [], "num_clicks_accrued": [0, 0, 0, 0, 0, 0, 0, 0, 0, 0, 0, 0, 0], "stateRewards": ["", -2, -8, 48, 24, 4, -8, 24, 48, 4, -4, 24, -48], "withholdReward": true, "trial_id": "mdp_871576155740", "block": "test1", "trialIndex": 16, "score": 41, "costs": -2, "simulationMode": [null, null, null], "rewards": [-2, -8, 48], "path": ["0", "0", "1", "2", "3"], "rt": [10359, 795, 164], "actions": ["up", "up", "right"], "actionTimes": [11464, 12775, 13456], "queries": {"click": {"state": {"target": ["12", "11", "4", "3", "1", "2", "6", "5"], "time": [1686, 2902, 3783, 4435, 5317, 5702, 7022, 7651]}, "edge": {"target": [], "time": []}}, "mouseover": {"state": {"target": ["12", "11", "10", "4", "3", "1", "2", "7", "6", "5"], "time": [1447, 2769, 3223, 3621, 4234, 5143, 5567, 6526, 6720, 7366]}, "edge": {"target": [], "time": []}}, "mouseout": {"state": {"target": ["0", "12", "11", "10", "4", "3", "1", "2", "1", "7", "6", "5"], "time": [1370, 2038, 3195, 3515, 4156, 4743, 5499, 6102, 6326, 6689, 7301, 8087]}, "edge": {"target": [], "time": []}}}, "displayed_time": "13.98", "trialTime": 14583, "trial_type": "mouselab-mdp", "trial_index": 23, "time_elapsed": 1277388, "internal_node_id": "0.0-4.0-1.0-14.0"}}, {"uniqueid": "w72929126:a90207682", "current_trial": 24, "dateTime": 1664874553227, "trialdata": {"revealed_states": [], "num_clicks_accrued": [0, 0, 0, 0, 0, 0, 0, 0, 0, 0, 0, 0, 0], "stateRewards": ["", -2, -8, 24, -24, 4, -8, 48, 48, -4, -8, -24, -48], "withholdReward": true, "trial_id": "mdp_286767261523", "block": "test1", "trialIndex": 17, "score": 47.5, "costs": -1.5, "simulationMode": [null, null, null], "rewards": [4, -8, 48], "path": ["0", "0", "5", "6", "7"], "rt": [8376, 54, 206], "actions": ["right", "right", "up"], "actionTimes": [9517, 10093, 10813], "queries": {"click": {"state": {"target": ["11", "12", "3", "4", "7", "8"], "time": [2139, 2779, 4112, 4787, 5528, 6467]}, "edge": {"target": [], "time": []}}, "mouseover": {"state": {"target": ["9", "11", "10", "12", "8", "6", "7", "3", "2", "4", "7", "6", "8", "8"], "time": [1756, 1994, 2492, 2514, 3525, 3633, 3767, 3953, 4557, 4601, 5420, 5761, 5825, 6261]}, "edge": {"target": [], "time": []}}, "mouseout": {"state": {"target": ["0", "0", "0", "9", "11", "10", "12", "8", "6", "7", "3", "2", "4", "7", "6", "8", "8"], "time": [514, 688, 1677, 1807, 2462, 2512, 3353, 3544, 3726, 3785, 4528, 4579, 5182, 5739, 5806, 5911, 6848]}, "edge": {"target": [], "time": []}}}, "displayed_time": "11.34", "trialTime": 12156, "trial_type": "mouselab-mdp", "trial_index": 24, "time_elapsed": 1289757, "internal_node_id": "0.0-4.0-1.0-15.0"}}, {"uniqueid": "w72929126:a90207682", "current_trial": 25, "dateTime": 1664874566444, "trialdata": {"revealed_states": [], "num_clicks_accrued": [0, 0, 0, 0, 0, 0, 0, 0, 0, 0, 0, 0, 0], "stateRewards": ["", 2, 8, 24, -48, 4, 8, 24, 48, 2, -8, -24, 24], "withholdReward": false, "trial_id": "mdp_939899431582", "block": "test1", "trialIndex": 18, "score": 63.5, "costs": -1.5, "simulationMode": [null, null, null], "rewards": [4, 8, 48], "path": ["0", "0", "5", "6", "8"], "rt": [5552, 74, 166], "actions": ["right", "right", "down"], "actionTimes": [6644, 7244, 7940], "queries": {"click": {"state": {"target": ["11", "12", "4", "3", "7", "8"], "time": [1832, 2346, 3158, 3770, 4419, 5009]}, "edge": {"target": [], "time": []}}, "mouseover": {"state": {"target": ["10", "11", "10", "12", "4", "2", "3", "7", "6", "8", "5"], "time": [1561, 1694, 2116, 2158, 2961, 3409, 3455, 4239, 4627, 4751, 5786]}, "edge": {"target": [], "time": []}}, "mouseout": {"state": {"target": ["0", "10", "11", "10", "12", "4", "2", "3", "7", "6", "8", "5"], "time": [1484, 1601, 2084, 2136, 2842, 3386, 3436, 4190, 4587, 4680, 5708, 6068]}, "edge": {"target": [], "time": []}}}, "displayed_time": "10.09", "trialTime": 13013, "trial_type": "mouselab-mdp", "trial_index": 25, "time_elapsed": 1302974, "internal_node_id": "0.0-4.0-1.0-16.0"}}, {"uniqueid": "w72929126:a90207682", "current_trial": 26, "dateTime": 1664874576628, "trialdata": {"revealed_states": [], "num_clicks_accrued": [0, 0, 0, 0, 0, 0, 0, 0, 0, 0, 0, 0, 0], "stateRewards": ["", -2, 8, -48, 48, -4, -8, 24, 24, -2, -4, 48, -48], "withholdReward": true, "trial_id": "mdp_867247318592", "block": "test1", "trialIndex": 19, "score": 46.5, "costs": -0.5, "simulationMode": [null, null, null], "rewards": [-2, -4, 48], "path": ["0", "0", "9", "10", "11"], "rt": [4015, 29, 15], "actions": ["left", "left", "up"], "actionTimes": [5164, 5708, 6236], "queries": {"click": {"state": {"target": ["12", "11"], "time": [1907, 2683]}, "edge": {"target": [], "time": []}}, "mouseover": {"state": {"target": ["12", "10", "11", "9"], "time": [1810, 2440, 2516, 4661]}, "edge": {"target": [], "time": []}}, "mouseout": {"state": {"target": ["0", "12", "10", "11", "9"], "time": [1599, 2410, 2464, 4529, 4680]}, "edge": {"target": [], "time": []}}}, "displayed_time": "9.15", "trialTime": 9957, "trial_type": "mouselab-mdp", "trial_index": 26, "time_elapsed": 1313158, "internal_node_id": "0.0-4.0-1.0-17.0"}}, {"uniqueid": "w72929126:a90207682", "current_trial": 27, "dateTime": 1664874587333, "trialdata": {"revealed_states": [], "num_clicks_accrued": [0, 0, 0, 0, 0, 0, 0, 0, 0, 0, 0, 0, 0], "stateRewards": ["", -4, 8, 48, -48, 2, -4, 24, -24, -2, 4, -24, -24], "withholdReward": false, "trial_id": "mdp_804988042722", "block": "test1", "trialIndex": 20, "score": 55.5, "costs": -1.5, "simulationMode": [null, null, null], "rewards": [-4, 8, 48], "path": ["0", "0", "1", "2", "3"], "rt": [6052, 55, 200], "actions": ["up", "up", "right"], "actionTimes": [7155, 7739, 8459], "queries": {"click": {"state": {"target": ["11", "12", "3", "4", "7", "8"], "time": [1721, 2305, 3400, 4009, 4705, 5185]}, "edge": {"target": [], "time": []}}, "mouseover": {"state": {"target": ["9", "10", "11", "10", "12", "0", "1", "3", "2", "4", "5", "6", "7", "6", "8", "5", "2"], "time": [1317, 1413, 1601, 2045, 2093, 3040, 3093, 3239, 3773, 3839, 4346, 4439, 4626, 4877, 4985, 5720, 6159]}, "edge": {"target": [], "time": []}}, "mouseout": {"state": {"target": ["0", "9", "10", "11", "10", "12", "0", "1", "3", "2", "4", "5", "6", "7", "6", "8", "5", "3", "2"], "time": [1294, 1335, 1493, 2015, 2068, 2869, 3059, 3117, 3748, 3795, 4280, 4366, 4545, 4853, 4945, 5694, 5759, 6016, 6320]}, "edge": {"target": [], "time": []}}}, "displayed_time": "9.10", "trialTime": 10483, "trial_type": "mouselab-mdp", "trial_index": 27, "time_elapsed": 1323863, "internal_node_id": "0.0-4.0-1.0-18.0"}}, {"uniqueid": "w72929126:a90207682", "current_trial": 28, "dateTime": 1664874598141, "trialdata": {"revealed_states": [], "num_clicks_accrued": [0, 0, 0, 0, 0, 0, 0, 0, 0, 0, 0, 0, 0], "stateRewards": ["", 4, 4, -48, -24, -2, -4, 48, 24, -4, 4, 24, -48], "withholdReward": true, "trial_id": "mdp_617383046444", "block": "test1", "trialIndex": 21, "score": 45.5, "costs": -1.5, "simulationMode": [null, null, null], "rewards": [-2, -4, 48], "path": ["0", "0", "5", "6", "7"], "rt": [5834, 1016, 30], "actions": ["right", "right", "up"], "actionTimes": [6764, 8309, 8869], "queries": {"click": {"state": {"target": ["11", "12", "4", "3", "7", "8"], "time": [2163, 2786, 3666, 4290, 4898, 5562]}, "edge": {"target": [], "time": []}}, "mouseover": {"state": {"target": ["0", "10", "11", "10", "12", "9", "4", "2", "3", "7", "6", "8"], "time": [1322, 1747, 2000, 2547, 2599, 3337, 3519, 3999, 4079, 4760, 5247, 5345]}, "edge": {"target": [], "time": []}}, "mouseout": {"state": {"target": ["0", "0", "10", "11", "10", "12", "9", "4", "2", "3", "7", "6", "8"], "time": [708, 1349, 1959, 2520, 2566, 3318, 3356, 3948, 4052, 4519, 5225, 5292, 6267]}, "edge": {"target": [], "time": []}}}, "displayed_time": "9.93", "trialTime": 10588, "trial_type": "mouselab-mdp", "trial_index": 28, "time_elapsed": 1334671, "internal_node_id": "0.0-4.0-1.0-19.0"}}, {"uniqueid": "w72929126:a90207682", "current_trial": 29, "dateTime": 1664874610134, "trialdata": {"revealed_states": [], "num_clicks_accrued": [0, 0, 0, 0, 0, 0, 0, 0, 0, 0, 0, 0, 0], "stateRewards": ["", -2, -4, -24, 48, -4, 8, 48, 48, 2, 8, -48, -24], "withholdReward": true, "trial_id": "mdp_136376573354", "block": "test1", "trialIndex": 22, "score": 56.75, "costs": -0.25, "simulationMode": [null, null, null], "rewards": [-4, 8, 48], "path": ["0", "0", "5", "6", "7"], "rt": [2699, 649, 470], "actions": ["right", "right", "up"], "actionTimes": [3731, 4899, 5882], "queries": {"click": {"state": {"target": ["7"], "time": [1937]}, "edge": {"target": [], "time": []}}, "mouseover": {"state": {"target": ["5", "7", "6"], "time": [1643, 1754, 2526]}, "edge": {"target": [], "time": []}}, "mouseout": {"state": {"target": ["0", "5", "7", "6"], "time": [1607, 1669, 2382, 2688]}, "edge": {"target": [], "time": []}}}, "displayed_time": "11.03", "trialTime": 11779, "trial_type": "mouselab-mdp", "trial_index": 29, "time_elapsed": 1346664, "internal_node_id": "0.0-4.0-1.0-20.0"}}, {"uniqueid": "w72929126:a90207682", "current_trial": 30, "dateTime": 1664874620054, "trialdata": {"revealed_states": [], "num_clicks_accrued": [0, 0, 0, 0, 0, 0, 0, 0, 0, 0, 0, 0, 0], "stateRewards": ["", 4, 4, 24, -24, -4, -8, 48, -24, 4, 4, 48, 24], "withholdReward": true, "trial_id": "mdp_822446942217", "block": "test1", "trialIndex": 23, "score": 40.75, "costs": -0.25, "simulationMode": [null, null, null], "rewards": [-4, -8, 48], "path": ["0", "0", "5", "6", "7"], "rt": [2055, 122, 14], "actions": ["right", "right", "up"], "actionTimes": [2868, 3500, 4044], "queries": {"click": {"state": {"target": ["7"], "time": [1410]}, "edge": {"target": [], "time": []}}, "mouseover": {"state": {"target": ["6", "7", "6"], "time": [1120, 1307, 2107]}, "edge": {"target": [], "time": []}}, "mouseout": {"state": {"target": ["0", "6", "7", "6"], "time": [1069, 1201, 2041, 2128]}, "edge": {"target": [], "time": []}}}, "displayed_time": "8.81", "trialTime": 9724, "trial_type": "mouselab-mdp", "trial_index": 30, "time_elapsed": 1356584, "internal_node_id": "0.0-4.0-1.0-21.0"}}, {"uniqueid": "w72929126:a90207682", "current_trial": 31, "dateTime": 1664874630878, "trialdata": {"revealed_states": [], "num_clicks_accrued": [0, 0, 0, 0, 0, 0, 0, 0, 0, 0, 0, 0, 0], "stateRewards": ["", 2, -4, 24, -24, 2, -8, 48, 48, 4, -4, 24, 48], "withholdReward": true, "trial_id": "mdp_947836623875", "block": "test1", "trialIndex": 24, "score": 46.75, "costs": -0.25, "simulationMode": [null, null, null], "rewards": [2, -8, 48], "path": ["0", "0", "5", "6", "7"], "rt": [1919, 42, 12], "actions": ["right", "right", "up"], "actionTimes": [2991, 3559, 4099], "queries": {"click": {"state": {"target": ["7"], "time": [1709]}, "edge": {"target": [], "time": []}}, "mouseover": {"state": {"target": ["5", "7", "6", "8"], "time": [1385, 1573, 2333, 2532]}, "edge": {"target": [], "time": []}}, "mouseout": {"state": {"target": ["0", "5", "7", "6", "8"], "time": [1363, 1425, 2279, 2439, 6438]}, "edge": {"target": [], "time": []}}}, "displayed_time": "10.07", "trialTime": 10591, "trial_type": "mouselab-mdp", "trial_index": 31, "time_elapsed": 1367407, "internal_node_id": "0.0-4.0-1.0-22.0"}}, {"uniqueid": "w72929126:a90207682", "current_trial": 32, "dateTime": 1664874641734, "trialdata": {"revealed_states": [], "num_clicks_accrued": [0, 0, 0, 0, 0, 0, 0, 0, 0, 0, 0, 0, 0], "stateRewards": ["", 4, -8, -48, 48, -2, 8, -48, 48, -2, -4, 24, -48], "withholdReward": true, "trial_id": "mdp_400558136089", "block": "test1", "trialIndex": 25, "score": 58, "costs": -1, "simulationMode": [null, null, null], "rewards": [-2, 8, 48], "path": ["0", "0", "5", "6", "8"], "rt": [4657, 548, 152], "actions": ["right", "right", "down"], "actionTimes": [5805, 6869, 7549], "queries": {"click": {"state": {"target": ["7", "8", "5", "6"], "time": [1817, 3497, 4185, 4548]}, "edge": {"target": [], "time": []}}, "mouseover": {"state": {"target": ["0", "5", "7", "5", "9", "10", "8", "5", "6"], "time": [1530, 1575, 1639, 2375, 2815, 2849, 3388, 4053, 4383]}, "edge": {"target": [], "time": []}}, "mouseout": {"state": {"target": ["0", "0", "5", "7", "5", "9", "10", "8", "5", "6"], "time": [575, 1556, 1597, 2308, 2520, 2844, 3038, 3920, 4348, 5254]}, "edge": {"target": [], "time": []}}}, "displayed_time": "10.15", "trialTime": 10612, "trial_type": "mouselab-mdp", "trial_index": 32, "time_elapsed": 1378263, "internal_node_id": "0.0-4.0-1.0-23.0"}}, {"uniqueid": "w72929126:a90207682", "current_trial": 33, "dateTime": 1664874659783, "trialdata": {"revealed_states": [], "num_clicks_accrued": [0, 0, 0, 0, 0, 0, 0, 0, 0, 0, 0, 0, 0], "stateRewards": ["", -4, 8, 24, -24, 4, 8, -24, -48, 2, 4, 24, -24], "withholdReward": false, "trial_id": "mdp_782187007008", "block": "test1", "trialIndex": 26, "score": 33.5, "costs": -1.5, "simulationMode": [null, null, null], "rewards": [2, 4, 24], "path": ["0", "0", "9", "10", "11"], "rt": [11954, 38, 95], "actions": ["left", "left", "up"], "actionTimes": [13174, 13733, 14341], "queries": {"click": {"state": {"target": ["12", "3", "7", "8", "11", "4"], "time": [1892, 3163, 3987, 4675, 5706, 6499]}, "edge": {"target": [], "time": []}}, "mouseover": {"state": {"target": ["12", "10", "11", "4", "2", "3", "7", "6", "8", "9", "10", "11", "4", "9"], "time": [1676, 2374, 2555, 2822, 2912, 2973, 3794, 4357, 4487, 5247, 5306, 5487, 6394, 12433]}, "edge": {"target": [], "time": []}}, "mouseout": {"state": {"target": ["0", "12", "10", "11", "4", "2", "3", "7", "6", "8", "9", "10", "11", "4", "9"], "time": [1598, 2344, 2409, 2649, 2889, 2955, 3543, 4330, 4421, 5169, 5287, 5341, 6008, 9540, 12565]}, "edge": {"target": [], "time": []}}}, "displayed_time": "14.85", "trialTime": 17821, "trial_type": "mouselab-mdp", "trial_index": 33, "time_elapsed": 1396313, "internal_node_id": "0.0-4.0-1.0-24.0"}}, {"uniqueid": "w72929126:a90207682", "current_trial": 34, "dateTime": 1664874675439, "trialdata": {"revealed_states": [], "num_clicks_accrued": [0, 0, 0, 0, 0, 0, 0, 0, 0, 0, 0, 0, 0], "stateRewards": ["", 4, 4, -24, -48, 2, 4, 24, -48, 2, 4, 24, 24], "withholdReward": true, "trial_id": "mdp_223558518218", "block": "test1", "trialIndex": 27, "score": 33.5, "costs": -1.5, "simulationMode": [null, null, null], "rewards": [2, 4, 24], "path": ["0", "0", "9", "10", "12"], "rt": [10131, 725, 1155], "actions": ["left", "left", "down"], "actionTimes": [11096, 12336, 14025], "queries": {"click": {"state": {"target": ["11", "12", "3", "4", "7", "8"], "time": [1836, 2597, 3421, 4086, 5198, 5787]}, "edge": {"target": [], "time": []}}, "mouseover": {"state": {"target": ["9", "11", "10", "12", "3", "2", "4", "1", "7", "6", "8"], "time": [1504, 1744, 2201, 2395, 3289, 3702, 3902, 4851, 5088, 5403, 5540]}, "edge": {"target": [], "time": []}}, "mouseout": {"state": {"target": ["9", "0", "9", "11", "10", "12", "3", "2", "4", "1", "7", "6", "8"], "time": [459, 745, 1531, 2171, 2302, 2971, 3662, 3782, 4825, 4872, 5381, 5488, 6195]}, "edge": {"target": [], "time": []}}}, "displayed_time": "14.55", "trialTime": 15432, "trial_type": "mouselab-mdp", "trial_index": 34, "time_elapsed": 1411969, "internal_node_id": "0.0-4.0-1.0-25.0"}}, {"uniqueid": "w72929126:a90207682", "current_trial": 35, "dateTime": 1664874686527, "trialdata": {"revealed_states": [], "num_clicks_accrued": [0, 0, 0, 0, 0, 0, 0, 0, 0, 0, 0, 0, 0], "stateRewards": ["", -2, 8, 24, -48, -4, -8, -24, -48, -4, 8, -24, 48], "withholdReward": false, "trial_id": "mdp_464339499860", "block": "test1", "trialIndex": 28, "score": 55.5, "costs": -1.5, "simulationMode": [null, null, null], "rewards": [-4, 8, 48], "path": ["0", "0", "9", "10", "12"], "rt": [5885, 127, 66], "actions": ["left", "left", "down"], "actionTimes": [6705, 7361, 7954], "queries": {"click": {"state": {"target": ["11", "3", "4", "7", "8", "12"], "time": [1559, 2543, 3367, 3959, 4519, 5268]}, "edge": {"target": [], "time": []}}, "mouseover": {"state": {"target": ["9", "10", "11", "1", "3", "2", "4", "7", "6", "8", "12"], "time": [1203, 1270, 1406, 2219, 2365, 3021, 3218, 3752, 4185, 4272, 5139]}, "edge": {"target": [], "time": []}}, "mouseout": {"state": {"target": ["0", "9", "10", "11", "1", "3", "2", "4", "7", "6", "8", "12"], "time": [1170, 1247, 1295, 2088, 2237, 2995, 3045, 3595, 4153, 4232, 4795, 5633]}, "edge": {"target": [], "time": []}}}, "displayed_time": "9.82", "trialTime": 10857, "trial_type": "mouselab-mdp", "trial_index": 35, "time_elapsed": 1423057, "internal_node_id": "0.0-4.0-1.0-26.0"}}, {"uniqueid": "w72929126:a90207682", "current_trial": 36, "dateTime": 1664874696583, "trialdata": {"revealed_states": [], "num_clicks_accrued": [0, 0, 0, 0, 0, 0, 0, 0, 0, 0, 0, 0, 0], "stateRewards": ["", -2, 4, -48, -48, 4, 4, 48, -48, 2, 8, 24, 48], "withholdReward": false, "trial_id": "mdp_686771069745", "block": "test1", "trialIndex": 29, "score": 62.5, "costs": -0.5, "simulationMode": [null, null, null], "rewards": [2, 8, 48], "path": ["0", "0", "9", "10", "12"], "rt": [2900, 37, 94], "actions": ["left", "left", "down"], "actionTimes": [3695, 4254, 4860], "queries": {"click": {"state": {"target": ["11", "12"], "time": [1434, 2124]}, "edge": {"target": [], "time": []}}, "mouseover": {"state": {"target": ["9", "11", "10", "12"], "time": [1188, 1274, 1847, 1927]}, "edge": {"target": [], "time": []}}, "mouseout": {"state": {"target": ["0", "9", "11", "10", "12"], "time": [1167, 1209, 1794, 1888, 2980]}, "edge": {"target": [], "time": []}}}, "displayed_time": "8.79", "trialTime": 9838, "trial_type": "mouselab-mdp", "trial_index": 36, "time_elapsed": 1433113, "internal_node_id": "0.0-4.0-1.0-27.0"}}, {"uniqueid": "w72929126:a90207682", "current_trial": 37, "dateTime": 1664874706535, "trialdata": {"revealed_states": [], "num_clicks_accrued": [0, 0, 0, 0, 0, 0, 0, 0, 0, 0, 0, 0, 0], "stateRewards": ["", -2, 4, -48, 24, -4, 8, 48, 24, -2, 4, -48, -24], "withholdReward": true, "trial_id": "mdp_740882974347", "block": "test1", "trialIndex": 30, "score": 55.5, "costs": -1.5, "simulationMode": [null, null, null], "rewards": [-4, 8, 48], "path": ["0", "0", "5", "6", "7"], "rt": [5326, 59, 51], "actions": ["right", "right", "up"], "actionTimes": [6450, 7018, 7602], "queries": {"click": {"state": {"target": ["12", "11", "4", "3", "7", "8"], "time": [1840, 2582, 3517, 4144, 4784, 5368]}, "edge": {"target": [], "time": []}}, "mouseover": {"state": {"target": ["9", "12", "11", "4", "2", "3", "7", "6", "8"], "time": [1532, 1622, 2422, 3382, 3921, 3970, 4668, 5048, 5111]}, "edge": {"target": [], "time": []}}, "mouseout": {"state": {"target": ["0", "9", "12", "11", "4", "2", "3", "7", "6", "8"], "time": [1504, 1553, 2210, 3157, 3890, 3950, 4551, 4994, 5088, 8901]}, "edge": {"target": [], "time": []}}}, "displayed_time": "9.12", "trialTime": 9729, "trial_type": "mouselab-mdp", "trial_index": 37, "time_elapsed": 1443065, "internal_node_id": "0.0-4.0-1.0-28.0"}}, {"uniqueid": "w72929126:a90207682", "current_trial": 38, "dateTime": 1664874719192, "trialdata": {"revealed_states": [], "num_clicks_accrued": [0, 0, 0, 0, 0, 0, 0, 0, 0, 0, 0, 0, 0], "stateRewards": ["", 2, 4, -48, 24, -4, 4, -24, 48, -2, -8, -48, 48], "withholdReward": true, "trial_id": "mdp_424193661731", "block": "test1", "trialIndex": 31, "score": 52.5, "costs": -0.5, "simulationMode": [null, null, null], "rewards": [-4, 4, 48], "path": ["0", "0", "5", "6", "8"], "rt": [2923, 58, 34], "actions": ["right", "right", "down"], "actionTimes": [4294, 4869, 5429], "queries": {"click": {"state": {"target": ["7", "8"], "time": [2217, 2979]}, "edge": {"target": [], "time": []}}, "mouseover": {"state": {"target": ["6", "7", "6", "8"], "time": [1872, 2048, 2626, 2673]}, "edge": {"target": [], "time": []}}, "mouseout": {"state": {"target": ["0", "6", "7", "6", "8"], "time": [1837, 1927, 2596, 2653, 3260]}, "edge": {"target": [], "time": []}}}, "displayed_time": "10.37", "trialTime": 12429, "trial_type": "mouselab-mdp", "trial_index": 38, "time_elapsed": 1455722, "internal_node_id": "0.0-4.0-1.0-29.0"}}, {"uniqueid": "w72929126:a90207682", "current_trial": 39, "dateTime": 1664874727901, "trialdata": {"rt": 8695, "stimulus": "<h1> End of block! </h1>\n\nYou have reached the end of the block 1/4. If you need a short break, feel free to take one now before moving on.\n\n<br><br>\nIn the next block, you will complete another 30 rounds of this game.\n\n<br><br>\n<div style='text-align: center;'>Press <code>space</code> to begin.</div>\n<br><br>\n<div style='text-align: center;'>(If the experiment doesn't continue, try clicking on the text and then pressing <code>space</code>.)</div>", "response": " ", "trial_id": "mdp_ready_2", "trial_type": "html-keyboard-response", "trial_index": 39, "time_elapsed": 1464430, "internal_node_id": "0.0-4.0-2.0"}}, {"uniqueid": "w72929126:a90207682", "current_trial": 40, "dateTime": 1664874740410, "trialdata": {"revealed_states": [], "num_clicks_accrued": [0, 0, 0, 0, 0, 0, 0, 0, 0, 0, 0, 0, 0], "stateRewards": ["", -2, 4, -48, 24, -4, 8, 48, 24, -2, 4, -48, -24], "withholdReward": true, "trial_id": "mdp_740882974347", "block": "test2", "trialIndex": 32, "score": 56.25, "costs": -0.75, "simulationMode": [null, null, null], "rewards": [-4, 8, 48], "path": ["0", "0", "5", "6", "7"], "rt": [5573, 15, 1058], "actions": ["right", "right", "up"], "actionTimes": [7269, 7805, 9389], "queries": {"click": {"state": {"target": ["12", "11", "7"], "time": [3819, 4499, 5698]}, "edge": {"target": [], "time": []}}, "mouseover": {"state": {"target": ["9", "12", "10", "11", "2", "3", "7", "6", "8"], "time": [2318, 3597, 4268, 4324, 5341, 5383, 5487, 5938, 6034]}, "edge": {"target": [], "time": []}}, "mouseout": {"state": {"target": ["0", "9", "12", "10", "11", "2", "3", "7", "6", "8"], "time": [2009, 2448, 4237, 4295, 5089, 5361, 5447, 5914, 5994, 10074]}, "edge": {"target": [], "time": []}}}, "displayed_time": "10.70", "trialTime": 12309, "trial_type": "mouselab-mdp", "trial_index": 40, "time_elapsed": 1476940, "internal_node_id": "0.0-4.0-3.0-0.0"}}, {"uniqueid": "w72929126:a90207682", "current_trial": 41, "dateTime": 1664874751658, "trialdata": {"revealed_states": [], "num_clicks_accrued": [0, 0, 0, 0, 0, 0, 0, 0, 0, 0, 0, 0, 0], "stateRewards": ["", -4, -4, -24, 48, -4, -8, -24, 48, 2, 4, 48, 48], "withholdReward": true, "trial_id": "mdp_810954007398", "block": "test2", "trialIndex": 33, "score": 40.5, "costs": -0.5, "simulationMode": [null, null, null], "rewards": [-4, -8, 48], "path": ["0", "0", "5", "6", "8"], "rt": [2590, 43, 35], "actions": ["right", "right", "down"], "actionTimes": [3736, 4288, 4847], "queries": {"click": {"state": {"target": ["7", "8"], "time": [1895, 2526]}, "edge": {"target": [], "time": []}}, "mouseover": {"state": {"target": ["5", "7", "6", "8"], "time": [1552, 1788, 2299, 2362]}, "edge": {"target": [], "time": []}}, "mouseout": {"state": {"target": ["0", "5", "7", "6", "8"], "time": [989, 1580, 2270, 2320, 5508]}, "edge": {"target": [], "time": []}}}, "displayed_time": "10.15", "trialTime": 11008, "trial_type": "mouselab-mdp", "trial_index": 41, "time_elapsed": 1488188, "internal_node_id": "0.0-4.0-3.0-1.0"}}, {"uniqueid": "w72929126:a90207682", "current_trial": 42, "dateTime": 1664874762994, "trialdata": {"revealed_states": [], "num_clicks_accrued": [0, 0, 0, 0, 0, 0, 0, 0, 0, 0, 0, 0, 0], "stateRewards": ["", 2, -8, -24, 48, -4, -8, 24, -48, 4, -8, -24, -24], "withholdReward": true, "trial_id": "mdp_928911266656", "block": "test2", "trialIndex": 34, "score": 45.75, "costs": -1.25, "simulationMode": [null, null, null], "rewards": [2, -8, 48], "path": ["0", "0", "1", "2", "4"], "rt": [6036, 117, 771], "actions": ["up", "up", "left"], "actionTimes": [6884, 7540, 8836], "queries": {"click": {"state": {"target": ["7", "8", "12", "11", "4"], "time": [1511, 2225, 3330, 3999, 5001]}, "edge": {"target": [], "time": []}}, "mouseover": {"state": {"target": ["5", "7", "6", "8", "0", "9", "12", "10", "11", "4", "2", "3", "3", "1"], "time": [1220, 1364, 1976, 2056, 2789, 2857, 3190, 3749, 3841, 4798, 5207, 5262, 5551, 6216]}, "edge": {"target": [], "time": []}}, "mouseout": {"state": {"target": ["0", "5", "7", "6", "8", "0", "9", "12", "10", "11", "4", "2", "3", "3"], "time": [1192, 1246, 1951, 2000, 2657, 2811, 2923, 3724, 3774, 4364, 5188, 5241, 5308, 5789]}, "edge": {"target": [], "time": []}}}, "displayed_time": "9.85", "trialTime": 11123, "trial_type": "mouselab-mdp", "trial_index": 42, "time_elapsed": 1499524, "internal_node_id": "0.0-4.0-3.0-2.0"}}, {"uniqueid": "w72929126:a90207682", "current_trial": 43, "dateTime": 1664874773747, "trialdata": {"revealed_states": [], "num_clicks_accrued": [0, 0, 0, 0, 0, 0, 0, 0, 0, 0, 0, 0, 0], "stateRewards": ["", -2, -8, 48, 24, -2, 8, -48, -24, -2, 4, -48, 48], "withholdReward": true, "trial_id": "mdp_295220852217", "block": "test2", "trialIndex": 35, "score": 54, "costs": -1, "simulationMode": [null, null, null], "rewards": [-2, 4, 48], "path": ["0", "0", "9", "10", "12"], "rt": [3646, 496, 90], "actions": ["left", "left", "down"], "actionTimes": [4515, 5531, 6139], "queries": {"click": {"state": {"target": ["11", "12", "9", "10"], "time": [1465, 2504, 3190, 3601]}, "edge": {"target": [], "time": []}}, "mouseover": {"state": {"target": ["11", "10", "12", "9", "10"], "time": [1253, 2155, 2307, 3039, 3439]}, "edge": {"target": [], "time": []}}, "mouseout": {"state": {"target": ["1", "0", "11", "10", "12", "9", "10"], "time": [440, 1098, 2122, 2229, 2975, 3373, 4081]}, "edge": {"target": [], "time": []}}}, "displayed_time": "9.87", "trialTime": 10531, "trial_type": "mouselab-mdp", "trial_index": 43, "time_elapsed": 1510277, "internal_node_id": "0.0-4.0-3.0-3.0"}}, {"uniqueid": "w72929126:a90207682", "current_trial": 44, "dateTime": 1664874785260, "trialdata": {"revealed_states": [], "num_clicks_accrued": [0, 0, 0, 0, 0, 0, 0, 0, 0, 0, 0, 0, 0], "stateRewards": ["", 4, 4, -24, -48, 2, 4, 24, -48, 2, 4, 24, 24], "withholdReward": true, "trial_id": "mdp_223558518218", "block": "test2", "trialIndex": 36, "score": 33.5, "costs": -1.5, "simulationMode": [null, null, null], "rewards": [2, 4, 24], "path": ["0", "0", "9", "10", "12"], "rt": [7022, 126, 141], "actions": ["left", "left", "down"], "actionTimes": [7975, 8607, 9271], "queries": {"click": {"state": {"target": ["12", "11", "7", "8", "3", "4"], "time": [1638, 2477, 3614, 4325, 5107, 5590]}, "edge": {"target": [], "time": []}}, "mouseover": {"state": {"target": ["12", "10", "11", "7", "6", "8", "3", "2", "4", "9"], "time": [1357, 2201, 2317, 3396, 4065, 4143, 5022, 5343, 5395, 6435]}, "edge": {"target": [], "time": []}}, "mouseout": {"state": {"target": ["0", "12", "10", "11", "7", "6", "8", "3", "2", "4", "9"], "time": [1239, 2172, 2226, 3198, 4037, 4084, 4729, 5302, 5363, 6262, 6608]}, "edge": {"target": [], "time": []}}}, "displayed_time": "9.79", "trialTime": 11272, "trial_type": "mouselab-mdp", "trial_index": 44, "time_elapsed": 1521789, "internal_node_id": "0.0-4.0-3.0-4.0"}}, {"uniqueid": "w72929126:a90207682", "current_trial": 45, "dateTime": 1664874795971, "trialdata": {"revealed_states": [], "num_clicks_accrued": [0, 0, 0, 0, 0, 0, 0, 0, 0, 0, 0, 0, 0], "stateRewards": ["", 2, 4, 48, 48, -2, 4, 48, -24, -4, 8, -48, 48], "withholdReward": true, "trial_id": "mdp_407586865939", "block": "test2", "trialIndex": 37, "score": 56.5, "costs": -0.5, "simulationMode": [null, null, null], "rewards": [-4, 8, 48], "path": ["0", "0", "9", "10", "12"], "rt": [2873, 106, 104], "actions": ["left", "left", "down"], "actionTimes": [3757, 4381, 5004], "queries": {"click": {"state": {"target": ["11", "12"], "time": [1672, 2744]}, "edge": {"target": [], "time": []}}, "mouseover": {"state": {"target": ["9", "11", "12", "12"], "time": [1297, 1507, 2318, 2641]}, "edge": {"target": [], "time": []}}, "mouseout": {"state": {"target": ["0", "9", "11", "12", "12"], "time": [1270, 1321, 2268, 2440, 3361]}, "edge": {"target": [], "time": []}}}, "displayed_time": "9.88", "trialTime": 10485, "trial_type": "mouselab-mdp", "trial_index": 45, "time_elapsed": 1532501, "internal_node_id": "0.0-4.0-3.0-5.0"}}, {"uniqueid": "w72929126:a90207682", "current_trial": 46, "dateTime": 1664874807075, "trialdata": {"revealed_states": [], "num_clicks_accrued": [0, 0, 0, 0, 0, 0, 0, 0, 0, 0, 0, 0, 0], "stateRewards": ["", 4, 4, -48, -48, 4, 4, -24, -24, -4, 8, -48, 24], "withholdReward": true, "trial_id": "mdp_669785455541", "block": "test2", "trialIndex": 38, "score": 31.5, "costs": -1.5, "simulationMode": [null, null, null], "rewards": [-4, 8, 24], "path": ["0", "0", "9", "10", "12"], "rt": [7459, 49, 23], "actions": ["left", "left", "down"], "actionTimes": [8345, 8913, 9448], "queries": {"click": {"state": {"target": ["12", "11", "7", "8", "3", "4"], "time": [1871, 2564, 3559, 4575, 5341, 5903]}, "edge": {"target": [], "time": []}}, "mouseover": {"state": {"target": ["12", "10", "11", "7", "7", "6", "8", "8", "5", "3", "2", "4", "9"], "time": [1448, 2334, 2377, 3141, 3403, 3905, 4007, 4449, 4975, 5246, 5580, 5713, 6459]}, "edge": {"target": [], "time": []}}, "mouseout": {"state": {"target": ["0", "12", "10", "11", "7", "7", "6", "8", "8", "5", "3", "2", "4", "9", "12"], "time": [1288, 2303, 2357, 3089, 3161, 3876, 3967, 4047, 4941, 4996, 5553, 5619, 6368, 6688, 6993]}, "edge": {"target": [], "time": []}}}, "displayed_time": "9.96", "trialTime": 10882, "trial_type": "mouselab-mdp", "trial_index": 46, "time_elapsed": 1543605, "internal_node_id": "0.0-4.0-3.0-6.0"}}, {"uniqueid": "w72929126:a90207682", "current_trial": 47, "dateTime": 1664874819443, "trialdata": {"revealed_states": [], "num_clicks_accrued": [0, 0, 0, 0, 0, 0, 0, 0, 0, 0, 0, 0, 0], "stateRewards": ["", -4, 8, 24, 24, -2, 8, -48, 48, 4, -8, 48, -48], "withholdReward": false, "trial_id": "mdp_295249220524", "block": "test2", "trialIndex": 39, "score": 48.5, "costs": -0.5, "simulationMode": [null, null, null], "rewards": [4, -8, 48], "path": ["0", "0", "9", "10", "11"], "rt": [2850, 793, 339], "actions": ["left", "left", "up"], "actionTimes": [3771, 5076, 5931], "queries": {"click": {"state": {"target": ["12", "11"], "time": [1833, 2646]}, "edge": {"target": [], "time": []}}, "mouseover": {"state": {"target": ["0", "12", "10", "11", "10"], "time": [1256, 1642, 2321, 2467, 2942]}, "edge": {"target": [], "time": []}}, "mouseout": {"state": {"target": ["0", "0", "12", "10", "11", "10"], "time": [799, 1286, 2294, 2360, 2919, 3014]}, "edge": {"target": [], "time": []}}}, "displayed_time": "8.92", "trialTime": 12139, "trial_type": "mouselab-mdp", "trial_index": 47, "time_elapsed": 1555973, "internal_node_id": "0.0-4.0-3.0-7.0"}}, {"uniqueid": "w72929126:a90207682", "current_trial": 48, "dateTime": 1664874831243, "trialdata": {"revealed_states": [], "num_clicks_accrued": [0, 0, 0, 0, 0, 0, 0, 0, 0, 0, 0, 0, 0], "stateRewards": ["", 2, -4, -48, -48, -2, -4, -24, -48, -2, 8, 24, 24], "withholdReward": true, "trial_id": "mdp_656069446729", "block": "test2", "trialIndex": 40, "score": 33.5, "costs": -1.5, "simulationMode": [null, null, null], "rewards": [-2, 8, 24], "path": ["0", "0", "9", "10", "11"], "rt": [6897, 449, 256], "actions": ["left", "left", "up"], "actionTimes": [7879, 8862, 9629], "queries": {"click": {"state": {"target": ["11", "12", "7", "8", "3", "4"], "time": [2017, 2787, 3739, 4292, 5321, 5900]}, "edge": {"target": [], "time": []}}, "mouseover": {"state": {"target": ["11", "10", "12", "5", "6", "7", "6", "8", "5", "3", "2", "4", "9"], "time": [1848, 2426, 2581, 3286, 3310, 3594, 3985, 4066, 4986, 5100, 5599, 5699, 6874]}, "edge": {"target": [], "time": []}}, "mouseout": {"state": {"target": ["0", "11", "10", "12", "5", "6", "7", "6", "8", "5", "3", "2", "4", "9"], "time": [1396, 2396, 2456, 3236, 3307, 3333, 3954, 4047, 4953, 5008, 5568, 5628, 6154, 6904]}, "edge": {"target": [], "time": []}}}, "displayed_time": "10.98", "trialTime": 11565, "trial_type": "mouselab-mdp", "trial_index": 48, "time_elapsed": 1567773, "internal_node_id": "0.0-4.0-3.0-8.0"}}, {"uniqueid": "w72929126:a90207682", "current_trial": 49, "dateTime": 1664874843156, "trialdata": {"revealed_states": [], "num_clicks_accrued": [0, 0, 0, 0, 0, 0, 0, 0, 0, 0, 0, 0, 0], "stateRewards": ["", 4, 4, 48, -24, -4, -8, 24, -24, 2, -8, -24, 24], "withholdReward": false, "trial_id": "mdp_933201675789", "block": "test2", "trialIndex": 41, "score": 60, "costs": -1, "simulationMode": [null, null, null], "rewards": [4, 4, 48], "path": ["0", "0", "1", "2", "3"], "rt": [4667, 23, 1067], "actions": ["up", "up", "right"], "actionTimes": [5443, 5987, 7572], "queries": {"click": {"state": {"target": ["11", "7", "8", "3"], "time": [1640, 2657, 3321, 4142]}, "edge": {"target": [], "time": []}}, "mouseover": {"state": {"target": ["10", "11", "1", "7", "6", "8", "5", "3", "1", "1", "5"], "time": [1368, 1515, 2240, 2434, 3040, 3110, 3799, 3994, 4393, 4955, 5033]}, "edge": {"target": [], "time": []}}, "mouseout": {"state": {"target": ["0", "10", "11", "1", "7", "6", "8", "5", "3", "1", "1", "5"], "time": [1210, 1435, 2210, 2262, 3008, 3087, 3766, 3822, 4342, 4447, 4986, 5073]}, "edge": {"target": [], "time": []}}}, "displayed_time": "9.78", "trialTime": 11643, "trial_type": "mouselab-mdp", "trial_index": 49, "time_elapsed": 1579686, "internal_node_id": "0.0-4.0-3.0-9.0"}}, {"uniqueid": "w72929126:a90207682", "current_trial": 50, "dateTime": 1664874854166, "trialdata": {"revealed_states": [], "num_clicks_accrued": [0, 0, 0, 0, 0, 0, 0, 0, 0, 0, 0, 0, 0], "stateRewards": ["", -2, -8, -48, 24, 2, -4, -48, 48, 2, 4, 24, -24], "withholdReward": true, "trial_id": "mdp_849341543762", "block": "test2", "trialIndex": 42, "score": 50, "costs": -1, "simulationMode": [null, null, null], "rewards": [2, -4, 48], "path": ["0", "0", "5", "6", "8"], "rt": [4579, 48, 58], "actions": ["right", "right", "down"], "actionTimes": [5657, 6233, 6810], "queries": {"click": {"state": {"target": ["3", "4", "7", "8"], "time": [1831, 2598, 3592, 4568]}, "edge": {"target": [], "time": []}}, "mouseover": {"state": {"target": ["5", "7", "3", "4", "7", "8", "8"], "time": [1346, 1478, 1704, 2591, 3411, 4044, 4386]}, "edge": {"target": [], "time": []}}, "mouseout": {"state": {"target": ["0", "5", "7", "3", "4", "7", "8", "8"], "time": [877, 1378, 1531, 2585, 3118, 4018, 4171, 5146]}, "edge": {"target": [], "time": []}}}, "displayed_time": "10.08", "trialTime": 10794, "trial_type": "mouselab-mdp", "trial_index": 50, "time_elapsed": 1590695, "internal_node_id": "0.0-4.0-3.0-10.0"}}, {"uniqueid": "w72929126:a90207682", "current_trial": 51, "dateTime": 1664874865902, "trialdata": {"revealed_states": [], "num_clicks_accrued": [0, 0, 0, 0, 0, 0, 0, 0, 0, 0, 0, 0, 0], "stateRewards": ["", -4, -8, -48, -48, 4, -8, 48, 48, 2, 8, 48, 24], "withholdReward": true, "trial_id": "mdp_880437222492", "block": "test2", "trialIndex": 43, "score": 48.75, "costs": -0.25, "simulationMode": [null, null, null], "rewards": [4, -8, 48], "path": ["0", "0", "5", "6", "7"], "rt": [1909, 47, 790], "actions": ["right", "right", "up"], "actionTimes": [2688, 3264, 4576], "queries": {"click": {"state": {"target": ["7"], "time": [1461]}, "edge": {"target": [], "time": []}}, "mouseover": {"state": {"target": ["6", "7", "6", "8"], "time": [1209, 1310, 1882, 2069]}, "edge": {"target": [], "time": []}}, "mouseout": {"state": {"target": ["0", "6", "7", "6", "8"], "time": [1206, 1248, 1831, 2029, 2176]}, "edge": {"target": [], "time": []}}}, "displayed_time": "10.78", "trialTime": 11592, "trial_type": "mouselab-mdp", "trial_index": 51, "time_elapsed": 1602432, "internal_node_id": "0.0-4.0-3.0-11.0"}}, {"uniqueid": "w72929126:a90207682", "current_trial": 52, "dateTime": 1664874877718, "trialdata": {"revealed_states": [], "num_clicks_accrued": [0, 0, 0, 0, 0, 0, 0, 0, 0, 0, 0, 0, 0], "stateRewards": ["", 2, -4, 48, -48, 2, 4, -24, 24, -4, -8, 24, -48], "withholdReward": false, "trial_id": "mdp_238810765895", "block": "test2", "trialIndex": 44, "score": 50, "costs": -1, "simulationMode": [null, null, null], "rewards": [2, -4, 48], "path": ["0", "0", "1", "2", "3"], "rt": [4850, 74, 21], "actions": ["up", "up", "right"], "actionTimes": [5801, 6386, 6920], "queries": {"click": {"state": {"target": ["7", "12", "11", "3"], "time": [1607, 2998, 3774, 4687]}, "edge": {"target": [], "time": []}}, "mouseover": {"state": {"target": ["6", "7", "10", "12", "10", "11", "10", "10", "2", "3", "4", "1", "5"], "time": [1298, 1497, 2604, 2790, 3525, 3588, 4038, 4297, 4496, 4544, 5139, 5269, 5415]}, "edge": {"target": [], "time": []}}, "mouseout": {"state": {"target": ["0", "6", "7", "10", "12", "10", "11", "10", "10", "2", "3", "4", "1", "5"], "time": [1258, 1318, 2152, 2656, 3498, 3548, 4004, 4149, 4331, 4516, 4952, 5216, 5309, 5469]}, "edge": {"target": [], "time": []}}}, "displayed_time": "9.95", "trialTime": 11601, "trial_type": "mouselab-mdp", "trial_index": 52, "time_elapsed": 1614248, "internal_node_id": "0.0-4.0-3.0-12.0"}}, {"uniqueid": "w72929126:a90207682", "current_trial": 53, "dateTime": 1664874888927, "trialdata": {"revealed_states": [], "num_clicks_accrued": [0, 0, 0, 0, 0, 0, 0, 0, 0, 0, 0, 0, 0], "stateRewards": ["", 2, 4, 48, -48, 2, 4, 24, -24, 2, -4, -24, -48], "withholdReward": true, "trial_id": "mdp_706591889062", "block": "test2", "trialIndex": 45, "score": 58, "costs": -1, "simulationMode": [null, null, null], "rewards": [2, 4, 48], "path": ["0", "0", "1", "2", "3"], "rt": [4357, 71, 474], "actions": ["up", "up", "right"], "actionTimes": [5556, 6140, 7132], "queries": {"click": {"state": {"target": ["7", "8", "11", "3"], "time": [2083, 2849, 3623, 4441]}, "edge": {"target": [], "time": []}}, "mouseover": {"state": {"target": ["5", "7", "6", "8", "11", "3", "2", "2", "5"], "time": [1623, 1954, 2579, 2631, 3500, 4192, 4712, 4981, 5206]}, "edge": {"target": [], "time": []}}, "mouseout": {"state": {"target": ["0", "5", "7", "6", "8", "11", "11", "3", "2", "2", "5"], "time": [1596, 1673, 2542, 2601, 3087, 4035, 4126, 4673, 4779, 5009, 5229]}, "edge": {"target": [], "time": []}}}, "displayed_time": "10.20", "trialTime": 11004, "trial_type": "mouselab-mdp", "trial_index": 53, "time_elapsed": 1625457, "internal_node_id": "0.0-4.0-3.0-13.0"}}, {"uniqueid": "w72929126:a90207682", "current_trial": 54, "dateTime": 1664874898927, "trialdata": {"revealed_states": [], "num_clicks_accrued": [0, 0, 0, 0, 0, 0, 0, 0, 0, 0, 0, 0, 0], "stateRewards": ["", 2, 4, 48, -48, 2, 8, -24, 48, 4, 8, 48, -48], "withholdReward": true, "trial_id": "mdp_110142964375", "block": "test2", "trialIndex": 46, "score": 58.75, "costs": -0.25, "simulationMode": [null, null, null], "rewards": [2, 4, 48], "path": ["0", "0", "1", "2", "3"], "rt": [2054, 100, 20], "actions": ["up", "up", "right"], "actionTimes": [2979, 3610, 4154], "queries": {"click": {"state": {"target": ["3"], "time": [1878]}, "edge": {"target": [], "time": []}}, "mouseover": {"state": {"target": ["3", "5"], "time": [1801, 2494]}, "edge": {"target": [], "time": []}}, "mouseout": {"state": {"target": ["0", "3", "5"], "time": [1295, 2415, 2534]}, "edge": {"target": [], "time": []}}}, "displayed_time": "8.92", "trialTime": 9763, "trial_type": "mouselab-mdp", "trial_index": 54, "time_elapsed": 1635457, "internal_node_id": "0.0-4.0-3.0-14.0"}}, {"uniqueid": "w72929126:a90207682", "current_trial": 55, "dateTime": 1664874910744, "trialdata": {"revealed_states": [], "num_clicks_accrued": [0, 0, 0, 0, 0, 0, 0, 0, 0, 0, 0, 0, 0], "stateRewards": ["", -2, -4, -48, -48, -2, -8, 48, -48, 4, -8, -48, 24], "withholdReward": true, "trial_id": "mdp_468495641521", "block": "test2", "trialIndex": 47, "score": 41.25, "costs": -1.75, "simulationMode": [null, null, null], "rewards": [-2, -8, 48], "path": ["0", "0", "5", "6", "7"], "rt": [7444, 101, 57], "actions": ["right", "right", "up"], "actionTimes": [8382, 8997, 9581], "queries": {"click": {"state": {"target": ["3", "4", "12", "11", "7", "5", "6"], "time": [1594, 2403, 3658, 4343, 5474, 6410, 6754]}, "edge": {"target": [], "time": []}}, "mouseover": {"state": {"target": ["3", "2", "4", "10", "12", "10", "11", "7", "6", "8", "5", "6", "8"], "time": [1431, 2122, 2217, 3363, 3496, 4077, 4203, 5363, 5722, 5896, 6269, 6585, 7055]}, "edge": {"target": [], "time": []}}, "mouseout": {"state": {"target": ["0", "3", "2", "4", "10", "12", "10", "11", "7", "6", "8", "5", "6", "8"], "time": [736, 2097, 2177, 2937, 3430, 4045, 4104, 4605, 5682, 5790, 6176, 6562, 7015, 7188]}, "edge": {"target": [], "time": []}}}, "displayed_time": "10.10", "trialTime": 11573, "trial_type": "mouselab-mdp", "trial_index": 55, "time_elapsed": 1647274, "internal_node_id": "0.0-4.0-3.0-15.0"}}, {"uniqueid": "w72929126:a90207682", "current_trial": 56, "dateTime": 1664874922544, "trialdata": {"revealed_states": [], "num_clicks_accrued": [0, 0, 0, 0, 0, 0, 0, 0, 0, 0, 0, 0, 0], "stateRewards": ["", -2, 4, -48, -48, 4, 4, 48, -48, 2, 8, 24, 48], "withholdReward": false, "trial_id": "mdp_686771069745", "block": "test2", "trialIndex": 48, "score": 60.75, "costs": -0.25, "simulationMode": [null, null, null], "rewards": [4, 4, 48], "path": ["0", "0", "5", "6", "7"], "rt": [1942, 440, 126], "actions": ["right", "right", "up"], "actionTimes": [2731, 3682, 4331], "queries": {"click": {"state": {"target": ["7"], "time": [1502]}, "edge": {"target": [], "time": []}}, "mouseover": {"state": {"target": ["5", "6", "7", "6"], "time": [1118, 1155, 1368, 2034]}, "edge": {"target": [], "time": []}}, "mouseout": {"state": {"target": ["0", "5", "6", "7", "6", "8"], "time": [594, 1151, 1196, 1982, 2423, 4913]}, "edge": {"target": [], "time": []}}}, "displayed_time": "10.79", "trialTime": 11555, "trial_type": "mouselab-mdp", "trial_index": 56, "time_elapsed": 1659074, "internal_node_id": "0.0-4.0-3.0-16.0"}}, {"uniqueid": "w72929126:a90207682", "current_trial": 57, "dateTime": 1664874933944, "trialdata": {"revealed_states": [], "num_clicks_accrued": [0, 0, 0, 0, 0, 0, 0, 0, 0, 0, 0, 0, 0], "stateRewards": ["", 4, 8, -48, -48, 2, 4, -24, -48, 2, 8, 48, -48], "withholdReward": false, "trial_id": "mdp_902172716465", "block": "test2", "trialIndex": 49, "score": 62.5, "costs": -0.5, "simulationMode": [null, null, null], "rewards": [2, 8, 48], "path": ["0", "0", "9", "10", "11"], "rt": [2842, 87, 35], "actions": ["left", "left", "up"], "actionTimes": [4110, 4717, 5271], "queries": {"click": {"state": {"target": ["7", "11"], "time": [1836, 2715]}, "edge": {"target": [], "time": []}}, "mouseover": {"state": {"target": ["6", "7", "5", "11"], "time": [1584, 1690, 2330, 2597]}, "edge": {"target": [], "time": []}}, "mouseout": {"state": {"target": ["0", "6", "7", "5", "11"], "time": [1533, 1607, 2251, 2352, 3344]}, "edge": {"target": [], "time": []}}}, "displayed_time": "10.27", "trialTime": 11188, "trial_type": "mouselab-mdp", "trial_index": 57, "time_elapsed": 1670473, "internal_node_id": "0.0-4.0-3.0-17.0"}}, {"uniqueid": "w72929126:a90207682", "current_trial": 58, "dateTime": 1664874945256, "trialdata": {"revealed_states": [], "num_clicks_accrued": [0, 0, 0, 0, 0, 0, 0, 0, 0, 0, 0, 0, 0], "stateRewards": ["", 2, 4, 48, -24, 2, -8, -24, -24, 2, -8, -24, -48], "withholdReward": true, "trial_id": "mdp_274832552938", "block": "test2", "trialIndex": 50, "score": 58.5, "costs": -0.5, "simulationMode": [null, null, null], "rewards": [2, 4, 48], "path": ["0", "0", "1", "2", "3"], "rt": [2968, 54, 408], "actions": ["up", "up", "right"], "actionTimes": [4384, 4959, 5886], "queries": {"click": {"state": {"target": ["11", "3"], "time": [2154, 3298]}, "edge": {"target": [], "time": []}}, "mouseover": {"state": {"target": ["10", "11", "10", "9", "1", "3", "5"], "time": [1884, 1977, 2577, 2858, 2929, 3137, 3883]}, "edge": {"target": [], "time": []}}, "mouseout": {"state": {"target": ["0", "10", "11", "10", "9", "1", "3", "5"], "time": [1592, 1924, 2527, 2601, 2898, 3016, 3779, 3905]}, "edge": {"target": [], "time": []}}}, "displayed_time": "10.41", "trialTime": 11086, "trial_type": "mouselab-mdp", "trial_index": 58, "time_elapsed": 1681786, "internal_node_id": "0.0-4.0-3.0-18.0"}}, {"uniqueid": "w72929126:a90207682", "current_trial": 59, "dateTime": 1664874956537, "trialdata": {"revealed_states": [], "num_clicks_accrued": [0, 0, 0, 0, 0, 0, 0, 0, 0, 0, 0, 0, 0], "stateRewards": ["", 2, 8, 48, 24, -4, 4, -48, 24, 2, 8, 48, 48], "withholdReward": false, "trial_id": "mdp_367344599162", "block": "test2", "trialIndex": 51, "score": 62.75, "costs": -0.25, "simulationMode": [null, null, null], "rewards": [2, 8, 48], "path": ["0", "0", "1", "2", "3"], "rt": [1650, 90, 808], "actions": ["up", "up", "right"], "actionTimes": [2429, 3045, 4373], "queries": {"click": {"state": {"target": ["3"], "time": [1377]}, "edge": {"target": [], "time": []}}, "mouseover": {"state": {"target": ["3", "5"], "time": [1258, 1976]}, "edge": {"target": [], "time": []}}, "mouseout": {"state": {"target": ["0", "3", "5"], "time": [1061, 1941, 2019]}, "edge": {"target": [], "time": []}}}, "displayed_time": "9.78", "trialTime": 11014, "trial_type": "mouselab-mdp", "trial_index": 59, "time_elapsed": 1693067, "internal_node_id": "0.0-4.0-3.0-19.0"}}, {"uniqueid": "w72929126:a90207682", "current_trial": 60, "dateTime": 1664874968161, "trialdata": {"revealed_states": [], "num_clicks_accrued": [0, 0, 0, 0, 0, 0, 0, 0, 0, 0, 0, 0, 0], "stateRewards": ["", -2, 8, 48, -24, 2, 4, -48, -24, -4, 8, -48, -48], "withholdReward": true, "trial_id": "mdp_539167561933", "block": "test2", "trialIndex": 52, "score": 58.75, "costs": -0.25, "simulationMode": [null, null, null], "rewards": [-2, 8, 48], "path": ["0", "0", "1", "2", "3"], "rt": [1814, 63, 885], "actions": ["up", "up", "right"], "actionTimes": [3465, 4041, 5441], "queries": {"click": {"state": {"target": ["3"], "time": [2396]}, "edge": {"target": [], "time": []}}, "mouseover": {"state": {"target": ["5", "3"], "time": [2123, 2228]}, "edge": {"target": [], "time": []}}, "mouseout": {"state": {"target": ["0", "5", "3"], "time": [1828, 2156, 3013]}, "edge": {"target": [], "time": []}}}, "displayed_time": "10.65", "trialTime": 11384, "trial_type": "mouselab-mdp", "trial_index": 60, "time_elapsed": 1704691, "internal_node_id": "0.0-4.0-3.0-20.0"}}, {"uniqueid": "w72929126:a90207682", "current_trial": 61, "dateTime": 1664874979529, "trialdata": {"revealed_states": [], "num_clicks_accrued": [0, 0, 0, 0, 0, 0, 0, 0, 0, 0, 0, 0, 0], "stateRewards": ["", 2, 4, -24, -48, 4, -4, 24, 48, -4, -4, -24, 48], "withholdReward": true, "trial_id": "mdp_181958792175", "block": "test2", "trialIndex": 53, "score": 44.5, "costs": -0.5, "simulationMode": [null, null, null], "rewards": [-4, -4, 48], "path": ["0", "0", "9", "10", "12"], "rt": [2794, 62, 801], "actions": ["left", "left", "down"], "actionTimes": [3999, 4582, 6007], "queries": {"click": {"state": {"target": ["3", "12"], "time": [1746, 2829]}, "edge": {"target": [], "time": []}}, "mouseover": {"state": {"target": ["3", "2", "9", "12"], "time": [1614, 2277, 2507, 2653]}, "edge": {"target": [], "time": []}}, "mouseout": {"state": {"target": ["0", "3", "2", "9", "12", "12"], "time": [1395, 2242, 2299, 2560, 3266, 3495]}, "edge": {"target": [], "time": []}}}, "displayed_time": "10.20", "trialTime": 11102, "trial_type": "mouselab-mdp", "trial_index": 61, "time_elapsed": 1716059, "internal_node_id": "0.0-4.0-3.0-21.0"}}, {"uniqueid": "w72929126:a90207682", "current_trial": 62, "dateTime": 1664874990282, "trialdata": {"revealed_states": [], "num_clicks_accrued": [0, 0, 0, 0, 0, 0, 0, 0, 0, 0, 0, 0, 0], "stateRewards": ["", 2, 8, -48, 48, -4, -8, 24, 24, -2, -8, 24, -24], "withholdReward": true, "trial_id": "mdp_910248289075", "block": "test2", "trialIndex": 54, "score": 61.25, "costs": -1.75, "simulationMode": [null, null, null], "rewards": [2, 8, 48], "path": ["0", "0", "1", "2", "4"], "rt": [5671, 105, 51], "actions": ["up", "up", "left"], "actionTimes": [6382, 7006, 7574], "queries": {"click": {"state": {"target": ["12", "7", "8", "3", "4", "1", "2"], "time": [1340, 2196, 2868, 3650, 4305, 5113, 5500]}, "edge": {"target": [], "time": []}}, "mouseover": {"state": {"target": ["0", "12", "10", "1", "7", "6", "8", "3", "2", "4", "1", "2", "0"], "time": [1046, 1149, 1823, 1923, 2056, 2609, 2676, 3549, 3951, 4148, 4935, 5360, 6014]}, "edge": {"target": [], "time": []}}, "mouseout": {"state": {"target": ["0", "0", "12", "10", "1", "7", "6", "8", "3", "2", "4", "1", "2", "1", "0"], "time": [522, 1078, 1790, 1868, 1944, 2589, 2656, 3271, 3911, 4108, 4735, 5294, 5828, 5920, 6034]}, "edge": {"target": [], "time": []}}}, "displayed_time": "9.71", "trialTime": 10422, "trial_type": "mouselab-mdp", "trial_index": 62, "time_elapsed": 1726811, "internal_node_id": "0.0-4.0-3.0-22.0"}}, {"uniqueid": "w72929126:a90207682", "current_trial": 63, "dateTime": 1664875001154, "trialdata": {"revealed_states": [], "num_clicks_accrued": [0, 0, 0, 0, 0, 0, 0, 0, 0, 0, 0, 0, 0], "stateRewards": ["", -4, -8, 48, 24, 4, -8, 24, -48, -2, -8, 24, -48], "withholdReward": true, "trial_id": "mdp_952038635544", "block": "test2", "trialIndex": 55, "score": 40.5, "costs": -0.5, "simulationMode": [null, null, null], "rewards": [-4, -8, 48], "path": ["0", "0", "1", "2", "3"], "rt": [2420, 26, 13], "actions": ["up", "up", "right"], "actionTimes": [3241, 3793, 4326], "queries": {"click": {"state": {"target": ["4", "3"], "time": [1429, 2128]}, "edge": {"target": [], "time": []}}, "mouseover": {"state": {"target": ["4", "3", "7", "6"], "time": [1289, 1895, 2795, 2855]}, "edge": {"target": [], "time": []}}, "mouseout": {"state": {"target": ["0", "4", "3", "7", "6", "8"], "time": [1078, 1866, 2734, 2835, 2902, 4968]}, "edge": {"target": [], "time": []}}}, "displayed_time": "9.82", "trialTime": 10586, "trial_type": "mouselab-mdp", "trial_index": 63, "time_elapsed": 1737684, "internal_node_id": "0.0-4.0-3.0-23.0"}}, {"uniqueid": "w72929126:a90207682", "current_trial": 64, "dateTime": 1664875012530, "trialdata": {"revealed_states": [], "num_clicks_accrued": [0, 0, 0, 0, 0, 0, 0, 0, 0, 0, 0, 0, 0], "stateRewards": ["", -2, 8, 48, -48, 4, -8, 24, 24, 4, 4, -48, -24], "withholdReward": false, "trial_id": "mdp_746937869927", "block": "test2", "trialIndex": 56, "score": 58.75, "costs": -0.25, "simulationMode": [null, null, null], "rewards": [-2, 8, 48], "path": ["0", "0", "1", "2", "3"], "rt": [1728, 106, 452], "actions": ["up", "up", "right"], "actionTimes": [2973, 3597, 4565], "queries": {"click": {"state": {"target": ["3"], "time": [2002]}, "edge": {"target": [], "time": []}}, "mouseover": {"state": {"target": ["3", "8"], "time": [1853, 2639]}, "edge": {"target": [], "time": []}}, "mouseout": {"state": {"target": ["0", "3", "8"], "time": [1561, 2521, 2679]}, "edge": {"target": [], "time": []}}}, "displayed_time": "9.24", "trialTime": 11076, "trial_type": "mouselab-mdp", "trial_index": 64, "time_elapsed": 1749060, "internal_node_id": "0.0-4.0-3.0-24.0"}}, {"uniqueid": "w72929126:a90207682", "current_trial": 65, "dateTime": 1664875022731, "trialdata": {"revealed_states": [], "num_clicks_accrued": [0, 0, 0, 0, 0, 0, 0, 0, 0, 0, 0, 0, 0], "stateRewards": ["", -2, 8, 48, 48, 2, 4, -48, 24, -4, -8, 48, 24], "withholdReward": true, "trial_id": "mdp_572910394648", "block": "test2", "trialIndex": 57, "score": 58.75, "costs": -0.25, "simulationMode": [null, null, null], "rewards": [-2, 8, 48], "path": ["0", "0", "1", "2", "3"], "rt": [1660, 56, 274], "actions": ["up", "up", "right"], "actionTimes": [2913, 3488, 4272], "queries": {"click": {"state": {"target": ["3"], "time": [2029]}, "edge": {"target": [], "time": []}}, "mouseover": {"state": {"target": ["3", "6", "8"], "time": [1730, 2514, 2562]}, "edge": {"target": [], "time": []}}, "mouseout": {"state": {"target": ["0", "3", "6", "8"], "time": [1476, 2462, 2540, 2583]}, "edge": {"target": [], "time": []}}}, "displayed_time": "9.25", "trialTime": 10024, "trial_type": "mouselab-mdp", "trial_index": 65, "time_elapsed": 1759261, "internal_node_id": "0.0-4.0-3.0-25.0"}}, {"uniqueid": "w72929126:a90207682", "current_trial": 66, "dateTime": 1664875036275, "trialdata": {"revealed_states": [], "num_clicks_accrued": [0, 0, 0, 0, 0, 0, 0, 0, 0, 0, 0, 0, 0], "stateRewards": ["", -2, -8, 48, 24, 4, -8, 24, 48, 4, -4, 24, -48], "withholdReward": false, "trial_id": "mdp_871576155740", "block": "test2", "trialIndex": 58, "score": 42.75, "costs": -0.25, "simulationMode": [null, null, null], "rewards": [-2, -8, 48], "path": ["0", "0", "1", "2", "3"], "rt": [1677, 79, 222], "actions": ["up", "up", "right"], "actionTimes": [2565, 3157, 3901], "queries": {"click": {"state": {"target": ["3"], "time": [1572]}, "edge": {"target": [], "time": []}}, "mouseover": {"state": {"target": ["3", "8"], "time": [1418, 2218]}, "edge": {"target": [], "time": []}}, "mouseout": {"state": {"target": ["0", "3", "8"], "time": [759, 2142, 2245]}, "edge": {"target": [], "time": []}}}, "displayed_time": "8.89", "trialTime": 13261, "trial_type": "mouselab-mdp", "trial_index": 66, "time_elapsed": 1772805, "internal_node_id": "0.0-4.0-3.0-26.0"}}, {"uniqueid": "w72929126:a90207682", "current_trial": 67, "dateTime": 1664875046219, "trialdata": {"revealed_states": [], "num_clicks_accrued": [0, 0, 0, 0, 0, 0, 0, 0, 0, 0, 0, 0, 0], "stateRewards": ["", -2, -4, -24, -48, 2, -8, -24, -24, 4, -8, 48, 48], "withholdReward": true, "trial_id": "mdp_950599994674", "block": "test2", "trialIndex": 59, "score": 48, "costs": -1, "simulationMode": [null, null, null], "rewards": [4, -8, 48], "path": ["0", "0", "9", "10", "12"], "rt": [4479, 85, 67], "actions": ["left", "left", "down"], "actionTimes": [5526, 6125, 6703], "queries": {"click": {"state": {"target": ["3", "12", "9", "10"], "time": [2010, 3148, 4380, 4764]}, "edge": {"target": [], "time": []}}, "mouseover": {"state": {"target": ["1", "3", "4", "11", "10", "12", "10", "9", "10"], "time": [1688, 1872, 2524, 2725, 2776, 3017, 3750, 4246, 4590]}, "edge": {"target": [], "time": []}}, "mouseout": {"state": {"target": ["0", "1", "3", "4", "11", "10", "12", "10", "9", "10"], "time": [817, 1721, 2446, 2658, 2747, 2936, 3618, 3791, 4551, 5032]}, "edge": {"target": [], "time": []}}}, "displayed_time": "9.05", "trialTime": 9717, "trial_type": "mouselab-mdp", "trial_index": 67, "time_elapsed": 1782749, "internal_node_id": "0.0-4.0-3.0-27.0"}}, {"uniqueid": "w72929126:a90207682", "current_trial": 68, "dateTime": 1664875057604, "trialdata": {"revealed_states": [], "num_clicks_accrued": [0, 0, 0, 0, 0, 0, 0, 0, 0, 0, 0, 0, 0], "stateRewards": ["", 4, -4, 48, 24, 2, 4, 24, -24, 2, 4, 24, 48], "withholdReward": true, "trial_id": "mdp_736351885282", "block": "test2", "trialIndex": 60, "score": 58.5, "costs": -0.5, "simulationMode": [null, null, null], "rewards": [2, 4, 48], "path": ["0", "0", "9", "10", "12"], "rt": [3113, 13, 457], "actions": ["left", "left", "down"], "actionTimes": [4502, 5027, 6000], "queries": {"click": {"state": {"target": ["7", "12"], "time": [2170, 3381]}, "edge": {"target": [], "time": []}}, "mouseover": {"state": {"target": ["6", "7", "6", "8", "12"], "time": [1756, 2039, 2563, 2631, 3276]}, "edge": {"target": [], "time": []}}, "mouseout": {"state": {"target": ["0", "6", "7", "6", "8", "12"], "time": [1571, 1984, 2543, 2609, 2703, 3995]}, "edge": {"target": [], "time": []}}}, "displayed_time": "10.39", "trialTime": 11071, "trial_type": "mouselab-mdp", "trial_index": 68, "time_elapsed": 1794133, "internal_node_id": "0.0-4.0-3.0-28.0"}}, {"uniqueid": "w72929126:a90207682", "current_trial": 69, "dateTime": 1664875068805, "trialdata": {"revealed_states": [], "num_clicks_accrued": [0, 0, 0, 0, 0, 0, 0, 0, 0, 0, 0, 0, 0], "stateRewards": ["", 2, -4, -24, -48, -2, 8, -24, 48, -2, 8, 24, -48], "withholdReward": true, "trial_id": "mdp_566582551557", "block": "test2", "trialIndex": 61, "score": 57.5, "costs": -1.5, "simulationMode": [null, null, null], "rewards": [-2, 8, 48], "path": ["0", "0", "5", "6", "8"], "rt": [6868, 475, 74], "actions": ["right", "right", "down"], "actionTimes": [7635, 8627, 9227], "queries": {"click": {"state": {"target": ["12", "11", "3", "4", "7", "8"], "time": [2374, 3279, 4272, 5145, 5952, 6489]}, "edge": {"target": [], "time": []}}, "mouseover": {"state": {"target": ["12", "12", "4", "12", "10", "11", "10", "9", "3", "4", "7", "6", "8"], "time": [1088, 1288, 1701, 2208, 3049, 3114, 3594, 3821, 4154, 5023, 5753, 6196, 6267]}, "edge": {"target": [], "time": []}}, "mouseout": {"state": {"target": ["0", "12", "12", "4", "12", "12", "10", "11", "10", "12", "9", "3", "4", "7", "6", "8"], "time": [984, 1142, 1311, 1943, 2701, 3023, 3071, 3569, 3621, 3714, 3842, 4689, 5592, 6168, 6246, 7074]}, "edge": {"target": [], "time": []}}}, "displayed_time": "9.77", "trialTime": 10955, "trial_type": "mouselab-mdp", "trial_index": 69, "time_elapsed": 1805334, "internal_node_id": "0.0-4.0-3.0-29.0"}}, {"uniqueid": "w72929126:a90207682", "current_trial": 70, "dateTime": 1664875072367, "trialdata": {"rt": 3551, "stimulus": "<h1> End of block! </h1>\n\nYou have reached the end of the block 2/4. If you need a short break, feel free to take one now before moving on.\n\n<br><br>\nIn the next block, you will complete another 30 rounds of this game.\n\n<br><br>\n<div style='text-align: center;'>Press <code>space</code> to begin.</div>\n<br><br>\n<div style='text-align: center;'>(If the experiment doesn't continue, try clicking on the text and then pressing <code>space</code>.)</div>", "response": " ", "trial_id": "mdp_ready_3", "trial_type": "html-keyboard-response", "trial_index": 70, "time_elapsed": 1808897, "internal_node_id": "0.0-4.0-4.0"}}, {"uniqueid": "w72929126:a90207682", "current_trial": 71, "dateTime": 1664875083637, "trialdata": {"revealed_states": [], "num_clicks_accrued": [0, 0, 0, 0, 0, 0, 0, 0, 0, 0, 0, 0, 0], "stateRewards": ["", 4, 8, 24, 24, 2, -4, 48, -24, -4, 8, -24, 24], "withholdReward": true, "trial_id": "mdp_932292142091", "block": "test3", "trialIndex": 62, "score": 50.25, "costs": -0.75, "simulationMode": [null, null, null], "rewards": [2, -4, 48], "path": ["0", "0", "5", "6", "7"], "rt": [4643, 494, 81], "actions": ["right", "right", "up"], "actionTimes": [6020, 7045, 7636], "queries": {"click": {"state": {"target": ["3", "12", "7"], "time": [2397, 3754, 4784]}, "edge": {"target": [], "time": []}}, "mouseover": {"state": {"target": ["3", "1", "10", "12", "10", "7", "6"], "time": [2215, 3163, 3390, 3548, 4218, 4672, 5254]}, "edge": {"target": [], "time": []}}, "mouseout": {"state": {"target": ["0", "3", "1", "10", "12", "10", "7", "6"], "time": [1457, 3003, 3183, 3456, 4192, 4269, 5216, 5335]}, "edge": {"target": [], "time": []}}}, "displayed_time": "10.38", "trialTime": 11028, "trial_type": "mouselab-mdp", "trial_index": 71, "time_elapsed": 1820166, "internal_node_id": "0.0-4.0-5.0-0.0"}}, {"uniqueid": "w72929126:a90207682", "current_trial": 72, "dateTime": 1664875094221, "trialdata": {"revealed_states": [], "num_clicks_accrued": [0, 0, 0, 0, 0, 0, 0, 0, 0, 0, 0, 0, 0], "stateRewards": ["", 4, -4, 48, -48, 4, -4, 24, -24, 4, 8, -24, -48], "withholdReward": false, "trial_id": "mdp_433630527224", "block": "test3", "trialIndex": 63, "score": 52, "costs": -1, "simulationMode": [null, null, null], "rewards": [4, -4, 48], "path": ["0", "0", "1", "2", "3"], "rt": [4314, 68, 29], "actions": ["up", "up", "right"], "actionTimes": [5323, 5914, 6466], "queries": {"click": {"state": {"target": ["7", "11", "4", "3"], "time": [1622, 2567, 3554, 4338]}, "edge": {"target": [], "time": []}}, "mouseover": {"state": {"target": ["7", "6", "9", "11", "4", "3"], "time": [1458, 2091, 2258, 2444, 3390, 4221]}, "edge": {"target": [], "time": []}}, "mouseout": {"state": {"target": ["0", "0", "7", "6", "9", "11", "4", "3"], "time": [498, 1326, 2060, 2116, 2325, 3099, 4060, 4755]}, "edge": {"target": [], "time": []}}}, "displayed_time": "9.01", "trialTime": 9978, "trial_type": "mouselab-mdp", "trial_index": 72, "time_elapsed": 1830751, "internal_node_id": "0.0-4.0-5.0-1.0"}}, {"uniqueid": "w72929126:a90207682", "current_trial": 73, "dateTime": 1664875105054, "trialdata": {"revealed_states": [], "num_clicks_accrued": [0, 0, 0, 0, 0, 0, 0, 0, 0, 0, 0, 0, 0], "stateRewards": ["", -4, -4, -24, 24, -4, 4, -24, 48, -2, 4, 48, -48], "withholdReward": true, "trial_id": "mdp_774757609669", "block": "test3", "trialIndex": 64, "score": 52.75, "costs": -0.25, "simulationMode": [null, null, null], "rewards": [-4, 4, 48], "path": ["0", "0", "5", "6", "8"], "rt": [2279, 145, 88], "actions": ["right", "right", "down"], "actionTimes": [3243, 3907, 4515], "queries": {"click": {"state": {"target": ["8"], "time": [2216]}, "edge": {"target": [], "time": []}}, "mouseover": {"state": {"target": ["8"], "time": [2088]}, "edge": {"target": [], "time": []}}, "mouseout": {"state": {"target": ["0", "8"], "time": [1290, 2876]}, "edge": {"target": [], "time": []}}}, "displayed_time": "9.96", "trialTime": 10579, "trial_type": "mouselab-mdp", "trial_index": 73, "time_elapsed": 1841584, "internal_node_id": "0.0-4.0-5.0-2.0"}}, {"uniqueid": "w72929126:a90207682", "current_trial": 74, "dateTime": 1664875119151, "trialdata": {"revealed_states": [], "num_clicks_accrued": [0, 0, 0, 0, 0, 0, 0, 0, 0, 0, 0, 0, 0], "stateRewards": ["", -4, -8, -24, 24, 4, 4, -48, -48, -4, -4, 24, -48], "withholdReward": true, "trial_id": "mdp_431592223624", "block": "test3", "trialIndex": 65, "score": 15.5, "costs": -1.5, "simulationMode": [null, null, null], "rewards": [-4, -8, 24], "path": ["0", "0", "1", "2", "4"], "rt": [9237, 51, 697], "actions": ["up", "up", "left"], "actionTimes": [10101, 10660, 11877], "queries": {"click": {"state": {"target": ["3", "12", "11", "7", "8", "4"], "time": [1402, 2282, 3463, 4691, 5346, 7743]}, "edge": {"target": [], "time": []}}, "mouseover": {"state": {"target": ["3", "2", "1", "9", "12", "10", "11", "10", "8", "7", "6", "8", "1", "4"], "time": [1236, 1855, 1902, 1994, 2074, 3274, 3340, 3761, 3992, 4528, 5063, 5163, 6472, 7541]}, "edge": {"target": [], "time": []}}, "mouseout": {"state": {"target": ["0", "3", "2", "1", "9", "12", "10", "11", "10", "12", "8", "7", "6", "8", "1", "4", "0"], "time": [1113, 1834, 1878, 1925, 2022, 3154, 3295, 3728, 3791, 3926, 4014, 5035, 5139, 5739, 6511, 8048, 12359]}, "edge": {"target": [], "time": []}}}, "displayed_time": "12.40", "trialTime": 13893, "trial_type": "mouselab-mdp", "trial_index": 74, "time_elapsed": 1855681, "internal_node_id": "0.0-4.0-5.0-3.0"}}, {"uniqueid": "w72929126:a90207682", "current_trial": 75, "dateTime": 1664875131054, "trialdata": {"revealed_states": [], "num_clicks_accrued": [0, 0, 0, 0, 0, 0, 0, 0, 0, 0, 0, 0, 0], "stateRewards": ["", 2, 4, 48, -24, 2, -8, -24, -24, 2, -8, -24, -48], "withholdReward": true, "trial_id": "mdp_274832552938", "block": "test3", "trialIndex": 66, "score": 57.5, "costs": -1.5, "simulationMode": [null, null, null], "rewards": [2, 4, 48], "path": ["0", "0", "1", "2", "3"], "rt": [7312, 768, 416], "actions": ["up", "up", "right"], "actionTimes": [8262, 9590, 10526], "queries": {"click": {"state": {"target": ["4", "12", "11", "7", "8", "3"], "time": [2260, 3235, 4233, 5121, 5708, 7050]}, "edge": {"target": [], "time": []}}, "mouseover": {"state": {"target": ["0", "4", "12", "9", "11", "10", "0", "5", "7", "6", "8", "6", "3"], "time": [1651, 1864, 3024, 3984, 4117, 4447, 4770, 4815, 5010, 5428, 5503, 6646, 6942]}, "edge": {"target": [], "time": []}}, "mouseout": {"state": {"target": ["0", "0", "4", "12", "9", "11", "10", "0", "5", "7", "6", "8", "6", "3", "5"], "time": [1583, 1673, 2757, 3864, 4050, 4423, 4474, 4792, 4837, 5399, 5456, 6621, 6669, 7317, 11051]}, "edge": {"target": [], "time": []}}}, "displayed_time": "11.06", "trialTime": 11686, "trial_type": "mouselab-mdp", "trial_index": 75, "time_elapsed": 1867584, "internal_node_id": "0.0-4.0-5.0-4.0"}}, {"uniqueid": "w72929126:a90207682", "current_trial": 76, "dateTime": 1664875141958, "trialdata": {"revealed_states": [], "num_clicks_accrued": [0, 0, 0, 0, 0, 0, 0, 0, 0, 0, 0, 0, 0], "stateRewards": ["", -2, -4, -24, 48, -2, -8, -48, -24, 4, 8, 48, 24], "withholdReward": true, "trial_id": "mdp_625355871626", "block": "test3", "trialIndex": 67, "score": 63.75, "costs": -1.25, "simulationMode": [null, null, null], "rewards": [4, 8, 48], "path": ["0", "0", "9", "10", "11"], "rt": [5685, 72, 79], "actions": ["left", "left", "up"], "actionTimes": [6600, 7199, 7807], "queries": {"click": {"state": {"target": ["3", "12", "7", "8", "11"], "time": [1554, 2589, 3845, 4581, 5459]}, "edge": {"target": [], "time": []}}, "mouseover": {"state": {"target": ["3", "1", "0", "12", "7", "6", "8", "0", "9", "11", "9"], "time": [1353, 1994, 2127, 2380, 3688, 4269, 4366, 5113, 5158, 5366, 5992]}, "edge": {"target": [], "time": []}}, "mouseout": {"state": {"target": ["0", "3", "1", "0", "12", "7", "6", "8", "0", "9", "11", "9"], "time": [1117, 1955, 2061, 2148, 3340, 4246, 4313, 5075, 5134, 5180, 5938, 6032]}, "edge": {"target": [], "time": []}}}, "displayed_time": "9.92", "trialTime": 10670, "trial_type": "mouselab-mdp", "trial_index": 76, "time_elapsed": 1878487, "internal_node_id": "0.0-4.0-5.0-5.0"}}, {"uniqueid": "w72929126:a90207682", "current_trial": 77, "dateTime": 1664875152830, "trialdata": {"revealed_states": [], "num_clicks_accrued": [0, 0, 0, 0, 0, 0, 0, 0, 0, 0, 0, 0, 0], "stateRewards": ["", -2, 8, 24, -48, -2, -4, 24, 48, 2, 8, -48, -48], "withholdReward": true, "trial_id": "mdp_562228697607", "block": "test3", "trialIndex": 68, "score": 45.5, "costs": -1.5, "simulationMode": [null, null, null], "rewards": [-2, -4, 48], "path": ["0", "0", "5", "6", "8"], "rt": [6492, 16, 12], "actions": ["right", "right", "down"], "actionTimes": [7512, 8094, 8632], "queries": {"click": {"state": {"target": ["11", "12", "3", "4", "7", "8"], "time": [2035, 2766, 4003, 4687, 5653, 6229]}, "edge": {"target": [], "time": []}}, "mouseover": {"state": {"target": ["9", "11", "12", "0", "3", "2", "4", "1", "7", "6", "8"], "time": [1620, 1858, 2566, 3579, 3898, 4496, 4545, 5272, 5524, 5932, 6043]}, "edge": {"target": [], "time": []}}, "mouseout": {"state": {"target": ["0", "9", "11", "12", "0", "3", "2", "4", "1", "7", "6", "8"], "time": [1074, 1673, 2515, 3448, 3599, 4460, 4522, 5220, 5292, 5911, 5991, 6472]}, "edge": {"target": [], "time": []}}}, "displayed_time": "10.02", "trialTime": 10679, "trial_type": "mouselab-mdp", "trial_index": 77, "time_elapsed": 1889360, "internal_node_id": "0.0-4.0-5.0-6.0"}}, {"uniqueid": "w72929126:a90207682", "current_trial": 78, "dateTime": 1664875164950, "trialdata": {"revealed_states": [], "num_clicks_accrued": [0, 0, 0, 0, 0, 0, 0, 0, 0, 0, 0, 0, 0], "stateRewards": ["", 2, -4, -24, -24, -2, -8, -48, 24, -4, -8, 24, 24], "withholdReward": true, "trial_id": "mdp_521351546461", "block": "test3", "trialIndex": 69, "score": 15.5, "costs": -1.5, "simulationMode": [null, null, null], "rewards": [-4, -8, 24], "path": ["0", "0", "9", "10", "12"], "rt": [8693, 68, 45], "actions": ["left", "left", "down"], "actionTimes": [9301, 9880, 10439], "queries": {"click": {"state": {"target": ["8", "7", "4", "12", "11", "3"], "time": [1230, 2130, 3476, 4627, 5429, 6462]}, "edge": {"target": [], "time": []}}, "mouseover": {"state": {"target": ["8", "6", "7", "5", "1", "4", "11", "10", "12", "11", "3", "3"], "time": [1020, 1896, 1993, 2568, 2846, 3059, 4039, 4072, 4525, 5273, 5872, 6328]}, "edge": {"target": [], "time": []}}, "mouseout": {"state": {"target": ["0", "8", "6", "7", "5", "1", "4", "11", "10", "12", "11", "3", "3"], "time": [901, 1861, 1925, 2536, 2768, 2879, 4006, 4068, 4165, 5173, 5791, 5952, 6671]}, "edge": {"target": [], "time": []}}}, "displayed_time": "10.97", "trialTime": 11911, "trial_type": "mouselab-mdp", "trial_index": 78, "time_elapsed": 1901480, "internal_node_id": "0.0-4.0-5.0-7.0"}}], "questiondata": {"params": {"CODE": "C6DMOQA6", "MIN_TIME": 7, "inspectCost": 0.25, "startTime": "Tue Oct 04 2022 10:47:42 GMT+0200 (czas \u015brodkowoeuropejski letni)", "bonusRate": 0.002, "variance": "2_4_24", "branching": "312"}}, "eventdata": [{"eventtype": "initialized", "value": null, "timestamp": 1664873262043, "interval": 0}, {"eventtype": "window_resize", "value": [1024, 767], "timestamp": 1664873262043, "interval": 0}, {"eventtype": "window_resize", "value": [1024, 767], "timestamp": 1664873262376, "interval": 333}, {"eventtype": "window_resize", "value": [1280, 1024], "timestamp": 1664873267412, "interval": 5036}], "useragent": "Mozilla/5.0 (Windows NT 10.0) AppleWebKit/537.36 (KHTML, like Gecko) Chrome/106.0.0.0 Safari/537.36", "mode": "live", "id": "w72929126:a90207682", "status": "user data saved", "Beginhit": "2022-10-04 08:47:46.306103", "Beginexp": "2022-10-04 08:47:55.82526", "Endhit": null, "psiturkStatus": 2, "browser": "<redacted>", "platform": "windows", "language": "pl-PL"}