{"condition": 0, "counterbalance": 0, "assignmentId": "a44431839", "workerId": "w32130968", "hitId": "h74704883", "currenttrial": 959, "bonus": 0, "data": [{"uniqueid": "w32130968:a44431839", "current_trial": 0, "dateTime": 1664873120295, "trialdata": {"success": true, "trial_type": "fullscreen", "trial_index": 0, "time_elapsed": 13930, "internal_node_id": "0.0-0.0"}}, {"uniqueid": "w32130968:a44431839", "current_trial": 1, "dateTime": 1664873136405, "trialdata": {"view_history": [{"page_index": 0, "viewing_time": 16060}], "rt": 16061, "trial_id": "exp_instructions_distractor", "trial_type": "instructions", "trial_index": 1, "time_elapsed": 30042, "internal_node_id": "0.0-1.0"}}, {"uniqueid": "w32130968:a44431839", "current_trial": 2, "dateTime": 1664873164466, "trialdata": {"view_history": [{"page_index": 0, "viewing_time": 28058}], "rt": 28058, "trial_id": "color_game_instructions", "trial_type": "instructions", "trial_index": 2, "time_elapsed": 58103, "internal_node_id": "0.0-2.0"}}, {"uniqueid": "w32130968:a44431839", "current_trial": 3, "dateTime": 1664873166616, "trialdata": {"rt": 2147, "stimulus": "<h1> Get ready to start the game! </h1>\n\nThank you for reading the instructions. Get ready start with the first of 5 block(s) of this game.\n<br><br>\nIn this first block, you will complete 90 rounds of this game before moving on.\n<br><br>\nRemember, the better you perform, the bigger your bonus will be!\n<br><br>\n<div style='text-align: center;'>Press <code>space</code> to begin.</div>", "response": " ", "trial_id": "stroop_1_ready_1", "trial_type": "html-keyboard-response", "trial_index": 3, "time_elapsed": 60252, "internal_node_id": "0.0-3.0"}}, {"uniqueid": "w32130968:a44431839", "current_trial": 4, "dateTime": 1664873168164, "trialdata": {"rt": 1513, "stimulus": "<p id='stroop-text' class='stroop-red'>GREEN</p>", "response": "r", "stimulus-type": "incongruent", "word": "green", "color": "red", "correct_response": "r", "trial_id": "stroop-trial-1-incongruent-28", "trial_type": "html-keyboard-response", "trial_index": 4, "time_elapsed": 61799, "internal_node_id": "0.0-4.0-0.0"}}, {"uniqueid": "w32130968:a44431839", "current_trial": 5, "dateTime": 1664873170142, "trialdata": {"rt": 1467, "stimulus": "<p id='stroop-text' class='stroop-red'>GREEN</p>", "response": "r", "stimulus-type": "incongruent", "word": "green", "color": "red", "correct_response": "r", "trial_id": "stroop-trial-1-incongruent-29", "trial_type": "html-keyboard-response", "trial_index": 5, "time_elapsed": 63778, "internal_node_id": "0.0-4.0-1.0"}}, {"uniqueid": "w32130968:a44431839", "current_trial": 6, "dateTime": 1664873171322, "trialdata": {"rt": 669, "stimulus": "<p id='stroop-text' class='stroop-red'>RED</p>", "response": "r", "stimulus-type": "congruent", "word": "red", "color": "red", "correct_response": "r", "trial_id": "stroop-trial-1-congruent-9", "trial_type": "html-keyboard-response", "trial_index": 6, "time_elapsed": 64958, "internal_node_id": "0.0-4.0-2.0"}}, {"uniqueid": "w32130968:a44431839", "current_trial": 7, "dateTime": 1664873173483, "trialdata": {"rt": 1649, "stimulus": "<p id='stroop-text' class='stroop-green'>RED</p>", "response": "g", "stimulus-type": "incongruent", "word": "red", "color": "green", "correct_response": "g", "trial_id": "stroop-trial-1-incongruent-15", "trial_type": "html-keyboard-response", "trial_index": 7, "time_elapsed": 67119, "internal_node_id": "0.0-4.0-3.0"}}, {"uniqueid": "w32130968:a44431839", "current_trial": 8, "dateTime": 1664873175583, "trialdata": {"rt": 1594, "stimulus": "<p id='stroop-text' class='stroop-blue'>YELLOW</p>", "response": "b", "stimulus-type": "incongruent", "word": "yellow", "color": "blue", "correct_response": "b", "trial_id": "stroop-trial-1-incongruent-3", "trial_type": "html-keyboard-response", "trial_index": 8, "time_elapsed": 69218, "internal_node_id": "0.0-4.0-4.0"}}, {"uniqueid": "w32130968:a44431839", "current_trial": 9, "dateTime": 1664873177452, "trialdata": {"rt": 1361, "stimulus": "<p id='stroop-text' class='stroop-green'>MONKEY</p>", "response": "r", "stimulus-type": "unrelated", "word": "MONKEY", "color": "green", "correct_response": "g", "trial_id": "stroop-trial-1-unrelated-13", "trial_type": "html-keyboard-response", "trial_index": 9, "time_elapsed": 71088, "internal_node_id": "0.0-4.0-5.0"}}, {"uniqueid": "w32130968:a44431839", "current_trial": 10, "dateTime": 1664873178992, "trialdata": {"rt": 1025, "stimulus": "<p id='stroop-text' class='stroop-yellow'>SHIP</p>", "response": "y", "stimulus-type": "unrelated", "word": "SHIP", "color": "yellow", "correct_response": "y", "trial_id": "stroop-trial-1-unrelated-8", "trial_type": "html-keyboard-response", "trial_index": 10, "time_elapsed": 72628, "internal_node_id": "0.0-4.0-6.0"}}, {"uniqueid": "w32130968:a44431839", "current_trial": 11, "dateTime": 1664873180672, "trialdata": {"rt": 1170, "stimulus": "<p id='stroop-text' class='stroop-red'>YELLOW</p>", "response": "y", "stimulus-type": "incongruent", "word": "yellow", "color": "red", "correct_response": "r", "trial_id": "stroop-trial-1-incongruent-12", "trial_type": "html-keyboard-response", "trial_index": 11, "time_elapsed": 74308, "internal_node_id": "0.0-4.0-7.0"}}, {"uniqueid": "w32130968:a44431839", "current_trial": 12, "dateTime": 1664873182242, "trialdata": {"rt": 1059, "stimulus": "<p id='stroop-text' class='stroop-green'>GREEN</p>", "response": "g", "stimulus-type": "congruent", "word": "green", "color": "green", "correct_response": "g", "trial_id": "stroop-trial-1-congruent-24", "trial_type": "html-keyboard-response", "trial_index": 12, "time_elapsed": 75878, "internal_node_id": "0.0-4.0-8.0"}}, {"uniqueid": "w32130968:a44431839", "current_trial": 13, "dateTime": 1664873183532, "trialdata": {"rt": 772, "stimulus": "<p id='stroop-text' class='stroop-green'>BRAIN</p>", "response": "g", "stimulus-type": "unrelated", "word": "BRAIN", "color": "green", "correct_response": "g", "trial_id": "stroop-trial-1-unrelated-18", "trial_type": "html-keyboard-response", "trial_index": 13, "time_elapsed": 77168, "internal_node_id": "0.0-4.0-9.0"}}, {"uniqueid": "w32130968:a44431839", "current_trial": 14, "dateTime": 1664873184772, "trialdata": {"rt": 726, "stimulus": "<p id='stroop-text' class='stroop-yellow'>YELLOW</p>", "response": "y", "stimulus-type": "congruent", "word": "yellow", "color": "yellow", "correct_response": "y", "trial_id": "stroop-trial-1-congruent-5", "trial_type": "html-keyboard-response", "trial_index": 14, "time_elapsed": 78409, "internal_node_id": "0.0-4.0-10.0"}}, {"uniqueid": "w32130968:a44431839", "current_trial": 15, "dateTime": 1664873186062, "trialdata": {"rt": 778, "stimulus": "<p id='stroop-text' class='stroop-red'>YELLOW</p>", "response": "r", "stimulus-type": "incongruent", "word": "yellow", "color": "red", "correct_response": "r", "trial_id": "stroop-trial-1-incongruent-18", "trial_type": "html-keyboard-response", "trial_index": 15, "time_elapsed": 79699, "internal_node_id": "0.0-4.0-11.0"}}, {"uniqueid": "w32130968:a44431839", "current_trial": 16, "dateTime": 1664873187449, "trialdata": {"rt": 874, "stimulus": "<p id='stroop-text' class='stroop-red'>BOTTLE</p>", "response": "r", "stimulus-type": "unrelated", "word": "BOTTLE", "color": "red", "correct_response": "r", "trial_id": "stroop-trial-1-unrelated-17", "trial_type": "html-keyboard-response", "trial_index": 16, "time_elapsed": 81085, "internal_node_id": "0.0-4.0-12.0"}}, {"uniqueid": "w32130968:a44431839", "current_trial": 17, "dateTime": 1664873188649, "trialdata": {"rt": 686, "stimulus": "<p id='stroop-text' class='stroop-red'>BRAIN</p>", "response": "r", "stimulus-type": "unrelated", "word": "BRAIN", "color": "red", "correct_response": "r", "trial_id": "stroop-trial-1-unrelated-30", "trial_type": "html-keyboard-response", "trial_index": 17, "time_elapsed": 82286, "internal_node_id": "0.0-4.0-13.0"}}, {"uniqueid": "w32130968:a44431839", "current_trial": 18, "dateTime": 1664873190561, "trialdata": {"rt": 1406, "stimulus": "<p id='stroop-text' class='stroop-yellow'>BLUE</p>", "response": "y", "stimulus-type": "incongruent", "word": "blue", "color": "yellow", "correct_response": "y", "trial_id": "stroop-trial-1-incongruent-20", "trial_type": "html-keyboard-response", "trial_index": 18, "time_elapsed": 84198, "internal_node_id": "0.0-4.0-14.0"}}, {"uniqueid": "w32130968:a44431839", "current_trial": 19, "dateTime": 1664873193042, "trialdata": {"rt": 1971, "stimulus": "<p id='stroop-text' class='stroop-blue'>YELLOW</p>", "response": "b", "stimulus-type": "incongruent", "word": "yellow", "color": "blue", "correct_response": "b", "trial_id": "stroop-trial-1-incongruent-5", "trial_type": "html-keyboard-response", "trial_index": 19, "time_elapsed": 86678, "internal_node_id": "0.0-4.0-15.0"}}, {"uniqueid": "w32130968:a44431839", "current_trial": 20, "dateTime": 1664873194962, "trialdata": {"rt": 1415, "stimulus": "<p id='stroop-text' class='stroop-green'>BOTTLE</p>", "response": "g", "stimulus-type": "unrelated", "word": "BOTTLE", "color": "green", "correct_response": "g", "trial_id": "stroop-trial-1-unrelated-2", "trial_type": "html-keyboard-response", "trial_index": 20, "time_elapsed": 88598, "internal_node_id": "0.0-4.0-16.0"}}, {"uniqueid": "w32130968:a44431839", "current_trial": 21, "dateTime": 1664873195942, "trialdata": {"rt": 470, "stimulus": "<p id='stroop-text' class='stroop-green'>GREEN</p>", "response": "g", "stimulus-type": "congruent", "word": "green", "color": "green", "correct_response": "g", "trial_id": "stroop-trial-1-congruent-3", "trial_type": "html-keyboard-response", "trial_index": 21, "time_elapsed": 89578, "internal_node_id": "0.0-4.0-17.0"}}, {"uniqueid": "w32130968:a44431839", "current_trial": 22, "dateTime": 1664873197402, "trialdata": {"rt": 951, "stimulus": "<p id='stroop-text' class='stroop-red'>RED</p>", "response": "r", "stimulus-type": "congruent", "word": "red", "color": "red", "correct_response": "r", "trial_id": "stroop-trial-1-congruent-25", "trial_type": "html-keyboard-response", "trial_index": 22, "time_elapsed": 91039, "internal_node_id": "0.0-4.0-18.0"}}, {"uniqueid": "w32130968:a44431839", "current_trial": 23, "dateTime": 1664873199172, "trialdata": {"rt": 1260, "stimulus": "<p id='stroop-text' class='stroop-green'>GREEN</p>", "response": "b", "stimulus-type": "congruent", "word": "green", "color": "green", "correct_response": "g", "trial_id": "stroop-trial-1-congruent-7", "trial_type": "html-keyboard-response", "trial_index": 23, "time_elapsed": 92808, "internal_node_id": "0.0-4.0-19.0"}}, {"uniqueid": "w32130968:a44431839", "current_trial": 24, "dateTime": 1664873200622, "trialdata": {"rt": 936, "stimulus": "<p id='stroop-text' class='stroop-red'>RED</p>", "response": "r", "stimulus-type": "congruent", "word": "red", "color": "red", "correct_response": "r", "trial_id": "stroop-trial-1-congruent-4", "trial_type": "html-keyboard-response", "trial_index": 24, "time_elapsed": 94258, "internal_node_id": "0.0-4.0-20.0"}}, {"uniqueid": "w32130968:a44431839", "current_trial": 25, "dateTime": 1664873202603, "trialdata": {"rt": 1460, "stimulus": "<p id='stroop-text' class='stroop-blue'>RED</p>", "response": "b", "stimulus-type": "incongruent", "word": "red", "color": "blue", "correct_response": "b", "trial_id": "stroop-trial-1-incongruent-11", "trial_type": "html-keyboard-response", "trial_index": 25, "time_elapsed": 96239, "internal_node_id": "0.0-4.0-21.0"}}, {"uniqueid": "w32130968:a44431839", "current_trial": 26, "dateTime": 1664873204253, "trialdata": {"rt": 1138, "stimulus": "<p id='stroop-text' class='stroop-red'>BRIDGE</p>", "response": "r", "stimulus-type": "unrelated", "word": "BRIDGE", "color": "red", "correct_response": "r", "trial_id": "stroop-trial-1-unrelated-24", "trial_type": "html-keyboard-response", "trial_index": 26, "time_elapsed": 97889, "internal_node_id": "0.0-4.0-22.0"}}, {"uniqueid": "w32130968:a44431839", "current_trial": 27, "dateTime": 1664873206213, "trialdata": {"rt": 1446, "stimulus": "<p id='stroop-text' class='stroop-green'>DOG</p>", "response": "g", "stimulus-type": "unrelated", "word": "DOG", "color": "green", "correct_response": "g", "trial_id": "stroop-trial-1-unrelated-7", "trial_type": "html-keyboard-response", "trial_index": 27, "time_elapsed": 99849, "internal_node_id": "0.0-4.0-23.0"}}, {"uniqueid": "w32130968:a44431839", "current_trial": 28, "dateTime": 1664873207943, "trialdata": {"rt": 1222, "stimulus": "<p id='stroop-text' class='stroop-red'>GREEN</p>", "response": "r", "stimulus-type": "incongruent", "word": "green", "color": "red", "correct_response": "r", "trial_id": "stroop-trial-1-incongruent-22", "trial_type": "html-keyboard-response", "trial_index": 28, "time_elapsed": 101580, "internal_node_id": "0.0-4.0-24.0"}}, {"uniqueid": "w32130968:a44431839", "current_trial": 29, "dateTime": 1664873209323, "trialdata": {"rt": 868, "stimulus": "<p id='stroop-text' class='stroop-yellow'>YELLOW</p>", "response": "y", "stimulus-type": "congruent", "word": "yellow", "color": "yellow", "correct_response": "y", "trial_id": "stroop-trial-1-congruent-1", "trial_type": "html-keyboard-response", "trial_index": 29, "time_elapsed": 102959, "internal_node_id": "0.0-4.0-25.0"}}, {"uniqueid": "w32130968:a44431839", "current_trial": 30, "dateTime": 1664873210563, "trialdata": {"rt": 730, "stimulus": "<p id='stroop-text' class='stroop-red'>YELLOW</p>", "response": "r", "stimulus-type": "incongruent", "word": "yellow", "color": "red", "correct_response": "r", "trial_id": "stroop-trial-1-incongruent-30", "trial_type": "html-keyboard-response", "trial_index": 30, "time_elapsed": 104199, "internal_node_id": "0.0-4.0-26.0"}}, {"uniqueid": "w32130968:a44431839", "current_trial": 31, "dateTime": 1664873212083, "trialdata": {"rt": 1007, "stimulus": "<p id='stroop-text' class='stroop-blue'>WINDOW</p>", "response": "b", "stimulus-type": "unrelated", "word": "WINDOW", "color": "blue", "correct_response": "b", "trial_id": "stroop-trial-1-unrelated-19", "trial_type": "html-keyboard-response", "trial_index": 31, "time_elapsed": 105719, "internal_node_id": "0.0-4.0-27.0"}}, {"uniqueid": "w32130968:a44431839", "current_trial": 32, "dateTime": 1664873213242, "trialdata": {"rt": 648, "stimulus": "<p id='stroop-text' class='stroop-green'>GREEN</p>", "response": "r", "stimulus-type": "congruent", "word": "green", "color": "green", "correct_response": "g", "trial_id": "stroop-trial-1-congruent-23", "trial_type": "html-keyboard-response", "trial_index": 32, "time_elapsed": 106878, "internal_node_id": "0.0-4.0-28.0"}}, {"uniqueid": "w32130968:a44431839", "current_trial": 33, "dateTime": 1664873214653, "trialdata": {"rt": 901, "stimulus": "<p id='stroop-text' class='stroop-green'>GREEN</p>", "response": "g", "stimulus-type": "congruent", "word": "green", "color": "green", "correct_response": "g", "trial_id": "stroop-trial-1-congruent-28", "trial_type": "html-keyboard-response", "trial_index": 33, "time_elapsed": 108289, "internal_node_id": "0.0-4.0-29.0"}}, {"uniqueid": "w32130968:a44431839", "current_trial": 34, "dateTime": 1664873215983, "trialdata": {"rt": 822, "stimulus": "<p id='stroop-text' class='stroop-yellow'>YELLOW</p>", "response": "y", "stimulus-type": "congruent", "word": "yellow", "color": "yellow", "correct_response": "y", "trial_id": "stroop-trial-1-congruent-29", "trial_type": "html-keyboard-response", "trial_index": 34, "time_elapsed": 109619, "internal_node_id": "0.0-4.0-30.0"}}, {"uniqueid": "w32130968:a44431839", "current_trial": 35, "dateTime": 1664873217443, "trialdata": {"rt": 954, "stimulus": "<p id='stroop-text' class='stroop-red'>RED</p>", "response": "r", "stimulus-type": "congruent", "word": "red", "color": "red", "correct_response": "r", "trial_id": "stroop-trial-1-congruent-8", "trial_type": "html-keyboard-response", "trial_index": 35, "time_elapsed": 111079, "internal_node_id": "0.0-4.0-31.0"}}, {"uniqueid": "w32130968:a44431839", "current_trial": 36, "dateTime": 1664873219313, "trialdata": {"rt": 1362, "stimulus": "<p id='stroop-text' class='stroop-yellow'>YELLOW</p>", "response": "y", "stimulus-type": "congruent", "word": "yellow", "color": "yellow", "correct_response": "y", "trial_id": "stroop-trial-1-congruent-6", "trial_type": "html-keyboard-response", "trial_index": 36, "time_elapsed": 112950, "internal_node_id": "0.0-4.0-32.0"}}, {"uniqueid": "w32130968:a44431839", "current_trial": 37, "dateTime": 1664873221244, "trialdata": {"rt": 1421, "stimulus": "<p id='stroop-text' class='stroop-blue'>BLUE</p>", "response": "b", "stimulus-type": "congruent", "word": "blue", "color": "blue", "correct_response": "b", "trial_id": "stroop-trial-1-congruent-2", "trial_type": "html-keyboard-response", "trial_index": 37, "time_elapsed": 114880, "internal_node_id": "0.0-4.0-33.0"}}, {"uniqueid": "w32130968:a44431839", "current_trial": 38, "dateTime": 1664873222463, "trialdata": {"rt": 711, "stimulus": "<p id='stroop-text' class='stroop-red'>STONE</p>", "response": "r", "stimulus-type": "unrelated", "word": "STONE", "color": "red", "correct_response": "r", "trial_id": "stroop-trial-1-unrelated-27", "trial_type": "html-keyboard-response", "trial_index": 38, "time_elapsed": 116099, "internal_node_id": "0.0-4.0-34.0"}}, {"uniqueid": "w32130968:a44431839", "current_trial": 39, "dateTime": 1664873224783, "trialdata": {"rt": 1806, "stimulus": "<p id='stroop-text' class='stroop-blue'>YELLOW</p>", "response": "b", "stimulus-type": "incongruent", "word": "yellow", "color": "blue", "correct_response": "b", "trial_id": "stroop-trial-1-incongruent-9", "trial_type": "html-keyboard-response", "trial_index": 39, "time_elapsed": 118420, "internal_node_id": "0.0-4.0-35.0"}}, {"uniqueid": "w32130968:a44431839", "current_trial": 40, "dateTime": 1664873226293, "trialdata": {"rt": 996, "stimulus": "<p id='stroop-text' class='stroop-green'>GREEN</p>", "response": "g", "stimulus-type": "congruent", "word": "green", "color": "green", "correct_response": "g", "trial_id": "stroop-trial-1-congruent-10", "trial_type": "html-keyboard-response", "trial_index": 40, "time_elapsed": 119930, "internal_node_id": "0.0-4.0-36.0"}}, {"uniqueid": "w32130968:a44431839", "current_trial": 41, "dateTime": 1664873227323, "trialdata": {"rt": 520, "stimulus": "<p id='stroop-text' class='stroop-green'>STONE</p>", "response": "g", "stimulus-type": "unrelated", "word": "STONE", "color": "green", "correct_response": "g", "trial_id": "stroop-trial-1-unrelated-14", "trial_type": "html-keyboard-response", "trial_index": 41, "time_elapsed": 120960, "internal_node_id": "0.0-4.0-37.0"}}, {"uniqueid": "w32130968:a44431839", "current_trial": 42, "dateTime": 1664873228604, "trialdata": {"rt": 769, "stimulus": "<p id='stroop-text' class='stroop-red'>WINDOW</p>", "response": "r", "stimulus-type": "unrelated", "word": "WINDOW", "color": "red", "correct_response": "r", "trial_id": "stroop-trial-1-unrelated-9", "trial_type": "html-keyboard-response", "trial_index": 42, "time_elapsed": 122240, "internal_node_id": "0.0-4.0-38.0"}}, {"uniqueid": "w32130968:a44431839", "current_trial": 43, "dateTime": 1664873229793, "trialdata": {"rt": 674, "stimulus": "<p id='stroop-text' class='stroop-yellow'>BOAT</p>", "response": "b", "stimulus-type": "unrelated", "word": "BOAT", "color": "yellow", "correct_response": "y", "trial_id": "stroop-trial-1-unrelated-11", "trial_type": "html-keyboard-response", "trial_index": 43, "time_elapsed": 123429, "internal_node_id": "0.0-4.0-39.0"}}, {"uniqueid": "w32130968:a44431839", "current_trial": 44, "dateTime": 1664873230903, "trialdata": {"rt": 595, "stimulus": "<p id='stroop-text' class='stroop-yellow'>CHAIR</p>", "response": "y", "stimulus-type": "unrelated", "word": "CHAIR", "color": "yellow", "correct_response": "y", "trial_id": "stroop-trial-1-unrelated-3", "trial_type": "html-keyboard-response", "trial_index": 44, "time_elapsed": 124539, "internal_node_id": "0.0-4.0-40.0"}}, {"uniqueid": "w32130968:a44431839", "current_trial": 45, "dateTime": 1664873232003, "trialdata": {"rt": 592, "stimulus": "<p id='stroop-text' class='stroop-red'>RED</p>", "response": "r", "stimulus-type": "congruent", "word": "red", "color": "red", "correct_response": "r", "trial_id": "stroop-trial-1-congruent-21", "trial_type": "html-keyboard-response", "trial_index": 45, "time_elapsed": 125639, "internal_node_id": "0.0-4.0-41.0"}}, {"uniqueid": "w32130968:a44431839", "current_trial": 46, "dateTime": 1664873233113, "trialdata": {"rt": 603, "stimulus": "<p id='stroop-text' class='stroop-green'>YELLOW</p>", "response": "g", "stimulus-type": "incongruent", "word": "yellow", "color": "green", "correct_response": "g", "trial_id": "stroop-trial-1-incongruent-14", "trial_type": "html-keyboard-response", "trial_index": 46, "time_elapsed": 126749, "internal_node_id": "0.0-4.0-42.0"}}, {"uniqueid": "w32130968:a44431839", "current_trial": 47, "dateTime": 1664873234103, "trialdata": {"rt": 480, "stimulus": "<p id='stroop-text' class='stroop-green'>STONE</p>", "response": "g", "stimulus-type": "unrelated", "word": "STONE", "color": "green", "correct_response": "g", "trial_id": "stroop-trial-1-unrelated-6", "trial_type": "html-keyboard-response", "trial_index": 47, "time_elapsed": 127739, "internal_node_id": "0.0-4.0-43.0"}}, {"uniqueid": "w32130968:a44431839", "current_trial": 48, "dateTime": 1664873235203, "trialdata": {"rt": 593, "stimulus": "<p id='stroop-text' class='stroop-yellow'>RED</p>", "response": "y", "stimulus-type": "incongruent", "word": "red", "color": "yellow", "correct_response": "y", "trial_id": "stroop-trial-1-incongruent-24", "trial_type": "html-keyboard-response", "trial_index": 48, "time_elapsed": 128840, "internal_node_id": "0.0-4.0-44.0"}}, {"uniqueid": "w32130968:a44431839", "current_trial": 49, "dateTime": 1664873236573, "trialdata": {"rt": 862, "stimulus": "<p id='stroop-text' class='stroop-red'>RED</p>", "response": "r", "stimulus-type": "congruent", "word": "red", "color": "red", "correct_response": "r", "trial_id": "stroop-trial-1-congruent-18", "trial_type": "html-keyboard-response", "trial_index": 49, "time_elapsed": 130209, "internal_node_id": "0.0-4.0-45.0"}}, {"uniqueid": "w32130968:a44431839", "current_trial": 50, "dateTime": 1664873237653, "trialdata": {"rt": 565, "stimulus": "<p id='stroop-text' class='stroop-yellow'>YELLOW</p>", "response": "y", "stimulus-type": "congruent", "word": "yellow", "color": "yellow", "correct_response": "y", "trial_id": "stroop-trial-1-congruent-20", "trial_type": "html-keyboard-response", "trial_index": 50, "time_elapsed": 131289, "internal_node_id": "0.0-4.0-46.0"}}, {"uniqueid": "w32130968:a44431839", "current_trial": 51, "dateTime": 1664873238784, "trialdata": {"rt": 624, "stimulus": "<p id='stroop-text' class='stroop-green'>BLUE</p>", "response": "g", "stimulus-type": "incongruent", "word": "blue", "color": "green", "correct_response": "g", "trial_id": "stroop-trial-1-incongruent-26", "trial_type": "html-keyboard-response", "trial_index": 51, "time_elapsed": 132420, "internal_node_id": "0.0-4.0-47.0"}}, {"uniqueid": "w32130968:a44431839", "current_trial": 52, "dateTime": 1664873239805, "trialdata": {"rt": 510, "stimulus": "<p id='stroop-text' class='stroop-blue'>BRIDGE</p>", "response": "b", "stimulus-type": "unrelated", "word": "BRIDGE", "color": "blue", "correct_response": "b", "trial_id": "stroop-trial-1-unrelated-20", "trial_type": "html-keyboard-response", "trial_index": 52, "time_elapsed": 133441, "internal_node_id": "0.0-4.0-48.0"}}, {"uniqueid": "w32130968:a44431839", "current_trial": 53, "dateTime": 1664873240855, "trialdata": {"rt": 542, "stimulus": "<p id='stroop-text' class='stroop-green'>GREEN</p>", "response": "g", "stimulus-type": "congruent", "word": "green", "color": "green", "correct_response": "g", "trial_id": "stroop-trial-1-congruent-16", "trial_type": "html-keyboard-response", "trial_index": 53, "time_elapsed": 134491, "internal_node_id": "0.0-4.0-49.0"}}, {"uniqueid": "w32130968:a44431839", "current_trial": 54, "dateTime": 1664873241794, "trialdata": {"rt": 432, "stimulus": "<p id='stroop-text' class='stroop-blue'>BLUE</p>", "response": "g", "stimulus-type": "congruent", "word": "blue", "color": "blue", "correct_response": "b", "trial_id": "stroop-trial-1-congruent-12", "trial_type": "html-keyboard-response", "trial_index": 54, "time_elapsed": 135430, "internal_node_id": "0.0-4.0-50.0"}}, {"uniqueid": "w32130968:a44431839", "current_trial": 55, "dateTime": 1664873242904, "trialdata": {"rt": 601, "stimulus": "<p id='stroop-text' class='stroop-red'>BLUE</p>", "response": "r", "stimulus-type": "incongruent", "word": "blue", "color": "red", "correct_response": "r", "trial_id": "stroop-trial-1-incongruent-1", "trial_type": "html-keyboard-response", "trial_index": 55, "time_elapsed": 136540, "internal_node_id": "0.0-4.0-51.0"}}, {"uniqueid": "w32130968:a44431839", "current_trial": 56, "dateTime": 1664873244064, "trialdata": {"rt": 644, "stimulus": "<p id='stroop-text' class='stroop-red'>YELLOW</p>", "response": "r", "stimulus-type": "incongruent", "word": "yellow", "color": "red", "correct_response": "r", "trial_id": "stroop-trial-1-incongruent-27", "trial_type": "html-keyboard-response", "trial_index": 56, "time_elapsed": 137700, "internal_node_id": "0.0-4.0-52.0"}}, {"uniqueid": "w32130968:a44431839", "current_trial": 57, "dateTime": 1664873245034, "trialdata": {"rt": 462, "stimulus": "<p id='stroop-text' class='stroop-red'>MONKEY</p>", "response": "r", "stimulus-type": "unrelated", "word": "MONKEY", "color": "red", "correct_response": "r", "trial_id": "stroop-trial-1-unrelated-5", "trial_type": "html-keyboard-response", "trial_index": 57, "time_elapsed": 138670, "internal_node_id": "0.0-4.0-53.0"}}, {"uniqueid": "w32130968:a44431839", "current_trial": 58, "dateTime": 1664873245975, "trialdata": {"rt": 432, "stimulus": "<p id='stroop-text' class='stroop-red'>MONKEY</p>", "response": "r", "stimulus-type": "unrelated", "word": "MONKEY", "color": "red", "correct_response": "r", "trial_id": "stroop-trial-1-unrelated-26", "trial_type": "html-keyboard-response", "trial_index": 58, "time_elapsed": 139611, "internal_node_id": "0.0-4.0-54.0"}}, {"uniqueid": "w32130968:a44431839", "current_trial": 59, "dateTime": 1664873247045, "trialdata": {"rt": 552, "stimulus": "<p id='stroop-text' class='stroop-blue'>SHIP</p>", "response": "b", "stimulus-type": "unrelated", "word": "SHIP", "color": "blue", "correct_response": "b", "trial_id": "stroop-trial-1-unrelated-12", "trial_type": "html-keyboard-response", "trial_index": 59, "time_elapsed": 140681, "internal_node_id": "0.0-4.0-55.0"}}, {"uniqueid": "w32130968:a44431839", "current_trial": 60, "dateTime": 1664873247964, "trialdata": {"rt": 401, "stimulus": "<p id='stroop-text' class='stroop-blue'>BLUE</p>", "response": "b", "stimulus-type": "congruent", "word": "blue", "color": "blue", "correct_response": "b", "trial_id": "stroop-trial-1-congruent-26", "trial_type": "html-keyboard-response", "trial_index": 60, "time_elapsed": 141601, "internal_node_id": "0.0-4.0-56.0"}}, {"uniqueid": "w32130968:a44431839", "current_trial": 61, "dateTime": 1664873249044, "trialdata": {"rt": 567, "stimulus": "<p id='stroop-text' class='stroop-yellow'>YELLOW</p>", "response": "y", "stimulus-type": "congruent", "word": "yellow", "color": "yellow", "correct_response": "y", "trial_id": "stroop-trial-1-congruent-27", "trial_type": "html-keyboard-response", "trial_index": 61, "time_elapsed": 142681, "internal_node_id": "0.0-4.0-57.0"}}, {"uniqueid": "w32130968:a44431839", "current_trial": 62, "dateTime": 1664873250024, "trialdata": {"rt": 466, "stimulus": "<p id='stroop-text' class='stroop-yellow'>GREEN</p>", "response": "y", "stimulus-type": "incongruent", "word": "green", "color": "yellow", "correct_response": "y", "trial_id": "stroop-trial-1-incongruent-13", "trial_type": "html-keyboard-response", "trial_index": 62, "time_elapsed": 143661, "internal_node_id": "0.0-4.0-58.0"}}, {"uniqueid": "w32130968:a44431839", "current_trial": 63, "dateTime": 1664873251274, "trialdata": {"rt": 732, "stimulus": "<p id='stroop-text' class='stroop-blue'>MONKEY</p>", "response": "b", "stimulus-type": "unrelated", "word": "MONKEY", "color": "blue", "correct_response": "b", "trial_id": "stroop-trial-1-unrelated-1", "trial_type": "html-keyboard-response", "trial_index": 63, "time_elapsed": 144911, "internal_node_id": "0.0-4.0-59.0"}}, {"uniqueid": "w32130968:a44431839", "current_trial": 64, "dateTime": 1664873252315, "trialdata": {"rt": 530, "stimulus": "<p id='stroop-text' class='stroop-green'>GREEN</p>", "response": "r", "stimulus-type": "congruent", "word": "green", "color": "green", "correct_response": "g", "trial_id": "stroop-trial-1-congruent-17", "trial_type": "html-keyboard-response", "trial_index": 64, "time_elapsed": 145951, "internal_node_id": "0.0-4.0-60.0"}}, {"uniqueid": "w32130968:a44431839", "current_trial": 65, "dateTime": 1664873253764, "trialdata": {"rt": 937, "stimulus": "<p id='stroop-text' class='stroop-red'>BLUE</p>", "response": "b", "stimulus-type": "incongruent", "word": "blue", "color": "red", "correct_response": "r", "trial_id": "stroop-trial-1-incongruent-17", "trial_type": "html-keyboard-response", "trial_index": 65, "time_elapsed": 147401, "internal_node_id": "0.0-4.0-61.0"}}, {"uniqueid": "w32130968:a44431839", "current_trial": 66, "dateTime": 1664873255545, "trialdata": {"rt": 1266, "stimulus": "<p id='stroop-text' class='stroop-blue'>STONE</p>", "response": "g", "stimulus-type": "unrelated", "word": "STONE", "color": "blue", "correct_response": "b", "trial_id": "stroop-trial-1-unrelated-25", "trial_type": "html-keyboard-response", "trial_index": 66, "time_elapsed": 149181, "internal_node_id": "0.0-4.0-62.0"}}, {"uniqueid": "w32130968:a44431839", "current_trial": 67, "dateTime": 1664873256964, "trialdata": {"rt": 914, "stimulus": "<p id='stroop-text' class='stroop-green'>STONE</p>", "response": "r", "stimulus-type": "unrelated", "word": "STONE", "color": "green", "correct_response": "g", "trial_id": "stroop-trial-1-unrelated-21", "trial_type": "html-keyboard-response", "trial_index": 67, "time_elapsed": 150600, "internal_node_id": "0.0-4.0-63.0"}}, {"uniqueid": "w32130968:a44431839", "current_trial": 68, "dateTime": 1664873258634, "trialdata": {"rt": 1155, "stimulus": "<p id='stroop-text' class='stroop-yellow'>RED</p>", "response": "y", "stimulus-type": "incongruent", "word": "red", "color": "yellow", "correct_response": "y", "trial_id": "stroop-trial-1-incongruent-2", "trial_type": "html-keyboard-response", "trial_index": 68, "time_elapsed": 152271, "internal_node_id": "0.0-4.0-64.0"}}, {"uniqueid": "w32130968:a44431839", "current_trial": 69, "dateTime": 1664873259744, "trialdata": {"rt": 598, "stimulus": "<p id='stroop-text' class='stroop-red'>RED</p>", "response": "r", "stimulus-type": "congruent", "word": "red", "color": "red", "correct_response": "r", "trial_id": "stroop-trial-1-congruent-14", "trial_type": "html-keyboard-response", "trial_index": 69, "time_elapsed": 153380, "internal_node_id": "0.0-4.0-65.0"}}, {"uniqueid": "w32130968:a44431839", "current_trial": 70, "dateTime": 1664873261405, "trialdata": {"rt": 1148, "stimulus": "<p id='stroop-text' class='stroop-green'>GREEN</p>", "response": "g", "stimulus-type": "congruent", "word": "green", "color": "green", "correct_response": "g", "trial_id": "stroop-trial-1-congruent-11", "trial_type": "html-keyboard-response", "trial_index": 70, "time_elapsed": 155041, "internal_node_id": "0.0-4.0-66.0"}}, {"uniqueid": "w32130968:a44431839", "current_trial": 71, "dateTime": 1664873262774, "trialdata": {"rt": 855, "stimulus": "<p id='stroop-text' class='stroop-yellow'>GREEN</p>", "response": "y", "stimulus-type": "incongruent", "word": "green", "color": "yellow", "correct_response": "y", "trial_id": "stroop-trial-1-incongruent-7", "trial_type": "html-keyboard-response", "trial_index": 71, "time_elapsed": 156411, "internal_node_id": "0.0-4.0-67.0"}}, {"uniqueid": "w32130968:a44431839", "current_trial": 72, "dateTime": 1664873264915, "trialdata": {"rt": 1631, "stimulus": "<p id='stroop-text' class='stroop-blue'>GREEN</p>", "response": "b", "stimulus-type": "incongruent", "word": "green", "color": "blue", "correct_response": "b", "trial_id": "stroop-trial-1-incongruent-6", "trial_type": "html-keyboard-response", "trial_index": 72, "time_elapsed": 158551, "internal_node_id": "0.0-4.0-68.0"}}, {"uniqueid": "w32130968:a44431839", "current_trial": 73, "dateTime": 1664873266805, "trialdata": {"rt": 1375, "stimulus": "<p id='stroop-text' class='stroop-green'>RED</p>", "response": "r", "stimulus-type": "incongruent", "word": "red", "color": "green", "correct_response": "g", "trial_id": "stroop-trial-1-incongruent-8", "trial_type": "html-keyboard-response", "trial_index": 73, "time_elapsed": 160441, "internal_node_id": "0.0-4.0-69.0"}}, {"uniqueid": "w32130968:a44431839", "current_trial": 74, "dateTime": 1664873268403, "trialdata": {"rt": 1087, "stimulus": "<p id='stroop-text' class='stroop-red'>BLUE</p>", "response": "r", "stimulus-type": "incongruent", "word": "blue", "color": "red", "correct_response": "r", "trial_id": "stroop-trial-1-incongruent-4", "trial_type": "html-keyboard-response", "trial_index": 74, "time_elapsed": 162040, "internal_node_id": "0.0-4.0-70.0"}}, {"uniqueid": "w32130968:a44431839", "current_trial": 75, "dateTime": 1664873270264, "trialdata": {"rt": 1352, "stimulus": "<p id='stroop-text' class='stroop-yellow'>RED</p>", "response": "y", "stimulus-type": "incongruent", "word": "red", "color": "yellow", "correct_response": "y", "trial_id": "stroop-trial-1-incongruent-16", "trial_type": "html-keyboard-response", "trial_index": 75, "time_elapsed": 163901, "internal_node_id": "0.0-4.0-71.0"}}, {"uniqueid": "w32130968:a44431839", "current_trial": 76, "dateTime": 1664873272165, "trialdata": {"rt": 1391, "stimulus": "<p id='stroop-text' class='stroop-green'>CHAIR</p>", "response": "g", "stimulus-type": "unrelated", "word": "CHAIR", "color": "green", "correct_response": "g", "trial_id": "stroop-trial-1-unrelated-4", "trial_type": "html-keyboard-response", "trial_index": 76, "time_elapsed": 165801, "internal_node_id": "0.0-4.0-72.0"}}, {"uniqueid": "w32130968:a44431839", "current_trial": 77, "dateTime": 1664873273905, "trialdata": {"rt": 1233, "stimulus": "<p id='stroop-text' class='stroop-yellow'>GREEN</p>", "response": "y", "stimulus-type": "incongruent", "word": "green", "color": "yellow", "correct_response": "y", "trial_id": "stroop-trial-1-incongruent-19", "trial_type": "html-keyboard-response", "trial_index": 77, "time_elapsed": 167542, "internal_node_id": "0.0-4.0-73.0"}}, {"uniqueid": "w32130968:a44431839", "current_trial": 78, "dateTime": 1664873275815, "trialdata": {"rt": 1394, "stimulus": "<p id='stroop-text' class='stroop-blue'>BLUE</p>", "response": "b", "stimulus-type": "congruent", "word": "blue", "color": "blue", "correct_response": "b", "trial_id": "stroop-trial-1-congruent-13", "trial_type": "html-keyboard-response", "trial_index": 78, "time_elapsed": 169452, "internal_node_id": "0.0-4.0-74.0"}}, {"uniqueid": "w32130968:a44431839", "current_trial": 79, "dateTime": 1664873277245, "trialdata": {"rt": 916, "stimulus": "<p id='stroop-text' class='stroop-green'>GREEN</p>", "response": "g", "stimulus-type": "congruent", "word": "green", "color": "green", "correct_response": "g", "trial_id": "stroop-trial-1-congruent-22", "trial_type": "html-keyboard-response", "trial_index": 79, "time_elapsed": 170882, "internal_node_id": "0.0-4.0-75.0"}}, {"uniqueid": "w32130968:a44431839", "current_trial": 80, "dateTime": 1664873278336, "trialdata": {"rt": 583, "stimulus": "<p id='stroop-text' class='stroop-yellow'>YELLOW</p>", "response": "y", "stimulus-type": "congruent", "word": "yellow", "color": "yellow", "correct_response": "y", "trial_id": "stroop-trial-1-congruent-19", "trial_type": "html-keyboard-response", "trial_index": 80, "time_elapsed": 171973, "internal_node_id": "0.0-4.0-76.0"}}, {"uniqueid": "w32130968:a44431839", "current_trial": 81, "dateTime": 1664873279746, "trialdata": {"rt": 901, "stimulus": "<p id='stroop-text' class='stroop-green'>BOAT</p>", "response": "g", "stimulus-type": "unrelated", "word": "BOAT", "color": "green", "correct_response": "g", "trial_id": "stroop-trial-1-unrelated-10", "trial_type": "html-keyboard-response", "trial_index": 81, "time_elapsed": 173382, "internal_node_id": "0.0-4.0-77.0"}}, {"uniqueid": "w32130968:a44431839", "current_trial": 82, "dateTime": 1664873281186, "trialdata": {"rt": 929, "stimulus": "<p id='stroop-text' class='stroop-yellow'>BRAIN</p>", "response": "y", "stimulus-type": "unrelated", "word": "BRAIN", "color": "yellow", "correct_response": "y", "trial_id": "stroop-trial-1-unrelated-23", "trial_type": "html-keyboard-response", "trial_index": 82, "time_elapsed": 174822, "internal_node_id": "0.0-4.0-78.0"}}, {"uniqueid": "w32130968:a44431839", "current_trial": 83, "dateTime": 1664873283456, "trialdata": {"rt": 1753, "stimulus": "<p id='stroop-text' class='stroop-blue'>BLUE</p>", "response": "b", "stimulus-type": "congruent", "word": "blue", "color": "blue", "correct_response": "b", "trial_id": "stroop-trial-1-congruent-15", "trial_type": "html-keyboard-response", "trial_index": 83, "time_elapsed": 177092, "internal_node_id": "0.0-4.0-79.0"}}, {"uniqueid": "w32130968:a44431839", "current_trial": 84, "dateTime": 1664873284606, "trialdata": {"rt": 638, "stimulus": "<p id='stroop-text' class='stroop-green'>BLUE</p>", "response": "r", "stimulus-type": "incongruent", "word": "blue", "color": "green", "correct_response": "g", "trial_id": "stroop-trial-1-incongruent-10", "trial_type": "html-keyboard-response", "trial_index": 84, "time_elapsed": 178242, "internal_node_id": "0.0-4.0-80.0"}}, {"uniqueid": "w32130968:a44431839", "current_trial": 85, "dateTime": 1664873286395, "trialdata": {"rt": 1284, "stimulus": "<p id='stroop-text' class='stroop-yellow'>BOTTLE</p>", "response": "y", "stimulus-type": "unrelated", "word": "BOTTLE", "color": "yellow", "correct_response": "y", "trial_id": "stroop-trial-1-unrelated-29", "trial_type": "html-keyboard-response", "trial_index": 85, "time_elapsed": 180032, "internal_node_id": "0.0-4.0-81.0"}}, {"uniqueid": "w32130968:a44431839", "current_trial": 86, "dateTime": 1664873287855, "trialdata": {"rt": 953, "stimulus": "<p id='stroop-text' class='stroop-red'>RED</p>", "response": "r", "stimulus-type": "congruent", "word": "red", "color": "red", "correct_response": "r", "trial_id": "stroop-trial-1-congruent-30", "trial_type": "html-keyboard-response", "trial_index": 86, "time_elapsed": 181492, "internal_node_id": "0.0-4.0-82.0"}}, {"uniqueid": "w32130968:a44431839", "current_trial": 87, "dateTime": 1664873289506, "trialdata": {"rt": 1143, "stimulus": "<p id='stroop-text' class='stroop-green'>BOTTLE</p>", "response": "g", "stimulus-type": "unrelated", "word": "BOTTLE", "color": "green", "correct_response": "g", "trial_id": "stroop-trial-1-unrelated-28", "trial_type": "html-keyboard-response", "trial_index": 87, "time_elapsed": 183142, "internal_node_id": "0.0-4.0-83.0"}}, {"uniqueid": "w32130968:a44431839", "current_trial": 88, "dateTime": 1664873291096, "trialdata": {"rt": 1078, "stimulus": "<p id='stroop-text' class='stroop-blue'>DOG</p>", "response": "b", "stimulus-type": "unrelated", "word": "DOG", "color": "blue", "correct_response": "b", "trial_id": "stroop-trial-1-unrelated-22", "trial_type": "html-keyboard-response", "trial_index": 88, "time_elapsed": 184732, "internal_node_id": "0.0-4.0-84.0"}}, {"uniqueid": "w32130968:a44431839", "current_trial": 89, "dateTime": 1664873293065, "trialdata": {"rt": 1454, "stimulus": "<p id='stroop-text' class='stroop-red'>BLUE</p>", "response": "r", "stimulus-type": "incongruent", "word": "blue", "color": "red", "correct_response": "r", "trial_id": "stroop-trial-1-incongruent-23", "trial_type": "html-keyboard-response", "trial_index": 89, "time_elapsed": 186701, "internal_node_id": "0.0-4.0-85.0"}}, {"uniqueid": "w32130968:a44431839", "current_trial": 90, "dateTime": 1664873294487, "trialdata": {"rt": 903, "stimulus": "<p id='stroop-text' class='stroop-yellow'>FORK</p>", "response": "y", "stimulus-type": "unrelated", "word": "FORK", "color": "yellow", "correct_response": "y", "trial_id": "stroop-trial-1-unrelated-16", "trial_type": "html-keyboard-response", "trial_index": 90, "time_elapsed": 188123, "internal_node_id": "0.0-4.0-86.0"}}, {"uniqueid": "w32130968:a44431839", "current_trial": 91, "dateTime": 1664873296256, "trialdata": {"rt": 1254, "stimulus": "<p id='stroop-text' class='stroop-green'>RED</p>", "response": "g", "stimulus-type": "incongruent", "word": "red", "color": "green", "correct_response": "g", "trial_id": "stroop-trial-1-incongruent-21", "trial_type": "html-keyboard-response", "trial_index": 91, "time_elapsed": 189892, "internal_node_id": "0.0-4.0-87.0"}}, {"uniqueid": "w32130968:a44431839", "current_trial": 92, "dateTime": 1664873297836, "trialdata": {"rt": 1069, "stimulus": "<p id='stroop-text' class='stroop-yellow'>GREEN</p>", "response": "y", "stimulus-type": "incongruent", "word": "green", "color": "yellow", "correct_response": "y", "trial_id": "stroop-trial-1-incongruent-25", "trial_type": "html-keyboard-response", "trial_index": 92, "time_elapsed": 191472, "internal_node_id": "0.0-4.0-88.0"}}, {"uniqueid": "w32130968:a44431839", "current_trial": 93, "dateTime": 1664873299396, "trialdata": {"rt": 1042, "stimulus": "<p id='stroop-text' class='stroop-blue'>WINDOW</p>", "response": "b", "stimulus-type": "unrelated", "word": "WINDOW", "color": "blue", "correct_response": "b", "trial_id": "stroop-trial-1-unrelated-15", "trial_type": "html-keyboard-response", "trial_index": 93, "time_elapsed": 193032, "internal_node_id": "0.0-4.0-89.0"}}, {"uniqueid": "w32130968:a44431839", "current_trial": 94, "dateTime": 1664873311637, "trialdata": {"rt": 11725, "stimulus": "  <h1> End of block! </h1>\n\n  You have reached the end of the block 1/5. If you need a short break, feel free to take one now before moving on.\n\n  <br><br>\n  In the next block, you will complete another 90 rounds of this game.\n\n  <br><br>\n  <div style='text-align: center;'>Press <code>space</code> to begin.</div>\n  <br><br>\n<div style='text-align: center;'>(If the experiment doesn't continue, try clicking on the text and then pressing <code>space</code>.)</div>", "response": " ", "trial_id": "stroop_1_ready_2", "trial_type": "html-keyboard-response", "trial_index": 94, "time_elapsed": 205274, "internal_node_id": "0.0-5.0"}}, {"uniqueid": "w32130968:a44431839", "current_trial": 95, "dateTime": 1664873312496, "trialdata": {"rt": 850, "stimulus": "<p id='stroop-text' class='stroop-yellow'>STONE</p>", "response": "y", "stimulus-type": "unrelated", "word": "STONE", "color": "yellow", "correct_response": "y", "trial_id": "stroop-trial-1-unrelated-4", "trial_type": "html-keyboard-response", "trial_index": 95, "time_elapsed": 206133, "internal_node_id": "0.0-6.0-0.0"}}, {"uniqueid": "w32130968:a44431839", "current_trial": 96, "dateTime": 1664873313776, "trialdata": {"rt": 765, "stimulus": "<p id='stroop-text' class='stroop-green'>GREEN</p>", "response": "r", "stimulus-type": "congruent", "word": "green", "color": "green", "correct_response": "g", "trial_id": "stroop-trial-1-congruent-11", "trial_type": "html-keyboard-response", "trial_index": 96, "time_elapsed": 207413, "internal_node_id": "0.0-6.0-1.0"}}, {"uniqueid": "w32130968:a44431839", "current_trial": 97, "dateTime": 1664873314846, "trialdata": {"rt": 553, "stimulus": "<p id='stroop-text' class='stroop-red'>RED</p>", "response": "r", "stimulus-type": "congruent", "word": "red", "color": "red", "correct_response": "r", "trial_id": "stroop-trial-1-congruent-25", "trial_type": "html-keyboard-response", "trial_index": 97, "time_elapsed": 208482, "internal_node_id": "0.0-6.0-2.0"}}, {"uniqueid": "w32130968:a44431839", "current_trial": 98, "dateTime": 1664873315866, "trialdata": {"rt": 498, "stimulus": "<p id='stroop-text' class='stroop-red'>DOG</p>", "response": "r", "stimulus-type": "unrelated", "word": "DOG", "color": "red", "correct_response": "r", "trial_id": "stroop-trial-1-unrelated-13", "trial_type": "html-keyboard-response", "trial_index": 98, "time_elapsed": 209502, "internal_node_id": "0.0-6.0-3.0"}}, {"uniqueid": "w32130968:a44431839", "current_trial": 99, "dateTime": 1664873317006, "trialdata": {"rt": 624, "stimulus": "<p id='stroop-text' class='stroop-green'>FORK</p>", "response": "y", "stimulus-type": "unrelated", "word": "FORK", "color": "green", "correct_response": "g", "trial_id": "stroop-trial-1-unrelated-11", "trial_type": "html-keyboard-response", "trial_index": 99, "time_elapsed": 210643, "internal_node_id": "0.0-6.0-4.0"}}, {"uniqueid": "w32130968:a44431839", "current_trial": 100, "dateTime": 1664873317966, "trialdata": {"rt": 453, "stimulus": "<p id='stroop-text' class='stroop-yellow'>BOAT</p>", "response": "y", "stimulus-type": "unrelated", "word": "BOAT", "color": "yellow", "correct_response": "y", "trial_id": "stroop-trial-1-unrelated-2", "trial_type": "html-keyboard-response", "trial_index": 100, "time_elapsed": 211602, "internal_node_id": "0.0-6.0-5.0"}}, {"uniqueid": "w32130968:a44431839", "current_trial": 101, "dateTime": 1664873319126, "trialdata": {"rt": 648, "stimulus": "<p id='stroop-text' class='stroop-red'>BLUE</p>", "response": "r", "stimulus-type": "incongruent", "word": "blue", "color": "red", "correct_response": "r", "trial_id": "stroop-trial-1-incongruent-27", "trial_type": "html-keyboard-response", "trial_index": 101, "time_elapsed": 212763, "internal_node_id": "0.0-6.0-6.0"}}, {"uniqueid": "w32130968:a44431839", "current_trial": 102, "dateTime": 1664873320266, "trialdata": {"rt": 624, "stimulus": "<p id='stroop-text' class='stroop-green'>YELLOW</p>", "response": "y", "stimulus-type": "incongruent", "word": "yellow", "color": "green", "correct_response": "g", "trial_id": "stroop-trial-1-incongruent-18", "trial_type": "html-keyboard-response", "trial_index": 102, "time_elapsed": 213902, "internal_node_id": "0.0-6.0-7.0"}}, {"uniqueid": "w32130968:a44431839", "current_trial": 103, "dateTime": 1664873321868, "trialdata": {"rt": 1084, "stimulus": "<p id='stroop-text' class='stroop-blue'>FORK</p>", "response": "b", "stimulus-type": "unrelated", "word": "FORK", "color": "blue", "correct_response": "b", "trial_id": "stroop-trial-1-unrelated-19", "trial_type": "html-keyboard-response", "trial_index": 103, "time_elapsed": 215503, "internal_node_id": "0.0-6.0-8.0"}}, {"uniqueid": "w32130968:a44431839", "current_trial": 104, "dateTime": 1664873323416, "trialdata": {"rt": 1037, "stimulus": "<p id='stroop-text' class='stroop-red'>BLUE</p>", "response": "r", "stimulus-type": "incongruent", "word": "blue", "color": "red", "correct_response": "r", "trial_id": "stroop-trial-1-incongruent-13", "trial_type": "html-keyboard-response", "trial_index": 104, "time_elapsed": 217053, "internal_node_id": "0.0-6.0-9.0"}}, {"uniqueid": "w32130968:a44431839", "current_trial": 105, "dateTime": 1664873324356, "trialdata": {"rt": 431, "stimulus": "<p id='stroop-text' class='stroop-red'>BLUE</p>", "response": "r", "stimulus-type": "incongruent", "word": "blue", "color": "red", "correct_response": "r", "trial_id": "stroop-trial-1-incongruent-5", "trial_type": "html-keyboard-response", "trial_index": 105, "time_elapsed": 217993, "internal_node_id": "0.0-6.0-10.0"}}, {"uniqueid": "w32130968:a44431839", "current_trial": 106, "dateTime": 1664873325296, "trialdata": {"rt": 417, "stimulus": "<p id='stroop-text' class='stroop-red'>BOTTLE</p>", "response": "r", "stimulus-type": "unrelated", "word": "BOTTLE", "color": "red", "correct_response": "r", "trial_id": "stroop-trial-1-unrelated-29", "trial_type": "html-keyboard-response", "trial_index": 106, "time_elapsed": 218933, "internal_node_id": "0.0-6.0-11.0"}}, {"uniqueid": "w32130968:a44431839", "current_trial": 107, "dateTime": 1664873326527, "trialdata": {"rt": 717, "stimulus": "<p id='stroop-text' class='stroop-blue'>BLUE</p>", "response": "b", "stimulus-type": "congruent", "word": "blue", "color": "blue", "correct_response": "b", "trial_id": "stroop-trial-1-congruent-30", "trial_type": "html-keyboard-response", "trial_index": 107, "time_elapsed": 220163, "internal_node_id": "0.0-6.0-12.0"}}, {"uniqueid": "w32130968:a44431839", "current_trial": 108, "dateTime": 1664873327966, "trialdata": {"rt": 923, "stimulus": "<p id='stroop-text' class='stroop-red'>GREEN</p>", "response": "r", "stimulus-type": "incongruent", "word": "green", "color": "red", "correct_response": "r", "trial_id": "stroop-trial-1-incongruent-24", "trial_type": "html-keyboard-response", "trial_index": 108, "time_elapsed": 221603, "internal_node_id": "0.0-6.0-13.0"}}, {"uniqueid": "w32130968:a44431839", "current_trial": 109, "dateTime": 1664873329217, "trialdata": {"rt": 740, "stimulus": "<p id='stroop-text' class='stroop-blue'>YELLOW</p>", "response": "y", "stimulus-type": "incongruent", "word": "yellow", "color": "blue", "correct_response": "b", "trial_id": "stroop-trial-1-incongruent-26", "trial_type": "html-keyboard-response", "trial_index": 109, "time_elapsed": 222853, "internal_node_id": "0.0-6.0-14.0"}}, {"uniqueid": "w32130968:a44431839", "current_trial": 110, "dateTime": 1664873330867, "trialdata": {"rt": 1129, "stimulus": "<p id='stroop-text' class='stroop-blue'>RED</p>", "response": "g", "stimulus-type": "incongruent", "word": "red", "color": "blue", "correct_response": "b", "trial_id": "stroop-trial-1-incongruent-7", "trial_type": "html-keyboard-response", "trial_index": 110, "time_elapsed": 224503, "internal_node_id": "0.0-6.0-15.0"}}, {"uniqueid": "w32130968:a44431839", "current_trial": 111, "dateTime": 1664873332737, "trialdata": {"rt": 1358, "stimulus": "<p id='stroop-text' class='stroop-green'>WINDOW</p>", "response": "b", "stimulus-type": "unrelated", "word": "WINDOW", "color": "green", "correct_response": "g", "trial_id": "stroop-trial-1-unrelated-28", "trial_type": "html-keyboard-response", "trial_index": 111, "time_elapsed": 226373, "internal_node_id": "0.0-6.0-16.0"}}, {"uniqueid": "w32130968:a44431839", "current_trial": 112, "dateTime": 1664873333835, "trialdata": {"rt": 585, "stimulus": "<p id='stroop-text' class='stroop-red'>YELLOW</p>", "response": "y", "stimulus-type": "incongruent", "word": "yellow", "color": "red", "correct_response": "r", "trial_id": "stroop-trial-1-incongruent-8", "trial_type": "html-keyboard-response", "trial_index": 112, "time_elapsed": 227472, "internal_node_id": "0.0-6.0-17.0"}}, {"uniqueid": "w32130968:a44431839", "current_trial": 113, "dateTime": 1664873335057, "trialdata": {"rt": 713, "stimulus": "<p id='stroop-text' class='stroop-yellow'>WINDOW</p>", "response": "y", "stimulus-type": "unrelated", "word": "WINDOW", "color": "yellow", "correct_response": "y", "trial_id": "stroop-trial-1-unrelated-18", "trial_type": "html-keyboard-response", "trial_index": 113, "time_elapsed": 228693, "internal_node_id": "0.0-6.0-18.0"}}, {"uniqueid": "w32130968:a44431839", "current_trial": 114, "dateTime": 1664873336736, "trialdata": {"rt": 1169, "stimulus": "<p id='stroop-text' class='stroop-blue'>SHIP</p>", "response": "b", "stimulus-type": "unrelated", "word": "SHIP", "color": "blue", "correct_response": "b", "trial_id": "stroop-trial-1-unrelated-14", "trial_type": "html-keyboard-response", "trial_index": 114, "time_elapsed": 230372, "internal_node_id": "0.0-6.0-19.0"}}, {"uniqueid": "w32130968:a44431839", "current_trial": 115, "dateTime": 1664873337986, "trialdata": {"rt": 743, "stimulus": "<p id='stroop-text' class='stroop-blue'>BLUE</p>", "response": "b", "stimulus-type": "congruent", "word": "blue", "color": "blue", "correct_response": "b", "trial_id": "stroop-trial-1-congruent-12", "trial_type": "html-keyboard-response", "trial_index": 115, "time_elapsed": 231623, "internal_node_id": "0.0-6.0-20.0"}}, {"uniqueid": "w32130968:a44431839", "current_trial": 116, "dateTime": 1664873339105, "trialdata": {"rt": 608, "stimulus": "<p id='stroop-text' class='stroop-red'>RED</p>", "response": "r", "stimulus-type": "congruent", "word": "red", "color": "red", "correct_response": "r", "trial_id": "stroop-trial-1-congruent-26", "trial_type": "html-keyboard-response", "trial_index": 116, "time_elapsed": 232742, "internal_node_id": "0.0-6.0-21.0"}}, {"uniqueid": "w32130968:a44431839", "current_trial": 117, "dateTime": 1664873340229, "trialdata": {"rt": 613, "stimulus": "<p id='stroop-text' class='stroop-red'>BRAIN</p>", "response": "r", "stimulus-type": "unrelated", "word": "BRAIN", "color": "red", "correct_response": "r", "trial_id": "stroop-trial-1-unrelated-23", "trial_type": "html-keyboard-response", "trial_index": 117, "time_elapsed": 233863, "internal_node_id": "0.0-6.0-22.0"}}, {"uniqueid": "w32130968:a44431839", "current_trial": 118, "dateTime": 1664873341879, "trialdata": {"rt": 1136, "stimulus": "<p id='stroop-text' class='stroop-blue'>SHIP</p>", "response": "b", "stimulus-type": "unrelated", "word": "SHIP", "color": "blue", "correct_response": "b", "trial_id": "stroop-trial-1-unrelated-7", "trial_type": "html-keyboard-response", "trial_index": 118, "time_elapsed": 235515, "internal_node_id": "0.0-6.0-23.0"}}, {"uniqueid": "w32130968:a44431839", "current_trial": 119, "dateTime": 1664873342884, "trialdata": {"rt": 497, "stimulus": "<p id='stroop-text' class='stroop-blue'>BLUE</p>", "response": "b", "stimulus-type": "congruent", "word": "blue", "color": "blue", "correct_response": "b", "trial_id": "stroop-trial-1-congruent-23", "trial_type": "html-keyboard-response", "trial_index": 119, "time_elapsed": 236520, "internal_node_id": "0.0-6.0-24.0"}}, {"uniqueid": "w32130968:a44431839", "current_trial": 120, "dateTime": 1664873343916, "trialdata": {"rt": 520, "stimulus": "<p id='stroop-text' class='stroop-blue'>RED</p>", "response": "b", "stimulus-type": "incongruent", "word": "red", "color": "blue", "correct_response": "b", "trial_id": "stroop-trial-1-incongruent-4", "trial_type": "html-keyboard-response", "trial_index": 120, "time_elapsed": 237553, "internal_node_id": "0.0-6.0-25.0"}}, {"uniqueid": "w32130968:a44431839", "current_trial": 121, "dateTime": 1664873344857, "trialdata": {"rt": 417, "stimulus": "<p id='stroop-text' class='stroop-blue'>SHIP</p>", "response": "b", "stimulus-type": "unrelated", "word": "SHIP", "color": "blue", "correct_response": "b", "trial_id": "stroop-trial-1-unrelated-20", "trial_type": "html-keyboard-response", "trial_index": 121, "time_elapsed": 238493, "internal_node_id": "0.0-6.0-26.0"}}, {"uniqueid": "w32130968:a44431839", "current_trial": 122, "dateTime": 1664873346007, "trialdata": {"rt": 632, "stimulus": "<p id='stroop-text' class='stroop-green'>BLUE</p>", "response": "g", "stimulus-type": "incongruent", "word": "blue", "color": "green", "correct_response": "g", "trial_id": "stroop-trial-1-incongruent-15", "trial_type": "html-keyboard-response", "trial_index": 122, "time_elapsed": 239644, "internal_node_id": "0.0-6.0-27.0"}}, {"uniqueid": "w32130968:a44431839", "current_trial": 123, "dateTime": 1664873347138, "trialdata": {"rt": 621, "stimulus": "<p id='stroop-text' class='stroop-yellow'>GREEN</p>", "response": "y", "stimulus-type": "incongruent", "word": "green", "color": "yellow", "correct_response": "y", "trial_id": "stroop-trial-1-incongruent-23", "trial_type": "html-keyboard-response", "trial_index": 123, "time_elapsed": 240774, "internal_node_id": "0.0-6.0-28.0"}}, {"uniqueid": "w32130968:a44431839", "current_trial": 124, "dateTime": 1664873348335, "trialdata": {"rt": 687, "stimulus": "<p id='stroop-text' class='stroop-green'>BOAT</p>", "response": "g", "stimulus-type": "unrelated", "word": "BOAT", "color": "green", "correct_response": "g", "trial_id": "stroop-trial-1-unrelated-15", "trial_type": "html-keyboard-response", "trial_index": 124, "time_elapsed": 241972, "internal_node_id": "0.0-6.0-29.0"}}, {"uniqueid": "w32130968:a44431839", "current_trial": 125, "dateTime": 1664873349257, "trialdata": {"rt": 414, "stimulus": "<p id='stroop-text' class='stroop-green'>DOG</p>", "response": "g", "stimulus-type": "unrelated", "word": "DOG", "color": "green", "correct_response": "g", "trial_id": "stroop-trial-1-unrelated-5", "trial_type": "html-keyboard-response", "trial_index": 125, "time_elapsed": 242893, "internal_node_id": "0.0-6.0-30.0"}}, {"uniqueid": "w32130968:a44431839", "current_trial": 126, "dateTime": 1664873350157, "trialdata": {"rt": 391, "stimulus": "<p id='stroop-text' class='stroop-green'>GREEN</p>", "response": "g", "stimulus-type": "congruent", "word": "green", "color": "green", "correct_response": "g", "trial_id": "stroop-trial-1-congruent-21", "trial_type": "html-keyboard-response", "trial_index": 126, "time_elapsed": 243794, "internal_node_id": "0.0-6.0-31.0"}}, {"uniqueid": "w32130968:a44431839", "current_trial": 127, "dateTime": 1664873351057, "trialdata": {"rt": 389, "stimulus": "<p id='stroop-text' class='stroop-green'>GREEN</p>", "response": "g", "stimulus-type": "congruent", "word": "green", "color": "green", "correct_response": "g", "trial_id": "stroop-trial-1-congruent-17", "trial_type": "html-keyboard-response", "trial_index": 127, "time_elapsed": 244694, "internal_node_id": "0.0-6.0-32.0"}}, {"uniqueid": "w32130968:a44431839", "current_trial": 128, "dateTime": 1664873352067, "trialdata": {"rt": 496, "stimulus": "<p id='stroop-text' class='stroop-yellow'>YELLOW</p>", "response": "y", "stimulus-type": "congruent", "word": "yellow", "color": "yellow", "correct_response": "y", "trial_id": "stroop-trial-1-congruent-10", "trial_type": "html-keyboard-response", "trial_index": 128, "time_elapsed": 245704, "internal_node_id": "0.0-6.0-33.0"}}, {"uniqueid": "w32130968:a44431839", "current_trial": 129, "dateTime": 1664873353277, "trialdata": {"rt": 694, "stimulus": "<p id='stroop-text' class='stroop-red'>BLUE</p>", "response": "r", "stimulus-type": "incongruent", "word": "blue", "color": "red", "correct_response": "r", "trial_id": "stroop-trial-1-incongruent-21", "trial_type": "html-keyboard-response", "trial_index": 129, "time_elapsed": 246913, "internal_node_id": "0.0-6.0-34.0"}}, {"uniqueid": "w32130968:a44431839", "current_trial": 130, "dateTime": 1664873354387, "trialdata": {"rt": 593, "stimulus": "<p id='stroop-text' class='stroop-blue'>BLUE</p>", "response": "b", "stimulus-type": "congruent", "word": "blue", "color": "blue", "correct_response": "b", "trial_id": "stroop-trial-1-congruent-14", "trial_type": "html-keyboard-response", "trial_index": 130, "time_elapsed": 248024, "internal_node_id": "0.0-6.0-35.0"}}, {"uniqueid": "w32130968:a44431839", "current_trial": 131, "dateTime": 1664873355407, "trialdata": {"rt": 509, "stimulus": "<p id='stroop-text' class='stroop-green'>BOAT</p>", "response": "r", "stimulus-type": "unrelated", "word": "BOAT", "color": "green", "correct_response": "g", "trial_id": "stroop-trial-1-unrelated-6", "trial_type": "html-keyboard-response", "trial_index": 131, "time_elapsed": 249044, "internal_node_id": "0.0-6.0-36.0"}}, {"uniqueid": "w32130968:a44431839", "current_trial": 132, "dateTime": 1664873356977, "trialdata": {"rt": 1054, "stimulus": "<p id='stroop-text' class='stroop-green'>GREEN</p>", "response": "g", "stimulus-type": "congruent", "word": "green", "color": "green", "correct_response": "g", "trial_id": "stroop-trial-1-congruent-15", "trial_type": "html-keyboard-response", "trial_index": 132, "time_elapsed": 250614, "internal_node_id": "0.0-6.0-37.0"}}, {"uniqueid": "w32130968:a44431839", "current_trial": 133, "dateTime": 1664873358107, "trialdata": {"rt": 617, "stimulus": "<p id='stroop-text' class='stroop-red'>GREEN</p>", "response": "r", "stimulus-type": "incongruent", "word": "green", "color": "red", "correct_response": "r", "trial_id": "stroop-trial-1-incongruent-28", "trial_type": "html-keyboard-response", "trial_index": 133, "time_elapsed": 251743, "internal_node_id": "0.0-6.0-38.0"}}, {"uniqueid": "w32130968:a44431839", "current_trial": 134, "dateTime": 1664873359238, "trialdata": {"rt": 620, "stimulus": "<p id='stroop-text' class='stroop-yellow'>YELLOW</p>", "response": "y", "stimulus-type": "congruent", "word": "yellow", "color": "yellow", "correct_response": "y", "trial_id": "stroop-trial-1-congruent-6", "trial_type": "html-keyboard-response", "trial_index": 134, "time_elapsed": 252874, "internal_node_id": "0.0-6.0-39.0"}}, {"uniqueid": "w32130968:a44431839", "current_trial": 135, "dateTime": 1664873360487, "trialdata": {"rt": 737, "stimulus": "<p id='stroop-text' class='stroop-blue'>CHAIR</p>", "response": "b", "stimulus-type": "unrelated", "word": "CHAIR", "color": "blue", "correct_response": "b", "trial_id": "stroop-trial-1-unrelated-17", "trial_type": "html-keyboard-response", "trial_index": 135, "time_elapsed": 254123, "internal_node_id": "0.0-6.0-40.0"}}, {"uniqueid": "w32130968:a44431839", "current_trial": 136, "dateTime": 1664873361777, "trialdata": {"rt": 784, "stimulus": "<p id='stroop-text' class='stroop-red'>YELLOW</p>", "response": "y", "stimulus-type": "incongruent", "word": "yellow", "color": "red", "correct_response": "r", "trial_id": "stroop-trial-1-incongruent-1", "trial_type": "html-keyboard-response", "trial_index": 136, "time_elapsed": 255413, "internal_node_id": "0.0-6.0-41.0"}}, {"uniqueid": "w32130968:a44431839", "current_trial": 137, "dateTime": 1664873363717, "trialdata": {"rt": 1430, "stimulus": "<p id='stroop-text' class='stroop-green'>BLUE</p>", "response": "b", "stimulus-type": "incongruent", "word": "blue", "color": "green", "correct_response": "g", "trial_id": "stroop-trial-1-incongruent-30", "trial_type": "html-keyboard-response", "trial_index": 137, "time_elapsed": 257354, "internal_node_id": "0.0-6.0-42.0"}}, {"uniqueid": "w32130968:a44431839", "current_trial": 138, "dateTime": 1664873364887, "trialdata": {"rt": 655, "stimulus": "<p id='stroop-text' class='stroop-red'>RED</p>", "response": "r", "stimulus-type": "congruent", "word": "red", "color": "red", "correct_response": "r", "trial_id": "stroop-trial-1-congruent-1", "trial_type": "html-keyboard-response", "trial_index": 138, "time_elapsed": 258523, "internal_node_id": "0.0-6.0-43.0"}}, {"uniqueid": "w32130968:a44431839", "current_trial": 139, "dateTime": 1664873365857, "trialdata": {"rt": 454, "stimulus": "<p id='stroop-text' class='stroop-red'>RED</p>", "response": "r", "stimulus-type": "congruent", "word": "red", "color": "red", "correct_response": "r", "trial_id": "stroop-trial-1-congruent-5", "trial_type": "html-keyboard-response", "trial_index": 139, "time_elapsed": 259493, "internal_node_id": "0.0-6.0-44.0"}}, {"uniqueid": "w32130968:a44431839", "current_trial": 140, "dateTime": 1664873367317, "trialdata": {"rt": 946, "stimulus": "<p id='stroop-text' class='stroop-green'>GREEN</p>", "response": "g", "stimulus-type": "congruent", "word": "green", "color": "green", "correct_response": "g", "trial_id": "stroop-trial-1-congruent-24", "trial_type": "html-keyboard-response", "trial_index": 140, "time_elapsed": 260953, "internal_node_id": "0.0-6.0-45.0"}}, {"uniqueid": "w32130968:a44431839", "current_trial": 141, "dateTime": 1664873368607, "trialdata": {"rt": 779, "stimulus": "<p id='stroop-text' class='stroop-yellow'>RED</p>", "response": "y", "stimulus-type": "incongruent", "word": "red", "color": "yellow", "correct_response": "y", "trial_id": "stroop-trial-1-incongruent-10", "trial_type": "html-keyboard-response", "trial_index": 141, "time_elapsed": 262243, "internal_node_id": "0.0-6.0-46.0"}}, {"uniqueid": "w32130968:a44431839", "current_trial": 142, "dateTime": 1664873369617, "trialdata": {"rt": 494, "stimulus": "<p id='stroop-text' class='stroop-yellow'>YELLOW</p>", "response": "y", "stimulus-type": "congruent", "word": "yellow", "color": "yellow", "correct_response": "y", "trial_id": "stroop-trial-1-congruent-3", "trial_type": "html-keyboard-response", "trial_index": 142, "time_elapsed": 263253, "internal_node_id": "0.0-6.0-47.0"}}, {"uniqueid": "w32130968:a44431839", "current_trial": 143, "dateTime": 1664873370947, "trialdata": {"rt": 813, "stimulus": "<p id='stroop-text' class='stroop-green'>BLUE</p>", "response": "b", "stimulus-type": "incongruent", "word": "blue", "color": "green", "correct_response": "g", "trial_id": "stroop-trial-1-incongruent-2", "trial_type": "html-keyboard-response", "trial_index": 143, "time_elapsed": 264583, "internal_node_id": "0.0-6.0-48.0"}}, {"uniqueid": "w32130968:a44431839", "current_trial": 144, "dateTime": 1664873372287, "trialdata": {"rt": 827, "stimulus": "<p id='stroop-text' class='stroop-blue'>BLUE</p>", "response": "g", "stimulus-type": "congruent", "word": "blue", "color": "blue", "correct_response": "b", "trial_id": "stroop-trial-1-congruent-27", "trial_type": "html-keyboard-response", "trial_index": 144, "time_elapsed": 265923, "internal_node_id": "0.0-6.0-49.0"}}, {"uniqueid": "w32130968:a44431839", "current_trial": 145, "dateTime": 1664873373958, "trialdata": {"rt": 1154, "stimulus": "<p id='stroop-text' class='stroop-green'>BLUE</p>", "response": "g", "stimulus-type": "incongruent", "word": "blue", "color": "green", "correct_response": "g", "trial_id": "stroop-trial-1-incongruent-14", "trial_type": "html-keyboard-response", "trial_index": 145, "time_elapsed": 267594, "internal_node_id": "0.0-6.0-50.0"}}, {"uniqueid": "w32130968:a44431839", "current_trial": 146, "dateTime": 1664873375097, "trialdata": {"rt": 629, "stimulus": "<p id='stroop-text' class='stroop-red'>RED</p>", "response": "r", "stimulus-type": "congruent", "word": "red", "color": "red", "correct_response": "r", "trial_id": "stroop-trial-1-congruent-18", "trial_type": "html-keyboard-response", "trial_index": 146, "time_elapsed": 268733, "internal_node_id": "0.0-6.0-51.0"}}, {"uniqueid": "w32130968:a44431839", "current_trial": 147, "dateTime": 1664873376498, "trialdata": {"rt": 884, "stimulus": "<p id='stroop-text' class='stroop-blue'>BOTTLE</p>", "response": "b", "stimulus-type": "unrelated", "word": "BOTTLE", "color": "blue", "correct_response": "b", "trial_id": "stroop-trial-1-unrelated-3", "trial_type": "html-keyboard-response", "trial_index": 147, "time_elapsed": 270133, "internal_node_id": "0.0-6.0-52.0"}}, {"uniqueid": "w32130968:a44431839", "current_trial": 148, "dateTime": 1664873377747, "trialdata": {"rt": 729, "stimulus": "<p id='stroop-text' class='stroop-red'>YELLOW</p>", "response": "y", "stimulus-type": "incongruent", "word": "yellow", "color": "red", "correct_response": "r", "trial_id": "stroop-trial-1-incongruent-19", "trial_type": "html-keyboard-response", "trial_index": 148, "time_elapsed": 271383, "internal_node_id": "0.0-6.0-53.0"}}, {"uniqueid": "w32130968:a44431839", "current_trial": 149, "dateTime": 1664873379467, "trialdata": {"rt": 1203, "stimulus": "<p id='stroop-text' class='stroop-blue'>RED</p>", "response": "b", "stimulus-type": "incongruent", "word": "red", "color": "blue", "correct_response": "b", "trial_id": "stroop-trial-1-incongruent-17", "trial_type": "html-keyboard-response", "trial_index": 149, "time_elapsed": 273104, "internal_node_id": "0.0-6.0-54.0"}}, {"uniqueid": "w32130968:a44431839", "current_trial": 150, "dateTime": 1664873380928, "trialdata": {"rt": 940, "stimulus": "<p id='stroop-text' class='stroop-green'>DOG</p>", "response": "g", "stimulus-type": "unrelated", "word": "DOG", "color": "green", "correct_response": "g", "trial_id": "stroop-trial-1-unrelated-21", "trial_type": "html-keyboard-response", "trial_index": 150, "time_elapsed": 274565, "internal_node_id": "0.0-6.0-55.0"}}, {"uniqueid": "w32130968:a44431839", "current_trial": 151, "dateTime": 1664873382010, "trialdata": {"rt": 571, "stimulus": "<p id='stroop-text' class='stroop-green'>CHAIR</p>", "response": "g", "stimulus-type": "unrelated", "word": "CHAIR", "color": "green", "correct_response": "g", "trial_id": "stroop-trial-1-unrelated-8", "trial_type": "html-keyboard-response", "trial_index": 151, "time_elapsed": 275646, "internal_node_id": "0.0-6.0-56.0"}}, {"uniqueid": "w32130968:a44431839", "current_trial": 152, "dateTime": 1664873383067, "trialdata": {"rt": 545, "stimulus": "<p id='stroop-text' class='stroop-green'>SHIP</p>", "response": "g", "stimulus-type": "unrelated", "word": "SHIP", "color": "green", "correct_response": "g", "trial_id": "stroop-trial-1-unrelated-24", "trial_type": "html-keyboard-response", "trial_index": 152, "time_elapsed": 276703, "internal_node_id": "0.0-6.0-57.0"}}, {"uniqueid": "w32130968:a44431839", "current_trial": 153, "dateTime": 1664873384049, "trialdata": {"rt": 470, "stimulus": "<p id='stroop-text' class='stroop-green'>BOTTLE</p>", "response": "g", "stimulus-type": "unrelated", "word": "BOTTLE", "color": "green", "correct_response": "g", "trial_id": "stroop-trial-1-unrelated-9", "trial_type": "html-keyboard-response", "trial_index": 153, "time_elapsed": 277685, "internal_node_id": "0.0-6.0-58.0"}}, {"uniqueid": "w32130968:a44431839", "current_trial": 154, "dateTime": 1664873385518, "trialdata": {"rt": 953, "stimulus": "<p id='stroop-text' class='stroop-blue'>BLUE</p>", "response": "b", "stimulus-type": "congruent", "word": "blue", "color": "blue", "correct_response": "b", "trial_id": "stroop-trial-1-congruent-16", "trial_type": "html-keyboard-response", "trial_index": 154, "time_elapsed": 279154, "internal_node_id": "0.0-6.0-59.0"}}, {"uniqueid": "w32130968:a44431839", "current_trial": 155, "dateTime": 1664873386508, "trialdata": {"rt": 472, "stimulus": "<p id='stroop-text' class='stroop-blue'>BLUE</p>", "response": "b", "stimulus-type": "congruent", "word": "blue", "color": "blue", "correct_response": "b", "trial_id": "stroop-trial-1-congruent-29", "trial_type": "html-keyboard-response", "trial_index": 155, "time_elapsed": 280144, "internal_node_id": "0.0-6.0-60.0"}}, {"uniqueid": "w32130968:a44431839", "current_trial": 156, "dateTime": 1664873387798, "trialdata": {"rt": 779, "stimulus": "<p id='stroop-text' class='stroop-green'>BLUE</p>", "response": "g", "stimulus-type": "incongruent", "word": "blue", "color": "green", "correct_response": "g", "trial_id": "stroop-trial-1-incongruent-16", "trial_type": "html-keyboard-response", "trial_index": 156, "time_elapsed": 281434, "internal_node_id": "0.0-6.0-61.0"}}, {"uniqueid": "w32130968:a44431839", "current_trial": 157, "dateTime": 1664873389678, "trialdata": {"rt": 1365, "stimulus": "<p id='stroop-text' class='stroop-red'>GREEN</p>", "response": "r", "stimulus-type": "incongruent", "word": "green", "color": "red", "correct_response": "r", "trial_id": "stroop-trial-1-incongruent-11", "trial_type": "html-keyboard-response", "trial_index": 157, "time_elapsed": 283315, "internal_node_id": "0.0-6.0-62.0"}}, {"uniqueid": "w32130968:a44431839", "current_trial": 158, "dateTime": 1664873391658, "trialdata": {"rt": 1470, "stimulus": "<p id='stroop-text' class='stroop-blue'>BRIDGE</p>", "response": "b", "stimulus-type": "unrelated", "word": "BRIDGE", "color": "blue", "correct_response": "b", "trial_id": "stroop-trial-1-unrelated-1", "trial_type": "html-keyboard-response", "trial_index": 158, "time_elapsed": 285294, "internal_node_id": "0.0-6.0-63.0"}}, {"uniqueid": "w32130968:a44431839", "current_trial": 159, "dateTime": 1664873392968, "trialdata": {"rt": 794, "stimulus": "<p id='stroop-text' class='stroop-green'>YELLOW</p>", "response": "y", "stimulus-type": "incongruent", "word": "yellow", "color": "green", "correct_response": "g", "trial_id": "stroop-trial-1-incongruent-3", "trial_type": "html-keyboard-response", "trial_index": 159, "time_elapsed": 286604, "internal_node_id": "0.0-6.0-64.0"}}, {"uniqueid": "w32130968:a44431839", "current_trial": 160, "dateTime": 1664873394118, "trialdata": {"rt": 632, "stimulus": "<p id='stroop-text' class='stroop-blue'>BLUE</p>", "response": "b", "stimulus-type": "congruent", "word": "blue", "color": "blue", "correct_response": "b", "trial_id": "stroop-trial-1-congruent-20", "trial_type": "html-keyboard-response", "trial_index": 160, "time_elapsed": 287755, "internal_node_id": "0.0-6.0-65.0"}}, {"uniqueid": "w32130968:a44431839", "current_trial": 161, "dateTime": 1664873396148, "trialdata": {"rt": 1507, "stimulus": "<p id='stroop-text' class='stroop-yellow'>GREEN</p>", "response": "y", "stimulus-type": "incongruent", "word": "green", "color": "yellow", "correct_response": "y", "trial_id": "stroop-trial-1-incongruent-9", "trial_type": "html-keyboard-response", "trial_index": 161, "time_elapsed": 289784, "internal_node_id": "0.0-6.0-66.0"}}, {"uniqueid": "w32130968:a44431839", "current_trial": 162, "dateTime": 1664873398098, "trialdata": {"rt": 1433, "stimulus": "<p id='stroop-text' class='stroop-blue'>YELLOW</p>", "response": "b", "stimulus-type": "incongruent", "word": "yellow", "color": "blue", "correct_response": "b", "trial_id": "stroop-trial-1-incongruent-22", "trial_type": "html-keyboard-response", "trial_index": 162, "time_elapsed": 291734, "internal_node_id": "0.0-6.0-67.0"}}, {"uniqueid": "w32130968:a44431839", "current_trial": 163, "dateTime": 1664873399958, "trialdata": {"rt": 1345, "stimulus": "<p id='stroop-text' class='stroop-green'>WINDOW</p>", "response": "g", "stimulus-type": "unrelated", "word": "WINDOW", "color": "green", "correct_response": "g", "trial_id": "stroop-trial-1-unrelated-30", "trial_type": "html-keyboard-response", "trial_index": 163, "time_elapsed": 293594, "internal_node_id": "0.0-6.0-68.0"}}, {"uniqueid": "w32130968:a44431839", "current_trial": 164, "dateTime": 1664873401288, "trialdata": {"rt": 816, "stimulus": "<p id='stroop-text' class='stroop-yellow'>GREEN</p>", "response": "y", "stimulus-type": "incongruent", "word": "green", "color": "yellow", "correct_response": "y", "trial_id": "stroop-trial-1-incongruent-25", "trial_type": "html-keyboard-response", "trial_index": 164, "time_elapsed": 294924, "internal_node_id": "0.0-6.0-69.0"}}, {"uniqueid": "w32130968:a44431839", "current_trial": 165, "dateTime": 1664873402318, "trialdata": {"rt": 520, "stimulus": "<p id='stroop-text' class='stroop-yellow'>YELLOW</p>", "response": "y", "stimulus-type": "congruent", "word": "yellow", "color": "yellow", "correct_response": "y", "trial_id": "stroop-trial-1-congruent-19", "trial_type": "html-keyboard-response", "trial_index": 165, "time_elapsed": 295954, "internal_node_id": "0.0-6.0-70.0"}}, {"uniqueid": "w32130968:a44431839", "current_trial": 166, "dateTime": 1664873403608, "trialdata": {"rt": 776, "stimulus": "<p id='stroop-text' class='stroop-red'>BLUE</p>", "response": "r", "stimulus-type": "incongruent", "word": "blue", "color": "red", "correct_response": "r", "trial_id": "stroop-trial-1-incongruent-6", "trial_type": "html-keyboard-response", "trial_index": 166, "time_elapsed": 297244, "internal_node_id": "0.0-6.0-71.0"}}, {"uniqueid": "w32130968:a44431839", "current_trial": 167, "dateTime": 1664873404728, "trialdata": {"rt": 602, "stimulus": "<p id='stroop-text' class='stroop-red'>RED</p>", "response": "r", "stimulus-type": "congruent", "word": "red", "color": "red", "correct_response": "r", "trial_id": "stroop-trial-1-congruent-4", "trial_type": "html-keyboard-response", "trial_index": 167, "time_elapsed": 298364, "internal_node_id": "0.0-6.0-72.0"}}, {"uniqueid": "w32130968:a44431839", "current_trial": 168, "dateTime": 1664873406318, "trialdata": {"rt": 1071, "stimulus": "<p id='stroop-text' class='stroop-blue'>BLUE</p>", "response": "b", "stimulus-type": "congruent", "word": "blue", "color": "blue", "correct_response": "b", "trial_id": "stroop-trial-1-congruent-8", "trial_type": "html-keyboard-response", "trial_index": 168, "time_elapsed": 299955, "internal_node_id": "0.0-6.0-73.0"}}, {"uniqueid": "w32130968:a44431839", "current_trial": 169, "dateTime": 1664873408278, "trialdata": {"rt": 1450, "stimulus": "<p id='stroop-text' class='stroop-green'>GREEN</p>", "response": "g", "stimulus-type": "congruent", "word": "green", "color": "green", "correct_response": "g", "trial_id": "stroop-trial-1-congruent-22", "trial_type": "html-keyboard-response", "trial_index": 169, "time_elapsed": 301915, "internal_node_id": "0.0-6.0-74.0"}}, {"uniqueid": "w32130968:a44431839", "current_trial": 170, "dateTime": 1664873410338, "trialdata": {"rt": 1548, "stimulus": "<p id='stroop-text' class='stroop-blue'>YELLOW</p>", "response": "b", "stimulus-type": "incongruent", "word": "yellow", "color": "blue", "correct_response": "b", "trial_id": "stroop-trial-1-incongruent-12", "trial_type": "html-keyboard-response", "trial_index": 170, "time_elapsed": 303974, "internal_node_id": "0.0-6.0-75.0"}}, {"uniqueid": "w32130968:a44431839", "current_trial": 171, "dateTime": 1664873412238, "trialdata": {"rt": 1380, "stimulus": "<p id='stroop-text' class='stroop-yellow'>GREEN</p>", "response": "y", "stimulus-type": "incongruent", "word": "green", "color": "yellow", "correct_response": "y", "trial_id": "stroop-trial-1-incongruent-29", "trial_type": "html-keyboard-response", "trial_index": 171, "time_elapsed": 305874, "internal_node_id": "0.0-6.0-76.0"}}, {"uniqueid": "w32130968:a44431839", "current_trial": 172, "dateTime": 1664873413449, "trialdata": {"rt": 698, "stimulus": "<p id='stroop-text' class='stroop-red'>WINDOW</p>", "response": "r", "stimulus-type": "unrelated", "word": "WINDOW", "color": "red", "correct_response": "r", "trial_id": "stroop-trial-1-unrelated-16", "trial_type": "html-keyboard-response", "trial_index": 172, "time_elapsed": 307085, "internal_node_id": "0.0-6.0-77.0"}}, {"uniqueid": "w32130968:a44431839", "current_trial": 173, "dateTime": 1664873414980, "trialdata": {"rt": 1011, "stimulus": "<p id='stroop-text' class='stroop-blue'>BLUE</p>", "response": "b", "stimulus-type": "congruent", "word": "blue", "color": "blue", "correct_response": "b", "trial_id": "stroop-trial-1-congruent-9", "trial_type": "html-keyboard-response", "trial_index": 173, "time_elapsed": 308616, "internal_node_id": "0.0-6.0-78.0"}}, {"uniqueid": "w32130968:a44431839", "current_trial": 174, "dateTime": 1664873417069, "trialdata": {"rt": 1577, "stimulus": "<p id='stroop-text' class='stroop-blue'>BLUE</p>", "response": "b", "stimulus-type": "congruent", "word": "blue", "color": "blue", "correct_response": "b", "trial_id": "stroop-trial-1-congruent-28", "trial_type": "html-keyboard-response", "trial_index": 174, "time_elapsed": 310705, "internal_node_id": "0.0-6.0-79.0"}}, {"uniqueid": "w32130968:a44431839", "current_trial": 175, "dateTime": 1664873418869, "trialdata": {"rt": 1283, "stimulus": "<p id='stroop-text' class='stroop-yellow'>DOG</p>", "response": "y", "stimulus-type": "unrelated", "word": "DOG", "color": "yellow", "correct_response": "y", "trial_id": "stroop-trial-1-unrelated-25", "trial_type": "html-keyboard-response", "trial_index": 175, "time_elapsed": 312505, "internal_node_id": "0.0-6.0-80.0"}}, {"uniqueid": "w32130968:a44431839", "current_trial": 176, "dateTime": 1664873421220, "trialdata": {"rt": 1837, "stimulus": "<p id='stroop-text' class='stroop-green'>SHIP</p>", "response": "b", "stimulus-type": "unrelated", "word": "SHIP", "color": "green", "correct_response": "g", "trial_id": "stroop-trial-1-unrelated-26", "trial_type": "html-keyboard-response", "trial_index": 176, "time_elapsed": 314856, "internal_node_id": "0.0-6.0-81.0"}}, {"uniqueid": "w32130968:a44431839", "current_trial": 177, "dateTime": 1664873422269, "trialdata": {"rt": 538, "stimulus": "<p id='stroop-text' class='stroop-blue'>BOAT</p>", "response": "b", "stimulus-type": "unrelated", "word": "BOAT", "color": "blue", "correct_response": "b", "trial_id": "stroop-trial-1-unrelated-22", "trial_type": "html-keyboard-response", "trial_index": 177, "time_elapsed": 315906, "internal_node_id": "0.0-6.0-82.0"}}, {"uniqueid": "w32130968:a44431839", "current_trial": 178, "dateTime": 1664873423429, "trialdata": {"rt": 651, "stimulus": "<p id='stroop-text' class='stroop-blue'>RED</p>", "response": "r", "stimulus-type": "incongruent", "word": "red", "color": "blue", "correct_response": "b", "trial_id": "stroop-trial-1-incongruent-20", "trial_type": "html-keyboard-response", "trial_index": 178, "time_elapsed": 317066, "internal_node_id": "0.0-6.0-83.0"}}, {"uniqueid": "w32130968:a44431839", "current_trial": 179, "dateTime": 1664873424550, "trialdata": {"rt": 606, "stimulus": "<p id='stroop-text' class='stroop-yellow'>YELLOW</p>", "response": "y", "stimulus-type": "congruent", "word": "yellow", "color": "yellow", "correct_response": "y", "trial_id": "stroop-trial-1-congruent-7", "trial_type": "html-keyboard-response", "trial_index": 179, "time_elapsed": 318186, "internal_node_id": "0.0-6.0-84.0"}}, {"uniqueid": "w32130968:a44431839", "current_trial": 180, "dateTime": 1664873425640, "trialdata": {"rt": 573, "stimulus": "<p id='stroop-text' class='stroop-yellow'>CHAIR</p>", "response": "y", "stimulus-type": "unrelated", "word": "CHAIR", "color": "yellow", "correct_response": "y", "trial_id": "stroop-trial-1-unrelated-27", "trial_type": "html-keyboard-response", "trial_index": 180, "time_elapsed": 319277, "internal_node_id": "0.0-6.0-85.0"}}, {"uniqueid": "w32130968:a44431839", "current_trial": 181, "dateTime": 1664873427199, "trialdata": {"rt": 1047, "stimulus": "<p id='stroop-text' class='stroop-green'>GREEN</p>", "response": "g", "stimulus-type": "congruent", "word": "green", "color": "green", "correct_response": "g", "trial_id": "stroop-trial-1-congruent-13", "trial_type": "html-keyboard-response", "trial_index": 181, "time_elapsed": 320836, "internal_node_id": "0.0-6.0-86.0"}}, {"uniqueid": "w32130968:a44431839", "current_trial": 182, "dateTime": 1664873428229, "trialdata": {"rt": 514, "stimulus": "<p id='stroop-text' class='stroop-green'>WINDOW</p>", "response": "g", "stimulus-type": "unrelated", "word": "WINDOW", "color": "green", "correct_response": "g", "trial_id": "stroop-trial-1-unrelated-12", "trial_type": "html-keyboard-response", "trial_index": 182, "time_elapsed": 321866, "internal_node_id": "0.0-6.0-87.0"}}, {"uniqueid": "w32130968:a44431839", "current_trial": 183, "dateTime": 1664873429320, "trialdata": {"rt": 574, "stimulus": "<p id='stroop-text' class='stroop-yellow'>DOG</p>", "response": "y", "stimulus-type": "unrelated", "word": "DOG", "color": "yellow", "correct_response": "y", "trial_id": "stroop-trial-1-unrelated-10", "trial_type": "html-keyboard-response", "trial_index": 183, "time_elapsed": 322956, "internal_node_id": "0.0-6.0-88.0"}}, {"uniqueid": "w32130968:a44431839", "current_trial": 184, "dateTime": 1664873430539, "trialdata": {"rt": 701, "stimulus": "<p id='stroop-text' class='stroop-red'>RED</p>", "response": "r", "stimulus-type": "congruent", "word": "red", "color": "red", "correct_response": "r", "trial_id": "stroop-trial-1-congruent-2", "trial_type": "html-keyboard-response", "trial_index": 184, "time_elapsed": 324175, "internal_node_id": "0.0-6.0-89.0"}}, {"uniqueid": "w32130968:a44431839", "current_trial": 185, "dateTime": 1664873432499, "trialdata": {"rt": 1445, "stimulus": "  <h1> End of block! </h1>\n\n  You have reached the end of the block 2/5. If you need a short break, feel free to take one now before moving on.\n\n  <br><br>\n  In the next block, you will complete another 90 rounds of this game.\n\n  <br><br>\n  <div style='text-align: center;'>Press <code>space</code> to begin.</div>\n  <br><br>\n<div style='text-align: center;'>(If the experiment doesn't continue, try clicking on the text and then pressing <code>space</code>.)</div>", "response": " ", "trial_id": "stroop_1_ready_3", "trial_type": "html-keyboard-response", "trial_index": 185, "time_elapsed": 326136, "internal_node_id": "0.0-7.0"}}, {"uniqueid": "w32130968:a44431839", "current_trial": 186, "dateTime": 1664873433770, "trialdata": {"rt": 1256, "stimulus": "<p id='stroop-text' class='stroop-blue'>BRAIN</p>", "response": "b", "stimulus-type": "unrelated", "word": "BRAIN", "color": "blue", "correct_response": "b", "trial_id": "stroop-trial-1-unrelated-28", "trial_type": "html-keyboard-response", "trial_index": 186, "time_elapsed": 327406, "internal_node_id": "0.0-8.0-0.0"}}, {"uniqueid": "w32130968:a44431839", "current_trial": 187, "dateTime": 1664873434709, "trialdata": {"rt": 426, "stimulus": "<p id='stroop-text' class='stroop-blue'>BLUE</p>", "response": "b", "stimulus-type": "congruent", "word": "blue", "color": "blue", "correct_response": "b", "trial_id": "stroop-trial-1-congruent-13", "trial_type": "html-keyboard-response", "trial_index": 187, "time_elapsed": 328346, "internal_node_id": "0.0-8.0-1.0"}}, {"uniqueid": "w32130968:a44431839", "current_trial": 188, "dateTime": 1664873435900, "trialdata": {"rt": 676, "stimulus": "<p id='stroop-text' class='stroop-green'>GREEN</p>", "response": "r", "stimulus-type": "congruent", "word": "green", "color": "green", "correct_response": "g", "trial_id": "stroop-trial-1-congruent-11", "trial_type": "html-keyboard-response", "trial_index": 188, "time_elapsed": 329536, "internal_node_id": "0.0-8.0-2.0"}}, {"uniqueid": "w32130968:a44431839", "current_trial": 189, "dateTime": 1664873436840, "trialdata": {"rt": 430, "stimulus": "<p id='stroop-text' class='stroop-green'>GREEN</p>", "response": "g", "stimulus-type": "congruent", "word": "green", "color": "green", "correct_response": "g", "trial_id": "stroop-trial-1-congruent-16", "trial_type": "html-keyboard-response", "trial_index": 189, "time_elapsed": 330476, "internal_node_id": "0.0-8.0-3.0"}}, {"uniqueid": "w32130968:a44431839", "current_trial": 190, "dateTime": 1664873437760, "trialdata": {"rt": 406, "stimulus": "<p id='stroop-text' class='stroop-green'>GREEN</p>", "response": "g", "stimulus-type": "congruent", "word": "green", "color": "green", "correct_response": "g", "trial_id": "stroop-trial-1-congruent-29", "trial_type": "html-keyboard-response", "trial_index": 190, "time_elapsed": 331396, "internal_node_id": "0.0-8.0-4.0"}}, {"uniqueid": "w32130968:a44431839", "current_trial": 191, "dateTime": 1664873438839, "trialdata": {"rt": 563, "stimulus": "<p id='stroop-text' class='stroop-blue'>YELLOW</p>", "response": "y", "stimulus-type": "incongruent", "word": "yellow", "color": "blue", "correct_response": "b", "trial_id": "stroop-trial-1-incongruent-17", "trial_type": "html-keyboard-response", "trial_index": 191, "time_elapsed": 332475, "internal_node_id": "0.0-8.0-5.0"}}, {"uniqueid": "w32130968:a44431839", "current_trial": 192, "dateTime": 1664873440269, "trialdata": {"rt": 918, "stimulus": "<p id='stroop-text' class='stroop-red'>FORK</p>", "response": "r", "stimulus-type": "unrelated", "word": "FORK", "color": "red", "correct_response": "r", "trial_id": "stroop-trial-1-unrelated-23", "trial_type": "html-keyboard-response", "trial_index": 192, "time_elapsed": 333906, "internal_node_id": "0.0-8.0-6.0"}}, {"uniqueid": "w32130968:a44431839", "current_trial": 193, "dateTime": 1664873441919, "trialdata": {"rt": 1136, "stimulus": "<p id='stroop-text' class='stroop-blue'>BLUE</p>", "response": "b", "stimulus-type": "congruent", "word": "blue", "color": "blue", "correct_response": "b", "trial_id": "stroop-trial-1-congruent-5", "trial_type": "html-keyboard-response", "trial_index": 193, "time_elapsed": 335556, "internal_node_id": "0.0-8.0-7.0"}}, {"uniqueid": "w32130968:a44431839", "current_trial": 194, "dateTime": 1664873442890, "trialdata": {"rt": 459, "stimulus": "<p id='stroop-text' class='stroop-blue'>BLUE</p>", "response": "b", "stimulus-type": "congruent", "word": "blue", "color": "blue", "correct_response": "b", "trial_id": "stroop-trial-1-congruent-7", "trial_type": "html-keyboard-response", "trial_index": 194, "time_elapsed": 336526, "internal_node_id": "0.0-8.0-8.0"}}, {"uniqueid": "w32130968:a44431839", "current_trial": 195, "dateTime": 1664873444070, "trialdata": {"rt": 666, "stimulus": "<p id='stroop-text' class='stroop-yellow'>MONKEY</p>", "response": "y", "stimulus-type": "unrelated", "word": "MONKEY", "color": "yellow", "correct_response": "y", "trial_id": "stroop-trial-1-unrelated-12", "trial_type": "html-keyboard-response", "trial_index": 195, "time_elapsed": 337706, "internal_node_id": "0.0-8.0-9.0"}}, {"uniqueid": "w32130968:a44431839", "current_trial": 196, "dateTime": 1664873445210, "trialdata": {"rt": 623, "stimulus": "<p id='stroop-text' class='stroop-red'>CHAIR</p>", "response": "r", "stimulus-type": "unrelated", "word": "CHAIR", "color": "red", "correct_response": "r", "trial_id": "stroop-trial-1-unrelated-10", "trial_type": "html-keyboard-response", "trial_index": 196, "time_elapsed": 338846, "internal_node_id": "0.0-8.0-10.0"}}, {"uniqueid": "w32130968:a44431839", "current_trial": 197, "dateTime": 1664873447420, "trialdata": {"rt": 1698, "stimulus": "<p id='stroop-text' class='stroop-blue'>RED</p>", "response": "b", "stimulus-type": "incongruent", "word": "red", "color": "blue", "correct_response": "b", "trial_id": "stroop-trial-1-incongruent-8", "trial_type": "html-keyboard-response", "trial_index": 197, "time_elapsed": 341057, "internal_node_id": "0.0-8.0-11.0"}}, {"uniqueid": "w32130968:a44431839", "current_trial": 198, "dateTime": 1664873448531, "trialdata": {"rt": 602, "stimulus": "<p id='stroop-text' class='stroop-blue'>BLUE</p>", "response": "b", "stimulus-type": "congruent", "word": "blue", "color": "blue", "correct_response": "b", "trial_id": "stroop-trial-1-congruent-3", "trial_type": "html-keyboard-response", "trial_index": 198, "time_elapsed": 342167, "internal_node_id": "0.0-8.0-12.0"}}, {"uniqueid": "w32130968:a44431839", "current_trial": 199, "dateTime": 1664873449720, "trialdata": {"rt": 672, "stimulus": "<p id='stroop-text' class='stroop-red'>YELLOW</p>", "response": "y", "stimulus-type": "incongruent", "word": "yellow", "color": "red", "correct_response": "r", "trial_id": "stroop-trial-1-incongruent-23", "trial_type": "html-keyboard-response", "trial_index": 199, "time_elapsed": 343356, "internal_node_id": "0.0-8.0-13.0"}}, {"uniqueid": "w32130968:a44431839", "current_trial": 200, "dateTime": 1664873451771, "trialdata": {"rt": 1538, "stimulus": "<p id='stroop-text' class='stroop-yellow'>MONKEY</p>", "response": "y", "stimulus-type": "unrelated", "word": "MONKEY", "color": "yellow", "correct_response": "y", "trial_id": "stroop-trial-1-unrelated-6", "trial_type": "html-keyboard-response", "trial_index": 200, "time_elapsed": 345407, "internal_node_id": "0.0-8.0-14.0"}}, {"uniqueid": "w32130968:a44431839", "current_trial": 201, "dateTime": 1664873453862, "trialdata": {"rt": 1581, "stimulus": "<p id='stroop-text' class='stroop-yellow'>BLUE</p>", "response": "y", "stimulus-type": "incongruent", "word": "blue", "color": "yellow", "correct_response": "y", "trial_id": "stroop-trial-1-incongruent-28", "trial_type": "html-keyboard-response", "trial_index": 201, "time_elapsed": 347497, "internal_node_id": "0.0-8.0-15.0"}}, {"uniqueid": "w32130968:a44431839", "current_trial": 202, "dateTime": 1664873455041, "trialdata": {"rt": 659, "stimulus": "<p id='stroop-text' class='stroop-yellow'>YELLOW</p>", "response": "y", "stimulus-type": "congruent", "word": "yellow", "color": "yellow", "correct_response": "y", "trial_id": "stroop-trial-1-congruent-14", "trial_type": "html-keyboard-response", "trial_index": 202, "time_elapsed": 348677, "internal_node_id": "0.0-8.0-16.0"}}, {"uniqueid": "w32130968:a44431839", "current_trial": 203, "dateTime": 1664873456720, "trialdata": {"rt": 1167, "stimulus": "<p id='stroop-text' class='stroop-yellow'>BLUE</p>", "response": "r", "stimulus-type": "incongruent", "word": "blue", "color": "yellow", "correct_response": "y", "trial_id": "stroop-trial-1-incongruent-29", "trial_type": "html-keyboard-response", "trial_index": 203, "time_elapsed": 350357, "internal_node_id": "0.0-8.0-17.0"}}, {"uniqueid": "w32130968:a44431839", "current_trial": 204, "dateTime": 1664873458421, "trialdata": {"rt": 1188, "stimulus": "<p id='stroop-text' class='stroop-green'>BLUE</p>", "response": "b", "stimulus-type": "incongruent", "word": "blue", "color": "green", "correct_response": "g", "trial_id": "stroop-trial-1-incongruent-9", "trial_type": "html-keyboard-response", "trial_index": 204, "time_elapsed": 352057, "internal_node_id": "0.0-8.0-18.0"}}, {"uniqueid": "w32130968:a44431839", "current_trial": 205, "dateTime": 1664873460991, "trialdata": {"rt": 2051, "stimulus": "<p id='stroop-text' class='stroop-red'>YELLOW</p>", "response": "r", "stimulus-type": "incongruent", "word": "yellow", "color": "red", "correct_response": "r", "trial_id": "stroop-trial-1-incongruent-20", "trial_type": "html-keyboard-response", "trial_index": 205, "time_elapsed": 354627, "internal_node_id": "0.0-8.0-19.0"}}, {"uniqueid": "w32130968:a44431839", "current_trial": 206, "dateTime": 1664873463710, "trialdata": {"rt": 2207, "stimulus": "<p id='stroop-text' class='stroop-yellow'>BLUE</p>", "response": "y", "stimulus-type": "incongruent", "word": "blue", "color": "yellow", "correct_response": "y", "trial_id": "stroop-trial-1-incongruent-25", "trial_type": "html-keyboard-response", "trial_index": 206, "time_elapsed": 357346, "internal_node_id": "0.0-8.0-20.0"}}, {"uniqueid": "w32130968:a44431839", "current_trial": 207, "dateTime": 1664873465539, "trialdata": {"rt": 1314, "stimulus": "<p id='stroop-text' class='stroop-green'>GREEN</p>", "response": "g", "stimulus-type": "congruent", "word": "green", "color": "green", "correct_response": "g", "trial_id": "stroop-trial-1-congruent-2", "trial_type": "html-keyboard-response", "trial_index": 207, "time_elapsed": 359176, "internal_node_id": "0.0-8.0-21.0"}}, {"uniqueid": "w32130968:a44431839", "current_trial": 208, "dateTime": 1664873466700, "trialdata": {"rt": 647, "stimulus": "<p id='stroop-text' class='stroop-yellow'>RED</p>", "response": "r", "stimulus-type": "incongruent", "word": "red", "color": "yellow", "correct_response": "y", "trial_id": "stroop-trial-1-incongruent-1", "trial_type": "html-keyboard-response", "trial_index": 208, "time_elapsed": 360337, "internal_node_id": "0.0-8.0-22.0"}}, {"uniqueid": "w32130968:a44431839", "current_trial": 209, "dateTime": 1664873468241, "trialdata": {"rt": 1024, "stimulus": "<p id='stroop-text' class='stroop-yellow'>BOTTLE</p>", "response": "y", "stimulus-type": "unrelated", "word": "BOTTLE", "color": "yellow", "correct_response": "y", "trial_id": "stroop-trial-1-unrelated-26", "trial_type": "html-keyboard-response", "trial_index": 209, "time_elapsed": 361877, "internal_node_id": "0.0-8.0-23.0"}}, {"uniqueid": "w32130968:a44431839", "current_trial": 210, "dateTime": 1664873470341, "trialdata": {"rt": 1582, "stimulus": "<p id='stroop-text' class='stroop-green'>BLUE</p>", "response": "g", "stimulus-type": "incongruent", "word": "blue", "color": "green", "correct_response": "g", "trial_id": "stroop-trial-1-incongruent-4", "trial_type": "html-keyboard-response", "trial_index": 210, "time_elapsed": 363978, "internal_node_id": "0.0-8.0-24.0"}}, {"uniqueid": "w32130968:a44431839", "current_trial": 211, "dateTime": 1664873472811, "trialdata": {"rt": 1956, "stimulus": "<p id='stroop-text' class='stroop-red'>DOG</p>", "response": "r", "stimulus-type": "unrelated", "word": "DOG", "color": "red", "correct_response": "r", "trial_id": "stroop-trial-1-unrelated-25", "trial_type": "html-keyboard-response", "trial_index": 211, "time_elapsed": 366447, "internal_node_id": "0.0-8.0-25.0"}}, {"uniqueid": "w32130968:a44431839", "current_trial": 212, "dateTime": 1664873474391, "trialdata": {"rt": 1062, "stimulus": "<p id='stroop-text' class='stroop-green'>FORK</p>", "response": "g", "stimulus-type": "unrelated", "word": "FORK", "color": "green", "correct_response": "g", "trial_id": "stroop-trial-1-unrelated-15", "trial_type": "html-keyboard-response", "trial_index": 212, "time_elapsed": 368027, "internal_node_id": "0.0-8.0-26.0"}}, {"uniqueid": "w32130968:a44431839", "current_trial": 213, "dateTime": 1664873476181, "trialdata": {"rt": 1278, "stimulus": "<p id='stroop-text' class='stroop-red'>BOAT</p>", "response": "r", "stimulus-type": "unrelated", "word": "BOAT", "color": "red", "correct_response": "r", "trial_id": "stroop-trial-1-unrelated-4", "trial_type": "html-keyboard-response", "trial_index": 213, "time_elapsed": 369817, "internal_node_id": "0.0-8.0-27.0"}}, {"uniqueid": "w32130968:a44431839", "current_trial": 214, "dateTime": 1664873477781, "trialdata": {"rt": 1077, "stimulus": "<p id='stroop-text' class='stroop-green'>BRIDGE</p>", "response": "g", "stimulus-type": "unrelated", "word": "BRIDGE", "color": "green", "correct_response": "g", "trial_id": "stroop-trial-1-unrelated-7", "trial_type": "html-keyboard-response", "trial_index": 214, "time_elapsed": 371417, "internal_node_id": "0.0-8.0-28.0"}}, {"uniqueid": "w32130968:a44431839", "current_trial": 215, "dateTime": 1664873478961, "trialdata": {"rt": 669, "stimulus": "<p id='stroop-text' class='stroop-yellow'>STONE</p>", "response": "y", "stimulus-type": "unrelated", "word": "STONE", "color": "yellow", "correct_response": "y", "trial_id": "stroop-trial-1-unrelated-3", "trial_type": "html-keyboard-response", "trial_index": 215, "time_elapsed": 372597, "internal_node_id": "0.0-8.0-29.0"}}, {"uniqueid": "w32130968:a44431839", "current_trial": 216, "dateTime": 1664873480731, "trialdata": {"rt": 1248, "stimulus": "<p id='stroop-text' class='stroop-red'>STONE</p>", "response": "r", "stimulus-type": "unrelated", "word": "STONE", "color": "red", "correct_response": "r", "trial_id": "stroop-trial-1-unrelated-27", "trial_type": "html-keyboard-response", "trial_index": 216, "time_elapsed": 374367, "internal_node_id": "0.0-8.0-30.0"}}, {"uniqueid": "w32130968:a44431839", "current_trial": 217, "dateTime": 1664873482330, "trialdata": {"rt": 1081, "stimulus": "<p id='stroop-text' class='stroop-blue'>BRAIN</p>", "response": "b", "stimulus-type": "unrelated", "word": "BRAIN", "color": "blue", "correct_response": "b", "trial_id": "stroop-trial-1-unrelated-2", "trial_type": "html-keyboard-response", "trial_index": 217, "time_elapsed": 375966, "internal_node_id": "0.0-8.0-31.0"}}, {"uniqueid": "w32130968:a44431839", "current_trial": 218, "dateTime": 1664873484440, "trialdata": {"rt": 1596, "stimulus": "<p id='stroop-text' class='stroop-blue'>GREEN</p>", "response": "b", "stimulus-type": "incongruent", "word": "green", "color": "blue", "correct_response": "b", "trial_id": "stroop-trial-1-incongruent-26", "trial_type": "html-keyboard-response", "trial_index": 218, "time_elapsed": 378076, "internal_node_id": "0.0-8.0-32.0"}}, {"uniqueid": "w32130968:a44431839", "current_trial": 219, "dateTime": 1664873486631, "trialdata": {"rt": 1674, "stimulus": "<p id='stroop-text' class='stroop-red'>RED</p>", "response": "r", "stimulus-type": "congruent", "word": "red", "color": "red", "correct_response": "r", "trial_id": "stroop-trial-1-congruent-24", "trial_type": "html-keyboard-response", "trial_index": 219, "time_elapsed": 380267, "internal_node_id": "0.0-8.0-33.0"}}, {"uniqueid": "w32130968:a44431839", "current_trial": 220, "dateTime": 1664873489892, "trialdata": {"rt": 2749, "stimulus": "<p id='stroop-text' class='stroop-green'>YELLOW</p>", "response": "r", "stimulus-type": "incongruent", "word": "yellow", "color": "green", "correct_response": "g", "trial_id": "stroop-trial-1-incongruent-27", "trial_type": "html-keyboard-response", "trial_index": 220, "time_elapsed": 383528, "internal_node_id": "0.0-8.0-34.0"}}, {"uniqueid": "w32130968:a44431839", "current_trial": 221, "dateTime": 1664873491101, "trialdata": {"rt": 687, "stimulus": "<p id='stroop-text' class='stroop-yellow'>FORK</p>", "response": "y", "stimulus-type": "unrelated", "word": "FORK", "color": "yellow", "correct_response": "y", "trial_id": "stroop-trial-1-unrelated-9", "trial_type": "html-keyboard-response", "trial_index": 221, "time_elapsed": 384738, "internal_node_id": "0.0-8.0-35.0"}}, {"uniqueid": "w32130968:a44431839", "current_trial": 222, "dateTime": 1664873492751, "trialdata": {"rt": 1137, "stimulus": "<p id='stroop-text' class='stroop-yellow'>GREEN</p>", "response": "y", "stimulus-type": "incongruent", "word": "green", "color": "yellow", "correct_response": "y", "trial_id": "stroop-trial-1-incongruent-14", "trial_type": "html-keyboa