{"condition": 0, "counterbalance": 0, "assignmentId": "a57858308", "workerId": "w22814650", "hitId": "h31121697", "currenttrial": 518, "bonus": 0, "data": [{"uniqueid": "w22814650:a57858308", "current_trial": 0, "dateTime": 1664463889915, "trialdata": {"success": true, "trial_type": "fullscreen", "trial_index": 0, "time_elapsed": 3547, "internal_node_id": "0.0-0.0"}}, {"uniqueid": "w22814650:a57858308", "current_trial": 1, "dateTime": 1664463892558, "trialdata": {"view_history": [{"page_index": 0, "viewing_time": 2641}], "rt": 2642, "trial_id": "exp_instructions_distractor", "trial_type": "instructions", "trial_index": 1, "time_elapsed": 6191, "internal_node_id": "0.0-1.0"}}, {"uniqueid": "w22814650:a57858308", "current_trial": 2, "dateTime": 1664463909376, "trialdata": {"view_history": [{"page_index": 0, "viewing_time": 16817}], "rt": 16817, "trial_id": "color_game_instructions", "trial_type": "instructions", "trial_index": 2, "time_elapsed": 23009, "internal_node_id": "0.0-2.0"}}, {"uniqueid": "w22814650:a57858308", "current_trial": 3, "dateTime": 1664463911339, "trialdata": {"rt": 1962, "stimulus": "<h1> Get ready to start the game! </h1>\n\nThank you for reading the instructions. Get ready start with the first of 5 block(s) of this game.\n<br><br>\nIn this first block, you will complete 90 rounds of this game before moving on.\n<br><br>\nRemember, the better you perform, the bigger your bonus will be!\n<br><br>\n<div style='text-align: center;'>Press <code>space</code> to begin.</div>", "response": " ", "trial_id": "stroop_1_ready_1", "trial_type": "html-keyboard-response", "trial_index": 3, "time_elapsed": 24972, "internal_node_id": "0.0-3.0"}}, {"uniqueid": "w22814650:a57858308", "current_trial": 4, "dateTime": 1664463912346, "trialdata": {"rt": 1004, "stimulus": "<p id='stroop-text' class='stroop-yellow'>YELLOW</p>", "response": "y", "stimulus-type": "congruent", "word": "yellow", "color": "yellow", "correct_response": "y", "trial_id": "stroop-trial-1-congruent-10", "trial_type": "html-keyboard-response", "trial_index": 4, "time_elapsed": 25979, "internal_node_id": "0.0-4.0-0.0"}}, {"uniqueid": "w22814650:a57858308", "current_trial": 5, "dateTime": 1664463913738, "trialdata": {"rt": 879, "stimulus": "<p id='stroop-text' class='stroop-red'>BLUE</p>", "response": "r", "stimulus-type": "incongruent", "word": "blue", "color": "red", "correct_response": "r", "trial_id": "stroop-trial-1-incongruent-8", "trial_type": "html-keyboard-response", "trial_index": 5, "time_elapsed": 27371, "internal_node_id": "0.0-4.0-1.0"}}, {"uniqueid": "w22814650:a57858308", "current_trial": 6, "dateTime": 1664463915106, "trialdata": {"rt": 852, "stimulus": "<p id='stroop-text' class='stroop-red'>MONKEY</p>", "response": "r", "stimulus-type": "unrelated", "word": "MONKEY", "color": "red", "correct_response": "r", "trial_id": "stroop-trial-1-unrelated-3", "trial_type": "html-keyboard-response", "trial_index": 6, "time_elapsed": 28739, "internal_node_id": "0.0-4.0-2.0"}}, {"uniqueid": "w22814650:a57858308", "current_trial": 7, "dateTime": 1664463916498, "trialdata": {"rt": 891, "stimulus": "<p id='stroop-text' class='stroop-yellow'>RED</p>", "response": "y", "stimulus-type": "incongruent", "word": "red", "color": "yellow", "correct_response": "y", "trial_id": "stroop-trial-1-incongruent-2", "trial_type": "html-keyboard-response", "trial_index": 7, "time_elapsed": 30131, "internal_node_id": "0.0-4.0-3.0"}}, {"uniqueid": "w22814650:a57858308", "current_trial": 8, "dateTime": 1664463918201, "trialdata": {"rt": 1202, "stimulus": "<p id='stroop-text' class='stroop-green'>BLUE</p>", "response": "g", "stimulus-type": "incongruent", "word": "blue", "color": "green", "correct_response": "g", "trial_id": "stroop-trial-1-incongruent-12", "trial_type": "html-keyboard-response", "trial_index": 8, "time_elapsed": 31834, "internal_node_id": "0.0-4.0-4.0"}}, {"uniqueid": "w22814650:a57858308", "current_trial": 9, "dateTime": 1664463919615, "trialdata": {"rt": 913, "stimulus": "<p id='stroop-text' class='stroop-red'>RED</p>", "response": "r", "stimulus-type": "congruent", "word": "red", "color": "red", "correct_response": "r", "trial_id": "stroop-trial-1-congruent-22", "trial_type": "html-keyboard-response", "trial_index": 9, "time_elapsed": 33248, "internal_node_id": "0.0-4.0-5.0"}}, {"uniqueid": "w22814650:a57858308", "current_trial": 10, "dateTime": 1664463920912, "trialdata": {"rt": 796, "stimulus": "<p id='stroop-text' class='stroop-green'>GREEN</p>", "response": "g", "stimulus-type": "congruent", "word": "green", "color": "green", "correct_response": "g", "trial_id": "stroop-trial-1-congruent-30", "trial_type": "html-keyboard-response", "trial_index": 10, "time_elapsed": 34545, "internal_node_id": "0.0-4.0-6.0"}}, {"uniqueid": "w22814650:a57858308", "current_trial": 11, "dateTime": 1664463922185, "trialdata": {"rt": 772, "stimulus": "<p id='stroop-text' class='stroop-blue'>BLUE</p>", "response": "b", "stimulus-type": "congruent", "word": "blue", "color": "blue", "correct_response": "b", "trial_id": "stroop-trial-1-congruent-16", "trial_type": "html-keyboard-response", "trial_index": 11, "time_elapsed": 35818, "internal_node_id": "0.0-4.0-7.0"}}, {"uniqueid": "w22814650:a57858308", "current_trial": 12, "dateTime": 1664463923457, "trialdata": {"rt": 771, "stimulus": "<p id='stroop-text' class='stroop-green'>YELLOW</p>", "response": "y", "stimulus-type": "incongruent", "word": "yellow", "color": "green", "correct_response": "g", "trial_id": "stroop-trial-1-incongruent-13", "trial_type": "html-keyboard-response", "trial_index": 12, "time_elapsed": 37090, "internal_node_id": "0.0-4.0-8.0"}}, {"uniqueid": "w22814650:a57858308", "current_trial": 13, "dateTime": 1664463924870, "trialdata": {"rt": 912, "stimulus": "<p id='stroop-text' class='stroop-green'>GREEN</p>", "response": "g", "stimulus-type": "congruent", "word": "green", "color": "green", "correct_response": "g", "trial_id": "stroop-trial-1-congruent-26", "trial_type": "html-keyboard-response", "trial_index": 13, "time_elapsed": 38503, "internal_node_id": "0.0-4.0-9.0"}}, {"uniqueid": "w22814650:a57858308", "current_trial": 14, "dateTime": 1664463926428, "trialdata": {"rt": 1057, "stimulus": "<p id='stroop-text' class='stroop-yellow'>BLUE</p>", "response": "y", "stimulus-type": "incongruent", "word": "blue", "color": "yellow", "correct_response": "y", "trial_id": "stroop-trial-1-incongruent-3", "trial_type": "html-keyboard-response", "trial_index": 14, "time_elapsed": 40061, "internal_node_id": "0.0-4.0-10.0"}}, {"uniqueid": "w22814650:a57858308", "current_trial": 15, "dateTime": 1664463927889, "trialdata": {"rt": 960, "stimulus": "<p id='stroop-text' class='stroop-blue'>BLUE</p>", "response": "b", "stimulus-type": "congruent", "word": "blue", "color": "blue", "correct_response": "b", "trial_id": "stroop-trial-1-congruent-20", "trial_type": "html-keyboard-response", "trial_index": 15, "time_elapsed": 41522, "internal_node_id": "0.0-4.0-11.0"}}, {"uniqueid": "w22814650:a57858308", "current_trial": 16, "dateTime": 1664463929282, "trialdata": {"rt": 892, "stimulus": "<p id='stroop-text' class='stroop-green'>YELLOW</p>", "response": "g", "stimulus-type": "incongruent", "word": "yellow", "color": "green", "correct_response": "g", "trial_id": "stroop-trial-1-incongruent-24", "trial_type": "html-keyboard-response", "trial_index": 16, "time_elapsed": 42915, "internal_node_id": "0.0-4.0-12.0"}}, {"uniqueid": "w22814650:a57858308", "current_trial": 17, "dateTime": 1664463930766, "trialdata": {"rt": 983, "stimulus": "<p id='stroop-text' class='stroop-green'>YELLOW</p>", "response": "g", "stimulus-type": "incongruent", "word": "yellow", "color": "green", "correct_response": "g", "trial_id": "stroop-trial-1-incongruent-1", "trial_type": "html-keyboard-response", "trial_index": 17, "time_elapsed": 44399, "internal_node_id": "0.0-4.0-13.0"}}, {"uniqueid": "w22814650:a57858308", "current_trial": 18, "dateTime": 1664463932061, "trialdata": {"rt": 794, "stimulus": "<p id='stroop-text' class='stroop-blue'>BLUE</p>", "response": "b", "stimulus-type": "congruent", "word": "blue", "color": "blue", "correct_response": "b", "trial_id": "stroop-trial-1-congruent-4", "trial_type": "html-keyboard-response", "trial_index": 18, "time_elapsed": 45694, "internal_node_id": "0.0-4.0-14.0"}}, {"uniqueid": "w22814650:a57858308", "current_trial": 19, "dateTime": 1664463933328, "trialdata": {"rt": 765, "stimulus": "<p id='stroop-text' class='stroop-yellow'>YELLOW</p>", "response": "y", "stimulus-type": "congruent", "word": "yellow", "color": "yellow", "correct_response": "y", "trial_id": "stroop-trial-1-congruent-23", "trial_type": "html-keyboard-response", "trial_index": 19, "time_elapsed": 46961, "internal_node_id": "0.0-4.0-15.0"}}, {"uniqueid": "w22814650:a57858308", "current_trial": 20, "dateTime": 1664463934643, "trialdata": {"rt": 814, "stimulus": "<p id='stroop-text' class='stroop-green'>YELLOW</p>", "response": "g", "stimulus-type": "incongruent", "word": "yellow", "color": "green", "correct_response": "g", "trial_id": "stroop-trial-1-incongruent-27", "trial_type": "html-keyboard-response", "trial_index": 20, "time_elapsed": 48276, "internal_node_id": "0.0-4.0-16.0"}}, {"uniqueid": "w22814650:a57858308", "current_trial": 21, "dateTime": 1664463935912, "trialdata": {"rt": 768, "stimulus": "<p id='stroop-text' class='stroop-red'>RED</p>", "response": "r", "stimulus-type": "congruent", "word": "red", "color": "red", "correct_response": "r", "trial_id": "stroop-trial-1-congruent-19", "trial_type": "html-keyboard-response", "trial_index": 21, "time_elapsed": 49545, "internal_node_id": "0.0-4.0-17.0"}}, {"uniqueid": "w22814650:a57858308", "current_trial": 22, "dateTime": 1664463937230, "trialdata": {"rt": 817, "stimulus": "<p id='stroop-text' class='stroop-yellow'>GREEN</p>", "response": "y", "stimulus-type": "incongruent", "word": "green", "color": "yellow", "correct_response": "y", "trial_id": "stroop-trial-1-incongruent-15", "trial_type": "html-keyboard-response", "trial_index": 22, "time_elapsed": 50863, "internal_node_id": "0.0-4.0-18.0"}}, {"uniqueid": "w22814650:a57858308", "current_trial": 23, "dateTime": 1664463938662, "trialdata": {"rt": 931, "stimulus": "<p id='stroop-text' class='stroop-blue'>BRIDGE</p>", "response": "b", "stimulus-type": "unrelated", "word": "BRIDGE", "color": "blue", "correct_response": "b", "trial_id": "stroop-trial-1-unrelated-10", "trial_type": "html-keyboard-response", "trial_index": 23, "time_elapsed": 52295, "internal_node_id": "0.0-4.0-19.0"}}, {"uniqueid": "w22814650:a57858308", "current_trial": 24, "dateTime": 1664463940124, "trialdata": {"rt": 961, "stimulus": "<p id='stroop-text' class='stroop-green'>MONKEY</p>", "response": "g", "stimulus-type": "unrelated", "word": "MONKEY", "color": "green", "correct_response": "g", "trial_id": "stroop-trial-1-unrelated-6", "trial_type": "html-keyboard-response", "trial_index": 24, "time_elapsed": 53757, "internal_node_id": "0.0-4.0-20.0"}}, {"uniqueid": "w22814650:a57858308", "current_trial": 25, "dateTime": 1664463941659, "trialdata": {"rt": 1033, "stimulus": "<p id='stroop-text' class='stroop-red'>GREEN</p>", "response": "r", "stimulus-type": "incongruent", "word": "green", "color": "red", "correct_response": "r", "trial_id": "stroop-trial-1-incongruent-30", "trial_type": "html-keyboard-response", "trial_index": 25, "time_elapsed": 55291, "internal_node_id": "0.0-4.0-21.0"}}, {"uniqueid": "w22814650:a57858308", "current_trial": 26, "dateTime": 1664463942955, "trialdata": {"rt": 794, "stimulus": "<p id='stroop-text' class='stroop-yellow'>BLUE</p>", "response": "y", "stimulus-type": "incongruent", "word": "blue", "color": "yellow", "correct_response": "y", "trial_id": "stroop-trial-1-incongruent-14", "trial_type": "html-keyboard-response", "trial_index": 26, "time_elapsed": 56588, "internal_node_id": "0.0-4.0-22.0"}}, {"uniqueid": "w22814650:a57858308", "current_trial": 27, "dateTime": 1664463944581, "trialdata": {"rt": 1125, "stimulus": "<p id='stroop-text' class='stroop-green'>GREEN</p>", "response": "g", "stimulus-type": "congruent", "word": "green", "color": "green", "correct_response": "g", "trial_id": "stroop-trial-1-congruent-9", "trial_type": "html-keyboard-response", "trial_index": 27, "time_elapsed": 58214, "internal_node_id": "0.0-4.0-23.0"}}, {"uniqueid": "w22814650:a57858308", "current_trial": 28, "dateTime": 1664463945925, "trialdata": {"rt": 832, "stimulus": "<p id='stroop-text' class='stroop-yellow'>DOG</p>", "response": "y", "stimulus-type": "unrelated", "word": "DOG", "color": "yellow", "correct_response": "y", "trial_id": "stroop-trial-1-unrelated-22", "trial_type": "html-keyboard-response", "trial_index": 28, "time_elapsed": 59557, "internal_node_id": "0.0-4.0-24.0"}}, {"uniqueid": "w22814650:a57858308", "current_trial": 29, "dateTime": 1664463947147, "trialdata": {"rt": 721, "stimulus": "<p id='stroop-text' class='stroop-yellow'>BLUE</p>", "response": "y", "stimulus-type": "incongruent", "word": "blue", "color": "yellow", "correct_response": "y", "trial_id": "stroop-trial-1-incongruent-23", "trial_type": "html-keyboard-response", "trial_index": 29, "time_elapsed": 60780, "internal_node_id": "0.0-4.0-25.0"}}, {"uniqueid": "w22814650:a57858308", "current_trial": 30, "dateTime": 1664463948539, "trialdata": {"rt": 891, "stimulus": "<p id='stroop-text' class='stroop-blue'>YELLOW</p>", "response": "b", "stimulus-type": "incongruent", "word": "yellow", "color": "blue", "correct_response": "b", "trial_id": "stroop-trial-1-incongruent-19", "trial_type": "html-keyboard-response", "trial_index": 30, "time_elapsed": 62172, "internal_node_id": "0.0-4.0-26.0"}}, {"uniqueid": "w22814650:a57858308", "current_trial": 31, "dateTime": 1664463949859, "trialdata": {"rt": 813, "stimulus": "<p id='stroop-text' class='stroop-yellow'>YELLOW</p>", "response": "y", "stimulus-type": "congruent", "word": "yellow", "color": "yellow", "correct_response": "y", "trial_id": "stroop-trial-1-congruent-8", "trial_type": "html-keyboard-response", "trial_index": 31, "time_elapsed": 63492, "internal_node_id": "0.0-4.0-27.0"}}, {"uniqueid": "w22814650:a57858308", "current_trial": 32, "dateTime": 1664463951081, "trialdata": {"rt": 720, "stimulus": "<p id='stroop-text' class='stroop-blue'>BLUE</p>", "response": "b", "stimulus-type": "congruent", "word": "blue", "color": "blue", "correct_response": "b", "trial_id": "stroop-trial-1-congruent-29", "trial_type": "html-keyboard-response", "trial_index": 32, "time_elapsed": 64714, "internal_node_id": "0.0-4.0-28.0"}}, {"uniqueid": "w22814650:a57858308", "current_trial": 33, "dateTime": 1664463952515, "trialdata": {"rt": 933, "stimulus": "<p id='stroop-text' class='stroop-yellow'>CHAIR</p>", "response": "y", "stimulus-type": "unrelated", "word": "CHAIR", "color": "yellow", "correct_response": "y", "trial_id": "stroop-trial-1-unrelated-19", "trial_type": "html-keyboard-response", "trial_index": 33, "time_elapsed": 66148, "internal_node_id": "0.0-4.0-29.0"}}, {"uniqueid": "w22814650:a57858308", "current_trial": 34, "dateTime": 1664463953714, "trialdata": {"rt": 698, "stimulus": "<p id='stroop-text' class='stroop-blue'>BLUE</p>", "response": "b", "stimulus-type": "congruent", "word": "blue", "color": "blue", "correct_response": "b", "trial_id": "stroop-trial-1-congruent-15", "trial_type": "html-keyboard-response", "trial_index": 34, "time_elapsed": 67347, "internal_node_id": "0.0-4.0-30.0"}}, {"uniqueid": "w22814650:a57858308", "current_trial": 35, "dateTime": 1664463955226, "trialdata": {"rt": 1010, "stimulus": "<p id='stroop-text' class='stroop-red'>MONKEY</p>", "response": "r", "stimulus-type": "unrelated", "word": "MONKEY", "color": "red", "correct_response": "r", "trial_id": "stroop-trial-1-unrelated-11", "trial_type": "html-keyboard-response", "trial_index": 35, "time_elapsed": 68859, "internal_node_id": "0.0-4.0-31.0"}}, {"uniqueid": "w22814650:a57858308", "current_trial": 36, "dateTime": 1664463956932, "trialdata": {"rt": 1204, "stimulus": "<p id='stroop-text' class='stroop-blue'>MONKEY</p>", "response": "b", "stimulus-type": "unrelated", "word": "MONKEY", "color": "blue", "correct_response": "b", "trial_id": "stroop-trial-1-unrelated-27", "trial_type": "html-keyboard-response", "trial_index": 36, "time_elapsed": 70565, "internal_node_id": "0.0-4.0-32.0"}}, {"uniqueid": "w22814650:a57858308", "current_trial": 37, "dateTime": 1664463958345, "trialdata": {"rt": 911, "stimulus": "<p id='stroop-text' class='stroop-red'>BOTTLE</p>", "response": "r", "stimulus-type": "unrelated", "word": "BOTTLE", "color": "red", "correct_response": "r", "trial_id": "stroop-trial-1-unrelated-24", "trial_type": "html-keyboard-response", "trial_index": 37, "time_elapsed": 71978, "internal_node_id": "0.0-4.0-33.0"}}, {"uniqueid": "w22814650:a57858308", "current_trial": 38, "dateTime": 1664463959566, "trialdata": {"rt": 719, "stimulus": "<p id='stroop-text' class='stroop-red'>BOAT</p>", "response": "r", "stimulus-type": "unrelated", "word": "BOAT", "color": "red", "correct_response": "r", "trial_id": "stroop-trial-1-unrelated-8", "trial_type": "html-keyboard-response", "trial_index": 38, "time_elapsed": 73199, "internal_node_id": "0.0-4.0-34.0"}}, {"uniqueid": "w22814650:a57858308", "current_trial": 39, "dateTime": 1664463961364, "trialdata": {"rt": 1297, "stimulus": "<p id='stroop-text' class='stroop-blue'>RED</p>", "response": "g", "stimulus-type": "incongruent", "word": "red", "color": "blue", "correct_response": "b", "trial_id": "stroop-trial-1-incongruent-6", "trial_type": "html-keyboard-response", "trial_index": 39, "time_elapsed": 74997, "internal_node_id": "0.0-4.0-35.0"}}, {"uniqueid": "w22814650:a57858308", "current_trial": 40, "dateTime": 1664463962660, "trialdata": {"rt": 795, "stimulus": "<p id='stroop-text' class='stroop-yellow'>BRIDGE</p>", "response": "y", "stimulus-type": "unrelated", "word": "BRIDGE", "color": "yellow", "correct_response": "y", "trial_id": "stroop-trial-1-unrelated-12", "trial_type": "html-keyboard-response", "trial_index": 40, "time_elapsed": 76293, "internal_node_id": "0.0-4.0-36.0"}}, {"uniqueid": "w22814650:a57858308", "current_trial": 41, "dateTime": 1664463963980, "trialdata": {"rt": 818, "stimulus": "<p id='stroop-text' class='stroop-green'>GREEN</p>", "response": "g", "stimulus-type": "congruent", "word": "green", "color": "green", "correct_response": "g", "trial_id": "stroop-trial-1-congruent-14", "trial_type": "html-keyboard-response", "trial_index": 41, "time_elapsed": 77613, "internal_node_id": "0.0-4.0-37.0"}}, {"uniqueid": "w22814650:a57858308", "current_trial": 42, "dateTime": 1664463965324, "trialdata": {"rt": 842, "stimulus": "<p id='stroop-text' class='stroop-green'>BLUE</p>", "response": "g", "stimulus-type": "incongruent", "word": "blue", "color": "green", "correct_response": "g", "trial_id": "stroop-trial-1-incongruent-28", "trial_type": "html-keyboard-response", "trial_index": 42, "time_elapsed": 78957, "internal_node_id": "0.0-4.0-38.0"}}, {"uniqueid": "w22814650:a57858308", "current_trial": 43, "dateTime": 1664463966522, "trialdata": {"rt": 696, "stimulus": "<p id='stroop-text' class='stroop-red'>BLUE</p>", "response": "r", "stimulus-type": "incongruent", "word": "blue", "color": "red", "correct_response": "r", "trial_id": "stroop-trial-1-incongruent-9", "trial_type": "html-keyboard-response", "trial_index": 43, "time_elapsed": 80155, "internal_node_id": "0.0-4.0-39.0"}}, {"uniqueid": "w22814650:a57858308", "current_trial": 44, "dateTime": 1664463967722, "trialdata": {"rt": 698, "stimulus": "<p id='stroop-text' class='stroop-green'>CHAIR</p>", "response": "g", "stimulus-type": "unrelated", "word": "CHAIR", "color": "green", "correct_response": "g", "trial_id": "stroop-trial-1-unrelated-7", "trial_type": "html-keyboard-response", "trial_index": 44, "time_elapsed": 81355, "internal_node_id": "0.0-4.0-40.0"}}, {"uniqueid": "w22814650:a57858308", "current_trial": 45, "dateTime": 1664463968921, "trialdata": {"rt": 697, "stimulus": "<p id='stroop-text' class='stroop-red'>RED</p>", "response": "r", "stimulus-type": "congruent", "word": "red", "color": "red", "correct_response": "r", "trial_id": "stroop-trial-1-congruent-6", "trial_type": "html-keyboard-response", "trial_index": 45, "time_elapsed": 82554, "internal_node_id": "0.0-4.0-41.0"}}, {"uniqueid": "w22814650:a57858308", "current_trial": 46, "dateTime": 1664463970288, "trialdata": {"rt": 865, "stimulus": "<p id='stroop-text' class='stroop-blue'>GREEN</p>", "response": "b", "stimulus-type": "incongruent", "word": "green", "color": "blue", "correct_response": "b", "trial_id": "stroop-trial-1-incongruent-29", "trial_type": "html-keyboard-response", "trial_index": 46, "time_elapsed": 83921, "internal_node_id": "0.0-4.0-42.0"}}, {"uniqueid": "w22814650:a57858308", "current_trial": 47, "dateTime": 1664463971509, "trialdata": {"rt": 719, "stimulus": "<p id='stroop-text' class='stroop-green'>RED</p>", "response": "g", "stimulus-type": "incongruent", "word": "red", "color": "green", "correct_response": "g", "trial_id": "stroop-trial-1-incongruent-17", "trial_type": "html-keyboard-response", "trial_index": 47, "time_elapsed": 85142, "internal_node_id": "0.0-4.0-43.0"}}, {"uniqueid": "w22814650:a57858308", "current_trial": 48, "dateTime": 1664463972614, "trialdata": {"rt": 603, "stimulus": "<p id='stroop-text' class='stroop-green'>SHIP</p>", "response": "g", "stimulus-type": "unrelated", "word": "SHIP", "color": "green", "correct_response": "g", "trial_id": "stroop-trial-1-unrelated-26", "trial_type": "html-keyboard-response", "trial_index": 48, "time_elapsed": 86247, "internal_node_id": "0.0-4.0-44.0"}}, {"uniqueid": "w22814650:a57858308", "current_trial": 49, "dateTime": 1664463973789, "trialdata": {"rt": 673, "stimulus": "<p id='stroop-text' class='stroop-blue'>BLUE</p>", "response": "b", "stimulus-type": "congruent", "word": "blue", "color": "blue", "correct_response": "b", "trial_id": "stroop-trial-1-congruent-24", "trial_type": "html-keyboard-response", "trial_index": 49, "time_elapsed": 87422, "internal_node_id": "0.0-4.0-45.0"}}, {"uniqueid": "w22814650:a57858308", "current_trial": 50, "dateTime": 1664463975134, "trialdata": {"rt": 843, "stimulus": "<p id='stroop-text' class='stroop-green'>YELLOW</p>", "response": "g", "stimulus-type": "incongruent", "word": "yellow", "color": "green", "correct_response": "g", "trial_id": "stroop-trial-1-incongruent-25", "trial_type": "html-keyboard-response", "trial_index": 50, "time_elapsed": 88767, "internal_node_id": "0.0-4.0-46.0"}}, {"uniqueid": "w22814650:a57858308", "current_trial": 51, "dateTime": 1664463976552, "trialdata": {"rt": 916, "stimulus": "<p id='stroop-text' class='stroop-blue'>YELLOW</p>", "response": "b", "stimulus-type": "incongruent", "word": "yellow", "color": "blue", "correct_response": "b", "trial_id": "stroop-trial-1-incongruent-20", "trial_type": "html-keyboard-response", "trial_index": 51, "time_elapsed": 90185, "internal_node_id": "0.0-4.0-47.0"}}, {"uniqueid": "w22814650:a57858308", "current_trial": 52, "dateTime": 1664463977917, "trialdata": {"rt": 863, "stimulus": "<p id='stroop-text' class='stroop-green'>WINDOW</p>", "response": "g", "stimulus-type": "unrelated", "word": "WINDOW", "color": "green", "correct_response": "g", "trial_id": "stroop-trial-1-unrelated-14", "trial_type": "html-keyboard-response", "trial_index": 52, "time_elapsed": 91550, "internal_node_id": "0.0-4.0-48.0"}}, {"uniqueid": "w22814650:a57858308", "current_trial": 53, "dateTime": 1664463979622, "trialdata": {"rt": 1203, "stimulus": "<p id='stroop-text' class='stroop-yellow'>BRIDGE</p>", "response": "y", "stimulus-type": "unrelated", "word": "BRIDGE", "color": "yellow", "correct_response": "y", "trial_id": "stroop-trial-1-unrelated-9", "trial_type": "html-keyboard-response", "trial_index": 53, "time_elapsed": 93255, "internal_node_id": "0.0-4.0-49.0"}}, {"uniqueid": "w22814650:a57858308", "current_trial": 54, "dateTime": 1664463980845, "trialdata": {"rt": 721, "stimulus": "<p id='stroop-text' class='stroop-yellow'>YELLOW</p>", "response": "y", "stimulus-type": "congruent", "word": "yellow", "color": "yellow", "correct_response": "y", "trial_id": "stroop-trial-1-congruent-12", "trial_type": "html-keyboard-response", "trial_index": 54, "time_elapsed": 94478, "internal_node_id": "0.0-4.0-50.0"}}, {"uniqueid": "w22814650:a57858308", "current_trial": 55, "dateTime": 1664463982208, "trialdata": {"rt": 861, "stimulus": "<p id='stroop-text' class='stroop-blue'>GREEN</p>", "response": "b", "stimulus-type": "incongruent", "word": "green", "color": "blue", "correct_response": "b", "trial_id": "stroop-trial-1-incongruent-26", "trial_type": "html-keyboard-response", "trial_index": 55, "time_elapsed": 95840, "internal_node_id": "0.0-4.0-51.0"}}, {"uniqueid": "w22814650:a57858308", "current_trial": 56, "dateTime": 1664463983527, "trialdata": {"rt": 818, "stimulus": "<p id='stroop-text' class='stroop-blue'>RED</p>", "response": "b", "stimulus-type": "incongruent", "word": "red", "color": "blue", "correct_response": "b", "trial_id": "stroop-trial-1-incongruent-11", "trial_type": "html-keyboard-response", "trial_index": 56, "time_elapsed": 97160, "internal_node_id": "0.0-4.0-52.0"}}, {"uniqueid": "w22814650:a57858308", "current_trial": 57, "dateTime": 1664463984753, "trialdata": {"rt": 725, "stimulus": "<p id='stroop-text' class='stroop-yellow'>YELLOW</p>", "response": "y", "stimulus-type": "congruent", "word": "yellow", "color": "yellow", "correct_response": "y", "trial_id": "stroop-trial-1-congruent-28", "trial_type": "html-keyboard-response", "trial_index": 57, "time_elapsed": 98386, "internal_node_id": "0.0-4.0-53.0"}}, {"uniqueid": "w22814650:a57858308", "current_trial": 58, "dateTime": 1664463985954, "trialdata": {"rt": 699, "stimulus": "<p id='stroop-text' class='stroop-green'>GREEN</p>", "response": "g", "stimulus-type": "congruent", "word": "green", "color": "green", "correct_response": "g", "trial_id": "stroop-trial-1-congruent-13", "trial_type": "html-keyboard-response", "trial_index": 58, "time_elapsed": 99587, "internal_node_id": "0.0-4.0-54.0"}}, {"uniqueid": "w22814650:a57858308", "current_trial": 59, "dateTime": 1664463987250, "trialdata": {"rt": 789, "stimulus": "<p id='stroop-text' class='stroop-red'>GREEN</p>", "response": "r", "stimulus-type": "incongruent", "word": "green", "color": "red", "correct_response": "r", "trial_id": "stroop-trial-1-incongruent-4", "trial_type": "html-keyboard-response", "trial_index": 59, "time_elapsed": 100882, "internal_node_id": "0.0-4.0-55.0"}}, {"uniqueid": "w22814650:a57858308", "current_trial": 60, "dateTime": 1664463988402, "trialdata": {"rt": 651, "stimulus": "<p id='stroop-text' class='stroop-red'>RED</p>", "response": "r", "stimulus-type": "congruent", "word": "red", "color": "red", "correct_response": "r", "trial_id": "stroop-trial-1-congruent-11", "trial_type": "html-keyboard-response", "trial_index": 60, "time_elapsed": 102034, "internal_node_id": "0.0-4.0-56.0"}}, {"uniqueid": "w22814650:a57858308", "current_trial": 61, "dateTime": 1664463989579, "trialdata": {"rt": 676, "stimulus": "<p id='stroop-text' class='stroop-yellow'>BRAIN</p>", "response": "y", "stimulus-type": "unrelated", "word": "BRAIN", "color": "yellow", "correct_response": "y", "trial_id": "stroop-trial-1-unrelated-15", "trial_type": "html-keyboard-response", "trial_index": 61, "time_elapsed": 103211, "internal_node_id": "0.0-4.0-57.0"}}, {"uniqueid": "w22814650:a57858308", "current_trial": 62, "dateTime": 1664463990679, "trialdata": {"rt": 599, "stimulus": "<p id='stroop-text' class='stroop-blue'>RED</p>", "response": "b", "stimulus-type": "incongruent", "word": "red", "color": "blue", "correct_response": "b", "trial_id": "stroop-trial-1-incongruent-18", "trial_type": "html-keyboard-response", "trial_index": 62, "time_elapsed": 104312, "internal_node_id": "0.0-4.0-58.0"}}, {"uniqueid": "w22814650:a57858308", "current_trial": 63, "dateTime": 1664463991973, "trialdata": {"rt": 794, "stimulus": "<p id='stroop-text' class='stroop-red'>DOG</p>", "response": "r", "stimulus-type": "unrelated", "word": "DOG", "color": "red", "correct_response": "r", "trial_id": "stroop-trial-1-unrelated-28", "trial_type": "html-keyboard-response", "trial_index": 63, "time_elapsed": 105606, "internal_node_id": "0.0-4.0-59.0"}}, {"uniqueid": "w22814650:a57858308", "current_trial": 64, "dateTime": 1664463993024, "trialdata": {"rt": 550, "stimulus": "<p id='stroop-text' class='stroop-red'>RED</p>", "response": "r", "stimulus-type": "congruent", "word": "red", "color": "red", "correct_response": "r", "trial_id": "stroop-trial-1-congruent-7", "trial_type": "html-keyboard-response", "trial_index": 64, "time_elapsed": 106657, "internal_node_id": "0.0-4.0-60.0"}}, {"uniqueid": "w22814650:a57858308", "current_trial": 65, "dateTime": 1664463994080, "trialdata": {"rt": 554, "stimulus": "<p id='stroop-text' class='stroop-red'>SHIP</p>", "response": "r", "stimulus-type": "unrelated", "word": "SHIP", "color": "red", "correct_response": "r", "trial_id": "stroop-trial-1-unrelated-21", "trial_type": "html-keyboard-response", "trial_index": 65, "time_elapsed": 107713, "internal_node_id": "0.0-4.0-61.0"}}, {"uniqueid": "w22814650:a57858308", "current_trial": 66, "dateTime": 1664463995258, "trialdata": {"rt": 677, "stimulus": "<p id='stroop-text' class='stroop-green'>CHAIR</p>", "response": "g", "stimulus-type": "unrelated", "word": "CHAIR", "color": "green", "correct_response": "g", "trial_id": "stroop-trial-1-unrelated-29", "trial_type": "html-keyboard-response", "trial_index": 66, "time_elapsed": 108891, "internal_node_id": "0.0-4.0-62.0"}}, {"uniqueid": "w22814650:a57858308", "current_trial": 67, "dateTime": 1664463996360, "trialdata": {"rt": 601, "stimulus": "<p id='stroop-text' class='stroop-red'>RED</p>", "response": "r", "stimulus-type": "congruent", "word": "red", "color": "red", "correct_response": "r", "trial_id": "stroop-trial-1-congruent-18", "trial_type": "html-keyboard-response", "trial_index": 67, "time_elapsed": 109993, "internal_node_id": "0.0-4.0-63.0"}}, {"uniqueid": "w22814650:a57858308", "current_trial": 68, "dateTime": 1664463997537, "trialdata": {"rt": 676, "stimulus": "<p id='stroop-text' class='stroop-blue'>BRIDGE</p>", "response": "b", "stimulus-type": "unrelated", "word": "BRIDGE", "color": "blue", "correct_response": "b", "trial_id": "stroop-trial-1-unrelated-13", "trial_type": "html-keyboard-response", "trial_index": 68, "time_elapsed": 111170, "internal_node_id": "0.0-4.0-64.0"}}, {"uniqueid": "w22814650:a57858308", "current_trial": 69, "dateTime": 1664463998687, "trialdata": {"rt": 649, "stimulus": "<p id='stroop-text' class='stroop-red'>BRAIN</p>", "response": "r", "stimulus-type": "unrelated", "word": "BRAIN", "color": "red", "correct_response": "r", "trial_id": "stroop-trial-1-unrelated-16", "trial_type": "html-keyboard-response", "trial_index": 69, "time_elapsed": 112320, "internal_node_id": "0.0-4.0-65.0"}}, {"uniqueid": "w22814650:a57858308", "current_trial": 70, "dateTime": 1664463999841, "trialdata": {"rt": 653, "stimulus": "<p id='stroop-text' class='stroop-red'>RED</p>", "response": "r", "stimulus-type": "congruent", "word": "red", "color": "red", "correct_response": "r", "trial_id": "stroop-trial-1-congruent-5", "trial_type": "html-keyboard-response", "trial_index": 70, "time_elapsed": 113474, "internal_node_id": "0.0-4.0-66.0"}}, {"uniqueid": "w22814650:a57858308", "current_trial": 71, "dateTime": 1664464001063, "trialdata": {"rt": 719, "stimulus": "<p id='stroop-text' class='stroop-yellow'>BRIDGE</p>", "response": "y", "stimulus-type": "unrelated", "word": "BRIDGE", "color": "yellow", "correct_response": "y", "trial_id": "stroop-trial-1-unrelated-17", "trial_type": "html-keyboard-response", "trial_index": 71, "time_elapsed": 114696, "internal_node_id": "0.0-4.0-67.0"}}, {"uniqueid": "w22814650:a57858308", "current_trial": 72, "dateTime": 1664464002238, "trialdata": {"rt": 674, "stimulus": "<p id='stroop-text' class='stroop-red'>BLUE</p>", "response": "r", "stimulus-type": "incongruent", "word": "blue", "color": "red", "correct_response": "r", "trial_id": "stroop-trial-1-incongruent-16", "trial_type": "html-keyboard-response", "trial_index": 72, "time_elapsed": 115871, "internal_node_id": "0.0-4.0-68.0"}}, {"uniqueid": "w22814650:a57858308", "current_trial": 73, "dateTime": 1664464003343, "trialdata": {"rt": 604, "stimulus": "<p id='stroop-text' class='stroop-yellow'>YELLOW</p>", "response": "y", "stimulus-type": "congruent", "word": "yellow", "color": "yellow", "correct_response": "y", "trial_id": "stroop-trial-1-congruent-1", "trial_type": "html-keyboard-response", "trial_index": 73, "time_elapsed": 116976, "internal_node_id": "0.0-4.0-69.0"}}, {"uniqueid": "w22814650:a57858308", "current_trial": 74, "dateTime": 1664464004566, "trialdata": {"rt": 721, "stimulus": "<p id='stroop-text' class='stroop-green'>RED</p>", "response": "g", "stimulus-type": "incongruent", "word": "red", "color": "green", "correct_response": "g", "trial_id": "stroop-trial-1-incongruent-21", "trial_type": "html-keyboard-response", "trial_index": 74, "time_elapsed": 118199, "internal_node_id": "0.0-4.0-70.0"}}, {"uniqueid": "w22814650:a57858308", "current_trial": 75, "dateTime": 1664464005716, "trialdata": {"rt": 649, "stimulus": "<p id='stroop-text' class='stroop-green'>YELLOW</p>", "response": "g", "stimulus-type": "incongruent", "word": "yellow", "color": "green", "correct_response": "g", "trial_id": "stroop-trial-1-incongruent-7", "trial_type": "html-keyboard-response", "trial_index": 75, "time_elapsed": 119349, "internal_node_id": "0.0-4.0-71.0"}}, {"uniqueid": "w22814650:a57858308", "current_trial": 76, "dateTime": 1664464006865, "trialdata": {"rt": 647, "stimulus": "<p id='stroop-text' class='stroop-yellow'>YELLOW</p>", "response": "y", "stimulus-type": "congruent", "word": "yellow", "color": "yellow", "correct_response": "y", "trial_id": "stroop-trial-1-congruent-3", "trial_type": "html-keyboard-response", "trial_index": 76, "time_elapsed": 120498, "internal_node_id": "0.0-4.0-72.0"}}, {"uniqueid": "w22814650:a57858308", "current_trial": 77, "dateTime": 1664464007940, "trialdata": {"rt": 574, "stimulus": "<p id='stroop-text' class='stroop-red'>RED</p>", "response": "r", "stimulus-type": "congruent", "word": "red", "color": "red", "correct_response": "r", "trial_id": "stroop-trial-1-congruent-2", "trial_type": "html-keyboard-response", "trial_index": 77, "time_elapsed": 121572, "internal_node_id": "0.0-4.0-73.0"}}, {"uniqueid": "w22814650:a57858308", "current_trial": 78, "dateTime": 1664464009069, "trialdata": {"rt": 628, "stimulus": "<p id='stroop-text' class='stroop-blue'>RED</p>", "response": "g", "stimulus-type": "incongruent", "word": "red", "color": "blue", "correct_response": "b", "trial_id": "stroop-trial-1-incongruent-10", "trial_type": "html-keyboard-response", "trial_index": 78, "time_elapsed": 122702, "internal_node_id": "0.0-4.0-74.0"}}, {"uniqueid": "w22814650:a57858308", "current_trial": 79, "dateTime": 1664464010195, "trialdata": {"rt": 625, "stimulus": "<p id='stroop-text' class='stroop-red'>BOTTLE</p>", "response": "r", "stimulus-type": "unrelated", "word": "BOTTLE", "color": "red", "correct_response": "r", "trial_id": "stroop-trial-1-unrelated-30", "trial_type": "html-keyboard-response", "trial_index": 79, "time_elapsed": 123827, "internal_node_id": "0.0-4.0-75.0"}}, {"uniqueid": "w22814650:a57858308", "current_trial": 80, "dateTime": 1664464011390, "trialdata": {"rt": 694, "stimulus": "<p id='stroop-text' class='stroop-red'>FORK</p>", "response": "r", "stimulus-type": "unrelated", "word": "FORK", "color": "red", "correct_response": "r", "trial_id": "stroop-trial-1-unrelated-20", "trial_type": "html-keyboard-response", "trial_index": 80, "time_elapsed": 125022, "internal_node_id": "0.0-4.0-76.0"}}, {"uniqueid": "w22814650:a57858308", "current_trial": 81, "dateTime": 1664464012950, "trialdata": {"rt": 1058, "stimulus": "<p id='stroop-text' class='stroop-blue'>YELLOW</p>", "response": "b", "stimulus-type": "incongruent", "word": "yellow", "color": "blue", "correct_response": "b", "trial_id": "stroop-trial-1-incongruent-22", "trial_type": "html-keyboard-response", "trial_index": 81, "time_elapsed": 126582, "internal_node_id": "0.0-4.0-77.0"}}, {"uniqueid": "w22814650:a57858308", "current_trial": 82, "dateTime": 1664464014196, "trialdata": {"rt": 739, "stimulus": "<p id='stroop-text' class='stroop-red'>MONKEY</p>", "response": "r", "stimulus-type": "unrelated", "word": "MONKEY", "color": "red", "correct_response": "r", "trial_id": "stroop-trial-1-unrelated-25", "trial_type": "html-keyboard-response", "trial_index": 82, "time_elapsed": 127828, "internal_node_id": "0.0-4.0-78.0"}}, {"uniqueid": "w22814650:a57858308", "current_trial": 83, "dateTime": 1664464015421, "trialdata": {"rt": 724, "stimulus": "<p id='stroop-text' class='stroop-yellow'>YELLOW</p>", "response": "y", "stimulus-type": "congruent", "word": "yellow", "color": "yellow", "correct_response": "y", "trial_id": "stroop-trial-1-congruent-25", "trial_type": "html-keyboard-response", "trial_index": 83, "time_elapsed": 129053, "internal_node_id": "0.0-4.0-79.0"}}, {"uniqueid": "w22814650:a57858308", "current_trial": 84, "dateTime": 1664464016861, "trialdata": {"rt": 939, "stimulus": "<p id='stroop-text' class='stroop-blue'>BRAIN</p>", "response": "b", "stimulus-type": "unrelated", "word": "BRAIN", "color": "blue", "correct_response": "b", "trial_id": "stroop-trial-1-unrelated-2", "trial_type": "html-keyboard-response", "trial_index": 84, "time_elapsed": 130493, "internal_node_id": "0.0-4.0-80.0"}}, {"uniqueid": "w22814650:a57858308", "current_trial": 85, "dateTime": 1664464017916, "trialdata": {"rt": 554, "stimulus": "<p id='stroop-text' class='stroop-blue'>BLUE</p>", "response": "b", "stimulus-type": "congruent", "word": "blue", "color": "blue", "correct_response": "b", "trial_id": "stroop-trial-1-congruent-27", "trial_type": "html-keyboard-response", "trial_index": 85, "time_elapsed": 131549, "internal_node_id": "0.0-4.0-81.0"}}, {"uniqueid": "w22814650:a57858308", "current_trial": 86, "dateTime": 1664464018852, "trialdata": {"rt": 434, "stimulus": "<p id='stroop-text' class='stroop-blue'>SHIP</p>", "response": "b", "stimulus-type": "unrelated", "word": "SHIP", "color": "blue", "correct_response": "b", "trial_id": "stroop-trial-1-unrelated-1", "trial_type": "html-keyboard-response", "trial_index": 86, "time_elapsed": 132485, "internal_node_id": "0.0-4.0-82.0"}}, {"uniqueid": "w22814650:a57858308", "current_trial": 87, "dateTime": 1664464020003, "trialdata": {"rt": 649, "stimulus": "<p id='stroop-text' class='stroop-yellow'>BOTTLE</p>", "response": "y", "stimulus-type": "unrelated", "word": "BOTTLE", "color": "yellow", "correct_response": "y", "trial_id": "stroop-trial-1-unrelated-5", "trial_type": "html-keyboard-response", "trial_index": 87, "time_elapsed": 133636, "internal_node_id": "0.0-4.0-83.0"}}, {"uniqueid": "w22814650:a57858308", "current_trial": 88, "dateTime": 1664464021130, "trialdata": {"rt": 625, "stimulus": "<p id='stroop-text' class='stroop-yellow'>SHIP</p>", "response": "y", "stimulus-type": "unrelated", "word": "SHIP", "color": "yellow", "correct_response": "y", "trial_id": "stroop-trial-1-unrelated-23", "trial_type": "html-keyboard-response", "trial_index": 88, "time_elapsed": 134763, "internal_node_id": "0.0-4.0-84.0"}}, {"uniqueid": "w22814650:a57858308", "current_trial": 89, "dateTime": 1664464022376, "trialdata": {"rt": 744, "stimulus": "<p id='stroop-text' class='stroop-blue'>BLUE</p>", "response": "b", "stimulus-type": "congruent", "word": "blue", "color": "blue", "correct_response": "b", "trial_id": "stroop-trial-1-congruent-21", "trial_type": "html-keyboard-response", "trial_index": 89, "time_elapsed": 136009, "internal_node_id": "0.0-4.0-85.0"}}, {"uniqueid": "w22814650:a57858308", "current_trial": 90, "dateTime": 1664464023456, "trialdata": {"rt": 578, "stimulus": "<p id='stroop-text' class='stroop-red'>WINDOW</p>", "response": "r", "stimulus-type": "unrelated", "word": "WINDOW", "color": "red", "correct_response": "r", "trial_id": "stroop-trial-1-unrelated-4", "trial_type": "html-keyboard-response", "trial_index": 90, "time_elapsed": 137088, "internal_node_id": "0.0-4.0-86.0"}}, {"uniqueid": "w22814650:a57858308", "current_trial": 91, "dateTime": 1664464024633, "trialdata": {"rt": 676, "stimulus": "<p id='stroop-text' class='stroop-yellow'>YELLOW</p>", "response": "y", "stimulus-type": "congruent", "word": "yellow", "color": "yellow", "correct_response": "y", "trial_id": "stroop-trial-1-congruent-17", "trial_type": "html-keyboard-response", "trial_index": 91, "time_elapsed": 138266, "internal_node_id": "0.0-4.0-87.0"}}, {"uniqueid": "w22814650:a57858308", "current_trial": 92, "dateTime": 1664464026241, "trialdata": {"rt": 1106, "stimulus": "<p id='stroop-text' class='stroop-blue'>YELLOW</p>", "response": "b", "stimulus-type": "incongruent", "word": "yellow", "color": "blue", "correct_response": "b", "trial_id": "stroop-trial-1-incongruent-5", "trial_type": "html-keyboard-response", "trial_index": 92, "time_elapsed": 139874, "internal_node_id": "0.0-4.0-88.0"}}, {"uniqueid": "w22814650:a57858308", "current_trial": 93, "dateTime": 1664464027440, "trialdata": {"rt": 697, "stimulus": "<p id='stroop-text' class='stroop-green'>WINDOW</p>", "response": "g", "stimulus-type": "unrelated", "word": "WINDOW", "color": "green", "correct_response": "g", "trial_id": "stroop-trial-1-unrelated-18", "trial_type": "html-keyboard-response", "trial_index": 93, "time_elapsed": 141072, "internal_node_id": "0.0-4.0-89.0"}}, {"uniqueid": "w22814650:a57858308", "current_trial": 94, "dateTime": 1664464043896, "trialdata": {"rt": 15954, "stimulus": "  <h1> End of block! </h1>\n\n  You have reached the end of the block 1/5. If you need a short break, feel free to take one now before moving on.\n\n  <br><br>\n  In the next block, you will complete another 90 rounds of this game.\n\n  <br><br>\n  <div style='text-align: center;'>Press <code>space</code> to begin.</div>\n  <br><br>\n<div style='text-align: center;'>(If the experiment doesn't continue, try clicking on the text and then pressing <code>space</code>.)</div>", "response": " ", "trial_id": "stroop_1_ready_2", "trial_type": "html-keyboard-response", "trial_index": 94, "time_elapsed": 157529, "internal_node_id": "0.0-5.0"}}, {"uniqueid": "w22814650:a57858308", "current_trial": 95, "dateTime": 1664464044857, "trialdata": {"rt": 960, "stimulus": "<p id='stroop-text' class='stroop-red'>DOG</p>", "response": "r", "stimulus-type": "unrelated", "word": "DOG", "color": "red", "correct_response": "r", "trial_id": "stroop-trial-1-unrelated-25", "trial_type": "html-keyboard-response", "trial_index": 95, "time_elapsed": 158490, "internal_node_id": "0.0-6.0-0.0"}}, {"uniqueid": "w22814650:a57858308", "current_trial": 96, "dateTime": 1664464046417, "trialdata": {"rt": 1058, "stimulus": "<p id='stroop-text' class='stroop-blue'>YELLOW</p>", "response": "b", "stimulus-type": "incongruent", "word": "yellow", "color": "blue", "correct_response": "b", "trial_id": "stroop-trial-1-incongruent-2", "trial_type": "html-keyboard-response", "trial_index": 96, "time_elapsed": 160050, "internal_node_id": "0.0-6.0-1.0"}}, {"uniqueid": "w22814650:a57858308", "current_trial": 97, "dateTime": 1664464047639, "trialdata": {"rt": 720, "stimulus": "<p id='stroop-text' class='stroop-yellow'>RED</p>", "response": "y", "stimulus-type": "incongruent", "word": "red", "color": "yellow", "correct_response": "y", "trial_id": "stroop-trial-1-incongruent-21", "trial_type": "html-keyboard-response", "trial_index": 97, "time_elapsed": 161272, "internal_node_id": "0.0-6.0-2.0"}}, {"uniqueid": "w22814650:a57858308", "current_trial": 98, "dateTime": 1664464048840, "trialdata": {"rt": 689, "stimulus": "<p id='stroop-text' class='stroop-green'>RED</p>", "response": "g", "stimulus-type": "incongruent", "word": "red", "color": "green", "correct_response": "g", "trial_id": "stroop-trial-1-incongruent-8", "trial_type": "html-keyboard-response", "trial_index": 98, "time_elapsed": 162473, "internal_node_id": "0.0-6.0-3.0"}}, {"uniqueid": "w22814650:a57858308", "current_trial": 99, "dateTime": 1664464050038, "trialdata": {"rt": 696, "stimulus": "<p id='stroop-text' class='stroop-green'>GREEN</p>", "response": "g", "stimulus-type": "congruent", "word": "green", "color": "green", "correct_response": "g", "trial_id": "stroop-trial-1-congruent-21", "trial_type": "html-keyboard-response", "trial_index": 99, "time_elapsed": 163671, "internal_node_id": "0.0-6.0-4.0"}}, {"uniqueid": "w22814650:a57858308", "current_trial": 100, "dateTime": 1664464051069, "trialdata": {"rt": 528, "stimulus": "<p id='stroop-text' class='stroop-blue'>RED</p>", "response": "r", "stimulus-type": "incongruent", "word": "red", "color": "blue", "correct_response": "b", "trial_id": "stroop-trial-1-incongruent-16", "trial_type": "html-keyboard-response", "trial_index": 100, "time_elapsed": 164701, "internal_node_id": "0.0-6.0-5.0"}}, {"uniqueid": "w22814650:a57858308", "current_trial": 101, "dateTime": 1664464052725, "trialdata": {"rt": 1154, "stimulus": "<p id='stroop-text' class='stroop-blue'>BOAT</p>", "response": "b", "stimulus-type": "unrelated", "word": "BOAT", "color": "blue", "correct_response": "b", "trial_id": "stroop-trial-1-unrelated-17", "trial_type": "html-keyboard-response", "trial_index": 101, "time_elapsed": 166358, "internal_node_id": "0.0-6.0-6.0"}}, {"uniqueid": "w22814650:a57858308", "current_trial": 102, "dateTime": 1664464054020, "trialdata": {"rt": 793, "stimulus": "<p id='stroop-text' class='stroop-blue'>BLUE</p>", "response": "b", "stimulus-type": "congruent", "word": "blue", "color": "blue", "correct_response": "b", "trial_id": "stroop-trial-1-congruent-5", "trial_type": "html-keyboard-response", "trial_index": 102, "time_elapsed": 167653, "internal_node_id": "0.0-6.0-7.0"}}, {"uniqueid": "w22814650:a57858308", "current_trial": 103, "dateTime": 1664464055172, "trialdata": {"rt": 650, "stimulus": "<p id='stroop-text' class='stroop-green'>GREEN</p>", "response": "g", "stimulus-type": "congruent", "word": "green", "color": "green", "correct_response": "g", "trial_id": "stroop-trial-1-congruent-30", "trial_type": "html-keyboard-response", "trial_index": 103, "time_elapsed": 168804, "internal_node_id": "0.0-6.0-8.0"}}, {"uniqueid": "w22814650:a57858308", "current_trial": 104, "dateTime": 1664464056468, "trialdata": {"rt": 781, "stimulus": "<p id='stroop-text' class='stroop-yellow'>RED</p>", "response": "y", "stimulus-type": "incongruent", "word": "red", "color": "yellow", "correct_response": "y", "trial_id": "stroop-trial-1-incongruent-15", "trial_type": "html-keyboard-response", "trial_index": 104, "time_elapsed": 170100, "internal_node_id": "0.0-6.0-9.0"}}, {"uniqueid": "w22814650:a57858308", "current_trial": 105, "dateTime": 1664464057548, "trialdata": {"rt": 578, "stimulus": "<p id='stroop-text' class='stroop-yellow'>RED</p>", "response": "y", "stimulus-type": "incongruent", "word": "red", "color": "yellow", "correct_response": "y", "trial_id": "stroop-trial-1-incongruent-11", "trial_type": "html-keyboard-response", "trial_index": 105, "time_elapsed": 171180, "internal_node_id": "0.0-6.0-10.0"}}, {"uniqueid": "w22814650:a57858308", "current_trial": 106, "dateTime": 1664464058773, "trialdata": {"rt": 724, "stimulus": "<p id='stroop-text' class='stroop-blue'>RED</p>", "response": "b", "stimulus-type": "incongruent", "word": "red", "color": "blue", "correct_response": "b", "trial_id": "stroop-trial-1-incongruent-30", "trial_type": "html-keyboard-response", "trial_index": 106, "time_elapsed": 172405, "internal_node_id": "0.0-6.0-11.0"}}, {"uniqueid": "w22814650:a57858308", "current_trial": 107, "dateTime": 1664464059949, "trialdata": {"rt": 675, "stimulus": "<p id='stroop-text' class='stroop-yellow'>RED</p>", "response": "y", "stimulus-type": "incongruent", "word": "red", "color": "yellow", "correct_response": "y", "trial_id": "stroop-trial-1-incongruent-3", "trial_type": "html-keyboard-response", "trial_index": 107, "time_elapsed": 173581, "internal_node_id": "0.0-6.0-12.0"}}, {"uniqueid": "w22814650:a57858308", "current_trial": 108, "dateTime": 1664464061174, "trialdata": {"rt": 724, "stimulus": "<p id='stroop-text' class='stroop-yellow'>CHAIR</p>", "response": "y", "stimulus-type": "unrelated", "word": "CHAIR", "color": "yellow", "correct_response": "y", "trial_id": "stroop-trial-1-unrelated-15", "trial_type": "html-keyboard-response", "trial_index": 108, "time_elapsed": 174806, "internal_node_id": "0.0-6.0-13.0"}}, {"uniqueid": "w22814650:a57858308", "current_trial": 109, "dateTime": 1664464062347, "trialdata": {"rt": 672, "stimulus": "<p id='stroop-text' class='stroop-blue'>CHAIR</p>", "response": "b", "stimulus-type": "unrelated", "word": "CHAIR", "color": "blue", "correct_response": "b", "trial_id": "stroop-trial-1-unrelated-29", "trial_type": "html-keyboard-response", "trial_index": 109, "time_elapsed": 175980, "internal_node_id": "0.0-6.0-14.0"}}, {"uniqueid": "w22814650:a57858308", "current_trial": 110, "dateTime": 1664464063426, "trialdata": {"rt": 577, "stimulus": "<p id='stroop-text' class='stroop-yellow'>BLUE</p>", "response": "y", "stimulus-type": "incongruent", "word": "blue", "color": "yellow", "correct_response": "y", "trial_id": "stroop-trial-1-incongruent-1", "trial_type": "html-keyboard-response", "trial_index": 110, "time_elapsed": 177058, "internal_node_id": "0.0-6.0-15.0"}}, {"uniqueid": "w22814650:a57858308", "current_trial": 111, "dateTime": 1664464064432, "trialdata": {"rt": 506, "stimulus": "<p id='stroop-text' class='stroop-yellow'>BOTTLE</p>", "response": "y", "stimulus-type": "unrelated", "word": "BOTTLE", "color": "yellow", "correct_response": "y", "trial_id": "stroop-trial-1-unrelated-21", "trial_type": "html-keyboard-response", "trial_index": 111, "time_elapsed": 178065, "internal_node_id": "0.0-6.0-16.0"}}, {"uniqueid": "w22814650:a57858308", "current_trial": 112, "dateTime": 1664464065462, "trialdata": {"rt": 529, "stimulus": "<p id='stroop-text' class='stroop-yellow'>YELLOW</p>", "response": "y", "stimulus-type": "congruent", "word": "yellow", "color": "yellow", "correct_response": "y", "trial_id": "stroop-trial-1-congruent-6", "trial_type": "html-keyboard-response", "trial_index": 112, "time_elapsed": 179095, "internal_node_id": "0.0-6.0-17.0"}}, {"uniqueid": "w22814650:a57858308", "current_trial": 113, "dateTime": 1664464066496, "trialdata": {"rt": 531, "stimulus": "<p id='stroop-text' class='stroop-yellow'>RED</p>", "response": "y", "stimulus-type": "incongruent", "word": "red", "color": "yellow", "correct_response": "y", "trial_id": "stroop-trial-1-incongruent-7", "trial_type": "html-keyboard-response", "trial_index": 113, "time_elapsed": 180128, "internal_node_id": "0.0-6.0-18.0"}}, {"uniqueid": "w22814650:a57858308", "current_trial": 114, "dateTime": 1664464067456, "trialdata": {"rt": 460, "stimulus": "<p id='stroop-text' class='stroop-yellow'>YELLOW</p>", "response": "y", "stimulus-type": "congruent", "word": "yellow", "color": "yellow", "correct_response": "y", "trial_id": "stroop-trial-1-congruent-16", "trial_type": "html-keyboard-response", "trial_index": 114, "time_elapsed": 181089, "internal_node_id": "0.0-6.0-19.0"}}, {"uniqueid": "w22814650:a57858308", "current_trial": 115, "dateTime": 1664464068677, "trialdata": {"rt": 720, "stimulus": "<p id='stroop-text' class='stroop-red'>DOG</p>", "response": "r", "stimulus-type": "unrelated", "word": "DOG", "color": "red", "correct_response": "r", "trial_id": "stroop-trial-1-unrelated-23", "trial_type": "html-keyboard-response", "trial_index": 115, "time_elapsed": 182310, "internal_node_id": "0.0-6.0-20.0"}}, {"uniqueid": "w22814650:a57858308", "current_trial": 116, "dateTime": 1664464070143, "trialdata": {"rt": 965, "stimulus": "<p id='stroop-text' class='stroop-green'>GREEN</p>", "response": "g", "stimulus-type": "congruent", "word": "green", "color": "green", "correct_response": "g", "trial_id": "stroop-trial-1-congruent-22", "trial_type": "html-keyboard-response", "trial_index": 116, "time_elapsed": 183776, "internal_node_id": "0.0-6.0-21.0"}}, {"uniqueid": "w22814650:a57858308", "current_trial": 117, "dateTime": 1664464071390, "trialdata": {"rt": 745, "stimulus": "<p id='stroop-text' class='stroop-green'>GREEN</p>", "response": "g", "stimulus-type": "congruent", "word": "green", "color": "green", "correct_response": "g", "trial_id": "stroop-trial-1-congruent-18", "trial_type": "html-keyboard-response", "trial_index": 117, "time_elapsed": 185023, "internal_node_id": "0.0-6.0-22.0"}}, {"uniqueid": "w22814650:a57858308", "current_trial": 118, "dateTime": 1664464072588, "trialdata": {"rt": 696, "stimulus": "<p id='stroop-text' class='stroop-red'>MONKEY</p>", "response": "r", "stimulus-type": "unrelated", "word": "MONKEY", "color": "red", "correct_response": "r", "trial_id": "stroop-trial-1-unrelated-26", "trial_type": "html-keyboard-response", "trial_index": 118, "time_elapsed": 186221, "internal_node_id": "0.0-6.0-23.0"}}, {"uniqueid": "w22814650:a57858308", "current_trial": 119, "dateTime": 1664464073665, "trialdata": {"rt": 575, "stimulus": "<p id='stroop-text' class='stroop-red'>SHIP</p>", "response": "r", "stimulus-type": "unrelated", "word": "SHIP", "color": "red", "correct_response": "r", "trial_id": "stroop-trial-1-unrelated-10", "trial_type": "html-keyboard-response", "trial_index": 119, "time_elapsed": 187297, "internal_node_id": "0.0-6.0-24.0"}}, {"uniqueid": "w22814650:a57858308", "current_trial": 120, "dateTime": 1664464074911, "trialdata": {"rt": 745, "stimulus": "<p id='stroop-text' class='stroop-yellow'>GREEN</p>", "response": "y", "stimulus-type": "incongruent", "word": "green", "color": "yellow", "correct_response": "y", "trial_id": "stroop-trial-1-incongruent-18", "trial_type": "html-keyboard-response", "trial_index": 120, "time_elapsed": 188544, "internal_node_id": "0.0-6.0-25.0"}}, {"uniqueid": "w22814650:a57858308", "current_trial": 121, "dateTime": 1664464076570, "trialdata": {"rt": 1158, "stimulus": "<p id='stroop-text' class='stroop-blue'>GREEN</p>", "response": "b", "stimulus-type": "incongruent", "word": "green", "color": "blue", "correct_response": "b", "trial_id": "stroop-trial-1-incongruent-4", "trial_type": "html-keyboard-response", "trial_index": 121, "time_elapsed": 190203, "internal_node_id": "0.0-6.0-26.0"}}, {"uniqueid": "w22814650:a57858308", "current_trial": 122, "dateTime": 1664464078130, "trialdata": {"rt": 1059, "stimulus": "<p id='stroop-text' class='stroop-green'>GREEN</p>", "response": "g", "stimulus-type": "congruent", "word": "green", "color": "green", "correct_response": "g", "trial_id": "stroop-trial-1-congruent-27", "trial_type": "html-keyboard-response", "trial_index": 122, "time_elapsed": 191763, "internal_node_id": "0.0-6.0-27.0"}}, {"uniqueid": "w22814650:a57858308", "current_trial": 123, "dateTime": 1664464079471, "trialdata": {"rt": 840, "stimulus": "<p id='stroop-text' class='stroop-yellow'>YELLOW</p>", "response": "y", "stimulus-type": "congruent", "word": "yellow", "color": "yellow", "correct_response": "y", "trial_id": "stroop-trial-1-congruent-19", "trial_type": "html-keyboard-response", "trial_index": 123, "time_elapsed": 193104, "internal_node_id": "0.0-6.0-28.0"}}, {"uniqueid": "w22814650:a57858308", "current_trial": 124, "dateTime": 1664464080861, "trialdata": {"rt": 887, "stimulus": "<p id='stroop-text' class='stroop-green'>GREEN</p>", "response": "g", "stimulus-type": "congruent", "word": "green", "color": "green", "correct_response": "g", "trial_id": "stroop-trial-1-congruent-8", "trial_type": "html-keyboard-response", "trial_index": 124, "time_elapsed": 194493, "internal_node_id": "0.0-6.0-29.0"}}, {"uniqueid": "w22814650:a57858308", "current_trial": 125, "dateTime": 1664464082660, "trialdata": {"rt": 1299, "stimulus": "<p id='stroop-text' class='stroop-blue'>RED</p>", "response": "b", "stimulus-type": "incongruent", "word": "red", "color": "blue", "correct_response": "b", "trial_id": "stroop-trial-1-incongruent-10", "trial_type": "html-keyboard-response", "trial_index": 125, "time_elapsed": 196293, "internal_node_id": "0.0-6.0-30.0"}}, {"uniqueid": "w22814650:a57858308", "current_trial": 126, "dateTime": 1664464084364, "trialdata": {"rt": 1203, "stimulus": "<p id='stroop-text' class='stroop-red'>RED</p>", "response": "r", "stimulus-type": "congruent", "word": "red", "color": "red", "correct_response": "r", "trial_id": "stroop-trial-1-congruent-13", "trial_type": "html-keyboard-response", "trial_index": 126, "time_elapsed": 197997, "internal_node_id": "0.0-6.0-31.0"}}, {"uniqueid": "w22814650:a57858308", "current_trial": 127, "dateTime": 1664464085926, "trialdata": {"rt": 1060, "stimulus": "<p id='stroop-text' class='stroop-red'>RED</p>", "response": "r", "stimulus-type": "congruent", "word": "red", "color": "red", "correct_response": "r", "trial_id": "stroop-trial-1-congruent-17", "trial_type": "html-keyboard-response", "trial_index": 127, "time_elapsed": 199559, "internal_node_id": "0.0-6.0-32.0"}}, {"uniqueid": "w22814650:a57858308", "current_trial": 128, "dateTime": 1664464087053, "trialdata": {"rt": 625, "stimulus": "<p id='stroop-text' class='stroop-red'>BLUE</p>", "response": "r", "stimulus-type": "incongruent", "word": "blue", "color": "red", "correct_response": "r", "trial_id": "stroop-trial-1-incongruent-28", "trial_type": "html-keyboard-response", "trial_index": 128, "time_elapsed": 200686, "internal_node_id": "0.0-6.0-33.0"}}, {"uniqueid": "w22814650:a57858308", "current_trial": 129, "dateTime": 1664464088250, "trialdata": {"rt": 696, "stimulus": "<p id='stroop-text' class='stroop-blue'>DOG</p>", "response": "b", "stimulus-type": "unrelated", "word": "DOG", "color": "blue", "correct_response": "b", "trial_id": "stroop-trial-1-unrelated-11", "trial_type": "html-keyboard-response", "trial_index": 129, "time_elapsed": 201883, "internal_node_id": "0.0-6.0-34.0"}}, {"uniqueid": "w22814650:a57858308", "current_trial": 130, "dateTime": 1664464089451, "trialdata": {"rt": 697, "stimulus": "<p id='stroop-text' class='stroop-green'>BOAT</p>", "response": "g", "stimulus-type": "unrelated", "word": "BOAT", "color": "green", "correct_response": "g", "trial_id": "stroop-trial-1-unrelated-14", "trial_type": "html-keyboard-response", "trial_index": 130, "time_elapsed": 203084, "internal_node_id": "0.0-6.0-35.0"}}, {"uniqueid": "w22814650:a57858308", "current_trial": 131, "dateTime": 1664464090554, "trialdata": {"rt": 602, "stimulus": "<p id='stroop-text' class='stroop-red'>BOTTLE</p>", "response": "r", "stimulus-type": "unrelated", "word": "BOTTLE", "color": "red", "correct_response": "r", "trial_id": "stroop-trial-1-unrelated-16", "trial_type": "html-keyboard-response", "trial_index": 131, "time_elapsed": 204187, "internal_node_id": "0.0-6.0-36.0"}}, {"uniqueid": "w22814650:a57858308", "current_trial": 132, "dateTime": 1664464091918, "trialdata": {"rt": 862, "stimulus": "<p id='stroop-text' class='stroop-blue'>BOTTLE</p>", "response": "b", "stimulus-type": "unrelated", "word": "BOTTLE", "color": "blue", "correct_response": "b", "trial_id": "stroop-trial-1-unrelated-27", "trial_type": "html-keyboard-response", "trial_index": 132, "time_elapsed": 205551, "internal_node_id": "0.0-6.0-37.0"}}, {"uniqueid": "w22814650:a57858308", "current_trial": 133, "dateTime": 1664464093143, "trialdata": {"rt": 723, "stimulus": "<p id='stroop-text' class='stroop-red'>FORK</p>", "response": "r", "stimulus-type": "unrelated", "word": "FORK", "color": "red", "correct_response": "r", "trial_id": "stroop-trial-1-unrelated-30", "trial_type": "html-keyboard-response", "trial_index": 133, "time_elapsed": 206776, "internal_node_id": "0.0-6.0-38.0"}}, {"uniqueid": "w22814650:a57858308", "current_trial": 134, "dateTime": 1664464094318, "trialdata": {"rt": 674, "stimulus": "<p id='stroop-text' class='stroop-red'>RED</p>", "response": "r", "stimulus-type": "congruent", "word": "red", "color": "red", "correct_response": "r", "trial_id": "stroop-trial-1-congruent-26", "trial_type": "html-keyboard-response", "trial_index": 134, "time_elapsed": 207951, "internal_node_id": "0.0-6.0-39.0"}}, {"uniqueid": "w22814650:a57858308", "current_trial": 135, "dateTime": 1664464095399, "trialdata": {"rt": 580, "stimulus": "<p id='stroop-text' class='stroop-blue'>BLUE</p>", "response": "b", "stimulus-type": "congruent", "word": "blue", "color": "blue", "correct_response": "b", "trial_id": "stroop-trial-1-congruent-12", "trial_type": "html-keyboard-response", "trial_index": 135, "time_elapsed": 209032, "internal_node_id": "0.0-6.0-40.0"}}, {"uniqueid": "w22814650:a57858308", "current_trial": 136, "dateTime": 1664464096569, "trialdata": {"rt": 657, "stimulus": "<p id='stroop-text' class='stroop-blue'>BLUE</p>", "response": "b", "stimulus-type": "congruent", "word": "blue", "color": "blue", "correct_response": "b", "trial_id": "stroop-trial-1-congruent-23", "trial_type": "html-keyboard-response", "trial_index": 136, "time_elapsed": 210202, "internal_node_id": "0.0-6.0-41.0"}}, {"uniqueid": "w22814650:a57858308", "current_trial": 137, "dateTime": 1664464097866, "trialdata": {"rt": 795, "stimulus": "<p id='stroop-text' class='stroop-red'>YELLOW</p>", "response": "r", "stimulus-type": "incongruent", "word": "yellow", "color": "red", "correct_response": "r", "trial_id": "stroop-trial-1-incongruent-13", "trial_type": "html-keyboard-response", "trial_index": 137, "time_elapsed": 211499, "internal_node_id": "0.0-6.0-42.0"}}, {"uniqueid": "w22814650:a57858308", "current_trial": 138, "dateTime": 1664464099187, "trialdata": {"rt": 819, "stimulus": "<p id='stroop-text' class='stroop-red'>BLUE</p>", "response": "r", "stimulus-type": "incongruent", "word": "blue", "color": "red", "correct_response": "r", "trial_id": "stroop-trial-1-incongruent-23", "trial_type": "html-keyboard-response", "trial_index": 138, "time_elapsed": 212820, "internal_node_id": "0.0-6.0-43.0"}}, {"uniqueid": "w22814650:a57858308", "current_trial": 139, "dateTime": 1664464100363, "trialdata": {"rt": 674, "stimulus": "<p id='stroop-text' class='stroop-red'>MONKEY</p>", "response": "r", "stimulus-type": "unrelated", "word": "MONKEY", "color": "red", "correct_response": "r", "trial_id": "stroop-trial-1-unrelated-3", "trial_type": "html-keyboard-response", "trial_index": 139, "time_elapsed": 213996, "internal_node_id": "0.0-6.0-44.0"}}, {"uniqueid": "w22814650:a57858308", "current_trial": 140, "dateTime": 1664464101898, "trialdata": {"rt": 1033, "stimulus": "<p id='stroop-text' class='stroop-red'>YELLOW</p>", "response": "r", "stimulus-type": "incongruent", "word": "yellow", "color": "red", "correct_response": "r", "trial_id": "stroop-trial-1-incongruent-17", "trial_type": "html-keyboard-response", "trial_index": 140, "time_elapsed": 215531, "internal_node_id": "0.0-6.0-45.0"}}, {"uniqueid": "w22814650:a57858308", "current_trial": 141, "dateTime": 1664464102978, "trialdata": {"rt": 578, "stimulus": "<p id='stroop-text' class='stroop-green'>GREEN</p>", "response": "g", "stimulus-type": "congruent", "word": "green", "color": "green", "correct_response": "g", "trial_id": "stroop-trial-1-congruent-15", "trial_type": "html-keyboard-response", "trial_index": 141, "time_elapsed": 216611, "internal_node_id": "0.0-6.0-46.0"}}, {"uniqueid": "w22814650:a57858308", "current_trial": 142, "dateTime": 1664464104417, "trialdata": {"rt": 938, "stimulus": "<p id='stroop-text' class='stroop-red'>GREEN</p>", "response": "r", "stimulus-type": "incongruent", "word": "green", "color": "red", "correct_response": "r", "trial_id": "stroop-trial-1-incongruent-27", "trial_type": "html-keyboard-response", "trial_index": 142, "time_elapsed": 218050, "internal_node_id": "0.0-6.0-47.0"}}, {"uniqueid": "w22814650:a57858308", "current_trial": 143, "dateTime": 1664464105590, "trialdata": {"rt": 671, "stimulus": "<p id='stroop-text' class='stroop-green'>GREEN</p>", "response": "g", "stimulus-type": "congruent", "word": "green", "color": "green", "correct_response": "g", "trial_id": "stroop-trial-1-congruent-25", "trial_type": "html-keyboard-response", "trial_index": 143, "time_elapsed": 219223, "internal_node_id": "0.0-6.0-48.0"}}, {"uniqueid": "w22814650:a57858308", "current_trial": 144, "dateTime": 1664464107146, "trialdata": {"rt": 1054, "stimulus": "<p id='stroop-text' class='stroop-yellow'>BLUE</p>", "response": "b", "stimulus-type": "incongruent", "word": "blue", "color": "yellow", "correct_response": "y", "trial_id": "stroop-trial-1-incongruent-14", "trial_type": "html-keyboard-response", "trial_index": 144, "time_elapsed": 220779, "internal_node_id": "0.0-6.0-49.0"}}, {"uniqueid": "w22814650:a57858308", "current_trial": 145, "dateTime": 1664464109499, "trialdata": {"rt": 1851, "stimulus": "<p id='stroop-text' class='stroop-yellow'>BRIDGE</p>", "response": "y", "stimulus-type": "unrelated", "word": "BRIDGE", "color": "yellow", "correct_response": "y", "trial_id": "stroop-trial-1-unrelated-13", "trial_type": "html-keyboard-response", "trial_index": 145, "time_elapsed": 223132, "internal_node_id": "0.0-6.0-50.0"}}, {"uniqueid": "w22814650:a57858308", "current_trial": 146, "dateTime": 1664464111292, "trialdata": {"rt": 1286, "stimulus": "<p id='stroop-text' class='stroop-green'>GREEN</p>", "response": "g", "stimulus-type": "congruent", "word": "green", "color": "green", "correct_response": "g", "trial_id": "stroop-trial-1-congruent-4", "trial_type": "html-keyboard-response", "trial_index": 146, "time_elapsed": 224925, "internal_node_id": "0.0-6.0-51.0"}}, {"uniqueid": "w22814650:a57858308", "current_trial": 147, "dateTime": 1664464112440, "trialdata": {"rt": 646, "stimulus": "<p id='stroop-text' class='stroop-yellow'>YELLOW</p>", "response": "y", "stimulus-type": "congruent", "word": "yellow", "color": "yellow", "correct_response": "y", "trial_id": "stroop-trial-1-congruent-7", "trial_type": "html-keyboard-response", "trial_index": 147, "time_elapsed": 226073, "internal_node_id": "0.0-6.0-52.0"}}, {"uniqueid": "w22814650:a57858308", "current_trial": 148, "dateTime": 1664464113851, "trialdata": {"rt": 909, "stimulus": "<p id='stroop-text' class='stroop-yellow'>RED</p>", "response": "y", "stimulus-type": "incongruent", "word": "red", "color": "yellow", "correct_response": "y", "trial_id": "stroop-trial-1-incongruent-20", "trial_type": "html-keyboard-response", "trial_index": 148, "time_elapsed": 227484, "internal_node_id": "0.0-6.0-53.0"}}, {"uniqueid": "w22814650:a57858308", "current_trial": 149, "dateTime": 1664464115052, "trialdata": {"rt": 700, "stimulus": "<p id='stroop-text' class='stroop-green'>GREEN</p>", "response": "g", "stimulus-type": "congruent", "word": "green", "color": "green", "correct_response": "g", "trial_id": "stroop-trial-1-congruent-1", "trial_type": "html-keyboard-response", "trial_index": 149, "time_elapsed": 228685, "internal_node_id": "0.0-6.0-54.0"}}, {"uniqueid": "w22814650:a57858308", "current_trial": 150, "dateTime": 1664464116108, "trialdata": {"rt": 554, "stimulus": "<p id='stroop-text' class='stroop-yellow'>YELLOW</p>", "response": "y", "stimulus-type": "congruent", "word": "yellow", "color": "yellow", "correct_response": "y", "trial_id": "stroop-trial-1-congruent-28", "trial_type": "html-keyboard-response", "trial_index": 150, "time_elapsed": 229741, "internal_node_id": "0.0-6.0-55.0"}}, {"uniqueid": "w22814650:a57858308", "current_trial": 151, "dateTime": 1664464117283, "trialdata": {"rt": 673, "stimulus": "<p id='stroop-text' class='stroop-yellow'>STONE</p>", "response": "y", "stimulus-type": "unrelated", "word": "STONE", "color": "yellow", "correct_response": "y", "trial_id": "stroop-trial-1-unrelated-9", "trial_type": "html-keyboard-response", "trial_index": 151, "time_elapsed": 230915, "internal_node_id": "0.0-6.0-56.0"}}, {"uniqueid": "w22814650:a57858308", "current_trial": 152, "dateTime": 1664464118597, "trialdata": {"rt": 812, "stimulus": "<p id='stroop-text' class='stroop-blue'>SHIP</p>", "response": "b", "stimulus-type": "unrelated", "word": "SHIP", "color": "blue", "correct_response": "b", "trial_id": "stroop-trial-1-unrelated-24", "trial_type": "html-keyboard-response", "trial_index": 152, "time_elapsed": 232229, "internal_node_id": "0.0-6.0-57.0"}}, {"uniqueid": "w22814650:a57858308", "current_trial": 153, "dateTime": 1664464119844, "trialdata": {"rt": 745, "stimulus": "<p id='stroop-text' class='stroop-red'>BLUE</p>", "response": "r", "stimulus-type": "incongruent", "word": "blue", "color": "red", "correct_response": "r", "trial_id": "stroop-trial-1-incongruent-9", "trial_type": "html-keyboard-response", "trial_index": 153, "time_elapsed": 233476, "internal_node_id": "0.0-6.0-58.0"}}, {"uniqueid": "w22814650:a57858308", "current_trial": 154, "dateTime": 1664464121140, "trialdata": {"rt": 795, "stimulus": "<p id='stroop-text' class='stroop-green'>BRIDGE</p>", "response": "g", "stimulus-type": "unrelated", "word": "BRIDGE", "color": "green", "correct_response": "g", "trial_id": "stroop-trial-1-unrelated-2", "trial_type": "html-keyboard-response", "trial_index": 154, "time_elapsed": 234773, "internal_node_id": "0.0-6.0-59.0"}}, {"uniqueid": "w22814650:a57858308", "current_trial": 155, "dateTime": 1664464122266, "trialdata": {"rt": 613, "stimulus": "<p id='stroop-text' class='stroop-red'>RED</p>", "response": "r", "stimulus-type": "congruent", "word": "red", "color": "red", "correct_response": "r", "trial_id": "stroop-trial-1-congruent-9", "trial_type": "html-keyboard-response", "trial_index": 155, "time_elapsed": 235898, "internal_node_id": "0.0-6.0-60.0"}}, {"uniqueid": "w22814650:a57858308", "current_trial": 156, "dateTime": 1664464123369, "trialdata": {"rt": 602, "stimulus": "<p id='stroop-text' class='stroop-blue'>BRIDGE</p>", "response": "b", "stimulus-type": "unrelated", "word": "BRIDGE", "color": "blue", "correct_response": "b", "trial_id": "stroop-trial-1-unrelated-19", "trial_type": "html-keyboard-response", "trial_index": 156, "time_elapsed": 237002, "internal_node_id": "0.0-6.0-61.0"}}, {"uniqueid": "w22814650:a57858308", "current_trial": 157, "dateTime": 1664464124449, "trialdata": {"rt": 578, "stimulus": "<p id='stroop-text' class='stroop-yellow'>RED</p>", "response": "y", "stimulus-type": "incongruent", "word": "red", "color": "yellow", "correct_response": "y", "trial_id": "stroop-trial-1-incongruent-12", "trial_type": "html-keyboard-response", "trial_index": 157, "time_elapsed": 238081, "internal_node_id": "0.0-6.0-62.0"}}, {"uniqueid": "w22814650:a57858308", "current_trial": 158, "dateTime": 1664464125622, "trialdata": {"rt": 672, "stimulus": "<p id='stroop-text' class='stroop-red'>BRIDGE</p>", "response": "r", "stimulus-type": "unrelated", "word": "BRIDGE", "color": "red", "correct_response": "r", "trial_id": "stroop-trial-1-unrelated-4", "trial_type": "html-keyboard-response", "trial_index": 158, "time_elapsed": 239255, "internal_node_id": "0.0-6.0-63.0"}}, {"uniqueid": "w22814650:a57858308", "current_trial": 159, "dateTime": 1664464126990, "trialdata": {"rt": 866, "stimulus": "<p id='stroop-text' class='stroop-blue'>BLUE</p>", "response": "b", "stimulus-type": "congruent", "word": "blue", "color": "blue", "correct_response": "b", "trial_id": "stroop-trial-1-congruent-2", "trial_type": "html-keyboard-response", "trial_index": 159, "time_elapsed": 240623, "internal_node_id": "0.0-6.0-64.0"}}, {"uniqueid": "w22814650:a57858308", "current_trial": 160, "dateTime": 1664464127971, "trialdata": {"rt": 479, "stimulus": "<p id='stroop-text' class='stroop-blue'>RED</p>", "response": "b", "stimulus-type": "incongruent", "word": "red", "color": "blue", "correct_response": "b", "trial_id": "stroop-trial-1-incongruent-25", "trial_type": "html-keyboard-response", "trial_index": 160, "time_elapsed": 241604, "internal_node_id": "0.0-6.0-65.0"}}, {"uniqueid": "w22814650:a57858308", "current_trial": 161, "dateTime": 1664464128931, "trialdata": {"rt": 458, "stimulus": "<p id='stroop-text' class='stroop-blue'>RED</p>", "response": "b", "stimulus-type": "incongruent", "word": "red", "color": "blue", "correct_response": "b", "trial_id": "stroop-trial-1-incongruent-19", "trial_type": "html-keyboard-response", "trial_index": 161, "time_elapsed": 242564, "internal_node_id": "0.0-6.0-66.0"}}, {"uniqueid": "w22814650:a57858308", "current_trial": 162, "dateTime": 1664464129939, "trialdata": {"rt": 494, "stimulus": "<p id='stroop-text' class='stroop-yellow'>BLUE</p>", "response": "y", "stimulus-type": "incongruent", "word": "blue", "color": "yellow", "correct_response": "y", "trial_id": "stroop-trial-1-incongruent-26", "trial_type": "html-keyboard-response", "trial_index": 162, "time_elapsed": 243572, "internal_node_id": "0.0-6.0-67.0"}}, {"uniqueid": "w22814650:a57858308", "current_trial": 163, "dateTime": 1664464130995, "trialdata": {"rt": 554, "stimulus": "<p id='stroop-text' class='stroop-yellow'>BRAIN</p>", "response": "y", "stimulus-type": "unrelated", "word": "BRAIN", "color": "yellow", "correct_response": "y", "trial_id": "stroop-trial-1-unrelated-7", "trial_type": "html-keyboard-response", "trial_index": 163, "time_elapsed": 244628, "internal_node_id": "0.0-6.0-68.0"}}, {"uniqueid": "w22814650:a57858308", "current_trial": 164, "dateTime": 1664464132337, "trialdata": {"rt": 840, "stimulus": "<p id='stroop-text' class='stroop-red'>MONKEY</p>", "response": "r", "stimulus-type": "unrelated", "word": "MONKEY", "color": "red", "correct_response": "r", "trial_id": "stroop-trial-1-unrelated-18", "trial_type": "html-keyboard-response", "trial_index": 164, "time_elapsed": 245970, "internal_node_id": "0.0-6.0-69.0"}}, {"uniqueid": "w22814650:a57858308", "current_trial": 165, "dateTime": 1664464133730, "trialdata": {"rt": 891, "stimulus": "<p id='stroop-text' class='stroop-yellow'>BOTTLE</p>", "response": "y", "stimulus-type": "unrelated", "word": "BOTTLE", "color": "yellow", "correct_response": "y", "trial_id": "stroop-trial-1-unrelated-12", "trial_type": "html-keyboard-response", "trial_index": 165, "time_elapsed": 247363, "internal_node_id": "0.0-6.0-70.0"}}, {"uniqueid": "w22814650:a57858308", "current_trial": 166, "dateTime": 1664464135219, "trialdata": {"rt": 988, "stimulus": "<p id='stroop-text' class='stroop-red'>BOAT</p>", "response": "r", "stimulus-type": "unrelated", "word": "BOAT", "color": "red", "correct_response": "r", "trial_id": "stroop-trial-1-unrelated-1", "trial_type": "html-keyboard-response", "trial_index": 166, "time_elapsed": 248852, "internal_node_id": "0.0-6.0-71.0"}}, {"uniqueid": "w22814650:a57858308", "current_trial": 167, "dateTime": 1664464136441, "trialdata": {"rt": 720, "stimulus": "<p id='stroop-text' class='stroop-green'>GREEN</p>", "response": "g", "stimulus-type": "congruent", "word": "green", "color": "green", "correct_response": "g", "trial_id": "stroop-trial-1-congruent-10", "trial_type": "html-keyboard-response", "trial_index": 167, "time_elapsed": 250074, "internal_node_id": "0.0-6.0-72.0"}}, {"uniqueid": "w22814650:a57858308", "current_trial": 168, "dateTime": 1664464137710, "trialdata": {"rt": 767, "stimulus": "<p id='stroop-text' class='stroop-green'>GREEN</p>", "response": "g", "stimulus-type": "congruent", "word": "green", "color": "green", "correct_response": "g", "trial_id": "stroop-trial-1-congruent-3", "trial_type": "html-keyboard-response", "trial_index": 168, "time_elapsed": 251343, "internal_node_id": "0.0-6.0-73.0"}}, {"uniqueid": "w22814650:a57858308", "current_trial": 169, "dateTime": 1664464138694, "trialdata": {"rt": 482, "stimulus": "<p id='stroop-text' class='stroop-green'>GREEN</p>", "response": "g", "stimulus-type": "congruent", "word": "green", "color": "green", "correct_response": "g", "trial_id": "stroop-trial-1-congruent-29", "trial_type": "html-keyboard-response", "trial_index": 169, "time_elapsed": 252327, "internal_node_id": "0.0-6.0-74.0"}}, {"uniqueid": "w22814650:a57858308", "current_trial": 170, "dateTime": 1664464139823, "trialdata": {"rt": 628, "stimulus": "<p id='stroop-text' class='stroop-yellow'>GREEN</p>", "response": "y", "stimulus-type": "incongruent", "word": "green", "color": "yellow", "correct_response": "y", "trial_id": "stroop-trial-1-incongruent-6", "trial_type": "html-keyboard-response", "trial_index": 170, "time_elapsed": 253456, "internal_node_id": "0.0-6.0-75.0"}}, {"uniqueid": "w22814650:a57858308", "current_trial": 171, "dateTime": 1664464140901, "trialdata": {"rt": 576, "stimulus": "<p id='stroop-text' class='stroop-green'>GREEN</p>", "response": "g", "stimulus-type": "congruent", "word": "green", "color": "green", "correct_response": "g", "trial_id": "stroop-trial-1-congruent-24", "trial_type": "html-keyboard-response", "trial_index": 171, "time_elapsed": 254534, "internal_node_id": "0.0-6.0-76.0"}}, {"uniqueid": "w22814650:a57858308", "current_trial": 172, "dateTime": 1664464141958, "trialdata": {"rt": 555, "stimulus": "<p id='stroop-text' class='stroop-yellow'>YELLOW</p>", "response": "y", "stimulus-type": "congruent", "word": "yellow", "color": "yellow", "correct_response": "y", "trial_id": "stroop-trial-1-congruent-14", "trial_type": "html-keyboard-response", "trial_index": 172, "time_elapsed": 255591, "internal_node_id": "0.0-6.0-77.0"}}, {"uniqueid": "w22814650:a57858308", "current_trial": 173, "dateTime": 1664464143207, "trialdata": {"rt": 748, "stimulus": "<p id='stroop-text' class='stroop-blue'>GREEN</p>", "response": "b", "stimulus-type": "incongruent", "word": "green", "color": "blue", "correct_response": "b", "trial_id": "stroop-trial-1-incongruent-5", "trial_type": "html-keyboard-response", "trial_index": 173, "time_elapsed": 256840, "internal_node_id": "0.0-6.0-78.0"}}, {"uniqueid": "w22814650:a57858308", "current_trial": 174, "dateTime": 1664464144649, "trialdata": {"rt": 941, "stimulus": "<p id='stroop-text' class='stroop-green'>GREEN</p>", "response": "g", "stimulus-type": "congruent", "word": "green", "color": "green", "correct_response": "g", "trial_id": "stroop-trial-1-congruent-11", "trial_type": "html-keyboard-response", "trial_index": 174, "time_elapsed": 258282, "internal_node_id": "0.0-6.0-79.0"}}, {"uniqueid": "w22814650:a57858308", "current_trial": 175, "dateTime": 1664464145873, "trialdata": {"rt": 717, "stimulus": "<p id='stroop-text' class='stroop-blue'>YELLOW</p>", "response": "y", "stimulus-type": "incongruent", "word": "yellow", "color": "blue", "correct_response": "b", "trial_id": "stroop-trial-1-incongruent-29", "trial_type": "html-keyboard-response", "trial_index": 175, "time_elapsed": 259506, "internal_node_id": "0.0-6.0-80.0"}}, {"uniqueid": "w22814650:a57858308", "current_trial": 176, "dateTime": 1664464147576, "trialdata": {"rt": 1202, "stimulus": "<p id='stroop-text' class='stroop-green'>FORK</p>", "response": "g", "stimulus-type": "unrelated", "word": "FORK", "color": "green", "correct_response": "g", "trial_id": "stroop-trial-1-unrelated-6", "trial_type": "html-keyboard-response", "trial_index": 176, "time_elapsed": 261209, "internal_node_id": "0.0-6.0-81.0"}}, {"uniqueid": "w22814650:a57858308", "current_trial": 177, "dateTime": 1664464148753, "trialdata": {"rt": 675, "stimulus": "<p id='stroop-text' class='stroop-green'>DOG</p>", "response": "g", "stimulus-type": "unrelated", "word": "DOG", "color": "green", "correct_response": "g", "trial_id": "stroop-trial-1-unrelated-20", "trial_type": "html-keyboard-response", "trial_index": 177, "time_elapsed": 262386, "internal_node_id": "0.0-6.0-82.0"}}, {"uniqueid": "w22814650:a57858308", "current_trial": 178, "dateTime": 1664464149859, "trialdata": {"rt": 604, "stimulus": "<p id='stroop-text' class='stroop-red'>DOG</p>", "response": "r", "stimulus-type": "unrelated", "word": "DOG", "color": "red", "correct_response": "r", "trial_id": "stroop-trial-1-unrelated-22", "trial_type": "html-keyboard-response", "trial_index": 178, "time_elapsed": 263492, "internal_node_id": "0.0-6.0-83.0"}}, {"uniqueid": "w22814650:a57858308", "current_trial": 179, "dateTime": 1664464151300, "trialdata": {"rt": 940, "stimulus": "<p id='stroop-text' class='stroop-green'>RED</p>", "response": "g", "stimulus-type": "incongruent", "word": "red", "color": "green", "correct_response": "g", "trial_id": "stroop-trial-1-incongruent-22", "trial_type": "html-keyboard-response", "trial_index": 179, "time_elapsed": 264933, "internal_node_id": "0.0-6.0-84.0"}}, {"uniqueid": "w22814650:a57858308", "current_trial": 180, "dateTime": 1664464152834, "trialdata": {"rt": 1020, "stimulus": "<p id='stroop-text' class='stroop-red'>WINDOW</p>", "response": "r", "stimulus-type": "unrelated", "word": "WINDOW", "color": "red", "correct_response": "r", "trial_id": "stroop-trial-1-unrelated-5", "trial_type": "html-keyboard-response", "trial_index": 180, "time_elapsed": 266467, "internal_node_id": "0.0-6.0-85.0"}}, {"uniqueid": "w22814650:a57858308", "current_trial": 181, "dateTime": 1664464154153, "trialdata": {"rt": 811, "stimulus": "<p id='stroop-text' class='stroop-yellow'>BLUE</p>", "response": "y", "stimulus-type": "incongruent", "word": "blue", "color": "yellow", "correct_response": "y", "trial_id": "stroop-trial-1-incongruent-24", "trial_type": "html-keyboard-response", "trial_index": 181, "time_elapsed": 267786, "internal_node_id": "0.0-6.0-86.0"}}, {"uniqueid": "w22814650:a57858308", "current_trial": 182, "dateTime": 1664464155328, "trialdata": {"rt": 673, "stimulus": "<p id='stroop-text' class='stroop-blue'>MONKEY</p>", "response": "b", "stimulus-type": "unrelated", "word": "MONKEY", "color": "blue", "correct_response": "b", "trial_id": "stroop-trial-1-unrelated-28", "trial_type": "html-keyboard-response", "trial_index": 182, "time_elapsed": 268961, "internal_node_id": "0.0-6.0-87.0"}}, {"uniqueid": "w22814650:a57858308", "current_trial": 183, "dateTime": 1664464156406, "trialdata": {"rt": 576, "stimulus": "<p id='stroop-text' class='stroop-blue'>BLUE</p>", "response": "b", "stimulus-type": "congruent", "word": "blue", "color": "blue", "correct_response": "b", "trial_id": "stroop-trial-1-congruent-20", "trial_type": "html-keyboard-response", "trial_index": 183, "time_elapsed": 270039, "internal_node_id": "0.0-6.0-88.0"}}, {"uniqueid": "w22814650:a57858308", "current_trial": 184, "dateTime": 1664464157460, "trialdata": {"rt": 552, "stimulus": "<p id='stroop-text' class='stroop-red'>DOG</p>", "response": "r", "stimulus-type": "unrelated", "word": "DOG", "color": "red", "correct_response": "r", "trial_id": "stroop-trial-1-unrelated-8", "trial_type": "html-keyboard-response", "trial_index": 184, "time_elapsed": 271093, "internal_node_id": "0.0-6.0-89.0"}}, {"uniqueid": "w22814650:a57858308", "current_trial": 185, "dateTime": 1664464159642, "trialdata": {"rt": 1679, "stimulus": "  <h1> End of block! </h1>\n\n  You have reached the end of the block 2/5. If you need a short break, feel free to take one now before moving on.\n\n  <br><br>\n  In the next block, you will complete another 90 rounds of this game.\n\n  <br><br>\n  <div style='text-align: center;'>Press <code>space</code> to begin.</div>\n  <br><br>\n<div style='text-align: center;'>(If the experiment doesn't continue, try clicking on the text and then pressing <code>space</code>.)</div>", "response": " ", "trial_id": "stroop_1_ready_3", "trial_type": "html-keyboard-response", "trial_index": 185, "time_elapsed": 273275, "internal_node_id": "0.0-7.0"}}, {"uniqueid": "w22814650:a57858308", "current_trial": 186, "dateTime": 1664464160432, "trialdata": {"rt": 789, "stimulus": "<p id='stroop-text' class='stroop-red'>YELLOW</p>", "response": "r", "stimulus-type": "incongruent", "word": "yellow", "color": "red", "correct_response": "r", "trial_id": "stroop-trial-1-incongruent-16", "trial_type": "html-keyboard-response", "trial_index": 186, "time_elapsed": 274065, "internal_node_id": "0.0-8.0-0.0"}}, {"uniqueid": "w22814650:a57858308", "current_trial": 187, "dateTime": 1664464161462, "trialdata": {"rt": 529, "stimulus": "<p id='stroop-text' class='stroop-red'>RED</p>", "response": "r", "stimulus-type": "congruent", "word": "red", "color": "red", "correct_response": "r", "trial_id": "stroop-trial-1-congruent-20", "trial_type": "html-keyboard-response", "trial_index": 187, "time_elapsed": 275095, "internal_node_id": "0.0-8.0-1.0"}}, {"uniqueid": "w22814650:a57858308", "current_trial": 188, "dateTime": 1664464162423, "trialdata": {"rt": 460, "stimulus": "<p id='stroop-text' class='stroop-red'>GREEN</p>", "response": "r", "stimulus-type": "incongruent", "word": "green", "color": "red", "correct_response": "r", "trial_id": "stroop-trial-1-incongruent-20", "trial_type": "html-keyboard-response", "trial_index": 188, "time_elapsed": 276056, "internal_node_id": "0.0-8.0-2.0"}}, {"uniqueid": "w22814650:a57858308", "current_trial": 189, "dateTime": 1664464163429, "trialdata": {"rt": 504, "stimulus": "<p id='stroop-text' class='stroop-yellow'>FORK</p>", "response": "y", "stimulus-type": "unrelated", "word": "FORK", "color": "yellow", "correct_response": "y", "trial_id": "stroop-trial-1-unrelated-29", "trial_type": "html-keyboard-response", "trial_index": 189, "time_elapsed": 277062, "internal_node_id": "0.0-8.0-3.0"}}, {"uniqueid": "w22814650:a57858308", "current_trial": 190, "dateTime": 1664464164411, "trialdata": {"rt": 480, "stimulus": "<p id='stroop-text' class='stroop-yellow'>WINDOW</p>", "response": "y", "stimulus-type": "unrelated", "word": "WINDOW", "color": "yellow", "correct_response": "y", "trial_id": "stroop-trial-1-unrelated-14", "trial_type": "html-keyboard-response", "trial_index": 190, "time_elapsed": 278044, "internal_node_id": "0.0-8.0-4.0"}}, {"uniqueid": "w22814650:a57858308", "current_trial": 191, "dateTime": 1664464165420, "trialdata": {"rt": 507, "stimulus": "<p id='stroop-text' class='stroop-red'>DOG</p>", "response": "r", "stimulus-type": "unrelated", "word": "DOG", "color": "red", "correct_response": "r", "trial_id": "stroop-trial-1-unrelated-28", "trial_type": "html-keyboard-response", "trial_index": 191, "time_elapsed": 279053, "internal_node_id": "0.0-8.0-5.0"}}, {"uniqueid": "w22814650:a57858308", "current_trial": 192, "dateTime": 1664464166428, "trialdata": {"rt": 506, "stimulus": "<p id='stroop-text' class='stroop-yellow'>BOAT</p>", "response": "y", "stimulus-type": "unrelated", "word": "BOAT", "color": "yellow", "correct_response": "y", "trial_id": "stroop-trial-1-unrelated-12", "trial_type": "html-keyboard-response", "trial_index": 192, "time_elapsed": 280061, "internal_node_id": "0.0-8.0-6.0"}}, {"uniqueid": "w22814650:a57858308", "current_trial": 193, "dateTime": 1664464167652, "trialdata": {"rt": 722, "stimulus": "<p id='stroop-text' class='stroop-green'>YELLOW</p>", "response": "g", "stimulus-type": "incongruent", "word": "yellow", "color": "green", "correct_response": "g", "trial_id": "stroop-trial-1-incongruent-25", "trial_type": "html-keyboard-response", "trial_index": 193, "time_elapsed": 281285, "internal_node_id": "0.0-8.0-7.0"}}, {"uniqueid": "w22814650:a57858308", "current_trial": 194, "dateTime": 1664464168685, "trialdata": {"rt": 531, "stimulus": "<p id='stroop-text' class='stroop-green'>GREEN</p>", "response": "g", "stimulus-type": "congruent", "word": "green", "color": "green", "correct_response": "g", "trial_id": "stroop-trial-1-congruent-9", "trial_type": "html-keyboard-response", "trial_index": 194, "time_elapsed": 282318, "internal_node_id": "0.0-8.0-8.0"}}, {"uniqueid": "w22814650:a57858308", "current_trial": 195, "dateTime": 1664464169669, "trialdata": {"rt": 481, "stimulus": "<p id='stroop-text' class='stroop-blue'>BLUE</p>", "response": "b", "stimulus-type": "congruent", "word": "blue", "color": "blue", "correct_response": "b", "trial_id": "stroop-trial-1-congruent-2", "trial_type": "html-keyboard-response", "trial_index": 195, "time_elapsed": 283302, "internal_node_id": "0.0-8.0-9.0"}}, {"uniqueid": "w22814650:a57858308", "current_trial": 196, "dateTime": 1664464170677, "trialdata": {"rt": 506, "stimulus": "<p id='stroop-text' class='stroop-red'>WINDOW</p>", "response": "r", "stimulus-type": "unrelated", "word": "WINDOW", "color": "red", "correct_response": "r", "trial_id": "stroop-trial-1-unrelated-9", "trial_type": "html-keyboard-response", "trial_index": 196, "time_elapsed": 284309, "internal_node_id": "0.0-8.0-10.0"}}, {"uniqueid": "w22814650:a57858308", "current_trial": 197, "dateTime": 1664464171780, "trialdata": {"rt": 601, "stimulus": "<p id='stroop-text' class='stroop-yellow'>YELLOW</p>", "response": "y", "stimulus-type": "congruent", "word": "yellow", "color": "yellow", "correct_response": "y", "trial_id": "stroop-trial-1-congruent-22", "trial_type": "html-keyboard-response", "trial_index": 197, "time_elapsed": 285412, "internal_node_id": "0.0-8.0-11.0"}}, {"uniqueid": "w22814650:a57858308", "current_trial": 198, "dateTime": 1664464172741, "trialdata": {"rt": 452, "stimulus": "<p id='stroop-text' class='stroop-yellow'>YELLOW</p>", "response": "y", "stimulus-type": "congruent", "word": "yellow", "color": "yellow", "correct_response": "y", "trial_id": "stroop-trial-1-congruent-7", "trial_type": "html-keyboard-response", "trial_index": 198, "time_elapsed": 286373, "internal_node_id": "0.0-8.0-12.0"}}, {"uniqueid": "w22814650:a57858308", "current_trial": 199, "dateTime": 1664464173748, "trialdata": {"rt": 505, "stimulus": "<p id='stroop-text' class='stroop-red'>RED</p>", "response": "r", "stimulus-type": "congruent", "word": "red", "color": "red", "correct_response": "r", "trial_id": "stroop-trial-1-congruent-3", "trial_type": "html-keyboard-response", "trial_index": 199, "time_elapsed": 287380, "internal_node_id": "0.0-8.0-13.0"}}, {"uniqueid": "w22814650:a57858308", "current_trial": 200, "dateTime": 1664464174851, "trialdata": {"rt": 601, "stimulus": "<p id='stroop-text' class='stroop-yellow'>YELLOW</p>", "response": "y", "stimulus-type": "congruent", "word": "yellow", "color": "yellow", "correct_response": "y", "trial_id": "stroop-trial-1-congruent-27", "trial_type": "html-keyboard-response", "trial_index": 200, "time_elapsed": 288483, "internal_node_id": "0.0-8.0-14.0"}}, {"uniqueid": "w22814650:a57858308", "current_trial": 201, "dateTime": 1664464176075, "trialdata": {"rt": 722, "stimulus": "<p id='stroop-text' class='stroop-green'>BOTTLE</p>", "response": "g", "stimulus-type": "unrelated", "word": "BOTTLE", "color": "green", "correct_response": "g", "trial_id": "stroop-trial-1-unrelated-8", "trial_type": "html-keyboard-response", "trial_index": 201, "time_elapsed": 289707, "internal_node_id": "0.0-8.0-15.0"}}, {"uniqueid": "w22814650:a57858308", "current_trial": 202, "dateTime": 1664464177155, "trialdata": {"rt": 578, "stimulus": "<p id='stroop-text' class='stroop-red'>FORK</p>", "response": "r", "stimulus-type": "unrelated", "word": "FORK", "color": "red", "correct_response": "r", "trial_id": "stroop-trial-1-unrelated-27", "trial_type": "html-keyboard-response", "trial_index": 202, "time_elapsed": 290787, "internal_node_id": "0.0-8.0-16.0"}}, {"uniqueid": "w22814650:a57858308", "current_trial": 203, "dateTime": 1664464178306, "trialdata": {"rt": 649, "stimulus": "<p id='stroop-text' class='stroop-yellow'>RED</p>", "response": "y", "stimulus-type": "incongruent", "word": "red", "color": "yellow", "correct_response": "y", "trial_id": "stroop-trial-1-incongruent-8", "trial_type": "html-keyboard-response", "trial_index": 203, "time_elapsed": 291938, "internal_node_id": "0.0-8.0-17.0"}}, {"uniqueid": "w22814650:a57858308", "current_trial": 204, "dateTime": 1664464179266, "trialdata": {"rt": 458, "stimulus": "<p id='stroop-text' class='stroop-yellow'>YELLOW</p>", "response": "y", "stimulus-type": "congruent", "word": "yellow", "color": "yellow", "correct_response": "y", "trial_id": "stroop-trial-1-congruent-23", "trial_type": "html-keyboard-response", "trial_index": 204, "time_elapsed": 292899, "internal_node_id": "0.0-8.0-18.0"}}, {"uniqueid": "w22814650:a57858308", "current_trial": 205, "dateTime": 1664464180320, "trialdata": {"rt": 553, "stimulus": "<p id='stroop-text' class='stroop-green'>GREEN</p>", "response": "g", "stimulus-type": "congruent", "word": "green", "color": "green", "correct_response": "g", "trial_id": "stroop-trial-1-congruent-1", "trial_type": "html-keyboard-response", "trial_index": 205, "time_elapsed": 293953, "internal_node_id": "0.0-8.0-19.0"}}, {"uniqueid": "w22814650:a57858308", "current_trial": 206, "dateTime": 1664464181369, "trialdata": {"rt": 534, "stimulus": "<p id='stroop-text' class='stroop-yellow'>RED</p>", "response": "y", "stimulus-type": "incongruent", "word": "red", "color": "yellow", "correct_response": "y", "trial_id": "stroop-trial-1-incongruent-28", "trial_type": "html-keyboard-response", "trial_index": 206, "time_elapsed": 295002, "internal_node_id": "0.0-8.0-20.0"}}, {"uniqueid": "w22814650:a57858308", "current_trial": 207, "dateTime": 1664464182474, "trialdata": {"rt": 603, "stimulus": "<p id='stroop-text' class='stroop-blue'>BRAIN</p>", "response": "b", "stimulus-type": "unrelated", "word": "BRAIN", "color": "blue", "correct_response": "b", "trial_id": "stroop-trial-1-unrelated-13", "trial_type": "html-keyboard-response", "trial_index": 207, "time_elapsed": 296106, "internal_node_id": "0.0-8.0-21.0"}}, {"uniqueid": "w22814650:a57858308", "current_trial": 208, "dateTime": 1664464183526, "trialdata": {"rt": 551, "stimulus": "<p id='stroop-text' class='stroop-yellow'>BOTTLE</p>", "response": "y", "stimulus-type": "unrelated", "word": "BOTTLE", "color": "yellow", "correct_response": "y", "trial_id": "stroop-trial-1-unrelated-30", "trial_type": "html-keyboard-response", "trial_index": 208, "time_elapsed": 297159, "internal_node_id": "0.0-8.0-22.0"}}, {"uniqueid": "w22814650:a57858308", "current_trial": 209, "dateTime": 1664464184631, "trialdata": {"rt": 603, "stimulus": "<p id='stroop-text' class='stroop-red'>GREEN</p>", "response": "r", "stimulus-type": "incongruent", "word": "green", "color": "red", "correct_response": "r", "trial_id": "stroop-trial-1-incongruent-1", "trial_type": "html-keyboard-response", "trial_index": 209, "time_elapsed": 298264, "internal_node_id": "0.0-8.0-23.0"}}, {"uniqueid": "w22814650:a57858308", "current_trial": 210, "dateTime": 1664464185709, "trialdata": {"rt": 576, "stimulus": "<p id='stroop-text' class='stroop-yellow'>BLUE</p>", "response": "y", "stimulus-type": "incongruent", "word": "blue", "color": "yellow", "correct_response": "y", "trial_id": "stroop-trial-1-incongruent-23", "trial_type": "html-keyboard-response", "trial_index": 210, "time_elapsed": 299342, "internal_node_id": "0.0-8.0-24.0"}}, {"uniqueid": "w22814650:a57858308", "current_trial": 211, "dateTime": 1664464186715, "trialdata": {"rt": 504, "stimulus": "<p id='stroop-text' class='stroop-blue'>RED</p>", "response": "b", "stimulus-type": "incongruent", "word": "red", "color": "blue", "correct_response": "b", "trial_id": "stroop-trial-1-incongruent-13", "trial_type": "html-keyboard-response", "trial_index": 211, "time_elapsed": 300348, "internal_node_id": "0.0-8.0-25.0"}}, {"uniqueid": "w22814650:a57858308", "current_trial": 212, "dateTime": 1664464187821, "trialdata": {"rt": 604, "stimulus": "<p id='stroop-text' class='stroop-yellow'>STONE</p>", "response": "y", "stimulus-type": "unrelated", "word": "STONE", "color": "yellow", "correct_response": "y", "trial_id": "stroop-trial-1-unrelated-1", "trial_type": "html-keyboard-response", "trial_index": 212, "time_elapsed": 301454, "internal_node_id": "0.0-8.0-26.0"}}, {"uniqueid": "w22814650:a57858308", "current_trial": 213, "dateTime": 1664464188877, "trialdata": {"rt": 554, "stimulus": "<p id='stroop-text' class='stroop-red'>BOTTLE</p>", "response": "r", "stimulus-type": "unrelated", "word": "BOTTLE", "color": "red", "correct_response": "r", "trial_id": "stroop-trial-1-unrelated-21", "trial_type": "html-keyboard-response", "trial_index": 213, "time_elapsed": 302510, "internal_node_id": "0.0-8.0-27.0"}}, {"uniqueid": "w22814650:a57858308", "current_trial": 214, "dateTime": 1664464190439, "trialdata": {"rt": 1060, "stimulus": "<p id='stroop-text' class='stroop-green'>YELLOW</p>", "response": "g", "stimulus-type": "incongruent", "word": "yellow", "color": "green", "correct_response": "g", "trial_id": "stroop-trial-1-incongruent-19", "trial_type": "html-keyboard-response", "trial_index": 214, "time_elapsed": 304072, "internal_node_id": "0.0-8.0-28.0"}}, {"uniqueid": "w22814650:a57858308", "current_trial": 215, "dateTime": 1664464191494, "trialdata": {"rt": 547, "stimulus": "<p id='stroop-text' class='stroop-green'>YELLOW</p>", "response": "g", "stimulus-type": "incongruent", "word": "yellow", "color": "green", "correct_response": "g", "trial_id": "stroop-trial-1-incongruent-26", "trial_type": "html-keyboard-response", "trial_index": 215, "time_elapsed": 305127, "internal_node_id": "0.0-8.0-29.0"}}, {"uniqueid": "w22814650:a57858308", "current_trial": 216, "dateTime": 1664464192912, "trialdata": {"rt": 916, "stimulus": "<p id='stroop-text' class='stroop-blue'>YELLOW</p>", "response": "b", "stimulus-type": "incongruent", "word": "yellow", "color": "blue", "correct_response": "b", "trial_id": "stroop-trial-1-incongruent-2", "trial_type": "html-keyboard-response", "trial_index": 216, "time_elapsed": 306545, "internal_node_id": "0.0-8.0-30.0"}}, {"uniqueid": "w22814650:a57858308", "current_trial": 217, "dateTime": 1664464194496, "trialdata": {"rt": 1081, "stimulus": "<p id='stroop-text' class='stroop-blue'>YELLOW</p>", "response": "b", "stimulus-type": "incongruent", "word": "yellow", "color": "blue", "correct_response": "b", "trial_id": "stroop-trial-1-incongruent-4", "trial_type": "html-keyboard-response", "trial_index": 217, "time_elapsed": 308128, "internal_node_id": "0.0-8.0-31.0"}}, {"uniqueid": "w22814650:a57858308", "current_trial": 218, "dateTime": 1664464195553, "trialdata": {"rt": 556, "stimulus": "<p id='stroop-text' class='stroop-red'>DOG</p>", "response": "r", "stimulus-type": "unrelated", "word": "DOG", "color": "red", "correct_response": "r", "trial_id": "stroop-trial-1-unrelated-26", "trial_type": "html-keyboard-response", "trial_index": 218, "time_elapsed": 309186, "internal_node_id": "0.0-8.0-32.0"}}, {"uniqueid": "w22814650:a57858308", "current_trial": 219, "dateTime": 1664464196727, "trialdata": {"rt": 672, "stimulus": "<p id='stroop-text' class='stroop-green'>SHIP</p>", "response": "g", "stimulus-type": "unrelated", "word": "SHIP", "color": "green", "correct_response": "g", "trial_id": "stroop-trial-1-unrelated-18", "trial_type": "html-keyboard-response", "trial_index": 219, "time_elapsed": 310360, "internal_node_id": "0.0-8.0-33.0"}}, {"uniqueid": "w22814650:a57858308", "current_trial": 220, "dateTime": 1664464197784, "trialdata": {"rt": 555, "stimulus": "<p id='stroop-text' class='stroop-red'>RED</p>", "response": "r", "stimulus-type": "congruent", "word": "red", "color": "red", "correct_response": "r", "trial_id": "stroop-trial-1-congruent-25", "trial_type": "html-keyboard-response", "trial_index": 220, "time_elapsed": 311417, "internal_node_id": "0.0-8.0-34.0"}}, {"uniqueid": "w22814650:a57858308", "current_trial": 221, "dateTime": 1664464198840, "trialdata": {"rt": 553, "stimulus": "<p id='stroop-text' class='stroop-green'>GREEN</p>", "response": "g", "stimulus-type": "congruent", "word": "green", "color": "green", "correct_response": "g", "trial_id": "stroop-trial-1-congruent-10", "trial_type": "html-keyboard-response", "trial_index": 221, "time_elapsed": 312472, "internal_node_id": "0.0-8.0-35.0"}}, {"uniqueid": "w22814650:a57858308", "current_trial": 222, "dateTime": 1664464200087, "trialdata": {"rt": 732, "stimulus": "<p id='stroop-text' class='stroop-green'>RED</p>", "response": "g", "stimulus-type": "incongruent", "word": "red", "color": "green", "correct_response": "g", "trial_id": "stroop-trial-1-incongruent-30", "trial_type": "html-keyboard-response", "trial_index": 222, "time_elapsed": 313720, "in