{"condition": 0, "counterbalance": 0, "assignmentId": "a55706958", "workerId": "w77732981", "hitId": "h46233833", "currenttrial": 959, "bonus": 0, "data": [{"uniqueid": "w77732981:a55706958", "current_trial": 0, "dateTime": 1664873394798, "trialdata": {"success": true, "trial_type": "fullscreen", "trial_index": 0, "time_elapsed": 8007, "internal_node_id": "0.0-0.0"}}, {"uniqueid": "w77732981:a55706958", "current_trial": 1, "dateTime": 1664873458413, "trialdata": {"view_history": [{"page_index": 0, "viewing_time": 63600}], "rt": 63601, "trial_id": "exp_instructions_distractor", "trial_type": "instructions", "trial_index": 1, "time_elapsed": 71623, "internal_node_id": "0.0-1.0"}}, {"uniqueid": "w77732981:a55706958", "current_trial": 2, "dateTime": 1664873515988, "trialdata": {"view_history": [{"page_index": 0, "viewing_time": 57570}], "rt": 57570, "trial_id": "color_game_instructions", "trial_type": "instructions", "trial_index": 2, "time_elapsed": 129198, "internal_node_id": "0.0-2.0"}}, {"uniqueid": "w77732981:a55706958", "current_trial": 3, "dateTime": 1664873545830, "trialdata": {"rt": 29839, "stimulus": "<h1> Get ready to start the game! </h1>\n\nThank you for reading the instructions. Get ready start with the first of 5 block(s) of this game.\n<br><br>\nIn this first block, you will complete 90 rounds of this game before moving on.\n<br><br>\nRemember, the better you perform, the bigger your bonus will be!\n<br><br>\n<div style='text-align: center;'>Press <code>space</code> to begin.</div>", "response": " ", "trial_id": "stroop_1_ready_1", "trial_type": "html-keyboard-response", "trial_index": 3, "time_elapsed": 159040, "internal_node_id": "0.0-3.0"}}, {"uniqueid": "w77732981:a55706958", "current_trial": 4, "dateTime": 1664873548293, "trialdata": {"rt": 2428, "stimulus": "<p id='stroop-text' class='stroop-green'>BLUE</p>", "response": "g", "stimulus-type": "incongruent", "word": "blue", "color": "green", "correct_response": "g", "trial_id": "stroop-trial-1-incongruent-20", "trial_type": "html-keyboard-response", "trial_index": 4, "time_elapsed": 161502, "internal_node_id": "0.0-4.0-0.0"}}, {"uniqueid": "w77732981:a55706958", "current_trial": 5, "dateTime": 1664873550805, "trialdata": {"rt": 2009, "stimulus": "<p id='stroop-text' class='stroop-green'>RED</p>", "response": "g", "stimulus-type": "incongruent", "word": "red", "color": "green", "correct_response": "g", "trial_id": "stroop-trial-1-incongruent-18", "trial_type": "html-keyboard-response", "trial_index": 5, "time_elapsed": 164015, "internal_node_id": "0.0-4.0-1.0"}}, {"uniqueid": "w77732981:a55706958", "current_trial": 6, "dateTime": 1664873552757, "trialdata": {"rt": 1449, "stimulus": "<p id='stroop-text' class='stroop-red'>DOG</p>", "response": "r", "stimulus-type": "unrelated", "word": "DOG", "color": "red", "correct_response": "r", "trial_id": "stroop-trial-1-unrelated-23", "trial_type": "html-keyboard-response", "trial_index": 6, "time_elapsed": 165967, "internal_node_id": "0.0-4.0-2.0"}}, {"uniqueid": "w77732981:a55706958", "current_trial": 7, "dateTime": 1664873554917, "trialdata": {"rt": 1657, "stimulus": "<p id='stroop-text' class='stroop-blue'>BRIDGE</p>", "response": "b", "stimulus-type": "unrelated", "word": "BRIDGE", "color": "blue", "correct_response": "b", "trial_id": "stroop-trial-1-unrelated-22", "trial_type": "html-keyboard-response", "trial_index": 7, "time_elapsed": 168126, "internal_node_id": "0.0-4.0-3.0"}}, {"uniqueid": "w77732981:a55706958", "current_trial": 8, "dateTime": 1664873556965, "trialdata": {"rt": 1546, "stimulus": "<p id='stroop-text' class='stroop-yellow'>BLUE</p>", "response": "y", "stimulus-type": "incongruent", "word": "blue", "color": "yellow", "correct_response": "y", "trial_id": "stroop-trial-1-incongruent-15", "trial_type": "html-keyboard-response", "trial_index": 8, "time_elapsed": 170174, "internal_node_id": "0.0-4.0-4.0"}}, {"uniqueid": "w77732981:a55706958", "current_trial": 9, "dateTime": 1664873558773, "trialdata": {"rt": 1305, "stimulus": "<p id='stroop-text' class='stroop-red'>STONE</p>", "response": "r", "stimulus-type": "unrelated", "word": "STONE", "color": "red", "correct_response": "r", "trial_id": "stroop-trial-1-unrelated-26", "trial_type": "html-keyboard-response", "trial_index": 9, "time_elapsed": 171983, "internal_node_id": "0.0-4.0-5.0"}}, {"uniqueid": "w77732981:a55706958", "current_trial": 10, "dateTime": 1664873560549, "trialdata": {"rt": 1273, "stimulus": "<p id='stroop-text' class='stroop-red'>SHIP</p>", "response": "r", "stimulus-type": "unrelated", "word": "SHIP", "color": "red", "correct_response": "r", "trial_id": "stroop-trial-1-unrelated-19", "trial_type": "html-keyboard-response", "trial_index": 10, "time_elapsed": 173758, "internal_node_id": "0.0-4.0-6.0"}}, {"uniqueid": "w77732981:a55706958", "current_trial": 11, "dateTime": 1664873562597, "trialdata": {"rt": 1545, "stimulus": "<p id='stroop-text' class='stroop-red'>RED</p>", "response": "r", "stimulus-type": "congruent", "word": "red", "color": "red", "correct_response": "r", "trial_id": "stroop-trial-1-congruent-7", "trial_type": "html-keyboard-response", "trial_index": 11, "time_elapsed": 175806, "internal_node_id": "0.0-4.0-7.0"}}, {"uniqueid": "w77732981:a55706958", "current_trial": 12, "dateTime": 1664873564678, "trialdata": {"rt": 1579, "stimulus": "<p id='stroop-text' class='stroop-red'>BRAIN</p>", "response": "r", "stimulus-type": "unrelated", "word": "BRAIN", "color": "red", "correct_response": "r", "trial_id": "stroop-trial-1-unrelated-25", "trial_type": "html-keyboard-response", "trial_index": 12, "time_elapsed": 177887, "internal_node_id": "0.0-4.0-8.0"}}, {"uniqueid": "w77732981:a55706958", "current_trial": 13, "dateTime": 1664873567445, "trialdata": {"rt": 2265, "stimulus": "<p id='stroop-text' class='stroop-green'>YELLOW</p>", "response": "g", "stimulus-type": "incongruent", "word": "yellow", "color": "green", "correct_response": "g", "trial_id": "stroop-trial-1-incongruent-26", "trial_type": "html-keyboard-response", "trial_index": 13, "time_elapsed": 180654, "internal_node_id": "0.0-4.0-9.0"}}, {"uniqueid": "w77732981:a55706958", "current_trial": 14, "dateTime": 1664873569957, "trialdata": {"rt": 2010, "stimulus": "<p id='stroop-text' class='stroop-yellow'>BOAT</p>", "response": "y", "stimulus-type": "unrelated", "word": "BOAT", "color": "yellow", "correct_response": "y", "trial_id": "stroop-trial-1-unrelated-20", "trial_type": "html-keyboard-response", "trial_index": 14, "time_elapsed": 183166, "internal_node_id": "0.0-4.0-10.0"}}, {"uniqueid": "w77732981:a55706958", "current_trial": 15, "dateTime": 1664873572981, "trialdata": {"rt": 2520, "stimulus": "<p id='stroop-text' class='stroop-green'>BLUE</p>", "response": "g", "stimulus-type": "incongruent", "word": "blue", "color": "green", "correct_response": "g", "trial_id": "stroop-trial-1-incongruent-10", "trial_type": "html-keyboard-response", "trial_index": 15, "time_elapsed": 186190, "internal_node_id": "0.0-4.0-11.0"}}, {"uniqueid": "w77732981:a55706958", "current_trial": 16, "dateTime": 1664873575414, "trialdata": {"rt": 1931, "stimulus": "<p id='stroop-text' class='stroop-blue'>BLUE</p>", "response": "b", "stimulus-type": "congruent", "word": "blue", "color": "blue", "correct_response": "b", "trial_id": "stroop-trial-1-congruent-11", "trial_type": "html-keyboard-response", "trial_index": 16, "time_elapsed": 188623, "internal_node_id": "0.0-4.0-12.0"}}, {"uniqueid": "w77732981:a55706958", "current_trial": 17, "dateTime": 1664873577765, "trialdata": {"rt": 1848, "stimulus": "<p id='stroop-text' class='stroop-red'>RED</p>", "response": "r", "stimulus-type": "congruent", "word": "red", "color": "red", "correct_response": "r", "trial_id": "stroop-trial-1-congruent-14", "trial_type": "html-keyboard-response", "trial_index": 17, "time_elapsed": 190974, "internal_node_id": "0.0-4.0-13.0"}}, {"uniqueid": "w77732981:a55706958", "current_trial": 18, "dateTime": 1664873579301, "trialdata": {"rt": 1034, "stimulus": "<p id='stroop-text' class='stroop-red'>YELLOW</p>", "response": "r", "stimulus-type": "incongruent", "word": "yellow", "color": "red", "correct_response": "r", "trial_id": "stroop-trial-1-incongruent-8", "trial_type": "html-keyboard-response", "trial_index": 18, "time_elapsed": 192511, "internal_node_id": "0.0-4.0-14.0"}}, {"uniqueid": "w77732981:a55706958", "current_trial": 19, "dateTime": 1664873581461, "trialdata": {"rt": 1656, "stimulus": "<p id='stroop-text' class='stroop-yellow'>YELLOW</p>", "response": "y", "stimulus-type": "congruent", "word": "yellow", "color": "yellow", "correct_response": "y", "trial_id": "stroop-trial-1-congruent-2", "trial_type": "html-keyboard-response", "trial_index": 19, "time_elapsed": 194671, "internal_node_id": "0.0-4.0-15.0"}}, {"uniqueid": "w77732981:a55706958", "current_trial": 20, "dateTime": 1664873584724, "trialdata": {"rt": 2760, "stimulus": "<p id='stroop-text' class='stroop-red'>FORK</p>", "response": "r", "stimulus-type": "unrelated", "word": "FORK", "color": "red", "correct_response": "r", "trial_id": "stroop-trial-1-unrelated-8", "trial_type": "html-keyboard-response", "trial_index": 20, "time_elapsed": 197934, "internal_node_id": "0.0-4.0-16.0"}}, {"uniqueid": "w77732981:a55706958", "current_trial": 21, "dateTime": 1664873589205, "trialdata": {"rt": 3976, "stimulus": "<p id='stroop-text' class='stroop-yellow'>YELLOW</p>", "response": "y", "stimulus-type": "congruent", "word": "yellow", "color": "yellow", "correct_response": "y", "trial_id": "stroop-trial-1-congruent-3", "trial_type": "html-keyboard-response", "trial_index": 21, "time_elapsed": 202415, "internal_node_id": "0.0-4.0-17.0"}}, {"uniqueid": "w77732981:a55706958", "current_trial": 22, "dateTime": 1664873591189, "trialdata": {"rt": 1481, "stimulus": "<p id='stroop-text' class='stroop-green'>GREEN</p>", "response": "g", "stimulus-type": "congruent", "word": "green", "color": "green", "correct_response": "g", "trial_id": "stroop-trial-1-congruent-8", "trial_type": "html-keyboard-response", "trial_index": 22, "time_elapsed": 204398, "internal_node_id": "0.0-4.0-18.0"}}, {"uniqueid": "w77732981:a55706958", "current_trial": 23, "dateTime": 1664873592981, "trialdata": {"rt": 1289, "stimulus": "<p id='stroop-text' class='stroop-blue'>BLUE</p>", "response": "b", "stimulus-type": "congruent", "word": "blue", "color": "blue", "correct_response": "b", "trial_id": "stroop-trial-1-congruent-30", "trial_type": "html-keyboard-response", "trial_index": 23, "time_elapsed": 206190, "internal_node_id": "0.0-4.0-19.0"}}, {"uniqueid": "w77732981:a55706958", "current_trial": 24, "dateTime": 1664873595013, "trialdata": {"rt": 1529, "stimulus": "<p id='stroop-text' class='stroop-yellow'>YELLOW</p>", "response": "y", "stimulus-type": "congruent", "word": "yellow", "color": "yellow", "correct_response": "y", "trial_id": "stroop-trial-1-congruent-6", "trial_type": "html-keyboard-response", "trial_index": 24, "time_elapsed": 208222, "internal_node_id": "0.0-4.0-20.0"}}, {"uniqueid": "w77732981:a55706958", "current_trial": 25, "dateTime": 1664873596821, "trialdata": {"rt": 1305, "stimulus": "<p id='stroop-text' class='stroop-yellow'>BLUE</p>", "response": "y", "stimulus-type": "incongruent", "word": "blue", "color": "yellow", "correct_response": "y", "trial_id": "stroop-trial-1-incongruent-7", "trial_type": "html-keyboard-response", "trial_index": 25, "time_elapsed": 210030, "internal_node_id": "0.0-4.0-21.0"}}, {"uniqueid": "w77732981:a55706958", "current_trial": 26, "dateTime": 1664873599317, "trialdata": {"rt": 1995, "stimulus": "<p id='stroop-text' class='stroop-red'>RED</p>", "response": "r", "stimulus-type": "congruent", "word": "red", "color": "red", "correct_response": "r", "trial_id": "stroop-trial-1-congruent-26", "trial_type": "html-keyboard-response", "trial_index": 26, "time_elapsed": 212527, "internal_node_id": "0.0-4.0-22.0"}}, {"uniqueid": "w77732981:a55706958", "current_trial": 27, "dateTime": 1664873601637, "trialdata": {"rt": 1816, "stimulus": "<p id='stroop-text' class='stroop-blue'>DOG</p>", "response": "b", "stimulus-type": "unrelated", "word": "DOG", "color": "blue", "correct_response": "b", "trial_id": "stroop-trial-1-unrelated-5", "trial_type": "html-keyboard-response", "trial_index": 27, "time_elapsed": 214846, "internal_node_id": "0.0-4.0-23.0"}}, {"uniqueid": "w77732981:a55706958", "current_trial": 28, "dateTime": 1664873603221, "trialdata": {"rt": 1082, "stimulus": "<p id='stroop-text' class='stroop-red'>BRIDGE</p>", "response": "r", "stimulus-type": "unrelated", "word": "BRIDGE", "color": "red", "correct_response": "r", "trial_id": "stroop-trial-1-unrelated-15", "trial_type": "html-keyboard-response", "trial_index": 28, "time_elapsed": 216431, "internal_node_id": "0.0-4.0-24.0"}}, {"uniqueid": "w77732981:a55706958", "current_trial": 29, "dateTime": 1664873604661, "trialdata": {"rt": 937, "stimulus": "<p id='stroop-text' class='stroop-blue'>BLUE</p>", "response": "b", "stimulus-type": "congruent", "word": "blue", "color": "blue", "correct_response": "b", "trial_id": "stroop-trial-1-congruent-20", "trial_type": "html-keyboard-response", "trial_index": 29, "time_elapsed": 217870, "internal_node_id": "0.0-4.0-25.0"}}, {"uniqueid": "w77732981:a55706958", "current_trial": 30, "dateTime": 1664873605877, "trialdata": {"rt": 713, "stimulus": "<p id='stroop-text' class='stroop-red'>CHAIR</p>", "response": "r", "stimulus-type": "unrelated", "word": "CHAIR", "color": "red", "correct_response": "r", "trial_id": "stroop-trial-1-unrelated-11", "trial_type": "html-keyboard-response", "trial_index": 30, "time_elapsed": 219086, "internal_node_id": "0.0-4.0-26.0"}}, {"uniqueid": "w77732981:a55706958", "current_trial": 31, "dateTime": 1664873607317, "trialdata": {"rt": 938, "stimulus": "<p id='stroop-text' class='stroop-blue'>BLUE</p>", "response": "b", "stimulus-type": "congruent", "word": "blue", "color": "blue", "correct_response": "b", "trial_id": "stroop-trial-1-congruent-15", "trial_type": "html-keyboard-response", "trial_index": 31, "time_elapsed": 220526, "internal_node_id": "0.0-4.0-27.0"}}, {"uniqueid": "w77732981:a55706958", "current_trial": 32, "dateTime": 1664873608581, "trialdata": {"rt": 762, "stimulus": "<p id='stroop-text' class='stroop-blue'>BLUE</p>", "response": "b", "stimulus-type": "congruent", "word": "blue", "color": "blue", "correct_response": "b", "trial_id": "stroop-trial-1-congruent-16", "trial_type": "html-keyboard-response", "trial_index": 32, "time_elapsed": 221790, "internal_node_id": "0.0-4.0-28.0"}}, {"uniqueid": "w77732981:a55706958", "current_trial": 33, "dateTime": 1664873609797, "trialdata": {"rt": 713, "stimulus": "<p id='stroop-text' class='stroop-red'>RED</p>", "response": "r", "stimulus-type": "congruent", "word": "red", "color": "red", "correct_response": "r", "trial_id": "stroop-trial-1-congruent-28", "trial_type": "html-keyboard-response", "trial_index": 33, "time_elapsed": 223007, "internal_node_id": "0.0-4.0-29.0"}}, {"uniqueid": "w77732981:a55706958", "current_trial": 34, "dateTime": 1664873611717, "trialdata": {"rt": 1417, "stimulus": "<p id='stroop-text' class='stroop-blue'>RED</p>", "response": "b", "stimulus-type": "incongruent", "word": "red", "color": "blue", "correct_response": "b", "trial_id": "stroop-trial-1-incongruent-17", "trial_type": "html-keyboard-response", "trial_index": 34, "time_elapsed": 224926, "internal_node_id": "0.0-4.0-30.0"}}, {"uniqueid": "w77732981:a55706958", "current_trial": 35, "dateTime": 1664873613093, "trialdata": {"rt": 874, "stimulus": "<p id='stroop-text' class='stroop-blue'>BLUE</p>", "response": "b", "stimulus-type": "congruent", "word": "blue", "color": "blue", "correct_response": "b", "trial_id": "stroop-trial-1-congruent-25", "trial_type": "html-keyboard-response", "trial_index": 35, "time_elapsed": 226302, "internal_node_id": "0.0-4.0-31.0"}}, {"uniqueid": "w77732981:a55706958", "current_trial": 36, "dateTime": 1664873614501, "trialdata": {"rt": 905, "stimulus": "<p id='stroop-text' class='stroop-blue'>GREEN</p>", "response": "b", "stimulus-type": "incongruent", "word": "green", "color": "blue", "correct_response": "b", "trial_id": "stroop-trial-1-incongruent-2", "trial_type": "html-keyboard-response", "trial_index": 36, "time_elapsed": 227710, "internal_node_id": "0.0-4.0-32.0"}}, {"uniqueid": "w77732981:a55706958", "current_trial": 37, "dateTime": 1664873615749, "trialdata": {"rt": 744, "stimulus": "<p id='stroop-text' class='stroop-red'>RED</p>", "response": "r", "stimulus-type": "congruent", "word": "red", "color": "red", "correct_response": "r", "trial_id": "stroop-trial-1-congruent-27", "trial_type": "html-keyboard-response", "trial_index": 37, "time_elapsed": 228958, "internal_node_id": "0.0-4.0-33.0"}}, {"uniqueid": "w77732981:a55706958", "current_trial": 38, "dateTime": 1664873617301, "trialdata": {"rt": 1050, "stimulus": "<p id='stroop-text' class='stroop-blue'>YELLOW</p>", "response": "b", "stimulus-type": "incongruent", "word": "yellow", "color": "blue", "correct_response": "b", "trial_id": "stroop-trial-1-incongruent-19", "trial_type": "html-keyboard-response", "trial_index": 38, "time_elapsed": 230510, "internal_node_id": "0.0-4.0-34.0"}}, {"uniqueid": "w77732981:a55706958", "current_trial": 39, "dateTime": 1664873619653, "trialdata": {"rt": 1849, "stimulus": "<p id='stroop-text' class='stroop-yellow'>RED</p>", "response": "y", "stimulus-type": "incongruent", "word": "red", "color": "yellow", "correct_response": "y", "trial_id": "stroop-trial-1-incongruent-11", "trial_type": "html-keyboard-response", "trial_index": 39, "time_elapsed": 232862, "internal_node_id": "0.0-4.0-35.0"}}, {"uniqueid": "w77732981:a55706958", "current_trial": 40, "dateTime": 1664873621717, "trialdata": {"rt": 1550, "stimulus": "<p id='stroop-text' class='stroop-blue'>WINDOW</p>", "response": "b", "stimulus-type": "unrelated", "word": "WINDOW", "color": "blue", "correct_response": "b", "trial_id": "stroop-trial-1-unrelated-9", "trial_type": "html-keyboard-response", "trial_index": 40, "time_elapsed": 234927, "internal_node_id": "0.0-4.0-36.0"}}, {"uniqueid": "w77732981:a55706958", "current_trial": 41, "dateTime": 1664873623525, "trialdata": {"rt": 1304, "stimulus": "<p id='stroop-text' class='stroop-yellow'>BOTTLE</p>", "response": "y", "stimulus-type": "unrelated", "word": "BOTTLE", "color": "yellow", "correct_response": "y", "trial_id": "stroop-trial-1-unrelated-18", "trial_type": "html-keyboard-response", "trial_index": 41, "time_elapsed": 236734, "internal_node_id": "0.0-4.0-37.0"}}, {"uniqueid": "w77732981:a55706958", "current_trial": 42, "dateTime": 1664873625013, "trialdata": {"rt": 985, "stimulus": "<p id='stroop-text' class='stroop-yellow'>BLUE</p>", "response": "y", "stimulus-type": "incongruent", "word": "blue", "color": "yellow", "correct_response": "y", "trial_id": "stroop-trial-1-incongruent-6", "trial_type": "html-keyboard-response", "trial_index": 42, "time_elapsed": 238222, "internal_node_id": "0.0-4.0-38.0"}}, {"uniqueid": "w77732981:a55706958", "current_trial": 43, "dateTime": 1664873626373, "trialdata": {"rt": 857, "stimulus": "<p id='stroop-text' class='stroop-blue'>GREEN</p>", "response": "b", "stimulus-type": "incongruent", "word": "green", "color": "blue", "correct_response": "b", "trial_id": "stroop-trial-1-incongruent-14", "trial_type": "html-keyboard-response", "trial_index": 43, "time_elapsed": 239582, "internal_node_id": "0.0-4.0-39.0"}}, {"uniqueid": "w77732981:a55706958", "current_trial": 44, "dateTime": 1664873628629, "trialdata": {"rt": 1754, "stimulus": "<p id='stroop-text' class='stroop-green'>GREEN</p>", "response": "g", "stimulus-type": "congruent", "word": "green", "color": "green", "correct_response": "g", "trial_id": "stroop-trial-1-congruent-4", "trial_type": "html-keyboard-response", "trial_index": 44, "time_elapsed": 241838, "internal_node_id": "0.0-4.0-40.0"}}, {"uniqueid": "w77732981:a55706958", "current_trial": 45, "dateTime": 1664873630693, "trialdata": {"rt": 1561, "stimulus": "<p id='stroop-text' class='stroop-yellow'>RED</p>", "response": "y", "stimulus-type": "incongruent", "word": "red", "color": "yellow", "correct_response": "y", "trial_id": "stroop-trial-1-incongruent-9", "trial_type": "html-keyboard-response", "trial_index": 45, "time_elapsed": 243902, "internal_node_id": "0.0-4.0-41.0"}}, {"uniqueid": "w77732981:a55706958", "current_trial": 46, "dateTime": 1664873632277, "trialdata": {"rt": 1080, "stimulus": "<p id='stroop-text' class='stroop-red'>CHAIR</p>", "response": "r", "stimulus-type": "unrelated", "word": "CHAIR", "color": "red", "correct_response": "r", "trial_id": "stroop-trial-1-unrelated-7", "trial_type": "html-keyboard-response", "trial_index": 46, "time_elapsed": 245487, "internal_node_id": "0.0-4.0-42.0"}}, {"uniqueid": "w77732981:a55706958", "current_trial": 47, "dateTime": 1664873633941, "trialdata": {"rt": 1161, "stimulus": "<p id='stroop-text' class='stroop-blue'>BRIDGE</p>", "response": "b", "stimulus-type": "unrelated", "word": "BRIDGE", "color": "blue", "correct_response": "b", "trial_id": "stroop-trial-1-unrelated-13", "trial_type": "html-keyboard-response", "trial_index": 47, "time_elapsed": 247150, "internal_node_id": "0.0-4.0-43.0"}}, {"uniqueid": "w77732981:a55706958", "current_trial": 48, "dateTime": 1664873636005, "trialdata": {"rt": 1560, "stimulus": "<p id='stroop-text' class='stroop-red'>BLUE</p>", "response": "r", "stimulus-type": "incongruent", "word": "blue", "color": "red", "correct_response": "r", "trial_id": "stroop-trial-1-incongruent-1", "trial_type": "html-keyboard-response", "trial_index": 48, "time_elapsed": 249214, "internal_node_id": "0.0-4.0-44.0"}}, {"uniqueid": "w77732981:a55706958", "current_trial": 49, "dateTime": 1664873637317, "trialdata": {"rt": 809, "stimulus": "<p id='stroop-text' class='stroop-red'>SHIP</p>", "response": "r", "stimulus-type": "unrelated", "word": "SHIP", "color": "red", "correct_response": "r", "trial_id": "stroop-trial-1-unrelated-4", "trial_type": "html-keyboard-response", "trial_index": 49, "time_elapsed": 250526, "internal_node_id": "0.0-4.0-45.0"}}, {"uniqueid": "w77732981:a55706958", "current_trial": 50, "dateTime": 1664873639125, "trialdata": {"rt": 1303, "stimulus": "<p id='stroop-text' class='stroop-green'>GREEN</p>", "response": "g", "stimulus-type": "congruent", "word": "green", "color": "green", "correct_response": "g", "trial_id": "stroop-trial-1-congruent-19", "trial_type": "html-keyboard-response", "trial_index": 50, "time_elapsed": 252334, "internal_node_id": "0.0-4.0-46.0"}}, {"uniqueid": "w77732981:a55706958", "current_trial": 51, "dateTime": 1664873641029, "trialdata": {"rt": 1401, "stimulus": "<p id='stroop-text' class='stroop-blue'>YELLOW</p>", "response": "b", "stimulus-type": "incongruent", "word": "yellow", "color": "blue", "correct_response": "b", "trial_id": "stroop-trial-1-incongruent-22", "trial_type": "html-keyboard-response", "trial_index": 51, "time_elapsed": 254239, "internal_node_id": "0.0-4.0-47.0"}}, {"uniqueid": "w77732981:a55706958", "current_trial": 52, "dateTime": 1664873644133, "trialdata": {"rt": 2601, "stimulus": "<p id='stroop-text' class='stroop-red'>YELLOW</p>", "response": "r", "stimulus-type": "incongruent", "word": "yellow", "color": "red", "correct_response": "r", "trial_id": "stroop-trial-1-incongruent-30", "trial_type": "html-keyboard-response", "trial_index": 52, "time_elapsed": 257343, "internal_node_id": "0.0-4.0-48.0"}}, {"uniqueid": "w77732981:a55706958", "current_trial": 53, "dateTime": 1664873645701, "trialdata": {"rt": 1065, "stimulus": "<p id='stroop-text' class='stroop-yellow'>GREEN</p>", "response": "y", "stimulus-type": "incongruent", "word": "green", "color": "yellow", "correct_response": "y", "trial_id": "stroop-trial-1-incongruent-12", "trial_type": "html-keyboard-response", "trial_index": 53, "time_elapsed": 258910, "internal_node_id": "0.0-4.0-49.0"}}, {"uniqueid": "w77732981:a55706958", "current_trial": 54, "dateTime": 1664873647077, "trialdata": {"rt": 873, "stimulus": "<p id='stroop-text' class='stroop-red'>BOAT</p>", "response": "r", "stimulus-type": "unrelated", "word": "BOAT", "color": "red", "correct_response": "r", "trial_id": "stroop-trial-1-unrelated-1", "trial_type": "html-keyboard-response", "trial_index": 54, "time_elapsed": 260286, "internal_node_id": "0.0-4.0-50.0"}}, {"uniqueid": "w77732981:a55706958", "current_trial": 55, "dateTime": 1664873649205, "trialdata": {"rt": 1625, "stimulus": "<p id='stroop-text' class='stroop-green'>GREEN</p>", "response": "g", "stimulus-type": "congruent", "word": "green", "color": "green", "correct_response": "g", "trial_id": "stroop-trial-1-congruent-13", "trial_type": "html-keyboard-response", "trial_index": 55, "time_elapsed": 262414, "internal_node_id": "0.0-4.0-51.0"}}, {"uniqueid": "w77732981:a55706958", "current_trial": 56, "dateTime": 1664873650933, "trialdata": {"rt": 1225, "stimulus": "<p id='stroop-text' class='stroop-red'>RED</p>", "response": "r", "stimulus-type": "congruent", "word": "red", "color": "red", "correct_response": "r", "trial_id": "stroop-trial-1-congruent-5", "trial_type": "html-keyboard-response", "trial_index": 56, "time_elapsed": 264142, "internal_node_id": "0.0-4.0-52.0"}}, {"uniqueid": "w77732981:a55706958", "current_trial": 57, "dateTime": 1664873654325, "trialdata": {"rt": 2889, "stimulus": "<p id='stroop-text' class='stroop-green'>WINDOW</p>", "response": "g", "stimulus-type": "unrelated", "word": "WINDOW", "color": "green", "correct_response": "g", "trial_id": "stroop-trial-1-unrelated-27", "trial_type": "html-keyboard-response", "trial_index": 57, "time_elapsed": 267535, "internal_node_id": "0.0-4.0-53.0"}}, {"uniqueid": "w77732981:a55706958", "current_trial": 58, "dateTime": 1664873656741, "trialdata": {"rt": 1911, "stimulus": "<p id='stroop-text' class='stroop-blue'>BLUE</p>", "response": "b", "stimulus-type": "congruent", "word": "blue", "color": "blue", "correct_response": "b", "trial_id": "stroop-trial-1-congruent-18", "trial_type": "html-keyboard-response", "trial_index": 58, "time_elapsed": 269950, "internal_node_id": "0.0-4.0-54.0"}}, {"uniqueid": "w77732981:a55706958", "current_trial": 59, "dateTime": 1664873658021, "trialdata": {"rt": 777, "stimulus": "<p id='stroop-text' class='stroop-blue'>RED</p>", "response": "b", "stimulus-type": "incongruent", "word": "red", "color": "blue", "correct_response": "b", "trial_id": "stroop-trial-1-incongruent-23", "trial_type": "html-keyboard-response", "trial_index": 59, "time_elapsed": 271230, "internal_node_id": "0.0-4.0-55.0"}}, {"uniqueid": "w77732981:a55706958", "current_trial": 60, "dateTime": 1664873660357, "trialdata": {"rt": 1833, "stimulus": "<p id='stroop-text' class='stroop-green'>STONE</p>", "response": "g", "stimulus-type": "unrelated", "word": "STONE", "color": "green", "correct_response": "g", "trial_id": "stroop-trial-1-unrelated-10", "trial_type": "html-keyboard-response", "trial_index": 60, "time_elapsed": 273566, "internal_node_id": "0.0-4.0-56.0"}}, {"uniqueid": "w77732981:a55706958", "current_trial": 61, "dateTime": 1664873661637, "trialdata": {"rt": 777, "stimulus": "<p id='stroop-text' class='stroop-red'>GREEN</p>", "response": "r", "stimulus-type": "incongruent", "word": "green", "color": "red", "correct_response": "r", "trial_id": "stroop-trial-1-incongruent-21", "trial_type": "html-keyboard-response", "trial_index": 61, "time_elapsed": 274847, "internal_node_id": "0.0-4.0-57.0"}}, {"uniqueid": "w77732981:a55706958", "current_trial": 62, "dateTime": 1664873663173, "trialdata": {"rt": 1031, "stimulus": "<p id='stroop-text' class='stroop-yellow'>STONE</p>", "response": "y", "stimulus-type": "unrelated", "word": "STONE", "color": "yellow", "correct_response": "y", "trial_id": "stroop-trial-1-unrelated-17", "trial_type": "html-keyboard-response", "trial_index": 62, "time_elapsed": 276382, "internal_node_id": "0.0-4.0-58.0"}}, {"uniqueid": "w77732981:a55706958", "current_trial": 63, "dateTime": 1664873665269, "trialdata": {"rt": 1593, "stimulus": "<p id='stroop-text' class='stroop-green'>BRIDGE</p>", "response": "g", "stimulus-type": "unrelated", "word": "BRIDGE", "color": "green", "correct_response": "g", "trial_id": "stroop-trial-1-unrelated-16", "trial_type": "html-keyboard-response", "trial_index": 63, "time_elapsed": 278479, "internal_node_id": "0.0-4.0-59.0"}}, {"uniqueid": "w77732981:a55706958", "current_trial": 64, "dateTime": 1664873666869, "trialdata": {"rt": 1097, "stimulus": "<p id='stroop-text' class='stroop-yellow'>YELLOW</p>", "response": "y", "stimulus-type": "congruent", "word": "yellow", "color": "yellow", "correct_response": "y", "trial_id": "stroop-trial-1-congruent-9", "trial_type": "html-keyboard-response", "trial_index": 64, "time_elapsed": 280078, "internal_node_id": "0.0-4.0-60.0"}}, {"uniqueid": "w77732981:a55706958", "current_trial": 65, "dateTime": 1664873668117, "trialdata": {"rt": 744, "stimulus": "<p id='stroop-text' class='stroop-yellow'>YELLOW</p>", "response": "y", "stimulus-type": "congruent", "word": "yellow", "color": "yellow", "correct_response": "y", "trial_id": "stroop-trial-1-congruent-12", "trial_type": "html-keyboard-response", "trial_index": 65, "time_elapsed": 281326, "internal_node_id": "0.0-4.0-61.0"}}, {"uniqueid": "w77732981:a55706958", "current_trial": 66, "dateTime": 1664873669525, "trialdata": {"rt": 905, "stimulus": "<p id='stroop-text' class='stroop-red'>BOTTLE</p>", "response": "r", "stimulus-type": "unrelated", "word": "BOTTLE", "color": "red", "correct_response": "r", "trial_id": "stroop-trial-1-unrelated-3", "trial_type": "html-keyboard-response", "trial_index": 66, "time_elapsed": 282734, "internal_node_id": "0.0-4.0-62.0"}}, {"uniqueid": "w77732981:a55706958", "current_trial": 67, "dateTime": 1664873672901, "trialdata": {"rt": 2872, "stimulus": "<p id='stroop-text' class='stroop-red'>BLUE</p>", "response": "r", "stimulus-type": "incongruent", "word": "blue", "color": "red", "correct_response": "r", "trial_id": "stroop-trial-1-incongruent-27", "trial_type": "html-keyboard-response", "trial_index": 67, "time_elapsed": 286110, "internal_node_id": "0.0-4.0-63.0"}}, {"uniqueid": "w77732981:a55706958", "current_trial": 68, "dateTime": 1664873676725, "trialdata": {"rt": 3321, "stimulus": "<p id='stroop-text' class='stroop-blue'>RED</p>", "response": "b", "stimulus-type": "incongruent", "word": "red", "color": "blue", "correct_response": "b", "trial_id": "stroop-trial-1-incongruent-25", "trial_type": "html-keyboard-response", "trial_index": 68, "time_elapsed": 289935, "internal_node_id": "0.0-4.0-64.0"}}, {"uniqueid": "w77732981:a55706958", "current_trial": 69, "dateTime": 1664873678485, "trialdata": {"rt": 1257, "stimulus": "<p id='stroop-text' class='stroop-yellow'>YELLOW</p>", "response": "y", "stimulus-type": "congruent", "word": "yellow", "color": "yellow", "correct_response": "y", "trial_id": "stroop-trial-1-congruent-1", "trial_type": "html-keyboard-response", "trial_index": 69, "time_elapsed": 291694, "internal_node_id": "0.0-4.0-65.0"}}, {"uniqueid": "w77732981:a55706958", "current_trial": 70, "dateTime": 1664873679813, "trialdata": {"rt": 825, "stimulus": "<p id='stroop-text' class='stroop-red'>BRAIN</p>", "response": "r", "stimulus-type": "unrelated", "word": "BRAIN", "color": "red", "correct_response": "r", "trial_id": "stroop-trial-1-unrelated-6", "trial_type": "html-keyboard-response", "trial_index": 70, "time_elapsed": 293022, "internal_node_id": "0.0-4.0-66.0"}}, {"uniqueid": "w77732981:a55706958", "current_trial": 71, "dateTime": 1664873681349, "trialdata": {"rt": 1033, "stimulus": "<p id='stroop-text' class='stroop-blue'>BRAIN</p>", "response": "b", "stimulus-type": "unrelated", "word": "BRAIN", "color": "blue", "correct_response": "b", "trial_id": "stroop-trial-1-unrelated-30", "trial_type": "html-keyboard-response", "trial_index": 71, "time_elapsed": 294558, "internal_node_id": "0.0-4.0-67.0"}}, {"uniqueid": "w77732981:a55706958", "current_trial": 72, "dateTime": 1664873683109, "trialdata": {"rt": 1257, "stimulus": "<p id='stroop-text' class='stroop-red'>YELLOW</p>", "response": "r", "stimulus-type": "incongruent", "word": "yellow", "color": "red", "correct_response": "r", "trial_id": "stroop-trial-1-incongruent-28", "trial_type": "html-keyboard-response", "trial_index": 72, "time_elapsed": 296318, "internal_node_id": "0.0-4.0-68.0"}}, {"uniqueid": "w77732981:a55706958", "current_trial": 73, "dateTime": 1664873684757, "trialdata": {"rt": 1145, "stimulus": "<p id='stroop-text' class='stroop-green'>CHAIR</p>", "response": "g", "stimulus-type": "unrelated", "word": "CHAIR", "color": "green", "correct_response": "g", "trial_id": "stroop-trial-1-unrelated-24", "trial_type": "html-keyboard-response", "trial_index": 73, "time_elapsed": 297966, "internal_node_id": "0.0-4.0-69.0"}}, {"uniqueid": "w77732981:a55706958", "current_trial": 74, "dateTime": 1664873686005, "trialdata": {"rt": 745, "stimulus": "<p id='stroop-text' class='stroop-red'>BLUE</p>", "response": "r", "stimulus-type": "incongruent", "word": "blue", "color": "red", "correct_response": "r", "trial_id": "stroop-trial-1-incongruent-13", "trial_type": "html-keyboard-response", "trial_index": 74, "time_elapsed": 299214, "internal_node_id": "0.0-4.0-70.0"}}, {"uniqueid": "w77732981:a55706958", "current_trial": 75, "dateTime": 1664873687333, "trialdata": {"rt": 823, "stimulus": "<p id='stroop-text' class='stroop-yellow'>YELLOW</p>", "response": "y", "stimulus-type": "congruent", "word": "yellow", "color": "yellow", "correct_response": "y", "trial_id": "stroop-trial-1-congruent-17", "trial_type": "html-keyboard-response", "trial_index": 75, "time_elapsed": 300543, "internal_node_id": "0.0-4.0-71.0"}}, {"uniqueid": "w77732981:a55706958", "current_trial": 76, "dateTime": 1664873688805, "trialdata": {"rt": 968, "stimulus": "<p id='stroop-text' class='stroop-green'>RED</p>", "response": "g", "stimulus-type": "incongruent", "word": "red", "color": "green", "correct_response": "g", "trial_id": "stroop-trial-1-incongruent-3", "trial_type": "html-keyboard-response", "trial_index": 76, "time_elapsed": 302014, "internal_node_id": "0.0-4.0-72.0"}}, {"uniqueid": "w77732981:a55706958", "current_trial": 77, "dateTime": 1664873690517, "trialdata": {"rt": 1208, "stimulus": "<p id='stroop-text' class='stroop-blue'>BRAIN</p>", "response": "b", "stimulus-type": "unrelated", "word": "BRAIN", "color": "blue", "correct_response": "b", "trial_id": "stroop-trial-1-unrelated-14", "trial_type": "html-keyboard-response", "trial_index": 77, "time_elapsed": 303727, "internal_node_id": "0.0-4.0-73.0"}}, {"uniqueid": "w77732981:a55706958", "current_trial": 78, "dateTime": 1664873693189, "trialdata": {"rt": 2169, "stimulus": "<p id='stroop-text' class='stroop-yellow'>BLUE</p>", "response": "y", "stimulus-type": "incongruent", "word": "blue", "color": "yellow", "correct_response": "y", "trial_id": "stroop-trial-1-incongruent-16", "trial_type": "html-keyboard-response", "trial_index": 78, "time_elapsed": 306399, "internal_node_id": "0.0-4.0-74.0"}}, {"uniqueid": "w77732981:a55706958", "current_trial": 79, "dateTime": 1664873694756, "trialdata": {"rt": 1064, "stimulus": "<p id='stroop-text' class='stroop-green'>GREEN</p>", "response": "g", "stimulus-type": "congruent", "word": "green", "color": "green", "correct_response": "g", "trial_id": "stroop-trial-1-congruent-24", "trial_type": "html-keyboard-response", "trial_index": 79, "time_elapsed": 307966, "internal_node_id": "0.0-4.0-75.0"}}, {"uniqueid": "w77732981:a55706958", "current_trial": 80, "dateTime": 1664873696117, "trialdata": {"rt": 856, "stimulus": "<p id='stroop-text' class='stroop-red'>RED</p>", "response": "r", "stimulus-type": "congruent", "word": "red", "color": "red", "correct_response": "r", "trial_id": "stroop-trial-1-congruent-22", "trial_type": "html-keyboard-response", "trial_index": 80, "time_elapsed": 309326, "internal_node_id": "0.0-4.0-76.0"}}, {"uniqueid": "w77732981:a55706958", "current_trial": 81, "dateTime": 1664873697973, "trialdata": {"rt": 1353, "stimulus": "<p id='stroop-text' class='stroop-green'>RED</p>", "response": "g", "stimulus-type": "incongruent", "word": "red", "color": "green", "correct_response": "g", "trial_id": "stroop-trial-1-incongruent-29", "trial_type": "html-keyboard-response", "trial_index": 81, "time_elapsed": 311183, "internal_node_id": "0.0-4.0-77.0"}}, {"uniqueid": "w77732981:a55706958", "current_trial": 82, "dateTime": 1664873699429, "trialdata": {"rt": 953, "stimulus": "<p id='stroop-text' class='stroop-yellow'>WINDOW</p>", "response": "y", "stimulus-type": "unrelated", "word": "WINDOW", "color": "yellow", "correct_response": "y", "trial_id": "stroop-trial-1-unrelated-28", "trial_type": "html-keyboard-response", "trial_index": 82, "time_elapsed": 312638, "internal_node_id": "0.0-4.0-78.0"}}, {"uniqueid": "w77732981:a55706958", "current_trial": 83, "dateTime": 1664873703685, "trialdata": {"rt": 3752, "stimulus": "<p id='stroop-text' class='stroop-blue'>BOTTLE</p>", "response": "b", "stimulus-type": "unrelated", "word": "BOTTLE", "color": "blue", "correct_response": "b", "trial_id": "stroop-trial-1-unrelated-2", "trial_type": "html-keyboard-response", "trial_index": 83, "time_elapsed": 316894, "internal_node_id": "0.0-4.0-79.0"}}, {"uniqueid": "w77732981:a55706958", "current_trial": 84, "dateTime": 1664873706549, "trialdata": {"rt": 2361, "stimulus": "<p id='stroop-text' class='stroop-yellow'>YELLOW</p>", "response": "y", "stimulus-type": "congruent", "word": "yellow", "color": "yellow", "correct_response": "y", "trial_id": "stroop-trial-1-congruent-10", "trial_type": "html-keyboard-response", "trial_index": 84, "time_elapsed": 319758, "internal_node_id": "0.0-4.0-80.0"}}, {"uniqueid": "w77732981:a55706958", "current_trial": 85, "dateTime": 1664873708886, "trialdata": {"rt": 1834, "stimulus": "<p id='stroop-text' class='stroop-blue'>BLUE</p>", "response": "b", "stimulus-type": "congruent", "word": "blue", "color": "blue", "correct_response": "b", "trial_id": "stroop-trial-1-congruent-29", "trial_type": "html-keyboard-response", "trial_index": 85, "time_elapsed": 322095, "internal_node_id": "0.0-4.0-81.0"}}, {"uniqueid": "w77732981:a55706958", "current_trial": 86, "dateTime": 1664873710085, "trialdata": {"rt": 695, "stimulus": "<p id='stroop-text' class='stroop-blue'>DOG</p>", "response": "b", "stimulus-type": "unrelated", "word": "DOG", "color": "blue", "correct_response": "b", "trial_id": "stroop-trial-1-unrelated-29", "trial_type": "html-keyboard-response", "trial_index": 86, "time_elapsed": 323294, "internal_node_id": "0.0-4.0-82.0"}}, {"uniqueid": "w77732981:a55706958", "current_trial": 87, "dateTime": 1664873711621, "trialdata": {"rt": 1032, "stimulus": "<p id='stroop-text' class='stroop-blue'>CHAIR</p>", "response": "b", "stimulus-type": "unrelated", "word": "CHAIR", "color": "blue", "correct_response": "b", "trial_id": "stroop-trial-1-unrelated-21", "trial_type": "html-keyboard-response", "trial_index": 87, "time_elapsed": 324830, "internal_node_id": "0.0-4.0-83.0"}}, {"uniqueid": "w77732981:a55706958", "current_trial": 88, "dateTime": 1664873713061, "trialdata": {"rt": 937, "stimulus": "<p id='stroop-text' class='stroop-yellow'>YELLOW</p>", "response": "y", "stimulus-type": "congruent", "word": "yellow", "color": "yellow", "correct_response": "y", "trial_id": "stroop-trial-1-congruent-23", "trial_type": "html-keyboard-response", "trial_index": 88, "time_elapsed": 326270, "internal_node_id": "0.0-4.0-84.0"}}, {"uniqueid": "w77732981:a55706958", "current_trial": 89, "dateTime": 1664873714500, "trialdata": {"rt": 935, "stimulus": "<p id='stroop-text' class='stroop-red'>RED</p>", "response": "r", "stimulus-type": "congruent", "word": "red", "color": "red", "correct_response": "r", "trial_id": "stroop-trial-1-congruent-21", "trial_type": "html-keyboard-response", "trial_index": 89, "time_elapsed": 327710, "internal_node_id": "0.0-4.0-85.0"}}, {"uniqueid": "w77732981:a55706958", "current_trial": 90, "dateTime": 1664873716181, "trialdata": {"rt": 1177, "stimulus": "<p id='stroop-text' class='stroop-red'>BLUE</p>", "response": "r", "stimulus-type": "incongruent", "word": "blue", "color": "red", "correct_response": "r", "trial_id": "stroop-trial-1-incongruent-5", "trial_type": "html-keyboard-response", "trial_index": 90, "time_elapsed": 329390, "internal_node_id": "0.0-4.0-86.0"}}, {"uniqueid": "w77732981:a55706958", "current_trial": 91, "dateTime": 1664873717493, "trialdata": {"rt": 809, "stimulus": "<p id='stroop-text' class='stroop-green'>RED</p>", "response": "g", "stimulus-type": "incongruent", "word": "red", "color": "green", "correct_response": "g", "trial_id": "stroop-trial-1-incongruent-4", "trial_type": "html-keyboard-response", "trial_index": 91, "time_elapsed": 330702, "internal_node_id": "0.0-4.0-87.0"}}, {"uniqueid": "w77732981:a55706958", "current_trial": 92, "dateTime": 1664873718853, "trialdata": {"rt": 855, "stimulus": "<p id='stroop-text' class='stroop-green'>YELLOW</p>", "response": "g", "stimulus-type": "incongruent", "word": "yellow", "color": "green", "correct_response": "g", "trial_id": "stroop-trial-1-incongruent-24", "trial_type": "html-keyboard-response", "trial_index": 92, "time_elapsed": 332063, "internal_node_id": "0.0-4.0-88.0"}}, {"uniqueid": "w77732981:a55706958", "current_trial": 93, "dateTime": 1664873720709, "trialdata": {"rt": 1348, "stimulus": "<p id='stroop-text' class='stroop-yellow'>SHIP</p>", "response": "y", "stimulus-type": "unrelated", "word": "SHIP", "color": "yellow", "correct_response": "y", "trial_id": "stroop-trial-1-unrelated-12", "trial_type": "html-keyboard-response", "trial_index": 93, "time_elapsed": 333919, "internal_node_id": "0.0-4.0-89.0"}}, {"uniqueid": "w77732981:a55706958", "current_trial": 94, "dateTime": 1664873740309, "trialdata": {"rt": 19092, "stimulus": "  <h1> End of block! </h1>\n\n  You have reached the end of the block 1/5. If you need a short break, feel free to take one now before moving on.\n\n  <br><br>\n  In the next block, you will complete another 90 rounds of this game.\n\n  <br><br>\n  <div style='text-align: center;'>Press <code>space</code> to begin.</div>\n  <br><br>\n<div style='text-align: center;'>(If the experiment doesn't continue, try clicking on the text and then pressing <code>space</code>.)</div>", "response": " ", "trial_id": "stroop_1_ready_2", "trial_type": "html-keyboard-response", "trial_index": 94, "time_elapsed": 353519, "internal_node_id": "0.0-5.0"}}, {"uniqueid": "w77732981:a55706958", "current_trial": 95, "dateTime": 1664873743461, "trialdata": {"rt": 3147, "stimulus": "<p id='stroop-text' class='stroop-green'>GREEN</p>", "response": "g", "stimulus-type": "congruent", "word": "green", "color": "green", "correct_response": "g", "trial_id": "stroop-trial-1-congruent-24", "trial_type": "html-keyboard-response", "trial_index": 95, "time_elapsed": 356670, "internal_node_id": "0.0-6.0-0.0"}}, {"uniqueid": "w77732981:a55706958", "current_trial": 96, "dateTime": 1664873744885, "trialdata": {"rt": 921, "stimulus": "<p id='stroop-text' class='stroop-yellow'>YELLOW</p>", "response": "y", "stimulus-type": "congruent", "word": "yellow", "color": "yellow", "correct_response": "y", "trial_id": "stroop-trial-1-congruent-3", "trial_type": "html-keyboard-response", "trial_index": 96, "time_elapsed": 358094, "internal_node_id": "0.0-6.0-1.0"}}, {"uniqueid": "w77732981:a55706958", "current_trial": 97, "dateTime": 1664873746277, "trialdata": {"rt": 887, "stimulus": "<p id='stroop-text' class='stroop-yellow'>YELLOW</p>", "response": "y", "stimulus-type": "congruent", "word": "yellow", "color": "yellow", "correct_response": "y", "trial_id": "stroop-trial-1-congruent-7", "trial_type": "html-keyboard-response", "trial_index": 97, "time_elapsed": 359486, "internal_node_id": "0.0-6.0-2.0"}}, {"uniqueid": "w77732981:a55706958", "current_trial": 98, "dateTime": 1664873747525, "trialdata": {"rt": 745, "stimulus": "<p id='stroop-text' class='stroop-green'>MONKEY</p>", "response": "g", "stimulus-type": "unrelated", "word": "MONKEY", "color": "green", "correct_response": "g", "trial_id": "stroop-trial-1-unrelated-29", "trial_type": "html-keyboard-response", "trial_index": 98, "time_elapsed": 360734, "internal_node_id": "0.0-6.0-3.0"}}, {"uniqueid": "w77732981:a55706958", "current_trial": 99, "dateTime": 1664873750694, "trialdata": {"rt": 2666, "stimulus": "<p id='stroop-text' class='stroop-blue'>RED</p>", "response": "b", "stimulus-type": "incongruent", "word": "red", "color": "blue", "correct_response": "b", "trial_id": "stroop-trial-1-incongruent-26", "trial_type": "html-keyboard-response", "trial_index": 99, "time_elapsed": 363903, "internal_node_id": "0.0-6.0-4.0"}}, {"uniqueid": "w77732981:a55706958", "current_trial": 100, "dateTime": 1664873751845, "trialdata": {"rt": 648, "stimulus": "<p id='stroop-text' class='stroop-blue'>GREEN</p>", "response": "b", "stimulus-type": "incongruent", "word": "green", "color": "blue", "correct_response": "b", "trial_id": "stroop-trial-1-incongruent-30", "trial_type": "html-keyboard-response", "trial_index": 100, "time_elapsed": 365055, "internal_node_id": "0.0-6.0-5.0"}}, {"uniqueid": "w77732981:a55706958", "current_trial": 101, "dateTime": 1664873753077, "trialdata": {"rt": 729, "stimulus": "<p id='stroop-text' class='stroop-blue'>BLUE</p>", "response": "b", "stimulus-type": "congruent", "word": "blue", "color": "blue", "correct_response": "b", "trial_id": "stroop-trial-1-congruent-17", "trial_type": "html-keyboard-response", "trial_index": 101, "time_elapsed": 366286, "internal_node_id": "0.0-6.0-6.0"}}, {"uniqueid": "w77732981:a55706958", "current_trial": 102, "dateTime": 1664873754805, "trialdata": {"rt": 1224, "stimulus": "<p id='stroop-text' class='stroop-red'>BOTTLE</p>", "response": "r", "stimulus-type": "unrelated", "word": "BOTTLE", "color": "red", "correct_response": "r", "trial_id": "stroop-trial-1-unrelated-10", "trial_type": "html-keyboard-response", "trial_index": 102, "time_elapsed": 368015, "internal_node_id": "0.0-6.0-7.0"}}, {"uniqueid": "w77732981:a55706958", "current_trial": 103, "dateTime": 1664873756133, "trialdata": {"rt": 824, "stimulus": "<p id='stroop-text' class='stroop-yellow'>BRIDGE</p>", "response": "y", "stimulus-type": "unrelated", "word": "BRIDGE", "color": "yellow", "correct_response": "y", "trial_id": "stroop-trial-1-unrelated-7", "trial_type": "html-keyboard-response", "trial_index": 103, "time_elapsed": 369342, "internal_node_id": "0.0-6.0-8.0"}}, {"uniqueid": "w77732981:a55706958", "current_trial": 104, "dateTime": 1664873757509, "trialdata": {"rt": 871, "stimulus": "<p id='stroop-text' class='stroop-yellow'>YELLOW</p>", "response": "y", "stimulus-type": "congruent", "word": "yellow", "color": "yellow", "correct_response": "y", "trial_id": "stroop-trial-1-congruent-5", "trial_type": "html-keyboard-response", "trial_index": 104, "time_elapsed": 370718, "internal_node_id": "0.0-6.0-9.0"}}, {"uniqueid": "w77732981:a55706958", "current_trial": 105, "dateTime": 1664873758917, "trialdata": {"rt": 905, "stimulus": "<p id='stroop-text' class='stroop-yellow'>RED</p>", "response": "y", "stimulus-type": "incongruent", "word": "red", "color": "yellow", "correct_response": "y", "trial_id": "stroop-trial-1-incongruent-8", "trial_type": "html-keyboard-response", "trial_index": 105, "time_elapsed": 372126, "internal_node_id": "0.0-6.0-10.0"}}, {"uniqueid": "w77732981:a55706958", "current_trial": 106, "dateTime": 1664873760261, "trialdata": {"rt": 841, "stimulus": "<p id='stroop-text' class='stroop-yellow'>BLUE</p>", "response": "y", "stimulus-type": "incongruent", "word": "blue", "color": "yellow", "correct_response": "y", "trial_id": "stroop-trial-1-incongruent-4", "trial_type": "html-keyboard-response", "trial_index": 106, "time_elapsed": 373470, "internal_node_id": "0.0-6.0-11.0"}}, {"uniqueid": "w77732981:a55706958", "current_trial": 107, "dateTime": 1664873761829, "trialdata": {"rt": 1063, "stimulus": "<p id='stroop-text' class='stroop-red'>RED</p>", "response": "r", "stimulus-type": "congruent", "word": "red", "color": "red", "correct_response": "r", "trial_id": "stroop-trial-1-congruent-13", "trial_type": "html-keyboard-response", "trial_index": 107, "time_elapsed": 375039, "internal_node_id": "0.0-6.0-12.0"}}, {"uniqueid": "w77732981:a55706958", "current_trial": 108, "dateTime": 1664873763477, "trialdata": {"rt": 1144, "stimulus": "<p id='stroop-text' class='stroop-green'>YELLOW</p>", "response": "g", "stimulus-type": "incongruent", "word": "yellow", "color": "green", "correct_response": "g", "trial_id": "stroop-trial-1-incongruent-12", "trial_type": "html-keyboard-response", "trial_index": 108, "time_elapsed": 376686, "internal_node_id": "0.0-6.0-13.0"}}, {"uniqueid": "w77732981:a55706958", "current_trial": 109, "dateTime": 1664873765077, "trialdata": {"rt": 1096, "stimulus": "<p id='stroop-text' class='stroop-blue'>BLUE</p>", "response": "b", "stimulus-type": "congruent", "word": "blue", "color": "blue", "correct_response": "b", "trial_id": "stroop-trial-1-congruent-12", "trial_type": "html-keyboard-response", "trial_index": 109, "time_elapsed": 378286, "internal_node_id": "0.0-6.0-14.0"}}, {"uniqueid": "w77732981:a55706958", "current_trial": 110, "dateTime": 1664873766773, "trialdata": {"rt": 1193, "stimulus": "<p id='stroop-text' class='stroop-green'>STONE</p>", "response": "g", "stimulus-type": "unrelated", "word": "STONE", "color": "green", "correct_response": "g", "trial_id": "stroop-trial-1-unrelated-5", "trial_type": "html-keyboard-response", "trial_index": 110, "time_elapsed": 379982, "internal_node_id": "0.0-6.0-15.0"}}, {"uniqueid": "w77732981:a55706958", "current_trial": 111, "dateTime": 1664873768133, "trialdata": {"rt": 857, "stimulus": "<p id='stroop-text' class='stroop-yellow'>CHAIR</p>", "response": "y", "stimulus-type": "unrelated", "word": "CHAIR", "color": "yellow", "correct_response": "y", "trial_id": "stroop-trial-1-unrelated-13", "trial_type": "html-keyboard-response", "trial_index": 111, "time_elapsed": 381342, "internal_node_id": "0.0-6.0-16.0"}}, {"uniqueid": "w77732981:a55706958", "current_trial": 112, "dateTime": 1664873769685, "trialdata": {"rt": 1047, "stimulus": "<p id='stroop-text' class='stroop-blue'>BOAT</p>", "response": "b", "stimulus-type": "unrelated", "word": "BOAT", "color": "blue", "correct_response": "b", "trial_id": "stroop-trial-1-unrelated-11", "trial_type": "html-keyboard-response", "trial_index": 112, "time_elapsed": 382894, "internal_node_id": "0.0-6.0-17.0"}}, {"uniqueid": "w77732981:a55706958", "current_trial": 113, "dateTime": 1664873771141, "trialdata": {"rt": 953, "stimulus": "<p id='stroop-text' class='stroop-yellow'>YELLOW</p>", "response": "y", "stimulus-type": "congruent", "word": "yellow", "color": "yellow", "correct_response": "y", "trial_id": "stroop-trial-1-congruent-15", "trial_type": "html-keyboard-response", "trial_index": 113, "time_elapsed": 384350, "internal_node_id": "0.0-6.0-18.0"}}, {"uniqueid": "w77732981:a55706958", "current_trial": 114, "dateTime": 1664873772373, "trialdata": {"rt": 726, "stimulus": "<p id='stroop-text' class='stroop-red'>RED</p>", "response": "r", "stimulus-type": "congruent", "word": "red", "color": "red", "correct_response": "r", "trial_id": "stroop-trial-1-congruent-26", "trial_type": "html-keyboard-response", "trial_index": 114, "time_elapsed": 385583, "internal_node_id": "0.0-6.0-19.0"}}, {"uniqueid": "w77732981:a55706958", "current_trial": 115, "dateTime": 1664873773733, "trialdata": {"rt": 856, "stimulus": "<p id='stroop-text' class='stroop-red'>BOAT</p>", "response": "r", "stimulus-type": "unrelated", "word": "BOAT", "color": "red", "correct_response": "r", "trial_id": "stroop-trial-1-unrelated-9", "trial_type": "html-keyboard-response", "trial_index": 115, "time_elapsed": 386942, "internal_node_id": "0.0-6.0-20.0"}}, {"uniqueid": "w77732981:a55706958", "current_trial": 116, "dateTime": 1664873775893, "trialdata": {"rt": 1655, "stimulus": "<p id='stroop-text' class='stroop-green'>GREEN</p>", "response": "g", "stimulus-type": "congruent", "word": "green", "color": "green", "correct_response": "g", "trial_id": "stroop-trial-1-congruent-18", "trial_type": "html-keyboard-response", "trial_index": 116, "time_elapsed": 389102, "internal_node_id": "0.0-6.0-21.0"}}, {"uniqueid": "w77732981:a55706958", "current_trial": 117, "dateTime": 1664873777029, "trialdata": {"rt": 632, "stimulus": "<p id='stroop-text' class='stroop-green'>DOG</p>", "response": "g", "stimulus-type": "unrelated", "word": "DOG", "color": "green", "correct_response": "g", "trial_id": "stroop-trial-1-unrelated-18", "trial_type": "html-keyboard-response", "trial_index": 117, "time_elapsed": 390238, "internal_node_id": "0.0-6.0-22.0"}}, {"uniqueid": "w77732981:a55706958", "current_trial": 118, "dateTime": 1664873778646, "trialdata": {"rt": 1113, "stimulus": "<p id='stroop-text' class='stroop-blue'>YELLOW</p>", "response": "b", "stimulus-type": "incongruent", "word": "yellow", "color": "blue", "correct_response": "b", "trial_id": "stroop-trial-1-incongruent-27", "trial_type": "html-keyboard-response", "trial_index": 118, "time_elapsed": 391855, "internal_node_id": "0.0-6.0-23.0"}}, {"uniqueid": "w77732981:a55706958", "current_trial": 119, "dateTime": 1664873780181, "trialdata": {"rt": 1032, "stimulus": "<p id='stroop-text' class='stroop-green'>GREEN</p>", "response": "g", "stimulus-type": "congruent", "word": "green", "color": "green", "correct_response": "g", "trial_id": "stroop-trial-1-congruent-20", "trial_type": "html-keyboard-response", "trial_index": 119, "time_elapsed": 393391, "internal_node_id": "0.0-6.0-24.0"}}, {"uniqueid": "w77732981:a55706958", "current_trial": 120, "dateTime": 1664873783189, "trialdata": {"rt": 2504, "stimulus": "<p id='stroop-text' class='stroop-red'>RED</p>", "response": "r", "stimulus-type": "congruent", "word": "red", "color": "red", "correct_response": "r", "trial_id": "stroop-trial-1-congruent-21", "trial_type": "html-keyboard-response", "trial_index": 120, "time_elapsed": 396399, "internal_node_id": "0.0-6.0-25.0"}}, {"uniqueid": "w77732981:a55706958", "current_trial": 121, "dateTime": 1664873784341, "trialdata": {"rt": 647, "stimulus": "<p id='stroop-text' class='stroop-red'>BOAT</p>", "response": "r", "stimulus-type": "unrelated", "word": "BOAT", "color": "red", "correct_response": "r", "trial_id": "stroop-trial-1-unrelated-14", "trial_type": "html-keyboard-response", "trial_index": 121, "time_elapsed": 397550, "internal_node_id": "0.0-6.0-26.0"}}, {"uniqueid": "w77732981:a55706958", "current_trial": 122, "dateTime": 1664873786021, "trialdata": {"rt": 1177, "stimulus": "<p id='stroop-text' class='stroop-blue'>BLUE</p>", "response": "b", "stimulus-type": "congruent", "word": "blue", "color": "blue", "correct_response": "b", "trial_id": "stroop-trial-1-congruent-6", "trial_type": "html-keyboard-response", "trial_index": 122, "time_elapsed": 399230, "internal_node_id": "0.0-6.0-27.0"}}, {"uniqueid": "w77732981:a55706958", "current_trial": 123, "dateTime": 1664873787941, "trialdata": {"rt": 1414, "stimulus": "<p id='stroop-text' class='stroop-red'>BLUE</p>", "response": "r", "stimulus-type": "incongruent", "word": "blue", "color": "red", "correct_response": "r", "trial_id": "stroop-trial-1-incongruent-28", "trial_type": "html-keyboard-response", "trial_index": 123, "time_elapsed": 401150, "internal_node_id": "0.0-6.0-28.0"}}, {"uniqueid": "w77732981:a55706958", "current_trial": 124, "dateTime": 1664873789237, "trialdata": {"rt": 792, "stimulus": "<p id='stroop-text' class='stroop-yellow'>BRAIN</p>", "response": "y", "stimulus-type": "unrelated", "word": "BRAIN", "color": "yellow", "correct_response": "y", "trial_id": "stroop-trial-1-unrelated-30", "trial_type": "html-keyboard-response", "trial_index": 124, "time_elapsed": 402447, "internal_node_id": "0.0-6.0-29.0"}}, {"uniqueid": "w77732981:a55706958", "current_trial": 125, "dateTime": 1664873790421, "trialdata": {"rt": 680, "stimulus": "<p id='stroop-text' class='stroop-yellow'>BLUE</p>", "response": "y", "stimulus-type": "incongruent", "word": "blue", "color": "yellow", "correct_response": "y", "trial_id": "stroop-trial-1-incongruent-17", "trial_type": "html-keyboard-response", "trial_index": 125, "time_elapsed": 403630, "internal_node_id": "0.0-6.0-30.0"}}, {"uniqueid": "w77732981:a55706958", "current_trial": 126, "dateTime": 1664873791925, "trialdata": {"rt": 1000, "stimulus": "<p id='stroop-text' class='stroop-blue'>BLUE</p>", "response": "b", "stimulus-type": "congruent", "word": "blue", "color": "blue", "correct_response": "b", "trial_id": "stroop-trial-1-congruent-28", "trial_type": "html-keyboard-response", "trial_index": 126, "time_elapsed": 405135, "internal_node_id": "0.0-6.0-31.0"}}, {"uniqueid": "w77732981:a55706958", "current_trial": 127, "dateTime": 1664873793269, "trialdata": {"rt": 840, "stimulus": "<p id='stroop-text' class='stroop-red'>BLUE</p>", "response": "r", "stimulus-type": "incongruent", "word": "blue", "color": "red", "correct_response": "r", "trial_id": "stroop-trial-1-incongruent-1", "trial_type": "html-keyboard-response", "trial_index": 127, "time_elapsed": 406479, "internal_node_id": "0.0-6.0-32.0"}}, {"uniqueid": "w77732981:a55706958", "current_trial": 128, "dateTime": 1664873794949, "trialdata": {"rt": 1176, "stimulus": "<p id='stroop-text' class='stroop-blue'>RED</p>", "response": "b", "stimulus-type": "incongruent", "word": "red", "color": "blue", "correct_response": "b", "trial_id": "stroop-trial-1-incongruent-21", "trial_type": "html-keyboard-response", "trial_index": 128, "time_elapsed": 408158, "internal_node_id": "0.0-6.0-33.0"}}, {"uniqueid": "w77732981:a55706958", "current_trial": 129, "dateTime": 1664873796501, "trialdata": {"rt": 1047, "stimulus": "<p id='stroop-text' class='stroop-green'>BLUE</p>", "response": "g", "stimulus-type": "incongruent", "word": "blue", "color": "green", "correct_response": "g", "trial_id": "stroop-trial-1-incongruent-10", "trial_type": "html-keyboard-response", "trial_index": 129, "time_elapsed": 409710, "internal_node_id": "0.0-6.0-34.0"}}, {"uniqueid": "w77732981:a55706958", "current_trial": 130, "dateTime": 1664873797829, "trialdata": {"rt": 825, "stimulus": "<p id='stroop-text' class='stroop-yellow'>YELLOW</p>", "response": "y", "stimulus-type": "congruent", "word": "yellow", "color": "yellow", "correct_response": "y", "trial_id": "stroop-trial-1-congruent-9", "trial_type": "html-keyboard-response", "trial_index": 130, "time_elapsed": 411038, "internal_node_id": "0.0-6.0-35.0"}}, {"uniqueid": "w77732981:a55706958", "current_trial": 131, "dateTime": 1664873799173, "trialdata": {"rt": 839, "stimulus": "<p id='stroop-text' class='stroop-yellow'>BLUE</p>", "response": "y", "stimulus-type": "incongruent", "word": "blue", "color": "yellow", "correct_response": "y", "trial_id": "stroop-trial-1-incongruent-22", "trial_type": "html-keyboard-response", "trial_index": 131, "time_elapsed": 412382, "internal_node_id": "0.0-6.0-36.0"}}, {"uniqueid": "w77732981:a55706958", "current_trial": 132, "dateTime": 1664873800533, "trialdata": {"rt": 857, "stimulus": "<p id='stroop-text' class='stroop-yellow'>RED</p>", "response": "y", "stimulus-type": "incongruent", "word": "red", "color": "yellow", "correct_response": "y", "trial_id": "stroop-trial-1-incongruent-11", "trial_type": "html-keyboard-response", "trial_index": 132, "time_elapsed": 413742, "internal_node_id": "0.0-6.0-37.0"}}, {"uniqueid": "w77732981:a55706958", "current_trial": 133, "dateTime": 1664873802789, "trialdata": {"rt": 1751, "stimulus": "<p id='stroop-text' class='stroop-green'>GREEN</p>", "response": "g", "stimulus-type": "congruent", "word": "green", "color": "green", "correct_response": "g", "trial_id": "stroop-trial-1-congruent-1", "trial_type": "html-keyboard-response", "trial_index": 133, "time_elapsed": 415998, "internal_node_id": "0.0-6.0-38.0"}}, {"uniqueid": "w77732981:a55706958", "current_trial": 134, "dateTime": 1664873804869, "trialdata": {"rt": 1577, "stimulus": "<p id='stroop-text' class='stroop-blue'>GREEN</p>", "response": "b", "stimulus-type": "incongruent", "word": "green", "color": "blue", "correct_response": "b", "trial_id": "stroop-trial-1-incongruent-18", "trial_type": "html-keyboard-response", "trial_index": 134, "time_elapsed": 418079, "internal_node_id": "0.0-6.0-39.0"}}, {"uniqueid": "w77732981:a55706958", "current_trial": 135, "dateTime": 1664873808149, "trialdata": {"rt": 2774, "stimulus": "<p id='stroop-text' class='stroop-yellow'>CHAIR</p>", "response": "y", "stimulus-type": "unrelated", "word": "CHAIR", "color": "yellow", "correct_response": "y", "trial_id": "stroop-trial-1-unrelated-17", "trial_type": "html-keyboard-response", "trial_index": 135, "time_elapsed": 421358, "internal_node_id": "0.0-6.0-40.0"}}, {"uniqueid": "w77732981:a55706958", "current_trial": 136, "dateTime": 1664873809637, "trialdata": {"rt": 985, "stimulus": "<p id='stroop-text' class='stroop-red'>GREEN</p>", "response": "r", "stimulus-type": "incongruent", "word": "green", "color": "red", "correct_response": "r", "trial_id": "stroop-trial-1-incongruent-13", "trial_type": "html-keyboard-response", "trial_index": 136, "time_elapsed": 422846, "internal_node_id": "0.0-6.0-41.0"}}, {"uniqueid": "w77732981:a55706958", "current_trial": 137, "dateTime": 1664873811269, "trialdata": {"rt": 1129, "stimulus": "<p id='stroop-text' class='stroop-blue'>BOTTLE</p>", "response": "b", "stimulus-type": "unrelated", "word": "BOTTLE", "color": "blue", "correct_response": "b", "trial_id": "stroop-trial-1-unrelated-6", "trial_type": "html-keyboard-response", "trial_index": 137, "time_elapsed": 424478, "internal_node_id": "0.0-6.0-42.0"}}, {"uniqueid": "w77732981:a55706958", "current_trial": 138, "dateTime": 1664873813109, "trialdata": {"rt": 1336, "stimulus": "<p id='stroop-text' class='stroop-red'>GREEN</p>", "response": "r", "stimulus-type": "incongruent", "word": "green", "color": "red", "correct_response": "r", "trial_id": "stroop-trial-1-incongruent-20", "trial_type": "html-keyboard-response", "trial_index": 138, "time_elapsed": 426318, "internal_node_id": "0.0-6.0-43.0"}}, {"uniqueid": "w77732981:a55706958", "current_trial": 139, "dateTime": 1664873817174, "trialdata": {"rt": 3559, "stimulus": "<p id='stroop-text' class='stroop-yellow'>BLUE</p>", "response": "y", "stimulus-type": "incongruent", "word": "blue", "color": "yellow", "correct_response": "y", "trial_id": "stroop-trial-1-incongruent-6", "trial_type": "html-keyboard-response", "trial_index": 139, "time_elapsed": 430383, "internal_node_id": "0.0-6.0-44.0"}}, {"uniqueid": "w77732981:a55706958", "current_trial": 140, "dateTime": 1664873818933, "trialdata": {"rt": 1256, "stimulus": "<p id='stroop-text' class='stroop-blue'>BLUE</p>", "response": "b", "stimulus-type": "congruent", "word": "blue", "color": "blue", "correct_response": "b", "trial_id": "stroop-trial-1-congruent-23", "trial_type": "html-keyboard-response", "trial_index": 140, "time_elapsed": 432142, "internal_node_id": "0.0-6.0-45.0"}}, {"uniqueid": "w77732981:a55706958", "current_trial": 141, "dateTime": 1664873820293, "trialdata": {"rt": 855, "stimulus": "<p id='stroop-text' class='stroop-red'>RED</p>", "response": "r", "stimulus-type": "congruent", "word": "red", "color": "red", "correct_response": "r", "trial_id": "stroop-trial-1-congruent-14", "trial_type": "html-keyboard-response", "trial_index": 141, "time_elapsed": 433502, "internal_node_id": "0.0-6.0-46.0"}}, {"uniqueid": "w77732981:a55706958", "current_trial": 142, "dateTime": 1664873822005, "trialdata": {"rt": 1209, "stimulus": "<p id='stroop-text' class='stroop-red'>YELLOW</p>", "response": "r", "stimulus-type": "incongruent", "word": "yellow", "color": "red", "correct_response": "r", "trial_id": "stroop-trial-1-incongruent-2", "trial_type": "html-keyboard-response", "trial_index": 142, "time_elapsed": 435214, "internal_node_id": "0.0-6.0-47.0"}}, {"uniqueid": "w77732981:a55706958", "current_trial": 143, "dateTime": 1664873824805, "trialdata": {"rt": 2297, "stimulus": "<p id='stroop-text' class='stroop-blue'>GREEN</p>", "response": "b", "stimulus-type": "incongruent", "word": "green", "color": "blue", "correct_response": "b", "trial_id": "stroop-trial-1-incongruent-7", "trial_type": "html-keyboard-response", "trial_index": 143, "time_elapsed": 438014, "internal_node_id": "0.0-6.0-48.0"}}, {"uniqueid": "w77732981:a55706958", "current_trial": 144, "dateTime": 1664873826789, "trialdata": {"rt": 1481, "stimulus": "<p id='stroop-text' class='stroop-blue'>WINDOW</p>", "response": "b", "stimulus-type": "unrelated", "word": "WINDOW", "color": "blue", "correct_response": "b", "trial_id": "stroop-trial-1-unrelated-22", "trial_type": "html-keyboard-response", "trial_index": 144, "time_elapsed": 439998, "internal_node_id": "0.0-6.0-49.0"}}, {"uniqueid": "w77732981:a55706958", "current_trial": 145, "dateTime": 1664873828469, "trialdata": {"rt": 1175, "stimulus": "<p id='stroop-text' class='stroop-green'>GREEN</p>", "response": "g", "stimulus-type": "congruent", "word": "green", "color": "green", "correct_response": "g", "trial_id": "stroop-trial-1-congruent-19", "trial_type": "html-keyboard-response", "trial_index": 145, "time_elapsed": 441679, "internal_node_id": "0.0-6.0-50.0"}}, {"uniqueid": "w77732981:a55706958", "current_trial": 146, "dateTime": 1664873829797, "trialdata": {"rt": 824, "stimulus": "<p id='stroop-text' class='stroop-red'>RED</p>", "response": "r", "stimulus-type": "congruent", "word": "red", "color": "red", "correct_response": "r", "trial_id": "stroop-trial-1-congruent-2", "trial_type": "html-keyboard-response", "trial_index": 146, "time_elapsed": 443006, "internal_node_id": "0.0-6.0-51.0"}}, {"uniqueid": "w77732981:a55706958", "current_trial": 147, "dateTime": 1664873831141, "trialdata": {"rt": 841, "stimulus": "<p id='stroop-text' class='stroop-yellow'>BLUE</p>", "response": "y", "stimulus-type": "incongruent", "word": "blue", "color": "yellow", "correct_response": "y", "trial_id": "stroop-trial-1-incongruent-14", "trial_type": "html-keyboard-response", "trial_index": 147, "time_elapsed": 444350, "internal_node_id": "0.0-6.0-52.0"}}, {"uniqueid": "w77732981:a55706958", "current_trial": 148, "dateTime": 1664873833109, "trialdata": {"rt": 1464, "stimulus": "<p id='stroop-text' class='stroop-blue'>BLUE</p>", "response": "b", "stimulus-type": "congruent", "word": "blue", "color": "blue", "correct_response": "b", "trial_id": "stroop-trial-1-congruent-8", "trial_type": "html-keyboard-response", "trial_index": 148, "time_elapsed": 446318, "internal_node_id": "0.0-6.0-53.0"}}, {"uniqueid": "w77732981:a55706958", "current_trial": 149, "dateTime": 1664873834597, "trialdata": {"rt": 983, "stimulus": "<p id='stroop-text' class='stroop-red'>CHAIR</p>", "response": "r", "stimulus-type": "unrelated", "word": "CHAIR", "color": "red", "correct_response": "r", "trial_id": "stroop-trial-1-unrelated-27", "trial_type": "html-keyboard-response", "trial_index": 149, "time_elapsed": 447806, "internal_node_id": "0.0-6.0-54.0"}}, {"uniqueid": "w77732981:a55706958", "current_trial": 150, "dateTime": 1664873836357, "trialdata": {"rt": 1256, "stimulus": "<p id='stroop-text' class='stroop-yellow'>DOG</p>", "response": "y", "stimulus-type": "unrelated", "word": "DOG", "color": "yellow", "correct_response": "y", "trial_id": "stroop-trial-1-unrelated-28", "trial_type": "html-keyboard-response", "trial_index": 150, "time_elapsed": 449566, "internal_node_id": "0.0-6.0-55.0"}}, {"uniqueid": "w77732981:a55706958", "current_trial": 151, "dateTime": 1664873838725, "trialdata": {"rt": 1864, "stimulus": "<p id='stroop-text' class='stroop-green'>RED</p>", "response": "g", "stimulus-type": "incongruent", "word": "red", "color": "green", "correct_response": "g", "trial_id": "stroop-trial-1-incongruent-3", "trial_type": "html-keyboard-response", "trial_index": 151, "time_elapsed": 451935, "internal_node_id": "0.0-6.0-56.0"}}, {"uniqueid": "w77732981:a55706958", "current_trial": 152, "dateTime": 1664873842197, "trialdata": {"rt": 2968, "stimulus": "<p id='stroop-text' class='stroop-yellow'>YELLOW</p>", "response": "y", "stimulus-type": "congruent", "word": "yellow", "color": "yellow", "correct_response": "y", "trial_id": "stroop-trial-1-congruent-22", "trial_type": "html-keyboard-response", "trial_index": 152, "time_elapsed": 455407, "internal_node_id": "0.0-6.0-57.0"}}, {"uniqueid": "w77732981:a55706958", "current_trial": 153, "dateTime": 1664873845557, "trialdata": {"rt": 2856, "stimulus": "<p id='stroop-text' class='stroop-green'>RED</p>", "response": "g", "stimulus-type": "incongruent", "word": "red", "color": "green", "correct_response": "g", "trial_id": "stroop-trial-1-incongruent-5", "trial_type": "html-keyboard-response", "trial_index": 153, "time_elapsed": 458766, "internal_node_id": "0.0-6.0-58.0"}}, {"uniqueid": "w77732981:a55706958", "current_trial": 154, "dateTime": 1664873846885, "trialdata": {"rt": 823, "stimulus": "<p id='stroop-text' class='stroop-yellow'>YELLOW</p>", "response": "y", "stimulus-type": "congruent", "word": "yellow", "color": "yellow", "correct_response": "y", "trial_id": "stroop-trial-1-congruent-29", "trial_type": "html-keyboard-response", "trial_index": 154, "time_elapsed": 460094, "internal_node_id": "0.0-6.0-59.0"}}, {"uniqueid": "w77732981:a55706958", "current_trial": 155, "dateTime": 1664873848213, "trialdata": {"rt": 824, "stimulus": "<p id='stroop-text' class='stroop-yellow'>SHIP</p>", "response": "y", "stimulus-type": "unrelated", "word": "SHIP", "color": "yellow", "correct_response": "y", "trial_id": "stroop-trial-1-unrelated-25", "trial_type": "html-keyboard-response", "trial_index": 155, "time_elapsed": 461422, "internal_node_id": "0.0-6.0-60.0"}}, {"uniqueid": "w77732981:a55706958", "current_trial": 156, "dateTime": 1664873849893, "trialdata": {"rt": 1176, "stimulus": "<p id='stroop-text' class='stroop-blue'>STONE</p>", "response": "b", "stimulus-type": "unrelated", "word": "STONE", "color": "blue", "correct_response": "b", "trial_id": "stroop-trial-1-unrelated-20", "trial_type": "html-keyboard-response", "trial_index": 156, "time_elapsed": 463103, "internal_node_id": "0.0-6.0-61.0"}}, {"uniqueid": "w77732981:a55706958", "current_trial": 157, "dateTime": 1664873852757, "trialdata": {"rt": 2360, "stimulus": "<p id='stroop-text' class='stroop-yellow'>DOG</p>", "response": "y", "stimulus-type": "unrelated", "word": "DOG", "color": "yellow", "correct_response": "y", "trial_id": "stroop-trial-1-unrelated-3", "trial_type": "html-keyboard-response", "trial_index": 157, "time_elapsed": 465966, "internal_node_id": "0.0-6.0-62.0"}}, {"uniqueid": "w77732981:a55706958", "current_trial": 158, "dateTime": 1664873854181, "trialdata": {"rt": 920, "stimulus": "<p id='stroop-text' class='stroop-red'>STONE</p>", "response": "r", "stimulus-type": "unrelated", "word": "STONE", "color": "red", "correct_response": "r", "trial_id": "stroop-trial-1-unrelated-12", "trial_type": "html-keyboard-response", "trial_index": 158, "time_elapsed": 467390, "internal_node_id": "0.0-6.0-63.0"}}, {"uniqueid": "w77732981:a55706958", "current_trial": 159, "dateTime": 1664873855781, "trialdata": {"rt": 1094, "stimulus": "<p id='stroop-text' class='stroop-green'>MONKEY</p>", "response": "g", "stimulus-type": "unrelated", "word": "MONKEY", "color": "green", "correct_response": "g", "trial_id": "stroop-trial-1-unrelated-24", "trial_type": "html-keyboard-response", "trial_index": 159, "time_elapsed": 468991, "internal_node_id": "0.0-6.0-64.0"}}, {"uniqueid": "w77732981:a55706958", "current_trial": 160, "dateTime": 1664873857221, "trialdata": {"rt": 936, "stimulus": "<p id='stroop-text' class='stroop-red'>CHAIR</p>", "response": "r", "stimulus-type": "unrelated", "word": "CHAIR", "color": "red", "correct_response": "r", "trial_id": "stroop-trial-1-unrelated-1", "trial_type": "html-keyboard-response", "trial_index": 160, "time_elapsed": 470430, "internal_node_id": "0.0-6.0-65.0"}}, {"uniqueid": "w77732981:a55706958", "current_trial": 161, "dateTime": 1664873858452, "trialdata": {"rt": 728, "stimulus": "<p id='stroop-text' class='stroop-red'>BOTTLE</p>", "response": "r", "stimulus-type": "unrelated", "word": "BOTTLE", "color": "red", "correct_response": "r", "trial_id": "stroop-trial-1-unrelated-21", "trial_type": "html-keyboard-response", "trial_index": 161, "time_elapsed": 471661, "internal_node_id": "0.0-6.0-66.0"}}, {"uniqueid": "w77732981:a55706958", "current_trial": 162, "dateTime": 1664873861908, "trialdata": {"rt": 2953, "stimulus": "<p id='stroop-text' class='stroop-yellow'>BLUE</p>", "response": "y", "stimulus-type": "incongruent", "word": "blue", "color": "yellow", "correct_response": "y", "trial_id": "stroop-trial-1-incongruent-19", "trial_type": "html-keyboard-response", "trial_index": 162, "time_elapsed": 475118, "internal_node_id": "0.0-6.0-67.0"}}, {"uniqueid": "w77732981:a55706958", "current_trial": 163, "dateTime": 1664873863716, "trialdata": {"rt": 1304, "stimulus": "<p id='stroop-text' class='stroop-blue'>RED</p>", "response": "b", "stimulus-type": "incongruent", "word": "red", "color": "blue", "correct_response": "b", "trial_id": "stroop-trial-1-incongruent-29", "trial_type": "html-keyboard-response", "trial_index": 163, "time_elapsed": 476925, "internal_node_id": "0.0-6.0-68.0"}}, {"uniqueid": "w77732981:a55706958", "current_trial": 164, "dateTime": 1664873865172, "trialdata": {"rt": 951, "stimulus": "<p id='stroop-text' class='stroop-red'>STONE</p>", "response": "r", "stimulus-type": "unrelated", "word": "STONE", "color": "red", "correct_response": "r", "trial_id": "stroop-trial-1-unrelated-16", "trial_type": "html-keyboard-response", "trial_index": 164, "time_elapsed": 478381, "internal_node_id": "0.0-6.0-69.0"}}, {"uniqueid": "w77732981:a55706958", "current_trial": 165, "dateTime": 1664873866644, "trialdata": {"rt": 968, "stimulus": "<p id='stroop-text' class='stroop-yellow'>RED</p>", "response": "y", "stimulus-type": "incongruent", "word": "red", "color": "yellow", "correct_response": "y", "trial_id": "stroop-trial-1-incongruent-16", "trial_type": "html-keyboard-response", "trial_index": 165, "time_elapsed": 479853, "internal_node_id": "0.0-6.0-70.0"}}, {"uniqueid": "w77732981:a55706958", "current_trial": 166, "dateTime": 1664873869428, "trialdata": {"rt": 2280, "stimulus": "<p id='stroop-text' class='stroop-green'>BRAIN</p>", "response": "g", "stimulus-type": "unrelated", "word": "BRAIN", "color": "green", "correct_response": "g", "trial_id": "stroop-trial-1-unrelated-2", "trial_type": "html-keyboard-response", "trial_index": 166, "time_elapsed": 482637, "internal_node_id": "0.0-6.0-71.0"}}, {"uniqueid": "w77732981:a55706958", "current_trial": 167, "dateTime": 1664873871588, "trialdata": {"rt": 1655, "stimulus": "<p id='stroop-text' class='stroop-green'>GREEN</p>", "response": "g", "stimulus-type": "congruent", "word": "green", "color": "green", "correct_response": "g", "trial_id": "stroop-trial-1-congruent-25", "trial_type": "html-keyboard-response", "trial_index": 167, "time_elapsed": 484797, "internal_node_id": "0.0-6.0-72.0"}}, {"uniqueid": "w77732981:a55706958", "current_trial": 168, "dateTime": 1664873873205, "trialdata": {"rt": 1112, "stimulus": "<p id='stroop-text' class='stroop-yellow'>YELLOW</p>", "response": "y", "stimulus-type": "congruent", "word": "yellow", "color": "yellow", "correct_response": "y", "trial_id": "stroop-trial-1-congruent-16", "trial_type": "html-keyboard-response", "trial_index": 168, "time_elapsed": 486414, "internal_node_id": "0.0-6.0-73.0"}}, {"uniqueid": "w77732981:a55706958", "current_trial": 169, "dateTime": 1664873874692, "trialdata": {"rt": 982, "stimulus": "<p id='stroop-text' class='stroop-green'>BRAIN</p>", "response": "g", "stimulus-type": "unrelated", "word": "BRAIN", "color": "green", "correct_response": "g", "trial_id": "stroop-trial-1-unrelated-23", "trial_type": "html-keyboard-response", "trial_index": 169, "time_elapsed": 487901, "internal_node_id": "0.0-6.0-74.0"}}, {"uniqueid": "w77732981:a55706958", "current_trial": 170, "dateTime": 1664873876468, "trialdata": {"rt": 1270, "stimulus": "<p id='stroop-text' class='stroop-yellow'>CHAIR</p>", "response": "y", "stimulus-type": "unrelated", "word": "CHAIR", "color": "yellow", "correct_response": "y", "trial_id": "stroop-trial-1-unrelated-4", "trial_type": "html-keyboard-response", "trial_index": 170, "time_elapsed": 489677, "internal_node_id": "0.0-6.0-75.0"}}, {"uniqueid": "w77732981:a55706958", "current_trial": 171, "dateTime": 1664873877860, "trialdata": {"rt": 887, "stimulus": "<p id='stroop-text' class='stroop-red'>YELLOW</p>", "response": "r", "stimulus-type": "incongruent", "word": "yellow", "color": "red", "correct_response": "r", "trial_id": "stroop-trial-1-incongruent-15", "trial_type": "html-keyboard-response", "trial_index": 171, "time_elapsed": 491069, "internal_node_id": "0.0-6.0-76.0"}}, {"uniqueid": "w77732981:a55706958", "current_trial": 172, "dateTime": 1664873879764, "trialdata": {"rt": 1400, "stimulus": "<p id='stroop-text' class='stroop-green'>DOG</p>", "response": "g", "stimulus-type": "unrelated", "word": "DOG", "color": "green", "correct_response": "g", "trial_id": "stroop-trial-1-unrelated-26", "trial_type": "html-keyboard-response", "trial_index": 172, "time_elapsed": 492973, "internal_node_id": "0.0-6.0-77.0"}}, {"uniqueid": "w77732981:a55706958", "current_trial": 173, "dateTime": 1664873880964, "trialdata": {"rt": 696, "stimulus": "<p id='stroop-text' class='stroop-green'>GREEN</p>", "response": "g", "stimulus-type": "congruent", "word": "green", "color": "green", "correct_response": "g", "trial_id": "stroop-trial-1-congruent-4", "trial_type": "html-keyboard-response", "trial_index": 173, "time_elapsed": 494173, "internal_node_id": "0.0-6.0-78.0"}}, {"uniqueid": "w77732981:a55706958", "current_trial": 174, "dateTime": 1664873882308, "trialdata": {"rt": 840, "stimulus": "<p id='stroop-text' class='stroop-green'>GREEN</p>", "response": "g", "stimulus-type": "congruent", "word": "green", "color": "green", "correct_response": "g", "trial_id": "stroop-trial-1-congruent-11", "trial_type": "html-keyboard-response", "trial_index": 174, "time_elapsed": 495517, "internal_node_id": "0.0-6.0-79.0"}}, {"uniqueid": "w77732981:a55706958", "current_trial": 175, "dateTime": 1664873883957, "trialdata": {"rt": 1142, "stimulus": "<p id='stroop-text' class='stroop-blue'>MONKEY</p>", "response": "b", "stimulus-type": "unrelated", "word": "MONKEY", "color": "blue", "correct_response": "b", "trial_id": "stroop-trial-1-unrelated-19", "trial_type": "html-keyboard-response", "trial_index": 175, "time_elapsed": 497166, "internal_node_id": "0.0-6.0-80.0"}}, {"uniqueid": "w77732981:a55706958", "current_trial": 176, "dateTime": 1664873885284, "trialdata": {"rt": 823, "stimulus": "<p id='stroop-text' class='stroop-blue'>GREEN</p>", "response": "b", "stimulus-type": "incongruent", "word": "green", "color": "blue", "correct_response": "b", "trial_id": "stroop-trial-1-incongruent-24", "trial_type": "html-keyboard-response", "trial_index": 176, "time_elapsed": 498493, "internal_node_id": "0.0-6.0-81.0"}}, {"uniqueid": "w77732981:a55706958", "current_trial": 177, "dateTime": 1664873887124, "trialdata": {"rt": 1335, "stimulus": "<p id='stroop-text' class='stroop-green'>BLUE</p>", "response": "g", "stimulus-type": "incongruent", "word": "blue", "color": "green", "correct_response": "g", "trial_id": "stroop-trial-1-incongruent-25", "trial_type": "html-keyboard-response", "trial_index": 177, "time_elapsed": 500333, "internal_node_id": "0.0-6.0-82.0"}}, {"uniqueid": "w77732981:a55706958", "current_trial": 178, "dateTime": 1664873888996, "trialdata": {"rt": 1367, "stimulus": "<p id='stroop-text' class='stroop-green'>YELLOW</p>", "response": "g", "stimulus-type": "incongruent", "word": "yellow", "color": "green", "correct_response": "g", "trial_id": "stroop-trial-1-incongruent-23", "trial_type": "html-keyboard-response", "trial_index": 178, "time_elapsed": 502205, "internal_node_id": "0.0-6.0-83.0"}}, {"uniqueid": "w77732981:a55706958", "current_trial": 179, "dateTime": 1664873890468, "trialdata": {"rt": 968, "stimulus": "<p id='stroop-text' class='stroop-red'>RED</p>", "response": "r", "stimulus-type": "congruent", "word": "red", "color": "red", "correct_response": "r", "trial_id": "stroop-trial-1-congruent-10", "trial_type": "html-keyboard-response", "trial_index": 179, "time_elapsed": 503678, "internal_node_id": "0.0-6.0-84.0"}}, {"uniqueid": "w77732981:a55706958", "current_trial": 180, "dateTime": 1664873893332, "trialdata": {"rt": 2358, "stimulus": "<p id='stroop-text' class='stroop-yellow'>BLUE</p>", "response": "y", "stimulus-type": "incongruent", "word": "blue", "color": "yellow", "correct_response": "y", "trial_id": "stroop-trial-1-incongruent-9", "trial_type": "html-keyboard-response", "trial_index": 180, "time_elapsed": 506542, "internal_node_id": "0.0-6.0-85.0"}}, {"uniqueid": "w77732981:a55706958", "current_trial": 181, "dateTime": 1664873898885, "trialdata": {"rt": 5048, "stimulus": "<p id='stroop-text' class='stroop-green'>FORK</p>", "response": "g", "stimulus-type": "unrelated", "word": "FORK", "color": "green", "correct_response": "g", "trial_id": "stroop-trial-1-unrelated-15", "trial_type": "html-keyboard-response", "trial_index": 181, "time_elapsed": 512094, "internal_node_id": "0.0-6.0-86.0"}}, {"uniqueid": "w77732981:a55706958", "current_trial": 182, "dateTime": 1664873899892, "trialdata": {"rt": 502, "stimulus": "<p id='stroop-text' class='stroop-green'>BRIDGE</p>", "response": "g", "stimulus-type": "unrelated", "word": "BRIDGE", "color": "green", "correct_response": "g", "trial_id": "stroop-trial-1-unrelated-8", "trial_type": "html-keyboard-response", "trial_index": 182, "time_elapsed": 513101, "internal_node_id": "0.0-6.0-87.0"}}, {"uniqueid": "w77732981:a55706958", "current_trial": 183, "dateTime": 1664873901205, "trialdata": {"rt": 808, "stimulus": "<p id='stroop-text' class='stroop-red'>RED</p>", "response": "r", "stimulus-type": "congruent", "word": "red", "color": "red", "correct_response": "r", "trial_id": "stroop-trial-1-congruent-27", "trial_type": "html-keyboard-response", "trial_index": 183, "time_elapsed": 514415, "internal_node_id": "0.0-6.0-88.0"}}, {"uniqueid": "w77732981:a55706958", "current_trial": 184, "dateTime": 1664873903268, "trialdata": {"rt": 1557, "stimulus": "<p id='stroop-text' class='stroop-yellow'>YELLOW</p>", "response": "y", "stimulus-type": "congruent", "word": "yellow", "color": "yellow", "correct_response": "y", "trial_id": "stroop-trial-1-congruent-30", "trial_type": "html-keyboard-response", "trial_index": 184, "time_elapsed": 516477, "internal_node_id": "0.0-6.0-89.0"}}, {"uniqueid": "w77732981:a55706958", "current_trial": 185, "dateTime": 1664873935765, "trialdata": {"rt": 31990, "stimulus": "  <h1> End of block! </h1>\n\n  You have reached the end of the block 2/5. If you need a short break, feel free to take one now before moving on.\n\n  <br><br>\n  In the next block, you will complete another 90 rounds of this game.\n\n  <br><br>\n  <div style='text-align: center;'>Press <code>space</code> to begin.</div>\n  <br><br>\n<div style='text-align: center;'>(If the experiment doesn't continue, try clicking on the text and then pressing <code>space</code>.)</div>", "response": " ", "trial_id": "stroop_1_ready_3", "trial_type": "html-keyboard-response", "trial_index": 185, "time_elapsed": 548975, "internal_node_id": "0.0-7.0"}}, {"uniqueid": "w77732981:a55706958", "current_trial": 186, "dateTime": 1664873938069, "trialdata": {"rt": 2298, "stimulus": "<p id='stroop-text' class='stroop-yellow'>BRAIN</p>", "response": "y", "stimulus-type": "unrelated", "word": "BRAIN", "color": "yellow", "correct_response": "y", "trial_id": "stroop-trial-1-unrelated-20", "trial_type": "html-keyboard-response", "trial_index": 186, "time_elapsed": 551278, "internal_node_id": "0.0-8.0-0.0"}}, {"uniqueid": "w77732981:a55706958", "current_trial": 187, "dateTime": 1664873939685, "trialdata": {"rt": 1111, "stimulus": "<p id='stroop-text' class='stroop-green'>GREEN</p>", "response": "g", "stimulus-type": "congruent", "word": "green", "color": "green", "correct_response": "g", "trial_id": "stroop-trial-1-congruent-28", "trial_type": "html-keyboard-response", "trial_index": 187, "time_elapsed": 552894, "internal_node_id": "0.0-8.0-1.0"}}, {"uniqueid": "w77732981:a55706958", "current_trial": 188, "dateTime": 1664873940693, "trialdata": {"rt": 504, "stimulus": "<p id='stroop-text' class='stroop-green'>BRAIN</p>", "response": "g", "stimulus-type": "unrelated", "word": "BRAIN", "color": "green", "correct_response": "g", "trial_id": "stroop-trial-1-unrelated-25", "trial_type": "html-keyboard-response", "trial_index": 188, "time_elapsed": 553902, "internal_node_id": "0.0-8.0-2.0"}}, {"uniqueid": "w77732981:a55706958", "current_trial": 189, "dateTime": 1664873941941, "trialdata": {"rt": 733, "stimulus": "<p id='stroop-text' class='stroop-red'>YELLOW</p>", "response": "r", "stimulus-type": "incongruent", "word": "yellow", "color": "red", "correct_response": "r", "trial_id": "stroop-trial-1-incongruent-17", "trial_type": "html-keyboard-response", "trial_index": 189, "time_elapsed": 555150, "internal_node_id": "0.0-8.0-3.0"}}, {"uniqueid": "w77732981:a55706958", "current_trial": 190, "dateTime": 1664873943509, "trialdata": {"rt": 1064, "stimulus": "<p id='stroop-text' class='stroop-yellow'>BOTTLE</p>", "response": "y", "stimulus-type": "unrelated", "word": "BOTTLE", "color": "yellow", "correct_response": "y", "trial_id": "stroop-trial-1-unrelated-16", "trial_type": "html-keyboard-response", "trial_index": 190, "time_elapsed": 556718, "internal_node_id": "0.0-8.0-4.0"}}, {"uniqueid": "w77732981:a55706958", "current_trial": 191, "dateTime": 1664873945541, "trialdata": {"rt": 1528, "stimulus": "<p id='stroop-text' class='stroop-blue'>YELLOW</p>", "response": "b", "stimulus-type": "incongruent", "word": "yellow", "color": "blue", "correct_response": "b", "trial_id": "stroop-trial-1-incongruent-22", "trial_type": "html-keyboard-response", "trial_index": 191, "time_elapsed": 558750, "internal_node_id": "0.0-8.0-5.0"}}, {"uniqueid": "w77732981:a55706958", "current_trial": 192, "dateTime": 1664873947334, "trialdata": {"rt": 1289, "stimulus": "<p id='stroop-text' class='stroop-green'>RED</p>", "response": "g", "stimulus-type": "incongruent", "word": "red", "color": "green", "correct_response": "g", "trial_id": "stroop-trial-1-incongruent-19", "trial_type": "html-keyboard-response", "trial_index": 192, "time_elapsed": 560543, "internal_node_id": "0.0-8.0-6.0"}}, {"uniqueid": "w77732981:a55706958", "current_trial": 193, "dateTime": 1664873948661, "trialdata": {"rt": 823, "stimulus": "<p id='stroop-text' class='stroop-blue'>YELLOW</p>", "response": "b", "stimulus-type": "incongruent", "word": "yellow", "color": "blue", "correct_response": "b", "trial_id": "stroop-trial-1-incongruent-24", "trial_type": "html-keyboard-response", "trial_index": 193, "time_elapsed": 561870, "internal_node_id": "0.0-8.0-7.0"}}, {"uniqueid": "w77732981:a55706958", "current_trial": 194, "dateTime": 1664873950341, "trialdata": {"rt": 1175, "stimulus": "<p id='stroop-text' class='stroop-green'>YELLOW</p>", "response": "g", "stimulus-type": "incongruent", "word": "yellow", "color": "green", "correct_response": "g", "trial_id": "stroop-trial-1-incongruent-4", "trial_type": "html-keyboard-response", "trial_index": 194, "time_elapsed": 563550, "internal_node_id": "0.0-8.0-8.0"}}, {"uniqueid": "w77732981:a55706958", "current_trial": 195, "dateTime": 1664873951445, "trialdata": {"rt": 599, "stimulus": "<p id='stroop-text' class='stroop-green'>BOAT</p>", "response": "g", "stimulus-type": "unrelated", "word": "BOAT", "color": "green", "correct_response": "g", "trial_id": "stroop-trial-1-unrelated-24", "trial_type": "html-keyboard-response", "trial_index": 195, "time_elapsed": 564654, "internal_node_id": "0.0-8.0-9.0"}}, {"uniqueid": "w77732981:a55706958", "current_trial": 196, "dateTime": 1664873952789, "trialdata": {"rt": 840, "stimulus": "<p id='stroop-text' class='stroop-yellow'>YELLOW</p>", "response": "y", "stimulus-type": "congruent", "word": "yellow", "color": "yellow", "correct_response": "y", "trial_id": "stroop-trial-1-congruent-10", "trial_type": "html-keyboard-response", "trial_index": 196, "time_elapsed": 565998, "internal_node_id": "0.0-8.0-10.0"}}, {"uniqueid": "w77732981:a55706958", "current_trial": 197, "dateTime": 1664873954693, "trialdata": {"rt": 1400, "stimulus": "<p id='stroop-text' class='stroop-blue'>BOTTLE</p>", "response": "b", "stimulus-type": "unrelated", "word": "BOTTLE", "color": "blue", "correct_response": "b", "trial_id": "stroop-trial-1-unrelated-27", "trial_type": "html-keyboard-response", "trial_index": 197, "time_elapsed": 567903, "internal_node_id": "0.0-8.0-11.0"}}, {"uniqueid": "w77732981:a55706958", "current_trial": 198, "dateTime": 1664873955925, "trialdata": {"rt": 728, "stimulus": "<p id='stroop-text' class='stroop-red'>RED</p>", "response": "r", "stimulus-type": "congruent", "word": "red", "color": "red", "correct_response": "r", "trial_id": "stroop-trial-1-congruent-3", "trial_type": "html-keyboard-response", "trial_index": 198, "time_elapsed": 569134, "internal_node_id": "0.0-8.0-12.0"}}, {"uniqueid": "w77732981:a55706958", "current_trial": 199, "dateTime": 1664873957493, "trialdata": {"rt": 1062, "stimulus": "<p id='stroop-text' class='stroop-green'>WINDOW</p>", "response": "g", "stimulus-type": "unrelated", "word": "WINDOW", "color": "green", "correct_response": "g", "trial_id": "stroop-trial-1-unrelated-28", "trial_type": "html-keyboard-response", "trial_index": 199, "time_elapsed": 570702, "internal_node_id": "0.0-8.0-13.0"}}, {"uniqueid": "w77732981:a55706958", "current_trial": 200, "dateTime": 1664873958677, "trialdata": {"rt": 680, "stimulus": "<p id='stroop-text' class='stroop-green'>STONE</p>", "response": "g", "stimulus-type": "unrelated", "word": "STONE", "color": "green", "correct_response": "g", "trial_id": "stroop-trial-1-unrelated-2", "trial_type": "html-keyboard-response", "trial_index": 200, "time_elapsed": 571886, "internal_node_id": "0.0-8.0-14.0"}}, {"uniqueid": "w77732981:a55706958", "current_trial": 201, "dateTime": 1664873961717, "trialdata": {"rt": 2534, "stimulus": "<p id='stroop-text' class='stroop-blue'>YELLOW</p>", "response": "b", "stimulus-type": "incongruent", "word": "yellow", "color": "blue", "correct_response": "b", "trial_id": "stroop-trial-1-incongruent-16", "trial_type": "html-keyboard-response", "trial_index": 201, "time_elapsed": 574926, "internal_node_id": "0.0-8.0-15.0"}}, {"uniqueid": "w77732981:a55706958", "current_trial": 202, "dateTime": 1664873964389, "trialdata": {"rt": 2168, "stimulus": "<p id='stroop-text' class='stroop-yellow'>WINDOW</p>", "response": "y", "stimulus-type": "unrelated", "word": "WINDOW", "color": "yellow", "correct_response": "y", "trial_id": "stroop-trial-1-unrelated-13", "trial_type": "html-keyboard-response", "trial_index": 202, "time_elapsed": 577598, "internal_node_id": "0.0-8.0-16.0"}}, {"uniqueid": "w77732981:a55706958", "current_trial": 203, "dateTime": 1664873966005, "trialdata": {"rt": 1112, "stimulus": "<p id='stroop-text' class='stroop-blue'>RED</p>", "response": "b", "stimulus-type": "incongruent", "word": "red", "color": "blue", "correct_response": "b", "trial_id": "stroop-trial-1-incongruent-7", "trial_type": "html-keyboard-response", "trial_index": 203, "time_elapsed": 579214, "internal_node_id": "0.0-8.0-17.0"}}, {"uniqueid": "w77732981:a55706958", "current_trial": 204, "dateTime": 1664873967381, "trialdata": {"rt": 870, "stimulus": "<p id='stroop-text' class='stroop-red'>BLUE</p>", "response": "r", "stimulus-type": "incongruent", "word": "blue", "color": "red", "correct_response": "r", "trial_id": "stroop-trial-1-incongruent-9", "trial_type": "html-keyboard-response", "trial_index": 204, "time_elapsed": 580590, "internal_node_id": "0.0-8.0-18.0"}}, {"uniqueid": "w77732981:a55706958", "current_trial": 205, "dateTime": 1664873968885, "trialdata": {"rt": 999, "stimulus": "<p id='stroop-text' class='stroop-green'>GREEN</p>", "response": "g", "stimulus-type": "congruent", "word": "green", "color": "green", "correct_response": "g", "trial_id": "stroop-trial-1-congruent-26", "trial_type": "html-keyboard-response", "trial_index": 205, "time_elapsed": 582095, "internal_node_id": "0.0-8.0-19.0"}}, {"uniqueid": "w77732981:a55706958", "current_trial": 206, "dateTime": 1664873969957, "trialdata": {"rt": 567, "stimulus": "<p id='stroop-text' class='stroop-green'>GREEN</p>", "response": "g", "stimulus-type": "congruent", "word": "green", "color": "green", "correct_response": "g", "trial_id": "stroop-trial-1-congruent-22", "trial_type": "html-keyboard-response", "trial_index": 206, "time_elapsed": 583166, "internal_node_id": "0.0-8.0-20.0"}}, {"uniqueid": "w77732981:a55706958", "current_trial": 207, "dateTime": 1664873972453, "trialdata": {"rt": 1991, "stimulus": "<p id='stroop-text' class='stroop-blue'>YELLOW</p>", "response": "b", "stimulus-type": "incongruent", "word": "yellow", "color": "blue", "correct_response": "b", "trial_id": "stroop-trial-1-incongruent-21", "trial_type": "html-keyboard-response", "trial_index": 207, "time_elapsed": 585663, "internal_node_id": "0.0-8.0-21.0"}}, {"uniqueid": "w77732981:a55706958", "current_trial": 208, "dateTime": 1664873973925, "trialdata": {"rt": 966, "stimulus": "<p id='stroop-text' class='stroop-red'>MONKEY</p>", "response": "r", "stimulus-type": "unrelated", "word": "MONKEY", "color": "red", "correct_response": "r", "trial_id": "stroop-trial-1-unrelated-6", "trial_type": "html-keyboard-response", "trial_index": 208, "time_elapsed": 587134, "internal_node_id": "0.0-8.0-22.0"}}, {"uniqueid": "w77732981:a55706958", "current_trial": 209, "dateTime": 1664873975765, "trialdata": {"rt": 1335, "stimulus": "<p id='stroop-text' class='stroop-blue'>BLUE</p>", "response": "b", "stimulus-type": "congruent", "word": "blue", "color": "blue", "correct_response": "b", "trial_id": "stroop-trial-1-congruent-16", "trial_type": "html-keyboard-response", "trial_index": 209, "time_elapsed": 588974, "internal_node_id": "0.0-8.0-23.0"}}, {"uniqueid": "w77732981:a55706958", "current_trial": 210, "dateTime": 1664873977317, "trialdata": {"rt": 1047, "stimulus": "<p id='stroop-text' class='stroop-green'>FORK</p>", "response": "g", "stimulus-type": "unrelated", "word": "FORK", "color": "green", "correct_response": "g", "trial_id": "stroop-trial-1-unrelated-1", "trial_type": "html-keyboard-response", "trial_index": 210, "time_elapsed": 590526, "internal_node_id": "0.0-8.0-24.0"}}, {"uniqueid": "w77732981:a55706958", "current_trial": 211, "dateTime": 1664873978757, "trialdata": {"rt": 935, "stimulus": "<p id='stroop-text' class='stroop-yellow'>RED</p>", "response": "y", "stimulus-type": "incongruent", "word": "red", "color": "yellow", "correct_response": "y", "trial_id": "stroop-trial-1-incongruent-28", "trial_type": "html-keyboard-response", "trial_index": 211, "time_elapsed": 591966, "internal_node_id": "0.0-8.0-25.0"}}, {"uniqueid": "w77732981:a55706958", "current_trial": 212, "dateTime": 1664873980214, "trialdata": {"rt": 953, "stimulus": "<p id='stroop-text' class='stroop-green'>GREEN</p>", "response": "g", "stimulus-type": "congruent", "word": "green", "color": "green", "correct_response": "g", "trial_id": "stroop-trial-1-congruent-25", "trial_type": "html-keyboard-response", "trial_index": 212, "time_elapsed": 593423, "internal_node_id": "0.0-8.0-26.0"}}, {"uniqueid": "w77732981:a55706958", "current_trial": 213, "dateTime": 1664873981414, "trialdata": {"rt": 694, "stimulus": "<p id='stroop-text' class='stroop-yellow'>GREEN</p>", "response": "y", "stimulus-type": "incongruent", "word": "green", "color": "yellow", "correct_response": "y", "trial_id": "stroop-trial-1-incongruent-18", "trial_type": "html-keyboard-response", "trial_index": 213, "time_elapsed": 594623, "internal_node_id": "0.0-8.0-27.0"}}, {"uniqueid": "w77732981:a55706958", "current_trial": 214, "dateTime": 1664873982773, "trialdata": {"rt": 853, "stimulus": "<p id='stroop-text' class='stroop-yellow'>BLUE</p>", "response": "y", "stimulus-type": "incongruent", "word": "blue", "color": "yellow", "correct_response": "y", "trial_id": "stroop-trial-1-incongruent-1", "trial_type": "html-keyboard-response", "trial_index": 214, "time_elapsed": 595982, "internal_node_id": "0.0-8.0-28.0"}}, {"uniqueid": "w77732981:a55706958", "current_trial": 215, "dateTime": 1664873984101, "trialdata": {"rt": 824, "stimulus": "<p id='stroop-text' class='stroop-red'>BLUE</p>", "response": "r", "stimulus-type": "incongruent", "word": "blue", "color": "red", "correct_response": "r", "trial_id": "stroop-trial-1-incongruent-5", "trial_type": "html-keyboard-response", "trial_index": 215, "time_elapsed": 597310, "internal_node_id": "0.0-8.0-29.0"}}, {"uniqueid": "w77732981:a55706958", "current_trial": 216, "dateTime": 1664873985445, "trialdata": {"rt": 840, "stimulus": "<p id='stroop-text' class='stroop-red'>RED</p>", "response": "r", "stimulus-type": "congruent", "word": "red", "color": "red", "correct_response": "r", "trial_id": "stroop-trial-1-congruent-17", "trial_type": "html-keyboard-response", "trial_index": 216, "time_elapsed": 598654, "internal_node_id": "0.0-8.0-30.0"}}, {"uniqueid": "w77732981:a55706958", "current_trial": 217, "dateTime": 1664873986805, "trialdata": {"rt": 855, "stimulus": "<p id='stroop-text' class='stroop-red'>YELLOW</p>", "response": "r", "stimulus-type": "incongruent", "word": "yellow", "color": "red", "correct_response": "r", "trial_id": "stroop-trial-1-incongruent-27", "trial_type": "html-keyboard-response", "trial_index": 217, "time_elapsed": 600015, "internal_node_id": "0.0-8.0-31.0"}}, {"uniqueid": "w77732981:a55706958", "current_trial": 218, "dateTime": 1664873988341, "trialdata": {"rt": 1029, "stimulus": "<p id='stroop-text' class='stroop-green'>YELLOW</p>", "response": "g", "stimulus-type": "incongruent", "word": "yellow", "color": "green", "correct_response": "g", "trial_id": "stroop-trial-1-incongruent-3", "trial_type": "html-keyboard-response", "trial_index": 218, "time_elapsed": 601550, "internal_node_id": "0.0-8.0-32.0"}}, {"uniqueid": "w77732981:a55706958", "current_trial": 219, "dateTime": 1664873990917, "trialdata": {"rt": 2071, "stimulus": "<p id='stroop-text' class='stroop-red'>RED</p>", "response": "r", "stimulus-type": "congruent", "word": "red", "color": "red", "correct_response": "r", "trial_id": "stroop-trial-1-congruent-7", "trial_type": "html-keyboard-response", "trial_index": 219, "time_elapsed": 604127, "internal_node_id": "0.0-8.0-33.0"}}, {"uniqueid": "w77732981:a55706958", "current_trial": 220, "dateTime": 1664873992581, "trialdata": {"rt": 1159, "stimulus": "<p id='stroop-text' class='stroop-green'>FORK</p>", "response": "g", "stimulus-type": "unrelated", "word": "FORK", "color": "green", "correct_response": "g", "trial_id": "stroop-trial-1-unrelated-10", "trial_type": "html-keyboard-response", "trial_index": 220, "time_elapsed": 605790, "internal_node_id": "0.0-8.0-34.0"}}, {"uniqueid": "w77732981:a55706958", "current_trial": 221, "dateTime": 1664873993861, "trialdata": {"rt": 775, "stimulus": "<p id='stroop-text' class='stroop-yellow'>YELLOW</p>", "response": "y", "stimulus-type": "congruent", "word": "yellow", "color": "yellow", "correct_response": "y", "trial_id": "stroop-trial-1-congruent-6", "trial_type": "html-keyboard-response", "trial_index": 221, "time_elapsed": 607070, "internal_node_id": "0.0-8.0-35.0"}}, {"uniqueid": "w77732981:a55706958", "current_trial": 222, "dateTime": 1664873995557, "trialdata": {"rt": 1191, "stimulus": "<p id='stroop-text' class='stroop-blue'>RED</p>", "response": "b", "stimulus-type": "incongruent", "word": "red", "color": "blue",