{"condition": 1, "counterbalance": 0, "assignmentId": "a13355343", "workerId": "w29099398", "hitId": "h34334484", "currenttrial": 149, "bonus": 0, "data": [{"uniqueid": "w29099398:a13355343", "current_trial": 0, "dateTime": 1664368285383, "trialdata": {"success": true, "trial_type": "fullscreen", "trial_index": 0, "time_elapsed": 2059, "internal_node_id": "0.0-0.0"}}, {"uniqueid": "w29099398:a13355343", "current_trial": 1, "dateTime": 1664368295118, "trialdata": {"view_history": [{"page_index": 0, "viewing_time": 9731}], "rt": 9732, "trial_id": "exp_instructions_no_distractor", "trial_type": "instructions", "trial_index": 1, "time_elapsed": 11795, "internal_node_id": "0.0-1.0"}}, {"uniqueid": "w29099398:a13355343", "current_trial": 2, "dateTime": 1664368299338, "trialdata": {"success": true, "trial_type": "fullscreen", "trial_index": 2, "time_elapsed": 16015, "internal_node_id": "0.0-2.0-0.0"}}, {"uniqueid": "w29099398:a13355343", "current_trial": 3, "dateTime": 1664368428731, "trialdata": {"view_history": [{"page_index": 0, "viewing_time": 66704}, {"page_index": 1, "viewing_time": 32471}, {"page_index": 2, "viewing_time": 14190}, {"page_index": 3, "viewing_time": 8117}, {"page_index": 4, "viewing_time": 7909}], "rt": 129392, "trial_id": "mouselab_instructions_1", "trial_type": "instructions", "trial_index": 3, "time_elapsed": 145408, "internal_node_id": "0.0-2.0-1.0"}}, {"uniqueid": "w29099398:a13355343", "current_trial": 4, "dateTime": 1664368467792, "trialdata": {"revealed_states": [], "num_clicks_accrued": [0, 0, 0, 0, 0, 0, 0, 0, 0, 0, 0, 0, 0], "stateRewards": ["", -10, 10, 10, -10, 10, -10, 10, -10, 10, 10, -10, -10], "withholdReward": false, "trial_id": "practice_1", "block": "test", "trialIndex": 0, "score": 9.75, "costs": -2.25, "simulationMode": [null, null, null], "rewards": [10, 10, -10], "path": ["0", "0", "9", "10", "11"], "rt": [15138, 630, 613], "actions": ["left", "left", "up"], "actionTimes": [17375, 18502, 19617], "queries": {"click": {"state": {"target": ["5", "6", "2", "1", "4", "9", "10", "12", "11"], "time": [4764, 6641, 9414, 9925, 10835, 11427, 13236, 13694, 14250]}, "edge": {"target": [], "time": []}}, "mouseover": {"state": {"target": ["8", "6", "5", "6", "7", "1", "2", "1", "4", "9", "10", "12", "11", "8"], "time": [3922, 4040, 4251, 6359, 7803, 8965, 9227, 9764, 10511, 11344, 11705, 13628, 14094, 14510]}, "edge": {"target": [], "time": []}}, "mouseout": {"state": {"target": ["5", "0", "0", "8", "6", "5", "6", "7", "1", "2", "1", "4", "9", "10", "12", "11", "9", "8", "8", "8", "6", "7", "3", "3", "0", "5", "6", "6", "5", "0", "9", "10", "9", "0", "1", "2", "3", "5"], "time": [346, 1846, 2360, 4019, 4127, 5040, 7686, 8074, 9088, 9643, 10122, 11164, 11642, 13575, 13864, 14385, 14441, 14517, 30854, 31249, 31291, 31770, 31986, 32354, 32812, 32867, 32902, 34195, 34499, 34603, 34895, 34999, 35054, 35152, 35263, 35506, 37873, 38092]}, "edge": {"target": [], "time": []}}}, "displayed_time": "20.12", "trialTime": 38672, "trial_type": "mouselab-mdp", "trial_index": 4, "time_elapsed": 184467, "internal_node_id": "0.0-2.0-2.0-0.0"}}, {"uniqueid": "w29099398:a13355343", "current_trial": 5, "dateTime": 1664368498001, "trialdata": {"revealed_states": [], "num_clicks_accrued": [0, 0, 0, 0, 0, 0, 0, 0, 0, 0, 0, 0, 0], "stateRewards": ["", 10, 10, -10, 10, 10, -10, 10, 10, -10, -10, -10, 10], "withholdReward": false, "trial_id": "practice_2", "block": "test", "trialIndex": 1, "score": 29, "costs": -3, "simulationMode": [null, null, null], "rewards": [10, 10, 10], "path": ["0", "0", "1", "2", "4"], "rt": [22221, 193, 198], "actions": ["up", "up", "left"], "actionTimes": [24716, 25412, 26110], "queries": {"click": {"state": {"target": ["6", "2", "10", "3", "1", "9", "5", "7", "8", "11", "12", "4"], "time": [5821, 6877, 7334, 9613, 12433, 12780, 13141, 20507, 20947, 21700, 22122, 23433]}, "edge": {"target": [], "time": []}}, "mouseover": {"state": {"target": ["0", "6", "5", "1", "2", "2", "10", "5", "3", "4", "1", "9", "0", "5", "8", "7", "8", "11", "12", "4", "4", "4"], "time": [3905, 5062, 6082, 6200, 6228, 6666, 7124, 9388, 9471, 10290, 11033, 12637, 12901, 12963, 19843, 20173, 20857, 21635, 21891, 22503, 22727, 23386]}, "edge": {"target": [], "time": []}}, "mouseout": {"state": {"target": ["5", "0", "0", "6", "5", "1", "2", "2", "10", "5", "3", "4", "1", "9", "0", "5", "8", "6", "7", "6", "8", "9", "11", "10", "12", "9", "4", "4", "2", "7", "2", "4", "2", "7"], "time": [951, 3807, 4562, 5978, 6145, 6207, 6520, 6999, 7429, 9408, 9741, 10908, 12553, 12880, 12928, 13331, 19913, 20010, 20724, 20808, 21287, 21482, 21816, 21871, 22273, 22461, 22558, 22850, 22912, 22975, 23197, 23544, 23572, 23627]}, "edge": {"target": [], "time": []}}}, "displayed_time": "26.61", "trialTime": 30157, "trial_type": "mouselab-mdp", "trial_index": 5, "time_elapsed": 214678, "internal_node_id": "0.0-2.0-2.0-1.0"}}, {"uniqueid": "w29099398:a13355343", "current_trial": 6, "dateTime": 1664368561314, "trialdata": {"view_history": [{"page_index": 0, "viewing_time": 52046}, {"page_index": 1, "viewing_time": 3246}, {"page_index": 2, "viewing_time": 8016}], "rt": 63308, "trial_id": "mouselab_instructions_2_scarce", "trial_type": "instructions", "trial_index": 6, "time_elapsed": 277991, "internal_node_id": "0.0-2.0-3.0"}}, {"uniqueid": "w29099398:a13355343", "current_trial": 7, "dateTime": 1664368610123, "trialdata": {"rt": 48805, "response": {"Q0": "$-10 to $10", "Q1": "The cost is always $0.25.", "Q2": "The better I perform the higher my bonus will be.", "Q3": "No, the amount of cash at each node of the web may be different each time.", "Q4": "The values of the nodes walked through from start to finish.", "Q5": "No, the spider might forget to count the money on some rounds."}, "question_order": [0, 1, 2, 3, 4, 5], "correct": {"Q0": "$-48 to $48", "Q1": "The cost is always $0.25.", "Q2": "The better I perform the higher my bonus will be.", "Q3": "No, the amount of cash at each node of the web may be different each time.", "Q4": "The values of the nodes walked through from start to finish.", "Q5": "No, the spider might forget to count the money on some rounds."}, "trial_id": "mouselab_quiz_scarce", "trial_type": "survey-multi-choice", "trial_index": 7, "time_elapsed": 326800, "internal_node_id": "0.0-2.0-4.0"}}, {"uniqueid": "w29099398:a13355343", "current_trial": 8, "dateTime": 1664368619945, "trialdata": {"success": true, "trial_type": "fullscreen", "trial_index": 8, "time_elapsed": 336621, "internal_node_id": "0.0-2.1-0.1"}}, {"uniqueid": "w29099398:a13355343", "current_trial": 9, "dateTime": 1664368723440, "trialdata": {"view_history": [{"page_index": 0, "viewing_time": 48898}, {"page_index": 1, "viewing_time": 20376}, {"page_index": 2, "viewing_time": 16745}, {"page_index": 3, "viewing_time": 7547}, {"page_index": 4, "viewing_time": 9923}], "rt": 103490, "trial_id": "mouselab_instructions_1", "trial_type": "instructions", "trial_index": 9, "time_elapsed": 440116, "internal_node_id": "0.0-2.1-1.1"}}, {"uniqueid": "w29099398:a13355343", "current_trial": 10, "dateTime": 1664368742293, "trialdata": {"revealed_states": [], "num_clicks_accrued": [0, 0, 0, 0, 0, 0, 0, 0, 0, 0, 0, 0, 0], "stateRewards": ["", -10, 10, 10, -10, 10, -10, 10, -10, 10, 10, -10, -10], "withholdReward": false, "trial_id": "practice_1", "block": "test", "trialIndex": 2, "score": 10.5, "costs": -1.5, "simulationMode": [null, null, null], "rewards": [10, 10, -10], "path": ["0", "0", "9", "10", "12"], "rt": [5189, 102, 39], "actions": ["left", "left", "down"], "actionTimes": [7374, 7982, 8524], "queries": {"click": {"state": {"target": ["6", "5", "2", "1", "10", "9"], "time": [3945, 4201, 4697, 4984, 5610, 6027]}, "edge": {"target": [], "time": []}}, "mouseover": {"state": {"target": ["0", "5", "6", "5", "6", "5", "2", "1", "11", "10", "9", "0"], "time": [2334, 2415, 2945, 3688, 3839, 4103, 4424, 4924, 5306, 5505, 5771, 6214]}, "edge": {"target": [], "time": []}}, "mouseout": {"state": {"target": ["0", "0", "5", "6", "5", "6", "5", "2", "1", "11", "10", "9", "0", "5", "6", "8", "12"], "time": [2076, 2367, 2721, 3575, 3785, 4054, 4318, 4838, 5158, 5470, 5721, 6192, 6241, 6269, 6297, 11061, 17135]}, "edge": {"target": [], "time": []}}}, "displayed_time": "9.02", "trialTime": 18795, "trial_type": "mouselab-mdp", "trial_index": 10, "time_elapsed": 458969, "internal_node_id": "0.0-2.1-2.1-0.1"}}, {"uniqueid": "w29099398:a13355343", "current_trial": 11, "dateTime": 1664368759872, "trialdata": {"revealed_states": [], "num_clicks_accrued": [0, 0, 0, 0, 0, 0, 0, 0, 0, 0, 0, 0, 0], "stateRewards": ["", 10, 10, -10, 10, 10, -10, 10, 10, -10, -10, -10, 10], "withholdReward": false, "trial_id": "practice_2", "block": "test", "trialIndex": 3, "score": 30.5, "costs": -1.5, "simulationMode": [null, null, null], "rewards": [10, 10, 10], "path": ["0", "0", "1", "2", "4"], "rt": [6107, 69, 139], "actions": ["up", "up", "left"], "actionTimes": [7945, 8515, 9162], "queries": {"click": {"state": {"target": ["9", "10", "1", "2", "5", "6"], "time": [2975, 3576, 4000, 4727, 5124, 5560]}, "edge": {"target": [], "time": []}}, "mouseover": {"state": {"target": ["0", "9", "10", "10", "10", "1", "5", "2", "5", "6", "8"], "time": [2731, 2907, 3093, 3273, 3461, 3879, 4391, 4683, 4905, 5251, 6321]}, "edge": {"target": [], "time": []}}, "mouseout": {"state": {"target": ["0", "0", "9", "10", "10", "10", "9", "1", "1", "5", "1", "2", "1", "5", "6", "8"], "time": [1990, 2796, 3064, 3127, 3328, 3662, 3690, 4079, 4349, 4543, 4600, 4822, 4870, 5232, 6175, 6348]}, "edge": {"target": [], "time": []}}}, "displayed_time": "9.67", "trialTime": 17530, "trial_type": "mouselab-mdp", "trial_index": 11, "time_elapsed": 476548, "internal_node_id": "0.0-2.1-2.1-1.1"}}, {"uniqueid": "w29099398:a13355343", "current_trial": 12, "dateTime": 1664368820242, "trialdata": {"view_history": [{"page_index": 0, "viewing_time": 36042}, {"page_index": 1, "viewing_time": 19069}, {"page_index": 2, "viewing_time": 5256}], "rt": 60368, "trial_id": "mouselab_instructions_2_scarce", "trial_type": "instructions", "trial_index": 12, "time_elapsed": 536919, "internal_node_id": "0.0-2.1-3.1"}}, {"uniqueid": "w29099398:a13355343", "current_trial": 13, "dateTime": 1664368869193, "trialdata": {"rt": 48948, "response": {"Q0": "$-10 to $10", "Q1": "The cost is always $0.25.", "Q2": "The better I perform the higher my bonus will be.", "Q3": "No, the amount of cash at each node of the web may be different each time.", "Q4": "The values of the nodes walked through from start to finish.", "Q5": "Yes."}, "question_order": [0, 1, 2, 3, 4, 5], "correct": {"Q0": "$-48 to $48", "Q1": "The cost is always $0.25.", "Q2": "The better I perform the higher my bonus will be.", "Q3": "No, the amount of cash at each node of the web may be different each time.", "Q4": "The values of the nodes walked through from start to finish.", "Q5": "No, the spider might forget to count the money on some rounds."}, "trial_id": "mouselab_quiz_scarce", "trial_type": "survey-multi-choice", "trial_index": 13, "time_elapsed": 585870, "internal_node_id": "0.0-2.1-4.1"}}, {"uniqueid": "w29099398:a13355343", "current_trial": 14, "dateTime": 1664368877338, "trialdata": {"success": true, "trial_type": "fullscreen", "trial_index": 14, "time_elapsed": 594015, "internal_node_id": "0.0-2.2-0.2"}}, {"uniqueid": "w29099398:a13355343", "current_trial": 15, "dateTime": 1664368980023, "trialdata": {"view_history": [{"page_index": 0, "viewing_time": 90997}, {"page_index": 1, "viewing_time": 2859}, {"page_index": 2, "viewing_time": 6081}, {"page_index": 3, "viewing_time": 1836}, {"page_index": 4, "viewing_time": 909}], "rt": 102683, "trial_id": "mouselab_instructions_1", "trial_type": "instructions", "trial_index": 15, "time_elapsed": 696700, "internal_node_id": "0.0-2.2-1.2"}}, {"uniqueid": "w29099398:a13355343", "current_trial": 16, "dateTime": 1664368992136, "trialdata": {"revealed_states": [], "num_clicks_accrued": [0, 0, 0, 0, 0, 0, 0, 0, 0, 0, 0, 0, 0], "stateRewards": ["", -10, 10, 10, -10, 10, -10, 10, -10, 10, 10, -10, -10], "withholdReward": false, "trial_id": "practice_1", "block": "test", "trialIndex": 4, "score": 9, "costs": -3, "simulationMode": [null, null, null], "rewards": [10, 10, -10], "path": ["0", "0", "9", "10", "12"], "rt": [7094, 523, 110], "actions": ["left", "left", "down"], "actionTimes": [7649, 8674, 9286], "queries": {"click": {"state": {"target": ["5", "1", "2", "4", "3", "6", "8", "7", "9", "10", "11", "12"], "time": [932, 1446, 1774, 2543, 2797, 3455, 3714, 3993, 4601, 4792, 5171, 5443]}, "edge": {"target": [], "time": []}}, "mouseover": {"state": {"target": ["5", "0", "1", "2", "4", "3", "7", "6", "8", "7", "9", "9", "10", "11", "12"], "time": [851, 1143, 1364, 1746, 2385, 2697, 3024, 3329, 3662, 3961, 4280, 4565, 4739, 4954, 5384]}, "edge": {"target": [], "time": []}}, "mouseout": {"state": {"target": ["5", "0", "1", "2", "2", "2", "4", "2", "3", "7", "6", "8", "6", "7", "9", "9", "10", "11", "10", "12"], "time": [1114, 1212, 1707, 1936, 2218, 2350, 2635, 2683, 2947, 3044, 3581, 3815, 3912, 4142, 4322, 4676, 4926, 5266, 5350, 5614]}, "edge": {"target": [], "time": []}}}, "displayed_time": "9.79", "trialTime": 12056, "trial_type": "mouselab-mdp", "trial_index": 16, "time_elapsed": 708812, "internal_node_id": "0.0-2.2-2.2-0.2"}}, {"uniqueid": "w29099398:a13355343", "current_trial": 17, "dateTime": 1664369001864, "trialdata": {"revealed_states": [], "num_clicks_accrued": [0, 0, 0, 0, 0, 0, 0, 0, 0, 0, 0, 0, 0], "stateRewards": ["", 10, 10, -10, 10, 10, -10, 10, 10, -10, -10, -10, 10], "withholdReward": false, "trial_id": "practice_2", "block": "test", "trialIndex": 5, "score": 30.5, "costs": -1.5, "simulationMode": [null, null, null], "rewards": [10, 10, 10], "path": ["0", "0", "1", "2", "4"], "rt": [4068, 48, 24], "actions": ["up", "up", "left"], "actionTimes": [5761, 6312, 6843], "queries": {"click": {"state": {"target": ["5", "6", "2", "1", "9", "10"], "time": [2637, 2942, 3818, 4072, 4538, 4764]}, "edge": {"target": [], "time": []}}, "mouseover": {"state": {"target": ["5", "6", "1", "2", "1", "9", "10"], "time": [2620, 2889, 3243, 3701, 4034, 4249, 4722]}, "edge": {"target": [], "time": []}}, "mouseout": {"state": {"target": ["8", "5", "0", "5", "6", "1", "2", "1", "9", "10", "9"], "time": [1430, 1548, 2396, 2784, 3034, 3437, 3973, 4215, 4652, 4909, 7971]}, "edge": {"target": [], "time": []}}}, "displayed_time": "7.35", "trialTime": 9681, "trial_type": "mouselab-mdp", "trial_index": 17, "time_elapsed": 718541, "internal_node_id": "0.0-2.2-2.2-1.2"}}, {"uniqueid": "w29099398:a13355343", "current_trial": 18, "dateTime": 1664369033111, "trialdata": {"view_history": [{"page_index": 0, "viewing_time": 27871}, {"page_index": 1, "viewing_time": 2405}, {"page_index": 2, "viewing_time": 967}], "rt": 31244, "trial_id": "mouselab_instructions_2_scarce", "trial_type": "instructions", "trial_index": 18, "time_elapsed": 749788, "internal_node_id": "0.0-2.2-3.2"}}, {"uniqueid": "w29099398:a13355343", "current_trial": 19, "dateTime": 1664369054816, "trialdata": {"rt": 21702, "response": {"Q0": "$-48 to $48", "Q1": "The cost is always $0.25.", "Q2": "The better I perform the higher my bonus will be.", "Q3": "No, the amount of cash at each node of the web may be different each time.", "Q4": "The values of the nodes walked through from start to finish.", "Q5": "No, the spider might forget to count the money on some rounds."}, "question_order": [0, 1, 2, 3, 4, 5], "correct": {"Q0": "$-48 to $48", "Q1": "The cost is always $0.25.", "Q2": "The better I perform the higher my bonus will be.", "Q3": "No, the amount of cash at each node of the web may be different each time.", "Q4": "The values of the nodes walked through from start to finish.", "Q5": "No, the spider might forget to count the money on some rounds."}, "trial_id": "mouselab_quiz_scarce", "trial_type": "survey-multi-choice", "trial_index": 19, "time_elapsed": 771493, "internal_node_id": "0.0-2.2-4.2"}}, {"uniqueid": "w29099398:a13355343", "current_trial": 20, "dateTime": 1664369067058, "trialdata": {"rt": 12230, "stimulus": "\n<h1> Get ready to start the game! </h1>\n\nThank you for reading the instructions. Get ready start with the first of 4 block(s) of this game.\n<br><br>\nIn this first block, you will complete 30 rounds of this game before moving on.\n<br><br>\nRemember, the more money the spider gets, the bigger your bonus will be!\n<br><br>\n<div style='text-align: center;'>Press <code>space</code> to begin.</div>\n\n<br><br>\n(If, at any point, the <code>space</code> key does not take you to the next page, click once on the text and try again.)", "response": " ", "trial_id": "mdp_ready_1", "trial_type": "html-keyboard-response", "trial_index": 20, "time_elapsed": 783735, "internal_node_id": "0.0-4.0-0.0"}}, {"uniqueid": "w29099398:a13355343", "current_trial": 21, "dateTime": 1664369080505, "trialdata": {"revealed_states": [], "num_clicks_accrued": [0, 0, 0, 0, 0, 0, 0, 0, 0, 0, 0, 0, 0], "stateRewards": ["", 2, -4, -24, -24, -2, -8, -48, 24, -4, -8, 24, 24], "withholdReward": true, "trial_id": "mdp_521351546461", "block": "test1", "trialIndex": 6, "score": -54.5, "costs": -1.5, "simulationMode": [null, null, null], "rewards": [-2, -8, -48], "path": ["0", "0", "5", "6", "7"], "rt": [4562, 2500, 113], "actions": ["right", "right", "up"], "actionTimes": [6288, 9292, 9912], "queries": {"click": {"state": {"target": ["5", "6", "1", "2", "9", "10"], "time": [2947, 3278, 3795, 4506, 4897, 5098]}, "edge": {"target": [], "time": []}}, "mouseover": {"state": {"target": ["5", "6", "1", "2", "2", "9", "10"], "time": [2557, 3125, 3666, 3960, 4486, 4722, 5048]}, "edge": {"target": [], "time": []}}, "mouseout": {"state": {"target": ["5", "6", "1", "2", "2", "1", "9", "10", "9", "5"], "time": [3027, 3388, 3889, 4138, 4598, 4652, 5006, 5208, 5395, 5569]}, "edge": {"target": [], "time": []}}}, "displayed_time": "10.73", "trialTime": 13385, "trial_type": "mouselab-mdp", "trial_index": 21, "time_elapsed": 797181, "internal_node_id": "0.0-4.0-1.0-0.0"}}, {"uniqueid": "w29099398:a13355343", "current_trial": 22, "dateTime": 1664369094771, "trialdata": {"revealed_states": [], "num_clicks_accrued": [0, 0, 0, 0, 0, 0, 0, 0, 0, 0, 0, 0, 0], "stateRewards": ["", 2, -8, 48, -24, -4, -8, -24, 48, -2, 4, 24, -48], "withholdReward": false, "trial_id": "mdp_186932504904", "block": "test1", "trialIndex": 7, "score": -42.5, "costs": -1.5, "simulationMode": [null, null, null], "rewards": [-2, 4, -48], "path": ["0", "0", "9", "10", "12"], "rt": [4247, 113, 115], "actions": ["left", "left", "down"], "actionTimes": [5958, 6567, 7180], "queries": {"click": {"state": {"target": ["5", "6", "1", "2", "9", "10"], "time": [2202, 2734, 3358, 3619, 3950, 5173]}, "edge": {"target": [], "time": []}}, "mouseover": {"state": {"target": ["5", "6", "1", "1", "2", "9", "10"], "time": [2044, 2342, 2974, 3217, 3564, 3947, 5078]}, "edge": {"target": [], "time": []}}, "mouseout": {"state": {"target": ["5", "5", "6", "5", "1", "1", "2", "1", "9", "9", "9", "9", "9", "10", "9", "6"], "time": [1550, 2314, 2863, 2904, 3029, 3510, 3737, 3772, 4071, 4369, 4577, 4869, 5050, 5265, 5314, 8570]}, "edge": {"target": [], "time": []}}}, "displayed_time": "9.71", "trialTime": 14218, "trial_type": "mouselab-mdp", "trial_index": 22, "time_elapsed": 811448, "internal_node_id": "0.0-4.0-1.0-1.0"}}, {"uniqueid": "w29099398:a13355343", "current_trial": 23, "dateTime": 1664369107179, "trialdata": {"revealed_states": [], "num_clicks_accrued": [0, 0, 0, 0, 0, 0, 0, 0, 0, 0, 0, 0, 0], "stateRewards": ["", -2, -8, -24, -48, 4, -8, 48, 24, 2, 4, -48, -48], "withholdReward": true, "trial_id": "mdp_898082967464", "block": "test1", "trialIndex": 8, "score": -38.5, "costs": -1.5, "simulationMode": [null, null, null], "rewards": [2, 4, -48], "path": ["0", "0", "9", "10", "11"], "rt": [3520, 53, 28], "actions": ["left", "left", "up"], "actionTimes": [5208, 5766, 6296], "queries": {"click": {"state": {"target": ["5", "6", "1", "2", "9", "10"], "time": [2170, 3077, 3650, 3862, 4320, 4523]}, "edge": {"target": [], "time": []}}, "mouseover": {"state": {"target": ["5", "6", "6", "1", "1", "2", "9", "10"], "time": [2060, 2782, 2997, 3289, 3573, 3788, 4142, 4490]}, "edge": {"target": [], "time": []}}, "mouseout": {"state": {"target": ["5", "6", "6", "1", "1", "2", "1", "9", "10"], "time": [2316, 2802, 3226, 3323, 3733, 3969, 4066, 4434, 4687]}, "edge": {"target": [], "time": []}}}, "displayed_time": "10.69", "trialTime": 12361, "trial_type": "mouselab-mdp", "trial_index": 23, "time_elapsed": 823856, "internal_node_id": "0.0-4.0-1.0-2.0"}}, {"uniqueid": "w29099398:a13355343", "current_trial": 24, "dateTime": 1664369121230, "trialdata": {"revealed_states": [], "num_clicks_accrued": [0, 0, 0, 0, 0, 0, 0, 0, 0, 0, 0, 0, 0], "stateRewards": ["", -2, -4, -48, -48, 4, 8, 24, -48, 4, -8, 24, 24], "withholdReward": false, "trial_id": "mdp_749799219195", "block": "test1", "trialIndex": 9, "score": -31.75, "costs": -0.75, "simulationMode": [null, null, null], "rewards": [4, 8, -48], "path": ["0", "0", "5", "6", "8"], "rt": [4196, 55, 515], "actions": ["right", "right", "down"], "actionTimes": [6858, 7412, 8428], "queries": {"click": {"state": {"target": ["6", "2", "10"], "time": [4317, 4800, 5301]}, "edge": {"target": [], "time": []}}, "mouseover": {"state": {"target": ["5", "5", "6", "6", "2", "10", "5"], "time": [3333, 3892, 4086, 4198, 4662, 5072, 6012]}, "edge": {"target": [], "time": []}}, "mouseout": {"state": {"target": ["9", "9", "5", "5", "5", "6", "6", "6", "2", "10", "5", "6"], "time": [2178, 2302, 2559, 3566, 3906, 4135, 4353, 4447, 4899, 5440, 9870, 9884]}, "edge": {"target": [], "time": []}}}, "displayed_time": "11.66", "trialTime": 14003, "trial_type": "mouselab-mdp", "trial_index": 24, "time_elapsed": 837906, "internal_node_id": "0.0-4.0-1.0-3.0"}}, {"uniqueid": "w29099398:a13355343", "current_trial": 25, "dateTime": 1664369134228, "trialdata": {"revealed_states": [], "num_clicks_accrued": [0, 0, 0, 0, 0, 0, 0, 0, 0, 0, 0, 0, 0], "stateRewards": ["", -4, -4, 24, -48, -2, 8, -24, -48, -4, 4, 24, -48], "withholdReward": true, "trial_id": "mdp_934626330092", "block": "test1", "trialIndex": 10, "score": 27.25, "costs": -1.75, "simulationMode": [null, null, null], "rewards": [-4, 4, 24], "path": ["0", "0", "9", "10", "11"], "rt": [6086, 1, 45], "actions": ["left", "left", "up"], "actionTimes": [9913, 10418, 10976], "queries": {"click": {"state": {"target": ["6", "2", "10", "7", "8", "12", "11"], "time": [4424, 4849, 5270, 6952, 7250, 8502, 8741]}, "edge": {"target": [], "time": []}}, "mouseover": {"state": {"target": ["5", "6", "6", "2", "10", "7", "8", "12", "11", "9"], "time": [4133, 4188, 4342, 4653, 5112, 6807, 7111, 8348, 8646, 9062]}, "edge": {"target": [], "time": []}}, "mouseout": {"state": {"target": ["0", "5", "6", "6", "2", "10", "6", "7", "6", "8", "10", "12", "10", "11", "9"], "time": [4112, 4167, 4259, 4535, 4973, 5361, 6544, 7035, 7084, 7361, 8301, 8569, 8632, 8944, 11930]}, "edge": {"target": [], "time": []}}}, "displayed_time": "11.83", "trialTime": 12952, "trial_type": "mouselab-mdp", "trial_index": 25, "time_elapsed": 850905, "internal_node_id": "0.0-4.0-1.0-4.0"}}, {"uniqueid": "w29099398:a13355343", "current_trial": 26, "dateTime": 1664369147251, "trialdata": {"revealed_states": [], "num_clicks_accrued": [0, 0, 0, 0, 0, 0, 0, 0, 0, 0, 0, 0, 0], "stateRewards": ["", -2, -4, -24, -48, -4, -8, -48, 24, -4, -8, -24, -48], "withholdReward": true, "trial_id": "mdp_475782454549", "block": "test1", "trialIndex": 11, "score": 14, "costs": -3, "simulationMode": [null, null, null], "rewards": [-4, -8, 24], "path": ["0", "0", "5", "6", "8"], "rt": [8114, 489, 76], "actions": ["right", "right", "down"], "actionTimes": [9751, 10742, 11323], "queries": {"click": {"state": {"target": ["6", "10", "2", "1", "5", "9", "11", "3", "8", "7", "12", "4"], "time": [2167, 2647, 3058, 4908, 5126, 5415, 6081, 6668, 7243, 8043, 8535, 9020]}, "edge": {"target": [], "time": []}}, "mouseover": {"state": {"target": ["5", "6", "5", "9", "10", "2", "1", "7", "1", "1", "5", "9", "11", "3", "8", "7", "0", "12", "4"], "time": [1880, 2117, 2260, 2351, 2573, 2955, 3204, 4114, 4628, 4715, 5058, 5287, 5996, 6475, 7141, 7781, 8301, 8398, 8961]}, "edge": {"target": [], "time": []}}, "mouseout": {"state": {"target": ["12", "8", "8", "0", "5", "6", "5", "9", "10", "2", "1", "7", "1", "1", "5", "9", "9", "11", "2", "3", "6", "8", "6", "7", "5", "0", "12", "9", "4", "2"], "time": [927, 1059, 1399, 1670, 1968, 2232, 2289, 2365, 2739, 3163, 3239, 4253, 4649, 4989, 5204, 5706, 5859, 6197, 6412, 6815, 7079, 7364, 7475, 8142, 8280, 8315, 8620, 8676, 9113, 9169]}, "edge": {"target": [], "time": []}}}, "displayed_time": "11.83", "trialTime": 12964, "trial_type": "mouselab-mdp", "trial_index": 26, "time_elapsed": 863927, "internal_node_id": "0.0-4.0-1.0-5.0"}}, {"uniqueid": "w29099398:a13355343", "current_trial": 27, "dateTime": 1664369160232, "trialdata": {"revealed_states": [], "num_clicks_accrued": [0, 0, 0, 0, 0, 0, 0, 0, 0, 0, 0, 0, 0], "stateRewards": ["", 4, -8, 48, 24, 4, -4, 48, 48, -4, 8, -48, 24], "withholdReward": false, "trial_id": "mdp_303828806348", "block": "test1", "trialIndex": 12, "score": 31.75, "costs": -1.25, "simulationMode": [null, null, null], "rewards": [-4, 8, 24], "path": ["0", "0", "9", "10", "12"], "rt": [4066, 29, 110], "actions": ["left", "left", "down"], "actionTimes": [5995, 6530, 7138], "queries": {"click": {"state": {"target": ["6", "2", "10", "11", "12"], "time": [2891, 3297, 3668, 4627, 5193]}, "edge": {"target": [], "time": []}}, "mouseover": {"state": {"target": ["0", "5", "6", "2", "9", "10", "12", "11", "12", "12"], "time": [2077, 2355, 2848, 3209, 3480, 3543, 3952, 4521, 4764, 5139]}, "edge": {"target": [], "time": []}}, "mouseout": {"state": {"target": ["0", "0", "5", "6", "2", "9", "10", "12", "10", "11", "10", "12", "12", "9", "9", "0", "9"], "time": [1182, 2306, 2635, 2973, 3390, 3501, 3903, 4209, 4473, 4709, 4750, 4841, 5285, 7826, 7986, 9555, 10163]}, "edge": {"target": [], "time": []}}}, "displayed_time": "9.93", "trialTime": 12927, "trial_type": "mouselab-mdp", "trial_index": 27, "time_elapsed": 876909, "internal_node_id": "0.0-4.0-1.0-6.0"}}, {"uniqueid": "w29099398:a13355343", "current_trial": 28, "dateTime": 1664369172294, "trialdata": {"revealed_states": [], "num_clicks_accrued": [0, 0, 0, 0, 0, 0, 0, 0, 0, 0, 0, 0, 0], "stateRewards": ["", -2, -8, 48, 24, 2, 8, -48, 24, -4, 8, 48, 48], "withholdReward": false, "trial_id": "mdp_875436109858", "block": "test1", "trialIndex": 13, "score": 56, "costs": -1, "simulationMode": [null, null, null], "rewards": [-4, 8, 48], "path": ["0", "0", "9", "10", "12"], "rt": [3737, 351, 142], "actions": ["left", "left", "down"], "actionTimes": [4934, 5800, 6445], "queries": {"click": {"state": {"target": ["6", "10", "2", "12"], "time": [2008, 2445, 2849, 3905]}, "edge": {"target": [], "time": []}}, "mouseover": {"state": {"target": ["0", "5", "6", "5", "0", "9", "10", "1", "2", "1", "0", "12", "12"], "time": [1201, 1727, 1935, 2130, 2164, 2206, 2289, 2636, 2770, 2977, 3081, 3476, 3852]}, "edge": {"target": [], "time": []}}, "mouseout": {"state": {"target": ["0", "1", "0", "5", "6", "5", "0", "9", "10", "1", "2", "1", "0", "12", "12"], "time": [831, 994, 1351, 1782, 2109, 2150, 2192, 2241, 2525, 2657, 2949, 2990, 3115, 3657, 4011]}, "edge": {"target": [], "time": []}}}, "displayed_time": "10.20", "trialTime": 12016, "trial_type": "mouselab-mdp", "trial_index": 28, "time_elapsed": 888970, "internal_node_id": "0.0-4.0-1.0-7.0"}}, {"uniqueid": "w29099398:a13355343", "current_trial": 29, "dateTime": 1664369185828, "trialdata": {"revealed_states": [], "num_clicks_accrued": [0, 0, 0, 0, 0, 0, 0, 0, 0, 0, 0, 0, 0], "stateRewards": ["", 2, -8, 48, -24, 2, -4, 24, 48, 4, -4, 48, -24], "withholdReward": true, "trial_id": "mdp_656500928756", "block": "test1", "trialIndex": 14, "score": -20.5, "costs": -1.5, "simulationMode": [null, null, null], "rewards": [4, -4, -24], "path": ["0", "0", "9", "10", "12"], "rt": [5137, 234, 450], "actions": ["left", "left", "down"], "actionTimes": [7670, 8406, 9372], "queries": {"click": {"state": {"target": ["6", "2", "10", "5", "1", "9"], "time": [3023, 3817, 4184, 6372, 6667, 6898]}, "edge": {"target": [], "time": []}}, "mouseover": {"state": {"target": ["5", "6", "2", "10", "9", "0", "5", "8", "5", "1", "9"], "time": [2665, 2742, 3748, 4075, 4755, 5005, 5123, 5715, 6283, 6546, 6789]}, "edge": {"target": [], "time": []}}, "mouseout": {"state": {"target": ["8", "5", "0", "9", "0", "5", "0", "5", "6", "2", "10", "9", "0", "5", "8", "5", "1", "9", "5", "0"], "time": [1339, 1582, 1617, 1841, 1950, 2396, 2624, 2707, 3165, 3922, 4290, 4805, 5088, 5234, 6047, 6463, 6741, 6977, 12872, 13004]}, "edge": {"target": [], "time": []}}}, "displayed_time": "11.53", "trialTime": 13491, "trial_type": "mouselab-mdp", "trial_index": 29, "time_elapsed": 902505, "internal_node_id": "0.0-4.0-1.0-8.0"}}, {"uniqueid": "w29099398:a13355343", "current_trial": 30, "dateTime": 1664369197531, "trialdata": {"revealed_states": [], "num_clicks_accrued": [0, 0, 0, 0, 0, 0, 0, 0, 0, 0, 0, 0, 0], "stateRewards": ["", -2, -8, 24, -48, -4, 8, -48, -24, 4, 8, -24, 24], "withholdReward": true, "trial_id": "mdp_940444641142", "block": "test1", "trialIndex": 15, "score": 39.25, "costs": -1.75, "simulationMode": [null, null, null], "rewards": [4, 8, 24], "path": ["0", "0", "9", "10", "12"], "rt": [5829, 411, 37], "actions": ["left", "left", "down"], "actionTimes": [6744, 7660, 8203], "queries": {"click": {"state": {"target": ["6", "2", "10", "12", "11", "8", "7"], "time": [1614, 2002, 2400, 3549, 4737, 5475, 5824]}, "edge": {"target": [], "time": []}}, "mouseover": {"state": {"target": ["5", "6", "2", "10", "9", "12", "9", "11", "11", "9", "8", "8", "7"], "time": [1235, 1513, 1839, 2300, 2547, 3346, 4235, 4401, 4706, 4887, 5095, 5415, 5736]}, "edge": {"target": [], "time": []}}, "mouseout": {"state": {"target": ["0", "5", "6", "2", "10", "9", "12", "9", "10", "11", "11", "9", "8", "8", "6", "7"], "time": [1200, 1312, 1735, 2131, 2505, 2575, 3644, 4248, 4283, 4561, 4831, 4915, 5151, 5588, 5665, 5922]}, "edge": {"target": [], "time": []}}}, "displayed_time": "9.92", "trialTime": 11652, "trial_type": "mouselab-mdp", "trial_index": 30, "time_elapsed": 914207, "internal_node_id": "0.0-4.0-1.0-9.0"}}, {"uniqueid": "w29099398:a13355343", "current_trial": 31, "dateTime": 1664369212570, "trialdata": {"revealed_states": [], "num_clicks_accrued": [0, 0, 0, 0, 0, 0, 0, 0, 0, 0, 0, 0, 0], "stateRewards": ["", -2, 4, -48, -48, 4, 4, 48, -48, 2, 8, 24, 48], "withholdReward": false, "trial_id": "mdp_686771069745", "block": "test1", "trialIndex": 16, "score": 62, "costs": -1, "simulationMode": [null, null, null], "rewards": [2, 8, 48], "path": ["0", "0", "9", "10", "12"], "rt": [2835, 57, 1], "actions": ["left", "left", "down"], "actionTimes": [3841, 4399, 4905], "queries": {"click": {"state": {"target": ["6", "2", "10", "12"], "time": [1569, 1944, 2293, 2771]}, "edge": {"target": [], "time": []}}, "mouseover": {"state": {"target": ["5", "6", "2", "10", "12"], "time": [1280, 1537, 1773, 2196, 2717]}, "edge": {"target": [], "time": []}}, "mouseout": {"state": {"target": ["9", "5", "6", "2", "10", "10", "12"], "time": [939, 1314, 1634, 2030, 2404, 2654, 2890]}, "edge": {"target": [], "time": []}}}, "displayed_time": "10.01", "trialTime": 14992, "trial_type": "mouselab-mdp", "trial_index": 31, "time_elapsed": 929247, "internal_node_id": "0.0-4.0-1.0-10.0"}}, {"uniqueid": "w29099398:a13355343", "current_trial": 32, "dateTime": 1664369226028, "trialdata": {"revealed_states": [], "num_clicks_accrued": [0, 0, 0, 0, 0, 0, 0, 0, 0, 0, 0, 0, 0], "stateRewards": ["", -2, -4, -48, 48, -2, -4, 24, 48, -4, -8, -24, 24], "withholdReward": true, "trial_id": "mdp_917590390609", "block": "test1", "trialIndex": 17, "score": 46, "costs": -1, "simulationMode": [null, null, null], "rewards": [-2, -4, 48], "path": ["0", "0", "1", "2", "4"], "rt": [5554, 2947, 218], "actions": ["up", "up", "left"], "actionTimes": [7007, 10453, 11174], "queries": {"click": {"state": {"target": ["6", "2", "10", "8"], "time": [2173, 2556, 3346, 5508]}, "edge": {"target": [], "time": []}}, "mouseover": {"state": {"target": ["6", "2", "1", "9", "10", "10", "8", "8"], "time": [2124, 2512, 2679, 2728, 2797, 3047, 4776, 5366]}, "edge": {"target": [], "time": []}}, "mouseout": {"state": {"target": ["0", "6", "2", "1", "9", "10", "10", "8", "8", "8", "3", "2", "4", "9"], "time": [1846, 2262, 2658, 2686, 2755, 2910, 3485, 4797, 5679, 5831, 12525, 12566, 12587, 12698]}, "edge": {"target": [], "time": []}}}, "displayed_time": "11.68", "trialTime": 13414, "trial_type": "mouselab-mdp", "trial_index": 32, "time_elapsed": 942705, "internal_node_id": "0.0-4.0-1.0-11.0"}}, {"uniqueid": "w29099398:a13355343", "current_trial": 33, "dateTime": 1664369238463, "trialdata": {"revealed_states": [], "num_clicks_accrued": [0, 0, 0, 0, 0, 0, 0, 0, 0, 0, 0, 0, 0], "stateRewards": ["", 4, -8, 24, 48, -2, -4, -48, 24, 2, 4, -48, -24], "withholdReward": true, "trial_id": "mdp_749974461966", "block": "test1", "trialIndex": 18, "score": 46.75, "costs": -2.25, "simulationMode": [null, null, null], "rewards": [4, -8, 48], "path": ["0", "0", "1", "2", "4"], "rt": [6217, 164, 96], "actions": ["up", "up", "left"], "actionTimes": [8300, 8964, 9568], "queries": {"click": {"state": {"target": ["6", "2", "10", "12", "11", "8", "7", "4", "3"], "time": [2465, 2876, 3297, 4262, 4653, 5804, 6304, 6948, 7361]}, "edge": {"target": [], "time": []}}, "mouseover": {"state": {"target": ["5", "6", "2", "10", "9", "8", "8", "12", "11", "9", "8", "7", "5", "1", "4", "3"], "time": [2215, 2306, 2771, 3187, 3486, 3764, 3891, 4014, 4563, 4854, 5576, 6215, 6610, 6701, 6854, 7110]}, "edge": {"target": [], "time": []}}, "mouseout": {"state": {"target": ["0", "5", "6", "2", "10", "9", "8", "8", "12", "10", "11", "9", "8", "6", "7", "6", "5", "1", "4", "2"], "time": [1479, 2264, 2549, 2993, 3433, 3507, 3829, 3923, 4472, 4527, 4792, 4861, 5958, 6106, 6444, 6506, 6638, 6721, 7041, 7089]}, "edge": {"target": [], "time": []}}}, "displayed_time": "10.08", "trialTime": 12374, "trial_type": "mouselab-mdp", "trial_index": 33, "time_elapsed": 955140, "internal_node_id": "0.0-4.0-1.0-12.0"}}, {"uniqueid": "w29099398:a13355343", "current_trial": 34, "dateTime": 1664369250047, "trialdata": {"revealed_states": [], "num_clicks_accrued": [0, 0, 0, 0, 0, 0, 0, 0, 0, 0, 0, 0, 0], "stateRewards": ["", -2, 4, 24, 48, 2, 4, -48, -48, -2, 8, 48, -24], "withholdReward": false, "trial_id": "mdp_305701202606", "block": "test1", "trialIndex": 19, "score": 57.75, "costs": -1.25, "simulationMode": [null, null, null], "rewards": [-2, 8, 48], "path": ["0", "0", "9", "10", "11"], "rt": [3602, 236, 243], "actions": ["left", "left", "up"], "actionTimes": [4647, 5395, 6144], "queries": {"click": {"state": {"target": ["6", "2", "10", "12", "11"], "time": [1983, 2401, 2768, 3257, 3729]}, "edge": {"target": [], "time": []}}, "mouseover": {"state": {"target": ["5", "6", "2", "10", "12", "11"], "time": [1603, 1922, 2304, 2651, 3109, 3644]}, "edge": {"target": [], "time": []}}, "mouseout": {"state": {"target": ["3", "2", "1", "5", "6", "2", "10", "12", "12", "10", "11"], "time": [582, 735, 797, 1825, 2084, 2506, 2866, 3408, 3595, 3623, 3887]}, "edge": {"target": [], "time": []}}}, "displayed_time": "9.05", "trialTime": 11536, "trial_type": "mouselab-mdp", "trial_index": 34, "time_elapsed": 966724, "internal_node_id": "0.0-4.0-1.0-13.0"}}, {"uniqueid": "w29099398:a13355343", "current_trial": 35, "dateTime": 1664369262696, "trialdata": {"revealed_states": [], "num_clicks_accrued": [0, 0, 0, 0, 0, 0, 0, 0, 0, 0, 0, 0, 0], "stateRewards": ["", 2, 8, -48, -24, 4, 4, 24, 48, 4, -4, -48, 48], "withholdReward": true, "trial_id": "mdp_665096999232", "block": "test1", "trialIndex": 20, "score": 59.25, "costs": -1.75, "simulationMode": [null, null, null], "rewards": [4, 4, 48], "path": ["0", "0", "5", "6", "8"], "rt": [4523, 304, 141], "actions": ["right", "right", "down"], "actionTimes": [6257, 7068, 7711], "queries": {"click": {"state": {"target": ["6", "2", "10", "3", "4", "8", "7"], "time": [2480, 2885, 3272, 3865, 4660, 5452, 5686]}, "edge": {"target": [], "time": []}}, "mouseover": {"state": {"target": ["5", "6", "1", "2", "10", "9", "9", "3", "1", "4", "0", "8", "7"], "time": [2215, 2285, 2646, 2792, 3105, 3417, 3563, 3778, 4181, 4583, 4861, 5298, 5611]}, "edge": {"target": [], "time": []}}, "mouseout": {"state": {"target": ["0", "5", "6", "1", "2", "10", "9", "9", "3", "2", "1", "4", "0", "8", "6", "7", "6", "8"], "time": [2195, 2250, 2563, 2681, 2972, 3376, 3514, 3590, 3937, 4071, 4507, 4777, 4882, 5502, 5583, 5805, 5868, 9332]}, "edge": {"target": [], "time": []}}}, "displayed_time": "10.74", "trialTime": 12595, "trial_type": "mouselab-mdp", "trial_index": 35, "time_elapsed": 979372, "internal_node_id": "0.0-4.0-1.0-14.0"}}, {"uniqueid": "w29099398:a13355343", "current_trial": 36, "dateTime": 1664369275099, "trialdata": {"revealed_states": [], "num_clicks_accrued": [0, 0, 0, 0, 0, 0, 0, 0, 0, 0, 0, 0, 0], "stateRewards": ["", 4, 4, -48, -48, 4, 4, -24, -24, -4, 8, -48, 24], "withholdReward": true, "trial_id": "mdp_669785455541", "block": "test1", "trialIndex": 21, "score": 30.75, "costs": -2.25, "simulationMode": [null, null, null], "rewards": [-4, 8, 24], "path": ["0", "0", "9", "10", "12"], "rt": [7000, 44, 36], "actions": ["left", "left", "down"], "actionTimes": [9299, 9844, 10385], "queries": {"click": {"state": {"target": ["6", "2", "10", "12", "11", "3", "4", "8", "7"], "time": [2849, 3331, 3777, 4433, 4766, 7099, 7586, 8198, 8573]}, "edge": {"target": [], "time": []}}, "mouseover": {"state": {"target": ["5", "6", "6", "2", "10", "12", "11", "9", "9", "1", "3", "3", "4", "1", "5", "8", "8", "7"], "time": [2399, 2461, 2750, 3238, 3717, 4316, 4641, 4898, 6377, 6432, 6633, 6870, 7467, 7737, 7786, 7918, 8126, 8536]}, "edge": {"target": [], "time": []}}, "mouseout": {"state": {"target": ["9", "0", "5", "6", "6", "5", "5", "5", "0", "5", "6", "6", "2", "10", "12", "10", "11", "9", "9", "1", "3", "3", "4", "1", "5", "8", "8", "7", "7", "3", "5", "8"], "time": [1107, 1447, 1475, 1523, 1641, 1683, 2023, 2169, 2211, 2433, 2551, 2962, 3474, 3947, 4551, 4613, 4849, 4934, 6397, 6460, 6696, 7230, 7696, 7751, 7814, 7925, 8286, 8744, 10897, 10959, 11417, 11466]}, "edge": {"target": [], "time": []}}}, "displayed_time": "11.30", "trialTime": 12353, "trial_type": "mouselab-mdp", "trial_index": 36, "time_elapsed": 991776, "internal_node_id": "0.0-4.0-1.0-15.0"}}, {"uniqueid": "w29099398:a13355343", "current_trial": 37, "dateTime": 1664369285436, "trialdata": {"revealed_states": [], "num_clicks_accrued": [0, 0, 0, 0, 0, 0, 0, 0, 0, 0, 0, 0, 0], "stateRewards": ["", 2, 4, 48, -48, 2, -4, 48, 24, -2, -8, -24, 48], "withholdReward": false, "trial_id": "mdp_962424406744", "block": "test1", "trialIndex": 22, "score": 57.75, "costs": -1.25, "simulationMode": [null, null, null], "rewards": [2, 4, 48], "path": ["0", "0", "1", "2", "3"], "rt": [4083, 131, 119], "actions": ["up", "up", "right"], "actionTimes": [5188, 5823, 6454], "queries": {"click": {"state": {"target": ["6", "2", "10", "3", "4"], "time": [1694, 2086, 2644, 3785, 4192]}, "edge": {"target": [], "time": []}}, "mouseover": {"state": {"target": ["5", "6", "1", "2", "9", "10", "12", "9", "1", "3", "3", "4"], "time": [1345, 1548, 1887, 1977, 2352, 2512, 2859, 3282, 3331, 3546, 3703, 4149]}, "edge": {"target": [], "time": []}}, "mouseout": {"state": {"target": ["9", "0", "5", "6", "1", "2", "9", "10", "12", "9", "1", "3", "3", "2", "4", "2", "4", "4"], "time": [893, 1324, 1401, 1810, 1914, 2192, 2387, 2790, 3221, 3289, 3393, 3622, 3907, 4025, 4463, 7031, 7087, 7164]}, "edge": {"target": [], "time": []}}}, "displayed_time": "9.11", "trialTime": 10285, "trial_type": "mouselab-mdp", "trial_index": 37, "time_elapsed": 1002113, "internal_node_id": "0.0-4.0-1.0-16.0"}}, {"uniqueid": "w29099398:a13355343", "current_trial": 38, "dateTime": 1664369299003, "trialdata": {"revealed_states": [], "num_clicks_accrued": [0, 0, 0, 0, 0, 0, 0, 0, 0, 0, 0, 0, 0], "stateRewards": ["", 4, -8, 24, 48, 2, -4, 48, 48, 4, -8, 48, 48], "withholdReward": true, "trial_id": "mdp_962498334245", "block": "test1", "trialIndex": 23, "score": 47.75, "costs": -1.25, "simulationMode": [null, null, null], "rewards": [4, -8, 48], "path": ["0", "0", "9", "10", "12"], "rt": [4441, 119, 77], "actions": ["left", "left", "down"], "actionTimes": [5372, 5996, 6579], "queries": {"click": {"state": {"target": ["6", "2", "10", "12", "9"], "time": [1371, 1850, 2378, 2840, 4564]}, "edge": {"target": [], "time": []}}, "mouseover": {"state": {"target": ["5", "6", "2", "2", "1", "9", "10", "12", "9", "9"], "time": [1148, 1294, 1613, 1780, 1988, 2148, 2267, 2766, 3397, 4335]}, "edge": {"target": [], "time": []}}, "mouseout": {"state": {"target": ["0", "5", "6", "2", "2", "1", "9", "10", "12", "9", "9"], "time": [1113, 1204, 1460, 1683, 1953, 2002, 2169, 2689, 3085, 4085, 12715]}, "edge": {"target": [], "time": []}}}, "displayed_time": "8.93", "trialTime": 13518, "trial_type": "mouselab-mdp", "trial_index": 38, "time_elapsed": 1015680, "internal_node_id": "0.0-4.0-1.0-17.0"}}, {"uniqueid": "w29099398:a13355343", "current_trial": 39, "dateTime": 1664369309808, "trialdata": {"revealed_states": [], "num_clicks_accrued": [0, 0, 0, 0, 0, 0, 0, 0, 0, 0, 0, 0, 0], "stateRewards": ["", -4, 4, -24, 48, -2, 8, -48, 24, 2, 4, 48, -48], "withholdReward": true, "trial_id": "mdp_366632183904", "block": "test1", "trialIndex": 24, "score": 33.75, "costs": -1.25, "simulationMode": [null, null, null], "rewards": [-2, 8, 24], "path": ["0", "0", "5", "6", "8"], "rt": [4254, 98, 856], "actions": ["right", "right", "down"], "actionTimes": [6072, 6675, 8038], "queries": {"click": {"state": {"target": ["6", "2", "10", "7", "8"], "time": [2216, 2615, 2988, 4738, 5273]}, "edge": {"target": [], "time": []}}, "mouseover": {"state": {"target": ["5", "6", "6", "2", "1", "10", "9", "0", "8", "7", "8", "8"], "time": [1876, 1917, 2140, 2591, 2723, 2938, 3487, 3535, 4007, 4507, 4931, 5238]}, "edge": {"target": [], "time": []}}, "mouseout": {"state": {"target": ["5", "6", "6", "2", "1", "10", "9", "0", "8", "6", "7", "6", "8", "8", "5", "0"], "time": [1904, 1945, 2306, 2692, 2730, 3091, 3514, 3591, 4278, 4473, 4855, 4903, 4965, 8646, 8701, 8937]}, "edge": {"target": [], "time": []}}}, "displayed_time": "9.82", "trialTime": 10756, "trial_type": "mouselab-mdp", "trial_index": 39, "time_elapsed": 1026485, "internal_node_id": "0.0-4.0-1.0-18.0"}}, {"uniqueid": "w29099398:a13355343", "current_trial": 40, "dateTime": 1664369321059, "trialdata": {"revealed_states": [], "num_clicks_accrued": [0, 0, 0, 0, 0, 0, 0, 0, 0, 0, 0, 0, 0], "stateRewards": ["", 4, 4, 48, -48, -2, 4, 48, -48, -4, 4, -24, -24], "withholdReward": true, "trial_id": "mdp_753324812898", "block": "test1", "trialIndex": 25, "score": 59.5, "costs": -1.5, "simulationMode": [null, null, null], "rewards": [4, 4, 48], "path": ["0", "0", "1", "2", "3"], "rt": [4701, 179, 86], "actions": ["up", "up", "right"], "actionTimes": [5542, 6226, 6827], "queries": {"click": {"state": {"target": ["6", "2", "10", "12", "11", "3"], "time": [1792, 2265, 2693, 3313, 3593, 4398]}, "edge": {"target": [], "time": []}}, "mouseover": {"state": {"target": ["5", "6", "5", "1", "2", "1", "9", "10", "12", "11", "3"], "time": [1026, 1672, 2012, 2088, 2179, 2387, 2519, 2602, 3012, 3535, 4227]}, "edge": {"target": [], "time": []}}, "mouseout": {"state": {"target": ["0", "5", "6", "5", "1", "2", "1", "9", "10", "12", "10", "11", "2", "3", "2", "6", "6", "1", "1", "5", "8", "5", "5"], "time": [999, 1081, 1970, 2019, 2116, 2359, 2435, 2567, 2930, 3421, 3470, 3741, 4192, 4554, 4747, 4928, 5004, 7796, 8233, 8302, 8412, 8504, 9101]}, "edge": {"target": [], "time": []}}}, "displayed_time": "9.84", "trialTime": 11183, "trial_type": "mouselab-mdp", "trial_index": 40, "time_elapsed": 1037735, "internal_node_id": "0.0-4.0-1.0-19.0"}}, {"uniqueid": "w29099398:a13355343", "current_trial": 41, "dateTime": 1664369332119, "trialdata": {"revealed_states": [], "num_clicks_accrued": [0, 0, 0, 0, 0, 0, 0, 0, 0, 0, 0, 0, 0], "stateRewards": ["", 2, 8, -24, -48, 2, 4, -24, 48, 2, -8, 48, -24], "withholdReward": true, "trial_id": "mdp_791659307216", "block": "test1", "trialIndex": 26, "score": 56.75, "costs": -2.25, "simulationMode": [null, null, null], "rewards": [2, 4, 48], "path": ["0", "0", "5", "6", "8"], "rt": [6702, 149, 220], "actions": ["right", "right", "down"], "actionTimes": [7591, 8243, 8967], "queries": {"click": {"state": {"target": ["5", "6", "2", "3", "4", "10", "1", "7", "8"], "time": [1230, 1888, 2328, 3322, 3803, 4854, 5304, 6630, 6922]}, "edge": {"target": [], "time": []}}, "mouseover": {"state": {"target": ["5", "6", "2", "10", "9", "1", "3", "4", "9", "10", "9", "1", "0", "9", "11", "7", "8"], "time": [1018, 1344, 2164, 2663, 2941, 2997, 3240, 3686, 4150, 4260, 5052, 5198, 5531, 5642, 5830, 6572, 6822]}, "edge": {"target": [], "time": []}}, "mouseout": {"state": {"target": ["5", "5", "6", "2", "10", "9", "1", "3", "2", "4", "9", "10", "9", "1", "0", "9", "11", "5", "5", "7", "6", "8"], "time": [545, 1290, 1962, 2455, 2927, 2955, 3003, 3574, 3636, 3906, 4218, 4969, 5128, 5427, 5607, 5690, 6038, 6204, 6454, 6718, 6794, 7073]}, "edge": {"target": [], "time": []}}}, "displayed_time": "9.46", "trialTime": 10995, "trial_type": "mouselab-mdp", "trial_index": 41, "time_elapsed": 1048796, "internal_node_id": "0.0-4.0-1.0-20.0"}}, {"uniqueid": "w29099398:a13355343", "current_trial": 42, "dateTime": 1664369347748, "trialdata": {"revealed_states": [], "num_clicks_accrued": [0, 0, 0, 0, 0, 0, 0, 0, 0, 0, 0, 0, 0], "stateRewards": ["", -2, 8, 48, 48, 4, -8, -48, 48, 2, -4, -48, 48], "withholdReward": true, "trial_id": "mdp_132958048709", "block": "test1", "trialIndex": 27, "score": 58.25, "costs": -0.75, "simulationMode": [null, null, null], "rewards": [-2, 8, 48], "path": ["0", "0", "1", "2", "3"], "rt": [4230, 187, 103], "actions": ["up", "up", "right"], "actionTimes": [9714, 10405, 11014], "queries": {"click": {"state": {"target": ["6", "2", "3"], "time": [7209, 7689, 8777]}, "edge": {"target": [], "time": []}}, "mouseover": {"state": {"target": ["5", "6", "5", "0", "5", "6", "5", "2", "9", "10", "9", "1", "3", "4"], "time": [5988, 6043, 6272, 6328, 6939, 7022, 7327, 7543, 7862, 8084, 8473, 8515, 8744, 8925]}, "edge": {"target": [], "time": []}}, "mouseout": {"state": {"target": ["0", "5", "6", "5", "0", "5", "6", "5", "2", "9", "10", "9", "1", "3", "2", "4", "6"], "time": [5967, 6015, 6203, 6307, 6911, 6987, 7300, 7369, 7793, 7890, 8452, 8480, 8522, 8841, 8890, 9251, 11792]}, "edge": {"target": [], "time": []}}}, "displayed_time": "14.49", "trialTime": 15578, "trial_type": "mouselab-mdp", "trial_index": 42, "time_elapsed": 1064425, "internal_node_id": "0.0-4.0-1.0-21.0"}}, {"uniqueid": "w29099398:a13355343", "current_trial": 43, "dateTime": 1664369358952, "trialdata": {"revealed_states": [], "num_clicks_accrued": [0, 0, 0, 0, 0, 0, 0, 0, 0, 0, 0, 0, 0], "stateRewards": ["", -2, 4, -24, 48, 4, -8, 48, -48, 2, -8, 48, 24], "withholdReward": true, "trial_id": "mdp_501111216502", "block": "test1", "trialIndex": 28, "score": 53.75, "costs": -1.25, "simulationMode": [null, null, null], "rewards": [-2, 4, 48], "path": ["0", "0", "1", "2", "4"], "rt": [3716, 168, 119], "actions": ["up", "up", "left"], "actionTimes": [5575, 6247, 6871], "queries": {"click": {"state": {"target": ["6", "2", "10", "3", "4"], "time": [2331, 2782, 3438, 4440, 4743]}, "edge": {"target": [], "time": []}}, "mouseover": {"state": {"target": ["0", "5", "6", "2", "10", "4", "4", "11", "1", "3", "4"], "time": [1926, 1974, 2177, 2710, 3147, 3884, 3974, 4057, 4224, 4369, 4606]}, "edge": {"target": [], "time": []}}, "mouseout": {"state": {"target": ["5", "6", "5", "0", "0", "5", "0", "0", "5", "6", "2", "10", "4", "4", "11", "1", "3", "2", "4", "1", "1", "9"], "time": [1044, 1220, 1280, 1343, 1551, 1696, 1809, 1946, 2016, 2439, 2898, 3814, 3932, 3988, 4113, 4245, 4515, 4564, 4883, 7667, 7751, 7841]}, "edge": {"target": [], "time": []}}}, "displayed_time": "9.86", "trialTime": 11139, "trial_type": "mouselab-mdp", "trial_index": 43, "time_elapsed": 1075629, "internal_node_id": "0.0-4.0-1.0-22.0"}}, {"uniqueid": "w29099398:a13355343", "current_trial": 44, "dateTime": 1664369371147, "trialdata": {"revealed_states": [], "num_clicks_accrued": [0, 0, 0, 0, 0, 0, 0, 0, 0, 0, 0, 0, 0], "stateRewards": ["", 4, 4, -24, -48, 2, 4, 24, -48, 2, 4, 24, 24], "withholdReward": true, "trial_id": "mdp_223558518218", "block": "test1", "trialIndex": 29, "score": 32.5, "costs": -2.5, "simulationMode": [null, null, null], "rewards": [2, 4, 24], "path": ["0", "0", "9", "10", "11"], "rt": [7201, 100, 33], "actions": ["left", "left", "up"], "actionTimes": [8817, 9420, 9957], "queries": {"click": {"state": {"target": ["6", "2", "10", "12", "11", "3", "4", "7", "8", "9"], "time": [2024, 2608, 3109, 3759, 4743, 5322, 5684, 6580, 6865, 8179]}, "edge": {"target": [], "time": []}}, "mouseover": {"state": {"target": ["5", "6", "1", "2", "9", "10", "12", "11", "1", "3", "4", "1", "5", "8", "7", "8", "5", "0", "9", "9"], "time": [1779, 1821, 2196, 2508, 2807, 3057, 3619, 4716, 4960, 5167, 5612, 5862, 5938, 6277, 6445, 6792, 7868, 7889, 7917, 8105]}, "edge": {"target": [], "time": []}}, "mouseout": {"state": {"target": ["9", "9", "5", "6", "6", "5", "0", "0", "5", "6", "1", "2", "9", "10", "12", "11", "1", "3", "2", "4", "1", "5", "8", "6", "7", "6", "8", "5", "0", "9", "9", "9", "0", "5"], "time": [599, 800, 1182, 1216, 1314, 1348, 1397, 1751, 1800, 2126, 2293, 2709, 2842, 3230, 3862, 4834, 5015, 5403, 5525, 5806, 5896, 5980, 6340, 6417, 6667, 6736, 6986, 7882, 7896, 7944, 10555, 10743, 11048, 11402]}, "edge": {"target": [], "time": []}}}, "displayed_time": "10.47", "trialTime": 12141, "trial_type": "mouselab-mdp", "trial_index": 44, "time_elapsed": 1087824, "internal_node_id": "0.0-4.0-1.0-23.0"}}, {"uniqueid": "w29099398:a13355343", "current_trial": 45, "dateTime": 1664369382122, "trialdata": {"revealed_states": [], "num_clicks_accrued": [0, 0, 0, 0, 0, 0, 0, 0, 0, 0, 0, 0, 0], "stateRewards": ["", -2, 4, -24, -48, -4, 8, -24, 48, 4, 4, -48, 24], "withholdReward": true, "trial_id": "mdp_341117665701", "block": "test1", "trialIndex": 30, "score": 56.25, "costs": -0.75, "simulationMode": [null, null, null], "rewards": [-4, 8, 48], "path": ["0", "0", "5", "6", "8"], "rt": [3340, 36, 34], "actions": ["right", "right", "down"], "actionTimes": [4680, 5217, 5759], "queries": {"click": {"state": {"target": ["6", "8", "5"], "time": [1792, 2801, 3702]}, "edge": {"target": [], "time": []}}, "mouseover": {"state": {"target": ["5", "6", "2", "2", "5", "8", "7", "5"], "time": [1521, 1569, 2042, 2292, 2549, 2590, 2952, 3620]}, "edge": {"target": [], "time": []}}, "mouseout": {"state": {"target": ["9", "0", "5", "6", "2", "2", "5", "8", "6", "7", "6", "5", "0"], "time": [924, 1485, 1556, 1875, 2077, 2500, 2563, 2882, 2930, 3417, 3507, 3798, 9652]}, "edge": {"target": [], "time": []}}}, "displayed_time": "9.34", "trialTime": 10910, "trial_type": "mouselab-mdp", "trial_index": 45, "time_elapsed": 1098799, "internal_node_id": "0.0-4.0-1.0-24.0"}}, {"uniqueid": "w29099398:a13355343", "current_trial": 46, "dateTime": 1664369392209, "trialdata": {"revealed_states": [], "num_clicks_accrued": [0, 0, 0, 0, 0, 0, 0, 0, 0, 0, 0, 0, 0], "stateRewards": ["", 2, 8, 48, 24, 2, 8, 48, 48, -2, -4, -24, -48], "withholdReward": true, "trial_id": "mdp_717636349175", "block": "test1", "trialIndex": 31, "score": 62.25, "costs": -0.75, "simulationMode": [null, null, null], "rewards": [2, 8, 48], "path": ["0", "0", "5", "6", "8"], "rt": [2762, 223, 65], "actions": ["right", "right", "down"], "actionTimes": [3718, 4445, 5009], "queries": {"click": {"state": {"target": ["6", "8", "5"], "time": [1376, 2182, 3120]}, "edge": {"target": [], "time": []}}, "mouseover": {"state": {"target": ["5", "6", "1", "1", "8", "5"], "time": [1131, 1180, 1624, 1826, 2117, 3013]}, "edge": {"target": [], "time": []}}, "mouseout": {"state": {"target": ["5", "5", "6", "1", "1", "6", "8", "6", "5", "8", "8"], "time": [840, 1166, 1486, 1652, 1833, 1902, 2305, 2444, 3242, 3388, 6401]}, "edge": {"target": [], "time": []}}}, "displayed_time": "8.96", "trialTime": 10040, "trial_type": "mouselab-mdp", "trial_index": 46, "time_elapsed": 1108886, "internal_node_id": "0.0-4.0-1.0-25.0"}}, {"uniqueid": "w29099398:a13355343", "current_trial": 47, "dateTime": 1664369421415, "trialdata": {"revealed_states": [], "num_clicks_accrued": [0, 0, 0, 0, 0, 0, 0, 0, 0, 0, 0, 0, 0], "stateRewards": ["", 2, 8, 24, -48, 4, 8, 24, 24, 4, -8, 48, 48], "withholdReward": false, "trial_id": "mdp_646103824875", "block": "test1", "trialIndex": 32, "score": 46, "costs": -3, "simulationMode": [null, null, null], "rewards": [4, -8, 48], "path": ["0", "0", "9", "10", "11"], "rt": [25267, 118, 192], "actions": ["left", "left", "up"], "actionTimes": [26168, 26792, 27484], "queries": {"click": {"state": {"target": ["6", "8", "7", "5", "2", "3", "4", "1", "10", "12", "11", "9"], "time": [1271, 1924, 2705, 3766, 4512, 4865, 5294, 5684, 6212, 6456, 6726, 7098]}, "edge": {"target": [], "time": []}}, "mouseover": {"state": {"target": ["5", "6", "5", "5", "8", "5", "7", "5", "1", "4", "1", "5", "1", "2", "3", "4", "1", "9", "10", "12", "11", "9"], "time": [1053, 1122, 1435, 1685, 1726, 2310, 2553, 3129, 3372, 3414, 3560, 3615, 4170, 4434, 4774, 5219, 5594, 5885, 6142, 6413, 6635, 6989]}, "edge": {"target": [], "time": []}}, "mouseout": {"state": {"target": ["5", "0", "5", "6", "5", "5", "8", "5", "7", "6", "5", "1", "4", "1", "5", "5", "1", "2", "3", "2", "4", "1", "9", "10", "12", "10", "11", "10", "9"], "time": [733, 1005, 1094, 1407, 1442, 1692, 2053, 2497, 2816, 2879, 3302, 3386, 3511, 3566, 3899, 4122, 4240, 4601, 4969, 5163, 5399, 5830, 5948, 6350, 6538, 6607, 6836, 6906, 7225]}, "edge": {"target": [], "time": []}}}, "displayed_time": "27.99", "trialTime": 29153, "trial_type": "mouselab-mdp", "trial_index": 47, "time_elapsed": 1138091, "internal_node_id": "0.0-4.0-1.0-26.0"}}, {"uniqueid": "w29099398:a13355343", "current_trial": 48, "dateTime": 1664369434683, "trialdata": {"revealed_states": [], "num_clicks_accrued": [0, 0, 0, 0, 0, 0, 0, 0, 0, 0, 0, 0, 0], "stateRewards": ["", -2, -8, -24, -24, 4, -4, -48, 48, 2, 8, 48, -48], "withholdReward": true, "trial_id": "mdp_498095124548", "block": "test1", "trialIndex": 33, "score": 61.5, "costs": -1.5, "simulationMode": [null, null, null], "rewards": [2, 8, 48], "path": ["0", "0", "9", "10", "11"], "rt": [4723, 125, 9], "actions": ["left", "left", "up"], "actionTimes": [7862, 8495, 9011], "queries": {"click": {"state": {"target": ["6", "2", "10", "9", "12", "11"], "time": [3651, 4852, 6014, 6505, 6760, 7080]}, "edge": {"target": [], "time": []}}, "mouseover": {"state": {"target": ["5", "6", "5", "2", "2", "2", "2", "2", "1", "1", "11", "10", "9", "12", "11"], "time": [3342, 3390, 3953, 4015, 4272, 4480, 4633, 4814, 5015, 5133, 5272, 5730, 6320, 6674, 6994]}, "edge": {"target": [], "time": []}}, "mouseout": {"state": {"target": ["0", "5", "6", "5", "2", "2", "2", "2", "2", "1", "1", "11", "10", "9", "12", "10", "11", "9", "9", "11", "10", "9"], "time": [3290, 3376, 3800, 3959, 4071, 4328, 4508, 4695, 4973, 5071, 5147, 5286, 6299, 6619, 6876, 6938, 7202, 7327, 9944, 10090, 10264, 10285]}, "edge": {"target": [], "time": []}}}, "displayed_time": "12.14", "trialTime": 13208, "trial_type": "mouselab-mdp", "trial_index": 48, "time_elapsed": 1151359, "internal_node_id": "0.0-4.0-1.0-27.0"}}, {"uniqueid": "w29099398:a13355343", "current_trial": 49, "dateTime": 1664369447750, "trialdata": {"revealed_states": [], "num_clicks_accrued": [0, 0, 0, 0, 0, 0, 0, 0, 0, 0, 0, 0, 0], "stateRewards": ["", -2, 8, 48, 24, 2, -8, -24, -48, -4, 8, -48, 24], "withholdReward": true, "trial_id": "mdp_224053025943", "block": "test1", "trialIndex": 34, "score": 57, "costs": -2, "simulationMode": [null, null, null], "rewards": [-2, 8, 48], "path": ["0", "0", "1", "2", "3"], "rt": [8024, 247, 93], "actions": ["up", "up", "right"], "actionTimes": [10021, 10772, 11369], "queries": {"click": {"state": {"target": ["6", "10", "9", "12", "11", "2", "3", "1"], "time": [3334, 3882, 5169, 5651, 6080, 7325, 7722, 8578]}, "edge": {"target": [], "time": []}}, "mouseover": {"state": {"target": ["5", "5", "0", "5", "6", "6", "5", "0", "9", "10", "2", "9", "9", "12", "11", "1", "2", "3", "1", "7"], "time": [2450, 2804, 2867, 2978, 3019, 3269, 3443, 3471, 3505, 3818, 4339, 4707, 4946, 5540, 6068, 6595, 7185, 7637, 8213, 8775]}, "edge": {"target": [], "time": []}}, "mouseout": {"state": {"target": ["5", "5", "5", "0", "5", "6", "6", "5", "0", "9", "10", "2", "9", "9", "12", "10", "11", "9", "1", "2", "3", "1", "7"], "time": [1506, 2492, 2839, 2957, 2999, 3151, 3422, 3457, 3491, 3554, 3964, 4637, 4771, 5339, 5769, 5838, 6186, 6429, 6699, 7449, 7831, 8699, 8796]}, "edge": {"target": [], "time": []}}}, "displayed_time": "11.87", "trialTime": 13004, "trial_type": "mouselab-mdp", "trial_index": 49, "time_elapsed": 1164426, "internal_node_id": "0.0-4.0-1.0-28.0"}}, {"uniqueid": "w29099398:a13355343", "current_trial": 50, "dateTime": 1664369462502, "trialdata": {"revealed_states": [], "num_clicks_accrued": [0, 0, 0, 0, 0, 0, 0, 0, 0, 0, 0, 0, 0], "stateRewards": ["", -2, 4, 48, -24, 2, 8, 24, 48, 2, 4, -24, -48], "withholdReward": true, "trial_id": "mdp_892412058587", "block": "test1", "trialIndex": 35, "score": 60.25, "costs": -2.75, "simulationMode": [null, null, null], "rewards": [2, 8, 48], "path": ["0", "0", "5", "6", "8"], "rt": [9886, 83, 691], "actions": ["right", "right", "down"], "actionTimes": [11095, 11677, 12875], "queries": {"click": {"state": {"target": ["6", "8", "5", "2", "3", "4", "1", "12", "11", "10", "9"], "time": [1776, 2340, 2974, 4711, 6326, 6821, 7333, 8206, 8443, 8611, 8841]}, "edge": {"target": [], "time": []}}, "mouseover": {"state": {"target": ["5", "6", "6", "8", "7", "5", "0", "2", "1", "10", "9", "1", "3", "4", "9", "1", "9", "12", "12", "10", "11", "10", "9", "7"], "time": [1324, 1393, 1685, 2220, 2622, 2858, 3629, 4602, 4844, 5184, 5434, 5781, 6219, 6684, 7024, 7246, 7586, 7982, 8114, 8302, 8392, 8593, 8753, 10100]}, "edge": {"target": [], "time": []}}, "mouseout": {"state": {"target": ["6", "5", "0", "5", "6", "6", "6", "8", "6", "7", "5", "5", "0", "2", "1", "10", "9", "1", "3", "2", "4", "9", "1", "9", "12", "12", "10", "11", "10", "9", "6", "7"], "time": [962, 1060, 1296, 1372, 1463, 1969, 2171, 2421, 2532, 2750, 3157, 3622, 3636, 4823, 4900, 5365, 5601, 6156, 6448, 6580, 6934, 7163, 7441, 7593, 8031, 8257, 8364, 8524, 8725, 9017, 9885, 10280]}, "edge": {"target": [], "time": []}}}, "displayed_time": "13.37", "trialTime": 14674, "trial_type": "mouselab-mdp", "trial_index": 50, "time_elapsed": 1179178, "internal_node_id": "0.0-4.0-1.0-29.0"}}, {"uniqueid": "w29099398:a13355343", "current_trial": 51, "dateTime": 1664369468947, "trialdata": {"rt": 6438, "stimulus": "<h1> End of block! </h1>\n\nYou have reached the end of the block 1/4. If you need a short break, feel free to take one now before moving on.\n\n<br><br>\nIn the next block, you will complete another 30 rounds of this game.\n\n<br><br>\n<div style='text-align: center;'>Press <code>space</code> to begin.</div>\n<br><br>\n<div style='text-align: center;'>(If the experiment doesn't continue, try clicking on the text and then pressing <code>space</code>.)</div>", "response": " ", "trial_id": "mdp_ready_2", "trial_type": "html-keyboard-response", "trial_index": 51, "time_elapsed": 1185624, "internal_node_id": "0.0-4.0-2.0"}}, {"uniqueid": "w29099398:a13355343", "current_trial": 52, "dateTime": 1664369480287, "trialdata": {"revealed_states": [], "num_clicks_accrued": [0, 0, 0, 0, 0, 0, 0, 0, 0, 0, 0, 0, 0], "stateRewards": ["", 2, -4, -48, 24, 4, 4, 48, -48, -2, -4, -24, -48], "withholdReward": true, "trial_id": "mdp_858916930936", "block": "test2", "trialIndex": 36, "score": 59.5, "costs": -1.5, "simulationMode": [null, null, null], "rewards": [4, 4, 48], "path": ["0", "0", "5", "6", "7"], "rt": [6523, 89, 79], "actions": ["right", "right", "up"], "actionTimes": [7830, 8426, 9013], "queries": {"click": {"state": {"target": ["6", "2", "10", "8", "7", "5"], "time": [2306, 2780, 3255, 4033, 6716, 7292]}, "edge": {"target": [], "time": []}}, "mouseover": {"state": {"target": ["0", "5", "6", "2", "9", "10", "12", "8", "5", "7", "7", "5"], "time": [1788, 1858, 2066, 2699, 2976, 3163, 3450, 3948, 4288, 4538, 6649, 7211]}, "edge": {"target": [], "time": []}}, "mouseout": {"state": {"target": ["9", "0", "5", "6", "2", "9", "10", "12", "8", "5", "7", "7", "5", "8"], "time": [1059, 1823, 1899, 2434, 2871, 3101, 3385, 3608, 4142, 4471, 6520, 6836, 7398, 9961]}, "edge": {"target": [], "time": []}}}, "displayed_time": "10.31", "trialTime": 11285, "trial_type": "mouselab-mdp", "trial_index": 52, "time_elapsed": 1196963, "internal_node_id": "0.0-4.0-3.0-0.0"}}, {"uniqueid": "w29099398:a13355343", "current_trial": 53, "dateTime": 1664369494375, "trialdata": {"revealed_states": [], "num_clicks_accrued": [0, 0, 0, 0, 0, 0, 0, 0, 0, 0, 0, 0, 0], "stateRewards": ["", -4, -4, -48, -24, 2, 8, 24, -48, 4, 4, 48, 48], "withholdReward": false, "trial_id": "mdp_693501840209", "block": "test2", "trialIndex": 37, "score": 59.5, "costs": -1.5, "simulationMode": [null, null, null], "rewards": [4, 4, 48], "path": ["0", "0", "9", "10", "12"], "rt": [4864, 153, 186], "actions": ["left", "left", "down"], "actionTimes": [7853, 8511, 9203], "queries": {"click": {"state": {"target": ["6", "7", "8", "2", "10", "12"], "time": [3431, 4876, 5348, 6191, 6755, 7009]}, "edge": {"target": [], "time": []}}, "mouseover": {"state": {"target": ["5", "6", "3", "2", "2", "7", "7", "8", "5", "1", "2", "1", "9", "10", "12", "9"], "time": [3219, 3316, 3691, 3732, 3865, 4351, 4823, 5171, 5801, 5954, 6044, 6350, 6530, 6621, 6919, 7468]}, "edge": {"target": [], "time": []}}, "mouseout": {"state": {"target": ["0", "5", "6", "8", "8", "5", "5", "6", "3", "2", "2", "6", "7", "7", "6", "8", "8", "5", "1", "2", "1", "9", "10", "12", "10", "10", "9", "8", "8", "9"], "time": [726, 1517, 1587, 2371, 2718, 2830, 3281, 3635, 3705, 3777, 4038, 4281, 4497, 4982, 5052, 5361, 5718, 5851, 5996, 6308, 6406, 6579, 6878, 7086, 7162, 7454, 7475, 7530, 10245, 12182]}, "edge": {"target": [], "time": []}}}, "displayed_time": "11.99", "trialTime": 14034, "trial_type": "mouselab-mdp", "trial_index": 53, "time_elapsed": 1211051, "internal_node_id": "0.0-4.0-3.0-1.0"}}, {"uniqueid": "w29099398:a13355343", "current_trial": 54, "dateTime": 1664369506120, "trialdata": {"revealed_states": [], "num_clicks_accrued": [0, 0, 0, 0, 0, 0, 0, 0, 0, 0, 0, 0, 0], "stateRewards": ["", -2, 8, 24, -48, -4, -8, -24, -48, -4, 8, -24, 48], "withholdReward": true, "trial_id": "mdp_464339499860", "block": "test2", "trialIndex": 38, "score": 55, "costs": -2, "simulationMode": [null, null, null], "rewards": [-4, 8, 48], "path": ["0", "0", "9", "10", "12"], "rt": [5470, 163, 105], "actions": ["left", "left", "down"], "actionTimes": [6657, 7322, 7931], "queries": {"click": {"state": {"target": ["6", "2", "3", "4", "1", "10", "11", "12"], "time": [1642, 2198, 2944, 3287, 4270, 5161, 5574, 5897]}, "edge": {"target": [], "time": []}}, "mouseover": {"state": {"target": ["5", "6", "2", "1", "9", "9", "1", "3", "4", "9", "10", "10", "9", "1", "9", "10", "11", "12", "8"], "time": [1396, 1486, 2146, 2403, 2465, 2691, 2743, 2819, 3174, 3826, 3847, 4016, 4083, 4236, 4486, 4960, 5506, 5847, 6214]}, "edge": {"target": [], "time": []}}, "mouseout": {"state": {"target": ["4", "1", "5", "6", "2", "1", "9", "9", "1", "3", "2", "4", "9", "10", "10", "9", "1", "9", "10", "11", "10", "12", "8", "5", "0"], "time": [611, 993, 1452, 1765, 2354, 2431, 2620, 2722, 2771, 3021, 3111, 3410, 3833, 3889, 4069, 4111, 4396, 4527, 5451, 5687, 5779, 6007, 10853, 11081, 11199]}, "edge": {"target": [], "time": []}}}, "displayed_time": "9.19", "trialTime": 11686, "trial_type": "mouselab-mdp", "trial_index": 54, "time_elapsed": 1222796, "internal_node_id": "0.0-4.0-3.0-2.0"}}, {"uniqueid": "w29099398:a13355343", "current_trial": 55, "dateTime": 1664369517242, "trialdata": {"revealed_states": [], "num_clicks_accrued": [0, 0, 0, 0, 0, 0, 0, 0, 0, 0, 0, 0, 0], "stateRewards": ["", 4, 4, 48, -48, -2, -8, -48, -24, 2, 4, -24, -48], "withholdReward": true, "trial_id": "mdp_239929662917", "block": "test2", "trialIndex": 39, "score": 59.5, "costs": -1.5, "simulationMode": [null, null, null], "rewards": [4, 4, 48], "path": ["0", "0", "1", "2", "3"], "rt": [4940, 40, 392], "actions": ["up", "up", "right"], "actionTimes": [5876, 6432, 7332], "queries": {"click": {"state": {"target": ["6", "2", "10", "12", "11", "3"], "time": [1588, 2219, 2755, 3332, 3909, 5009]}, "edge": {"target": [], "time": []}}, "mouseover": {"state": {"target": ["5", "6", "2", "9", "12", "10", "12", "12", "11", "1", "3", "3", "3", "3"], "time": [1344, 1482, 2030, 2412, 2635, 2697, 2968, 3225, 3894, 4155, 4301, 4495, 4725, 4884]}, "edge": {"target": [], "time": []}}, "mouseout": {"state": {"target": ["5", "5", "5", "6", "2", "9", "12", "10", "12", "12", "10", "11", "1", "3", "3", "2", "3", "3", "7", "6", "8"], "time": [530, 815, 1433, 1975, 2315, 2447, 2641, 2919, 3093, 3434, 3614, 4030, 4183, 4365, 4537, 4697, 4773, 5127, 8336, 8363, 10404]}, "edge": {"target": [], "time": []}}}, "displayed_time": "9.94", "trialTime": 11080, "trial_type": "mouselab-mdp", "trial_index": 55, "time_elapsed": 1233919, "internal_node_id": "0.0-4.0-3.0-3.0"}}, {"uniqueid": "w29099398:a13355343", "current_trial": 56, "dateTime": 1664369529774, "trialdata": {"revealed_states": [], "num_clicks_accrued": [0, 0, 0, 0, 0, 0, 0, 0, 0, 0, 0, 0, 0], "stateRewards": ["", 2, -8, -24, 48, 4, -8, -24, -24, 2, 8, -24, 24], "withholdReward": false, "trial_id": "mdp_480787552818", "block": "test2", "trialIndex": 40, "score": 44, "costs": -3, "simulationMode": [null, null, null], "rewards": [2, -8, 48], "path": ["0", "0", "1", "2", "4"], "rt": [8323, 165, 105], "actions": ["up", "up", "left"], "actionTimes": [9280, 9947, 10567], "queries": {"click": {"state": {"target": ["6", "2", "10", "12", "11", "9", "1", "3", "4", "7", "8", "5"], "time": [1414, 1978, 2492, 2872, 3264, 3772, 4885, 5090, 5415, 7623, 7848, 8276]}, "edge": {"target": [], "time": []}}, "mouseover": {"state": {"target": ["6", "2", "1", "9", "10", "12", "11", "0", "9", "1", "3", "1", "3", "4", "5", "8", "7", "8", "5"], "time": [1213, 1859, 2136, 2241, 2414, 2720, 3121, 3463, 3622, 4039, 4234, 4817, 5025, 5318, 5698, 7120, 7545, 7781, 8184]}, "edge": {"target": [], "time": []}}, "mouseout": {"state": {"target": ["0", "6", "2", "1", "9", "10", "12", "10", "11", "0", "9", "1", "3", "1", "3", "2", "4", "1", "5", "6", "8", "7", "6", "8", "5", "6"], "time": [1130, 1728, 2095, 2192, 2296, 2650, 2976, 3060, 3358, 3594, 3865, 4123, 4511, 4969, 5184, 5268, 5539, 5664, 5705, 7008, 7213, 7705, 7746, 8018, 8413, 8483]}, "edge": {"target": [], "time": []}}}, "displayed_time": "11.07", "trialTime": 12489, "trial_type": "mouselab-mdp", "trial_index": 56, "time_elapsed": 1246450, "internal_node_id": "0.0-4.0-3.0-4.0"}}, {"uniqueid": "w29099398:a13355343", "current_trial": 57, "dateTime": 1664369542893, "trialdata": {"revealed_states": [], "num_clicks_accrued": [0, 0, 0, 0, 0, 0, 0, 0, 0, 0, 0, 0, 0], "stateRewards": ["", 2, -8, 24, -48, 2, 4, 48, -48, -2, -8, -48, 48], "withholdReward": true, "trial_id": "mdp_629420544881", "block": "test2", "trialIndex": 41, "score": 57.75, "costs": -1.25, "simulationMode": [null, null, null], "rewards": [2, 4, 48], "path": ["0", "0", "5", "6", "7"], "rt": [3755, 151, 10], "actions": ["right", "right", "up"], "actionTimes": [5423, 6071, 6589], "queries": {"click": {"state": {"target": ["6", "2", "10", "8", "7"], "time": [2263, 2682, 3254, 3873, 4060]}, "edge": {"target": [], "time": []}}, "mouseover": {"state": {"target": ["5", "6", "2", "1", "9", "10", "12", "8", "8", "7", "5"], "time": [2017, 2107, 2558, 2864, 2940, 3190, 3412, 3627, 3815, 4009, 4732]}, "edge": {"target": [], "time": []}}, "mouseout": {"state": {"target": ["5", "6", "7", "6", "0", "5", "6", "2", "1", "9", "10", "12", "8", "8", "6", "7", "6", "5"], "time": [795, 982, 1254, 1371, 1968, 2066, 2378, 2836, 2906, 2995, 3371, 3462, 3655, 3940, 3996, 4190, 4259, 7758]}, "edge": {"target": [], "time": []}}}, "displayed_time": "10.67", "trialTime": 13077, "trial_type": "mouselab-mdp", "trial_index": 57, "time_elapsed": 1259570, "internal_node_id": "0.0-4.0-3.0-5.0"}}, {"uniqueid": "w29099398:a13355343", "current_trial": 58, "dateTime": 1664369554562, "trialdata": {"revealed_states": [], "num_clicks_accrued": [0, 0, 0, 0, 0, 0, 0, 0, 0, 0, 0, 0, 0], "stateRewards": ["", 2, 8, 48, -48, -2, -4, -24, 24, 4, -4, 48, -48], "withholdReward": false, "trial_id": "mdp_105734044587", "block": "test2", "trialIndex": 42, "score": 62, "costs": -1, "simulationMode": [null, null, null], "rewards": [2, 8, 48], "path": ["0", "0", "1", "2", "3"], "rt": [3547, 125, 86], "actions": ["up", "up", "right"], "actionTimes": [5272, 5903, 6495], "queries": {"click": {"state": {"target": ["6", "2", "3", "1"], "time": [2100, 3561, 4003, 4694]}, "edge": {"target": [], "time": []}}, "mouseover": {"state": {"target": ["5", "6", "2", "2", "3", "4", "1"], "time": [1840, 1952, 3229, 3396, 3909, 4152, 4480]}, "edge": {"target": [], "time": []}}, "mouseout": {"state": {"target": ["9", "0", "5", "5", "0", "5", "6", "2", "2", "2", "3", "2", "4", "1", "3", "7", "6"], "time": [861, 1313, 1382, 1549, 1799, 1896, 2209, 3278, 3729, 3875, 4083, 4125, 4423, 4778, 7576, 7624, 7659]}, "edge": {"target": [], "time": []}}}, "displayed_time": "10.73", "trialTime": 11628, "trial_type": "mouselab-mdp", "trial_index": 58, "time_elapsed": 1271239, "internal_node_id": "0.0-4.0-3.0-6.0"}}, {"uniqueid": "w29099398:a13355343", "current_trial": 59, "dateTime": 1664369565717, "trialdata": {"revealed_states": [], "num_clicks_accrued": [0, 0, 0, 0, 0, 0, 0, 0, 0, 0, 0, 0, 0], "stateRewards": ["", 2, 4, 48, 48, -2, 4, 48, -24, -4, 8, -48, 48], "withholdReward": false, "trial_id": "mdp_407586865939", "block": "test2", "trialIndex": 43, "score": 54, "costs": -1, "simulationMode": [null, null, null], "rewards": [-2, 4, 48], "path": ["0", "0", "5", "6", "7"], "rt": [3544, 74, 23], "actions": ["right", "right", "up"], "actionTimes": [4629, 5213, 5742], "queries": {"click": {"state": {"target": ["6", "8", "7", "5"], "time": [1470, 2715, 3407, 4134]}, "edge": {"target": [], "time": []}}, "mouseover": {"state": {"target": ["0", "5", "6", "1", "2", "8", "5", "7", "5", "5"], "time": [1219, 1260, 1414, 1670, 1767, 2545, 3087, 3309, 3572, 3940]}, "edge": {"target": [], "time": []}}, "mouseout": {"state": {"target": ["0", "0", "5", "6", "1", "2", "8", "5", "7", "5", "5", "5", "5"], "time": [899, 1240, 1309, 1573, 1684, 2255, 2906, 3260, 3496, 3767, 4260, 7350, 8773]}, "edge": {"target": [], "time": []}}}, "displayed_time": "10.09", "trialTime": 11094, "trial_type": "mouselab-mdp", "trial_index": 59, "time_elapsed": 1282394, "internal_node_id": "0.0-4.0-3.0-7.0"}}, {"uniqueid": "w29099398:a13355343", "current_trial": 60, "dateTime": 1664369577884, "trialdata": {"revealed_states": [], "num_clicks_accrued": [0, 0, 0, 0, 0, 0, 0, 0, 0, 0, 0, 0, 0], "stateRewards": ["", -4, 4, -24, 24, -2, -4, 48, 24, 2, 8, -48, 24], "withholdReward": true, "trial_id": "mdp_150340189492", "block": "test2", "trialIndex": 44, "score": 37.25, "costs": -1.75, "simulationMode": [null, null, null], "rewards": [2, 8, 24], "path": ["0", "0", "9", "10", "12"], "rt": [4979, 305, 80], "actions": ["left", "left", "down"], "actionTimes": [6604, 7416, 7995], "queries": {"click": {"state": {"target": ["6", "2", "3", "4", "10", "12", "11"], "time": [2567, 3057, 3546, 3888, 4505, 4864, 5352]}, "edge": {"target": [], "time": []}}, "mouseover": {"state": {"target": ["5", "6", "2", "1", "3", "4", "9", "10", "12", "11", "9"], "time": [2047, 2117, 2859, 3380, 3457, 3832, 4151, 4444, 4720, 5289, 5699]}, "edge": {"target": [], "time": []}}, "mouseout": {"state": {"target": ["0", "5", "6", "2", "1", "3", "2", "4", "9", "10", "12", "10", "11", "9", "0", "0"], "time": [2006, 2082, 2679, 3165, 3422, 3639, 3679, 4026, 4241, 4651, 5088, 5241, 5519, 5762, 9261, 9574]}, "edge": {"target": [], "time": []}}}, "displayed_time": "10.63", "trialTime": 12128, "trial_type": "mouselab-mdp", "trial_index": 60, "time_elapsed": 1294560, "internal_node_id": "0.0-4.0-3.0-8.0"}}, {"uniqueid": "w29099398:a13355343", "current_trial": 61, "dateTime": 1664369588530, "trialdata": {"revealed_states": [], "num_clicks_accrued": [0, 0, 0, 0, 0, 0, 0, 0, 0, 0, 0, 0, 0], "stateRewards": ["", 2, 4, 48, 24, -2, -8, 24, 24, -2, 4, -48, 24], "withholdReward": true, "trial_id": "mdp_130849500124", "block": "test2", "trialIndex": 45, "score": 57.75, "costs": -1.25, "simulationMode": [null, null, null], "rewards": [2, 4, 48], "path": ["0", "0", "1", "2", "3"], "rt": [4210, 39, 505], "actions": ["up", "up", "right"], "actionTimes": [5107, 5650, 6659], "queries": {"click": {"state": {"target": ["6", "2", "10", "4", "3"], "time": [1384, 2104, 2721, 3933, 4281]}, "edge": {"target": [], "time": []}}, "mouseover": {"state": {"target": ["5", "6", "7", "3", "2", "10", "12", "12", "1", "4", "3", "1"], "time": [1076, 1326, 1576, 1625, 1906, 2597, 3006, 3223, 3465, 3861, 4153, 4444]}, "edge": {"target": [], "time": []}}, "mouseout": {"state": {"target": ["5", "0", "5", "6", "7", "3", "2", "10", "10", "12", "12", "1", "4", "2", "3", "1", "5"], "time": [798, 1047, 1133, 1542, 1590, 1645, 2265, 2875, 2951, 3083, 3333, 3548, 4048, 4104, 4389, 4478, 7603]}, "edge": {"target": [], "time": []}}}, "displayed_time": "9.90", "trialTime": 10602, "trial_type": "mouselab-mdp", "trial_index": 61, "time_elapsed": 1305207, "internal_node_id": "0.0-4.0-3.0-9.0"}}, {"uniqueid": "w29099398:a13355343", "current_trial": 62, "dateTime": 1664369615247, "trialdata": {"revealed_states": [], "num_clicks_accrued": [0, 0, 0, 0, 0, 0, 0, 0, 0, 0, 0, 0, 0], "stateRewards": ["", -4, -8, 24, -48, 2, 4, -48, -48, 2, -8, 24, 48], "withholdReward": true, "trial_id": "mdp_111262146724", "block": "test2", "trialIndex": 46, "score": 44.5, "costs": -2.5, "simulationMode": [null, null, null], "rewards": [2, -8, 48], "path": ["0", "0", "9", "10", "12"], "rt": [8131, 91, 106], "actions": ["left", "left", "down"], "actionTimes": [9152, 9744, 10348], "queries": {"click": {"state": {"target": ["6", "2", "10", "7", "8", "3", "4", "12", "11", "9"], "time": [1498, 2051, 2560, 3830, 4061, 5052, 5561, 6083, 6306, 8485]}, "edge": {"target": [], "time": []}}, "mouseover": {"state": {"target": ["5", "6", "1", "2", "4", "4", "2", "10", "12", "5", "3", "7", "7", "8", "5", "1", "3", "4", "9", "12", "11", "1", "9", "9"], "time": [1258, 1459, 1695, 1723, 1785, 1912, 1966, 2313, 2778, 3104, 3341, 3514, 3764, 4000, 4537, 4632, 4799, 5473, 5826, 5958, 6235, 7839, 7902, 8438]}, "edge": {"target": [], "time": []}}, "mouseout": {"state": {"target": ["8", "5", "0", "5", "6", "1", "2", "4", "4", "2", "10", "12", "5", "3", "7", "7", "6", "8", "5", "1", "2", "3", "2", "4", "9", "12", "10", "11", "10", "8", "6", "7", "3", "1", "9", "10", "9"], "time": [556, 792, 1216, 1376, 1591, 1702, 1743, 1792, 1923, 2153, 2709, 3014, 3111, 3472, 3576, 3917, 3972, 4222, 4611, 4653, 4785, 5146, 5403, 5694, 5861, 6153, 6215, 6444, 6493, 7659, 7687, 7722, 7798, 7860, 7916, 8097, 8645]}, "edge": {"target": [], "time": []}}}, "displayed_time": "10.86", "trialTime": 26667, "trial_type": "mouselab-mdp", "trial_index": 62, "time_elapsed": 1331923, "internal_node_id": "0.0-4.0-3.0-10.0"}}, {"uniqueid": "w29099398:a13355343", "current_trial": 63, "dateTime": 1664369636046, "trialdata": {"revealed_states": [], "num_clicks_accrued": [0, 0, 0, 0, 0, 0, 0, 0, 0, 0, 0, 0, 0], "stateRewards": ["", -2, -4, -48, 48, -4, 4, -48, 24, -4, -8, 24, 48], "withholdReward": true, "trial_id": "mdp_264482284450", "block": "test2", "trialIndex": 47, "score": 39, "costs": -2, "simulationMode": [null, null, null], "rewards": [-4, -8, 48], "path": ["0", "0", "9", "10", "12"], "rt": [15716, 13, 15], "actions": ["left", "left", "down"], "actionTimes": [17886, 18404, 18930], "queries": {"click": {"state": {"target": ["6", "2", "8", "7", "10", "12", "9", "5"], "time": [2669, 3273, 3930, 4280, 5536, 5851, 6650, 11088]}, "edge": {"target": [], "time": []}}, "mouseover": {"state": {"target": ["5", "6", "1", "2", "1", "8", "7", "5", "10", "10", "12", "11", "9", "5"], "time": [2435, 2525, 2804, 3219, 3379, 3879, 4226, 4615, 4928, 5215, 5774, 6268, 6631, 11019]}, "edge": {"target": [], "time": []}}, "mouseout": {"state": {"target": ["5", "0", "0", "5", "6", "1", "2", "1", "8", "6", "7", "6", "5", "10", "10", "12", "10", "11", "9", "5", "6"], "time": [1838, 1935, 2282, 2483, 2740, 2831, 3351, 3386, 4004, 4053, 4400, 4532, 4651, 5094, 5712, 5934, 5962, 6441, 6858, 11169, 11217]}, "edge": {"target": [], "time": []}}}, "displayed_time": "19.43", "trialTime": 20761, "trial_type": "mouselab-mdp", "trial_index": 63, "time_elapsed": 1352723, "internal_node_id": "0.0-4.0-3.0-11.0"}}, {"uniqueid": "w29099398:a13355343", "current_trial": 64, "dateTime": 1664369647908, "trialdata": {"revealed_states": [], "num_clicks_accrued": [0, 0, 0, 0, 0, 0, 0, 0, 0, 0, 0, 0, 0], "stateRewards": ["", -2, 4, -48, 24, -4, 8, 48, 24, -2, 4, -48, -24], "withholdReward": true, "trial_id": "mdp_740882974347", "block": "test2", "trialIndex": 48, "score": 56.25, "costs": -0.75, "simulationMode": [null, null, null], "rewards": [-4, 8, 48], "path": ["0", "0", "5", "6", "7"], "rt": [2776, 136, 150], "actions": ["right", "right", "up"], "actionTimes": [4369, 5009, 5663], "queries": {"click": {"state": {"target": ["6", "8", "7"], "time": [2092, 2679, 3558]}, "edge": {"target": [], "time": []}}, "mouseover": {"state": {"target": ["5", "6", "6", "7", "3", "2", "8", "7", "7"], "time": [1700, 1755, 2048, 2242, 2290, 2311, 2484, 3359, 3475]}, "edge": {"target": [], "time": []}}, "mouseout": {"state": {"target": ["7", "6", "5", "5", "6", "6", "7", "3", "2", "6", "8", "6", "6", "7", "7", "6", "8"], "time": [818, 909, 1471, 1735, 1790, 2214, 2255, 2297, 2416, 2472, 2784, 2922, 3255, 3422, 3686, 10802, 10837]}, "edge": {"target": [], "time": []}}}, "displayed_time": "9.59", "trialTime": 11824, "trial_type": "mouselab-mdp", "trial_index": 64, "time_elapsed": 1364585, "internal_node_id": "0.0-4.0-3.0-12.0"}}, {"uniqueid": "w29099398:a13355343", "current_trial": 65, "dateTime": 1664369658495, "trialdata": {"revealed_states": [], "num_clicks_accrued": [0, 0, 0, 0, 0, 0, 0, 0, 0, 0, 0, 0, 0], "stateRewards": ["", -4, -4, -24, -48, -4, 8, -24, -48, 4, -8, 24, -24], "withholdReward": true, "trial_id": "mdp_924927483179", "block": "test2", "trialIndex": 49, "score": 22.75, "costs": -2.25, "simulationMode": [null, null, null], "rewards": [4, -8, 24], "path": ["0", "0", "9", "10", "11"], "rt": [6040, 179, 58], "actions": ["left", "left", "up"], "actionTimes": [7330, 8015, 8575], "queries": {"click": {"state": {"target": ["6", "8", "7", "2", "3", "4", "10", "11", "12"], "time": [1734, 2321, 2677, 3448, 3884, 4272, 4814, 5215, 5521]}, "edge": {"target": [], "time": []}}, "mouseover": {"state": {"target": ["5", "6", "6", "8", "7", "5", "2", "3", "4", "4", "10", "10", "11", "12", "0", "5"], "time": [1455, 1496, 1683, 2255, 2574, 3052, 3309, 3816, 4003, 4197, 4482, 4765, 5149, 5447, 5892, 5933]}, "edge": {"target": [], "time": []}}, "mouseout": {"state": {"target": ["0", "5", "6", "6", "8", "6", "7", "6", "5", "2", "3", "2", "4", "4", "10", "10", "10", "11", "10", "12", "0"], "time": [1436, 1475, 1601, 2177, 2382, 2476, 2795, 2889, 3225, 3601, 3947, 3989, 4038, 4405, 4537, 4919, 5128, 5322, 5385, 5662, 5905]}, "edge": {"target": [], "time": []}}}, "displayed_time": "9.29", "trialTime": 10550, "trial_type": "mouselab-mdp", "trial_index": 65, "time_elapsed": 1375172, "internal_node_id": "0.0-4.0-3.0-13.0"}}, {"uniqueid": "w29099398:a13355343", "current_trial": 66, "dateTime": 1664369669946, "trialdata": {"revealed_states": [], "num_clicks_accrued": [0, 0, 0, 0, 0, 0, 0, 0, 0, 0, 0, 0, 0], "stateRewards": ["", -2, -8, -24, 48, -2, -8, -48, -48, 2, -8, -48, 24], "withholdReward": true, "trial_id": "mdp_288324580942", "block": "test2", "trialIndex": 50, "score": 40.75, "costs": -2.25, "simulationMode": [null, null, null], "rewards": [-2, -8, 48], "path": ["0", "0", "1", "2", "4"], "rt": [5893, 174, 139], "actions": ["up", "up", "left"], "actionTimes": [7234, 7910, 8549], "queries": {"click": {"state": {"target": ["6", "2", "10", "12", "11", "8", "7", "3", "4"], "time": [1748, 2176, 2752, 3285, 3659, 4835, 5400, 5982, 6322]}, "edge": {"target": [], "time": []}}, "mouseover": {"state": {"target": ["5", "6", "5", "1", "2", "1", "9", "10", "12", "11", "9", "0", "5", "8", "8", "8", "8", "7", "3", "4"], "time": [1487, 1570, 1862, 1932, 2106, 2375, 2514, 2688, 3154, 3570, 3862, 3951, 3993, 4244, 4340, 4694, 4776, 5368, 5878, 6222]}, "edge": {"target": [], "time": []}}, "mouseout": {"state": {"target": ["5", "1", "5", "6", "5", "1", "2", "1", "9", "10", "12", "10", "11", "9", "0", "5", "6", "8", "8", "8", "8", "7", "3", "2", "4", "2", "3"], "time": [947, 987, 1528, 1841, 1876, 2014, 2307, 2495, 2556, 2854, 3368, 3507, 3750, 3896, 3973, 4021, 4223, 4297, 4466, 4708, 4944, 5528, 6139, 6194, 6423, 6493, 6555]}, "edge": {"target": [], "time": []}}}, "displayed_time": "10.34", "trialTime": 11407, "trial_type": "mouselab-mdp", "trial_index": 66, "time_elapsed": 1386623, "internal_node_id": "0.0-4.0-3.0-14.0"}}, {"uniqueid": "w29099398:a13355343", "current_trial": 67, "dateTime": 1664369681980, "trialdata": {"revealed_states": [], "num_clicks_accrued": [0, 0, 0, 0, 0, 0, 0, 0, 0, 0, 0, 0, 0], "stateRewards": ["", 2, 8, 48, -24, -4, 4, 48, 24, -2, 8, 24, 24], "withholdReward": false, "trial_id": "mdp_123436106791", "block": "test2", "trialIndex": 51, "score": 52.25, "costs": -0.75, "simulationMode": [null, null, null], "rewards": [-4, 4, 48], "path": ["0", "0", "5", "6", "7"], "rt": [2527, 34, 25], "actions": ["right", "right", "up"], "actionTimes": [3992, 4532, 5064], "queries": {"click": {"state": {"target": ["6", "8", "7"], "time": [1796, 2650, 2936]}, "edge": {"target": [], "time": []}}, "mouseover": {"state": {"target": ["5", "6", "2", "8", "7"], "time": [1580, 1642, 2192, 2454, 2886]}, "edge": {"target": [], "time": []}}, "mouseout": {"state": {"target": ["7", "5", "0", "5", "6", "2", "6", "8", "6", "7", "6", "6"], "time": [921, 1107, 1553, 1615, 1906, 2330, 2434, 2732, 2829, 3039, 3329, 6669]}, "edge": {"target": [], "time": []}}}, "displayed_time": "10.46", "trialTime": 11970, "trial_type": "mouselab-mdp", "trial_index": 67, "time_elapsed": 1398657, "internal_node_id": "0.0-4.0-3.0-15.0"}}, {"uniqueid": "w29099398:a13355343", "current_trial": 68, "dateTime": 1664369693822, "trialdata": {"revealed_states": [], "num_clicks_accrued": [0, 0, 0, 0, 0, 0, 0, 0, 0, 0, 0, 0, 0], "stateRewards": ["", -2, -4, -24, -48, 2, -8, -24, -24, 4, -8, 48, 48], "withholdReward": true, "trial_id": "mdp_950599994674", "block": "test2", "trialIndex": 52, "score": 48, "costs": -1, "simulationMode": [null, null, null], "rewards": [4, -8, 48], "path": ["0", "0", "9", "10", "12"], "rt": [4805, 71, 30], "actions": ["left", "left", "down"], "actionTimes": [6491, 7067, 7603], "queries": {"click": {"state": {"target": ["6", "2", "10", "12"], "time": [2486, 3820, 4367, 5276]}, "edge": {"target": [], "time": []}}, "mouseover": {"state": {"target": ["5", "6", "5", "2", "1", "9", "12", "10", "12", "12", "9"], "time": [2074, 2426, 2927, 3498, 4038, 4079, 4127, 4287, 4537, 5190, 5705]}, "edge": {"target": [], "time": []}}, "mouseout": {"state": {"target": ["8", "5", "0", "5", "6", "5", "2", "1", "9", "12", "10", "12", "12", "10", "10", "9", "5", "0", "1", "5"], "time": [1080, 1416, 1558, 2251, 2767, 2941, 3996, 4051, 4100, 4239, 4482, 4565, 5336, 5409, 5683, 5711, 9676, 9689, 10266, 10307]}, "edge": {"target": [], "time": []}}}, "displayed_time": "10.69", "trialTime": 11807, "trial_type": "mouselab-mdp", "trial_index": 68, "time_elapsed": 1410499, "internal_node_id": "0.0-4.0-3.0-16.0"}}, {"uniqueid": "w29099398:a13355343", "current_trial": 69, "dateTime": 1664369705276, "trialdata": {"revealed_states": [], "num_clicks_accrued": [0, 0, 0, 0, 0, 0, 0, 0, 0, 0, 0, 0, 0], "stateRewards": ["", -2, -8, 24, -48, -4, 8, -48, -24, 4, 8, -24, 24], "withholdReward": true, "trial_id": "mdp_940444641142", "block": "test2", "trialIndex": 53, "score": 38.75, "costs": -2.25, "simulationMode": [null, null, null], "rewards": [4, 8, 24], "path": ["0", "0", "9", "10", "12"], "rt": [6749, 14, 54], "actions": ["left", "left", "down"], "actionTimes": [7918, 8438, 9005], "queries": {"click": {"state": {"target": ["6", "7", "8", "2", "10", "12", "11", "3", "4"], "time": [1782, 2519, 2833, 3668, 4868, 5287, 5699, 6418, 7000]}, "edge": {"target": [], "time": []}}, "mouseover": {"state": {"target": ["5", "6", "7", "8", "2", "2", "4", "12", "12", "10", "12", "11", "1", "3", "4"], "time": [1403, 1669, 2292, 2757, 3326, 3570, 4222, 4569, 4736, 4812, 5231, 5680, 5978, 6222, 6847]}, "edge": {"target": [], "time": []}}, "mouseout": {"state": {"target": ["0", "5", "6", "7", "6", "8", "6", "2", "2", "4", "12", "12", "10", "12", "10", "11", "1", "3", "2", "4", "2", "3"], "time": [1383, 1483, 2253, 2646, 2730, 2979, 3090, 3347, 4147, 4472, 4583, 4777, 4972, 5389, 5444, 5833, 6013, 6534, 6611, 7110, 7138, 7159]}, "edge": {"target": [], "time": []}}}, "displayed_time": "10.17", "trialTime": 11419, "trial_type": "mouselab-mdp", "trial_index": 69, "time_elapsed": 1421953, "internal_node_id": "0.0-4.0-3.0-17.0"}}, {"uniqueid": "w29099398:a13355343", "current_trial": 70, "dateTime": 1664369717070, "trialdata": {"revealed_states": [], "num_clicks_accrued": [0, 0, 0, 0, 0, 0, 0, 0, 0, 0, 0, 0, 0], "stateRewards": ["", -4, -8, -48, 48, -2, 8, 48, 48, -2, -4, -48, -48], "withholdReward": true, "trial_id": "mdp_752833580638", "block": "test2", "trialIndex": 54, "score": 58.5, "costs": -0.5, "simulationMode": [null, null, null], "rewards": [-2, 8, 48], "path": ["0", "0", "5", "6", "8"], "rt": [2339, 74, 276], "actions": ["right", "right", "down"], "actionTimes": [3848, 4421, 5205], "queries": {"click": {"state": {"target": ["6", "8"], "time": [1910, 2808]}, "edge": {"target": [], "time": []}}, "mouseover": {"state": {"target": ["5", "6", "8", "8"], "time": [1720, 1776, 2567, 2763]}, "edge": {"target": [], "time": []}}, "mouseout": {"state": {"target": ["8", "0", "5", "6", "6", "8", "6", "8", "6"], "time": [1116, 1677, 1749, 1998, 2304, 2609, 2721, 2938, 6630]}, "edge": {"target": [], "time": []}}}, "displayed_time": "10.51", "trialTime": 11748, "trial_type": "mouselab-mdp", "trial_index": 70, "time_elapsed": 1433747, "internal_node_id": "0.0-4.0-3.0-18.0"}}, {"uniqueid": "w29099398:a13355343", "current_trial": 71, "dateTime": 1664369728769, "trialdata": {"revealed_states": [], "num_clicks_accrued": [0, 0, 0, 0, 0, 0, 0, 0, 0, 0, 0, 0, 0], "stateRewards": ["", -2, -4, -24, 48, -4, 8, 48, 48, 2, 8, -48, -24], "withholdReward": true, "trial_id": "mdp_136376573354", "block": "test2", "trialIndex": 55, "score": 56.5, "costs": -0.5, "simulationMode": [null, null, null], "rewards": [-4, 8, 48], "path": ["0", "0", "5", "6", "8"], "rt": [2510, 58, 35], "actions": ["right", "right", "down"], "actionTimes": [3841, 4403, 4943], "queries": {"click": {"state": {"target": ["6", "8"], "time": [1902, 2616]}, "edge": {"target": [], "time": []}}, "mouseover": {"state": {"target": ["5", "6", "7", "8", "8"], "time": [1595, 1831, 2192, 2351, 2525]}, "edge": {"target": [], "time": []}}, "mouseout": {"state": {"target": ["0", "5", "6", "7", "6", "8", "8", "6", "6", "6", "5"], "time": [1560, 1658, 2109, 2296, 2338, 2379, 2686, 3087, 3220, 6198, 9998]}, "edge": {"target": [], "time": []}}}, "displayed_time": "10.33", "trialTime": 11650, "trial_type": "mouselab-mdp", "trial_index": 71, "time_elapsed": 1445445, "internal_node_id": "0.0-4.0-3.0-19.0"}}, {"uniqueid": "w29099398:a13355343", "current_trial": 72, "dateTime": 1664369742331, "trialdata": {"revealed_states": [], "num_clicks_accrued": [0, 0, 0, 0, 0, 0, 0, 0, 0, 0, 0, 0, 0], "stateRewards": ["", -4, -8, -48, -48, 4, -8, 48, 48, 2, 8, 48, 24], "withholdReward": false, "trial_id": "mdp_880437222492", "block": "test2", "trialIndex": 56, "score": 61.75, "costs": -1.25, "simulationMode": [null, null, null], "rewards": [2, 8, 48], "path": ["0", "0", "9", "10", "11"], "rt": [4308, 53, 122], "actions": ["left", "left", "up"], "actionTimes": [5566, 6126, 6751], "queries": {"click": {"state": {"target": ["6", "2", "10", "12", "11"], "time": [2307, 2974, 3453, 3935, 4694]}, "edge": {"target": [], "time": []}}, "mouseover": {"state": {"target": ["5", "6", "5", "1", "2", "1", "9", "10", "9", "12", "11", "11", "1"], "time": [1747, 2147, 2635, 2705, 2920, 3136, 3239, 3386, 3601, 3816, 4420, 4628, 4830]}, "edge": {"target": [], "time": []}}, "mouseout": {"state": {"target": ["0", "5", "6", "5", "1", "2", "1", "9", "10", "9", "12", "10", "11", "11", "1", "5"], "time": [1206, 1774, 2490, 2677, 2746, 3059, 3198, 3295, 3552, 3753, 4081, 4261, 4455, 4760, 4850, 8121]}, "edge": {"target": [], "time": []}}}, "displayed_time": "9.26", "trialTime": 13519, "trial_type": "mouselab-mdp", "trial_index": 72, "time_elapsed": 1459007, "internal_node_id": "0.0-4.0-3.0-20.0"}}, {"uniqueid": "w29099398:a13355343", "current_trial": 73, "dateTime": 1664369753919, "trialdata": {"revealed_states": [], "num_clicks_accrued": [0, 0, 0, 0, 0, 0, 0, 0, 0, 0, 0, 0, 0], "stateRewards": ["", 2, -8, -24, -48, -2, -4, 48, 48, 4, 8, 48, 48], "withholdReward": true, "trial_id": "mdp_347285045422", "block": "test2", "trialIndex": 57, "score": 64, "costs": -1, "simulationMode": [null, null, null], "rewards": [4, 8, 48], "path": ["0", "0", "9", "10", "12"], "rt": [3478, 191, 48], "actions": ["left", "left", "down"], "actionTimes": [4911, 5608, 6159], "queries": {"click": {"state": {"target": ["6", "2", "10", "12"], "time": [2257, 2793, 3342, 3738]}, "edge": {"target": [], "time": []}}, "mouseover": {"state": {"target": ["0", "5", "6", "6", "7", "3", "2", "9", "10", "12"], "time": [1579, 1625, 1695, 2153, 2459, 2507, 2729, 3083, 3243, 3590]}, "edge": {"target": [], "time": []}}, "mouseout": {"state": {"target": ["0", "0", "5", "6", "6", "7", "3", "2", "9", "10", "12", "10", "7", "7", "6", "8"], "time": [1357, 1598, 1660, 1952, 2431, 2486, 2550, 3007, 3097, 3536, 3834, 3952, 7222, 7325, 7402, 9749]}, "edge": {"target": [], "time": []}}}, "displayed_time": "9.43", "trialTime": 11544, "trial_type": "mouselab-mdp", "trial_index": 73, "time_elapsed": 1470595, "internal_node_id": "0.0-4.0-3.0-21.0"}}, {"uniqueid": "w29099398:a13355343", "current_trial": 74, "dateTime": 1664369764844, "trialdata": {"revealed_states": [], "num_clicks_accrued": [0, 0, 0, 0, 0, 0, 0, 0, 0, 0, 0, 0, 0], "stateRewards": ["", 4, -8, -48, 48, -2, 8, -48, 48, -2, -4, 24, -48], "withholdReward": true, "trial_id": "mdp_400558136089", "block": "test2", "trialIndex": 58, "score": 58.5, "costs": -0.5, "simulationMode": [null, null, null], "rewards": [-2, 8, 48], "path": ["0", "0", "5", "6", "8"], "rt": [2084, 11, 145], "actions": ["right", "right", "down"], "actionTimes": [3501, 4014, 4670], "queries": {"click": {"state": {"target": ["6", "8"], "time": [1911, 2462]}, "edge": {"target": [], "time": []}}, "mouseover": {"state": {"target": ["5", "6", "5", "8"], "time": [1697, 1753, 2058, 2301]}, "edge": {"target": [], "time": []}}, "mouseout": {"state": {"target": ["12", "0", "5", "6", "5", "6", "8", "7", "1", "10", "12", "8"], "time": [1043, 1677, 1725, 2024, 2072, 2274, 2552, 5517, 5599, 5669, 5697, 5836]}, "edge": {"target": [], "time": []}}}, "displayed_time": "9.42", "trialTime": 10884, "trial_type": "mouselab-mdp", "trial_index": 74, "time_elapsed": 1481521, "internal_node_id": "0.0-4.0-3.0-22.0"}}, {"uniqueid": "w29099398:a13355343", "current_trial": 75, "dateTime": 1664369796437, "trialdata": {"revealed_states": [], "num_clicks_accrued": [0, 0, 0, 0, 0, 0, 0, 0, 0, 0, 0, 0, 0], "stateRewards": ["", -2, 8, -48, -24, -2, 8, 48, -48, -4, 8, 24, 48], "withholdReward": true, "trial_id": "mdp_160707003673", "block": "test2", "trialIndex": 59, "score": 58.25, "costs": -0.75, "simulationMode": [null, null, null], "rewards": [-2, 8, 48], "path": ["0", "0", "5", "6", "7"], "rt": [2457, 87, 42], "actions": ["right", "right", "up"], "actionTimes": [14830, 15417, 15962], "queries": {"click": {"state": {"target": ["6", "8", "7"], "time": [12971, 13563, 14043]}, "edge": {"target": [], "time": []}}, "mouseover": {"state": {"target": ["6", "8", "8", "7"], "time": [12939, 13315, 13455, 13958]}, "edge": {"target": [], "time": []}}, "mouseout": {"state": {"target": ["0", "0", "6", "8", "8", "6", "7", "6"], "time": [12204, 12556, 13301, 13363, 13669, 13905, 14183, 31374]}, "edge": {"target": [], "time": []}}}, "displayed_time": "20.37", "trialTime": 31558, "trial_type": "mouselab-mdp", "trial_index": 75, "time_elapsed": 1513114, "internal_node_id": "0.0-4.0-3.0-23.0"}}, {"uniqueid": "w29099398:a13355343", "current_trial": 76, "dateTime": 1664369808529, "trialdata": {"revealed_states": [], "num_clicks_accrued": [0, 0, 0, 0, 0, 0, 0, 0, 0, 0, 0, 0, 0], "stateRewards": ["", -4, 4, -24, 24, 2, 4, -24, 48, -4, 8, -48, 48], "withholdReward": true, "trial_id": "mdp_422109108860", "block": "test2", "trialIndex": 60, "score": 58.5, "costs": -0.5, "simulationMode": [null, null, null], "rewards": [2, 4, 48], "path": ["0", "0", "5", "6", "8"], "rt": [3055, 259, 139], "actions": ["right", "right", "down"], "actionTimes": [4090, 4861, 5502], "queries": {"click": {"state": {"target": ["6", "8"], "time": [2236, 3318]}, "edge": {"target": [], "time": []}}, "mouseover": {"state": {"target": ["5", "6", "1", "8"], "time": [1272, 1335, 2647, 3154]}, "edge": {"target": [], "time": []}}, "mouseout": {"state": {"target": ["6", "0", "0", "5", "6", "1", "8", "6"], "time": [661, 814, 981, 1300, 2460, 2654, 3390, 3439]}, "edge": {"target": [], "time": []}}}, "displayed_time": "9.04", "trialTime": 12049, "trial_type": "mouselab-mdp", "trial_index": 76, "time_elapsed": 1525206, "internal_node_id": "0.0-4.0-3.0-24.0"}}, {"uniqueid": "w29099398:a13355343", "current_trial": 77, "dateTime": 1664369822871, "trialdata": {"revealed_states": [], "num_clicks_accrued": [0, 0, 0, 0, 0, 0, 0, 0, 0, 0, 0, 0, 0], "stateRewards": ["", 4, 4, 24, -48, 2, -8, -24, -48, 4, 8, 48, 48], "withholdReward": false, "trial_id": "mdp_592471239511", "block": "test2", "trialIndex": 61, "score": 64, "costs": -1, "simulationMode": [null, null, null], "rewards": [4, 8, 48], "path": ["0", "0", "9", "10", "12"], "rt": [2774, 444, 226], "actions": ["left", "left", "down"], "actionTimes": [5115, 6067, 6800], "queries": {"click": {"state": {"target": ["6", "2", "10", "12"], "time": [2882, 3501, 3906, 4233]}, "edge": {"target": [], "time": []}}, "mouseover": {"state": {"target": ["0", "5", "6", "5", "2", "1", "9", "10", "12", "9"], "time": [2400, 2462, 2504, 3177, 3465, 3643, 3727, 3811, 4157, 4629]}, "edge": {"target": [], "time": []}}, "mouseout": {"state": {"target": ["7", "6", "5", "0", "5", "6", "6", "5", "0", "0", "5", "6", "5", "2", "1", "9", "10", "12", "10", "9"], "time": [1467, 1497, 1553, 1907, 1949, 1997, 2074, 2108, 2200, 2442, 2483, 3164, 3185, 3601, 3657, 3755, 4039, 4365, 4583, 4636]}, "edge": {"target": [], "time": []}}}, "displayed_time": "11.34", "trialTime": 14305, "trial_type": "mouselab-mdp", "trial_index": 77, "time_elapsed": 1539548, "internal_node_id": "0.0-4.0-3.0-25.0"}}, {"uniqueid": "w29099398:a13355343", "current_trial": 78, "dateTime": 1664369839052, "trialdata": {"revealed_states": [], "num_clicks_accrued": [0, 0, 0, 0, 0, 0, 0, 0, 0, 0, 0, 0, 0], "stateRewards": ["", -4, -4, -24, 48, -4, -8, -24, 48, 2, 4, 48, 48], "withholdReward": false, "trial_id": "mdp_810954007398", "block": "test2", "trialIndex": 62, "score": 58, "costs": -1, "simulationMode": [null, null, null], "rewards": [2, 4, 48], "path": ["0", "0", "9", "10", "12"], "rt": [3225, 344, 80], "actions": ["left", "left", "down"], "actionTimes": [4075, 4916, 5499], "queries": {"click": {"state": {"target": ["6", "2", "10", "12"], "time": [1555, 2500, 2884, 3281]}, "edge": {"target": [], "time": []}}, "mouseover": {"state": {"target": ["5", "6", "6", "2", "10", "12"], "time": [961, 1002, 1502, 2224, 2793, 3203]}, "edge": {"target": [], "time": []}}, "mouseout": {"state": {"target": ["0", "5", "6", "6", "2", "10", "12"], "time": [939, 988, 1043, 1807, 2654, 3169, 3529]}, "edge": {"target": [], "time": []}}}, "displayed_time": "8.85", "trialTime": 16126, "trial_type": "mouselab-mdp", "trial_index": 78, "time_elapsed": 1555729, "internal_node_id": "0.0-4.0-3.0-26.0"}}, {"uniqueid": "w29099398:a13355343", "current_trial": 79, "dateTime": 1664369849789, "trialdata": {"revealed_states": [], "num_clicks_accrued": [0, 0, 0, 0, 0, 0, 0, 0, 0, 0, 0, 0, 0], "stateRewards": ["", 4, 4, 24, 24, 4, -4, 48, 48, 4, 4, 24, -48], "withholdReward": true, "trial_id": "mdp_454251689008", "block": "test2", "trialIndex": 63, "score": 34.75, "costs": -2.25, "simulationMode": [null, null, null], "rewards": [4, 4, 24], "path": ["0", "0", "1", "2", "4"], "rt": [5975, 288, 106], "actions": ["up", "up", "left"], "actionTimes": [6684, 7470, 8082], "queries": {"click": {"state": {"target": ["6", "2", "10", "12", "11", "3", "4", "1", "9"], "time": [1084, 1519, 1894, 2373, 2748, 3269, 3582, 5148, 5806]}, "edge": {"target": [], "time": []}}, "mouseover": {"state": {"target": ["5", "6", "1", "2", "10", "9", "9", "12", "11", "3", "4", "1", "9", "0"], "time": [904, 946, 1348, 1411, 1820, 2063, 2202, 2293, 2688, 3237, 3501, 5056, 5788, 6008]}, "edge": {"target": [], "time": []}}, "mouseout": {"state": {"target": ["0", "5", "6", "1", "2", "10", "9", "9", "12", "10", "11", "3", "2", "4", "2", "1", "9", "0"], "time": [890, 932, 1279, 1362, 1633, 2022, 2105, 2230, 2473, 2647, 2835, 3341, 3445, 3688, 3785, 5250, 5952, 6070]}, "edge": {"target": [], "time": []}}}, "displayed_time": "9.71", "trialTime": 10699, "trial_type": "mouselab-mdp", "trial_index": 79, "time_elapsed": 1566466, "internal_node_id": "0.0-4.0-3.0-27.0"}}, {"uniqueid": "w29099398:a13355343", "current_trial": 80, "dateTime": 1664369860356, "trialdata": {"revealed_states": [], "num_clicks_accrued": [0, 0, 0, 0, 0, 0, 0, 0, 0, 0, 0, 0, 0], "stateRewards": ["", 4, 4, -24, -48, -4, 4, -48, 24, 4, -8, -48, 48], "withholdReward": true, "trial_id": "mdp_566768794366", "block": "test2", "trialIndex": 64, "score": 27.25, "costs": -1.75, "simulationMode": [null, null, null], "rewards": [-4, 4, 24], "path": ["0", "0", "5", "6", "8"], "rt": [4090, 123, 114], "actions": ["right", "right", "down"], "actionTimes": [4721, 5348, 5963], "queries": {"click": {"state": {"target": ["6", "2", "10", "3", "4", "7", "8"], "time": [1159, 1881, 2365, 2900, 3275, 3686, 3922]}, "edge": {"target": [], "time": []}}, "mouseover": {"state": {"target": ["5", "6", "1", "2", "9", "10", "9", "1", "3", "4", "7", "8"], "time": [864, 1100, 1370, 1773, 2134, 2275, 2475, 2683, 2731, 3217, 3515, 3856]}, "edge": {"target": [], "time": []}}, "mouseout": {"state": {"target": ["0", "5", "6", "1", "2", "9", "10", "9", "1", "3", "2", "4", "7", "6", "8", "0", "5"], "time": [328, 884, 1294, 1384, 2044, 2155, 2432, 2648, 2697, 3016, 3161, 3342, 3772, 3821, 4051, 8259, 10324]}, "edge": {"target": [], "time": []}}}, "displayed_time": "8.63", "trialTime": 10519, "trial_type": "mouselab-mdp", "trial_index": 80, "time_elapsed": 1577033, "internal_node_id": "0.0-4.0-3.0-28.0"}}, {"uniqueid": "w29099398:a13355343", "current_trial": 81, "dateTime": 1664369871225, "trialdata": {"revealed_states": [], "num_clicks_accrued": [0, 0, 0