{"condition": 0, "counterbalance": 0, "assignmentId": "a65282722", "workerId": "w34656333", "hitId": "h86167161", "currenttrial": 959, "bonus": 0, "data": [{"uniqueid": "w34656333:a65282722", "current_trial": 0, "dateTime": 1664558763814, "trialdata": {"success": true, "trial_type": "fullscreen", "trial_index": 0, "time_elapsed": 6327, "internal_node_id": "0.0-0.0"}}, {"uniqueid": "w34656333:a65282722", "current_trial": 1, "dateTime": 1664558788314, "trialdata": {"view_history": [{"page_index": 0, "viewing_time": 24495}], "rt": 24496, "trial_id": "exp_instructions_distractor", "trial_type": "instructions", "trial_index": 1, "time_elapsed": 30828, "internal_node_id": "0.0-1.0"}}, {"uniqueid": "w34656333:a65282722", "current_trial": 2, "dateTime": 1664558801555, "trialdata": {"view_history": [{"page_index": 0, "viewing_time": 13239}], "rt": 13239, "trial_id": "color_game_instructions", "trial_type": "instructions", "trial_index": 2, "time_elapsed": 44069, "internal_node_id": "0.0-2.0"}}, {"uniqueid": "w34656333:a65282722", "current_trial": 3, "dateTime": 1664558803452, "trialdata": {"rt": 1894, "stimulus": "<h1> Get ready to start the game! </h1>\n\nThank you for reading the instructions. Get ready start with the first of 5 block(s) of this game.\n<br><br>\nIn this first block, you will complete 90 rounds of this game before moving on.\n<br><br>\nRemember, the better you perform, the bigger your bonus will be!\n<br><br>\n<div style='text-align: center;'>Press <code>space</code> to begin.</div>", "response": " ", "trial_id": "stroop_1_ready_1", "trial_type": "html-keyboard-response", "trial_index": 3, "time_elapsed": 45966, "internal_node_id": "0.0-3.0"}}, {"uniqueid": "w34656333:a65282722", "current_trial": 4, "dateTime": 1664558804772, "trialdata": {"rt": 1311, "stimulus": "<p id='stroop-text' class='stroop-red'>BRIDGE</p>", "response": "r", "stimulus-type": "unrelated", "word": "BRIDGE", "color": "red", "correct_response": "r", "trial_id": "stroop-trial-1-unrelated-29", "trial_type": "html-keyboard-response", "trial_index": 4, "time_elapsed": 47286, "internal_node_id": "0.0-4.0-0.0"}}, {"uniqueid": "w34656333:a65282722", "current_trial": 5, "dateTime": 1664558806418, "trialdata": {"rt": 1136, "stimulus": "<p id='stroop-text' class='stroop-blue'>DOG</p>", "response": "b", "stimulus-type": "unrelated", "word": "DOG", "color": "blue", "correct_response": "b", "trial_id": "stroop-trial-1-unrelated-24", "trial_type": "html-keyboard-response", "trial_index": 5, "time_elapsed": 48932, "internal_node_id": "0.0-4.0-1.0"}}, {"uniqueid": "w34656333:a65282722", "current_trial": 6, "dateTime": 1664558808011, "trialdata": {"rt": 659, "stimulus": "<p id='stroop-text' class='stroop-green'>GREEN</p>", "response": "g", "stimulus-type": "congruent", "word": "green", "color": "green", "correct_response": "g", "trial_id": "stroop-trial-1-congruent-14", "trial_type": "html-keyboard-response", "trial_index": 6, "time_elapsed": 50525, "internal_node_id": "0.0-4.0-2.0"}}, {"uniqueid": "w34656333:a65282722", "current_trial": 7, "dateTime": 1664558809985, "trialdata": {"rt": 623, "stimulus": "<p id='stroop-text' class='stroop-red'>RED</p>", "response": "r", "stimulus-type": "congruent", "word": "red", "color": "red", "correct_response": "r", "trial_id": "stroop-trial-1-congruent-8", "trial_type": "html-keyboard-response", "trial_index": 7, "time_elapsed": 52499, "internal_node_id": "0.0-4.0-3.0"}}, {"uniqueid": "w34656333:a65282722", "current_trial": 8, "dateTime": 1664558811834, "trialdata": {"rt": 478, "stimulus": "<p id='stroop-text' class='stroop-green'>CHAIR</p>", "response": "g", "stimulus-type": "unrelated", "word": "CHAIR", "color": "green", "correct_response": "g", "trial_id": "stroop-trial-1-unrelated-4", "trial_type": "html-keyboard-response", "trial_index": 8, "time_elapsed": 54348, "internal_node_id": "0.0-4.0-4.0"}}, {"uniqueid": "w34656333:a65282722", "current_trial": 9, "dateTime": 1664558812870, "trialdata": {"rt": 507, "stimulus": "<p id='stroop-text' class='stroop-blue'>BLUE</p>", "response": "b", "stimulus-type": "congruent", "word": "blue", "color": "blue", "correct_response": "b", "trial_id": "stroop-trial-1-congruent-28", "trial_type": "html-keyboard-response", "trial_index": 9, "time_elapsed": 55384, "internal_node_id": "0.0-4.0-5.0"}}, {"uniqueid": "w34656333:a65282722", "current_trial": 10, "dateTime": 1664558814806, "trialdata": {"rt": 449, "stimulus": "<p id='stroop-text' class='stroop-yellow'>CHAIR</p>", "response": "y", "stimulus-type": "unrelated", "word": "CHAIR", "color": "yellow", "correct_response": "y", "trial_id": "stroop-trial-1-unrelated-21", "trial_type": "html-keyboard-response", "trial_index": 10, "time_elapsed": 57320, "internal_node_id": "0.0-4.0-6.0"}}, {"uniqueid": "w34656333:a65282722", "current_trial": 11, "dateTime": 1664558816026, "trialdata": {"rt": 665, "stimulus": "<p id='stroop-text' class='stroop-green'>STONE</p>", "response": "g", "stimulus-type": "unrelated", "word": "STONE", "color": "green", "correct_response": "g", "trial_id": "stroop-trial-1-unrelated-13", "trial_type": "html-keyboard-response", "trial_index": 11, "time_elapsed": 58539, "internal_node_id": "0.0-4.0-7.0"}}, {"uniqueid": "w34656333:a65282722", "current_trial": 12, "dateTime": 1664558817642, "trialdata": {"rt": 285, "stimulus": "<p id='stroop-text' class='stroop-red'>YELLOW</p>", "response": "r", "stimulus-type": "incongruent", "word": "yellow", "color": "red", "correct_response": "r", "trial_id": "stroop-trial-1-incongruent-5", "trial_type": "html-keyboard-response", "trial_index": 12, "time_elapsed": 60155, "internal_node_id": "0.0-4.0-8.0"}}, {"uniqueid": "w34656333:a65282722", "current_trial": 13, "dateTime": 1664558818847, "trialdata": {"rt": 484, "stimulus": "<p id='stroop-text' class='stroop-yellow'>STONE</p>", "response": "y", "stimulus-type": "unrelated", "word": "STONE", "color": "yellow", "correct_response": "y", "trial_id": "stroop-trial-1-unrelated-28", "trial_type": "html-keyboard-response", "trial_index": 13, "time_elapsed": 61361, "internal_node_id": "0.0-4.0-9.0"}}, {"uniqueid": "w34656333:a65282722", "current_trial": 14, "dateTime": 1664558819756, "trialdata": {"rt": 404, "stimulus": "<p id='stroop-text' class='stroop-blue'>RED</p>", "response": "b", "stimulus-type": "incongruent", "word": "red", "color": "blue", "correct_response": "b", "trial_id": "stroop-trial-1-incongruent-24", "trial_type": "html-keyboard-response", "trial_index": 14, "time_elapsed": 62270, "internal_node_id": "0.0-4.0-10.0"}}, {"uniqueid": "w34656333:a65282722", "current_trial": 15, "dateTime": 1664558821087, "trialdata": {"rt": 730, "stimulus": "<p id='stroop-text' class='stroop-yellow'>GREEN</p>", "response": "y", "stimulus-type": "incongruent", "word": "green", "color": "yellow", "correct_response": "y", "trial_id": "stroop-trial-1-incongruent-6", "trial_type": "html-keyboard-response", "trial_index": 15, "time_elapsed": 63600, "internal_node_id": "0.0-4.0-11.0"}}, {"uniqueid": "w34656333:a65282722", "current_trial": 16, "dateTime": 1664558822983, "trialdata": {"rt": 630, "stimulus": "<p id='stroop-text' class='stroop-yellow'>SHIP</p>", "response": "y", "stimulus-type": "unrelated", "word": "SHIP", "color": "yellow", "correct_response": "y", "trial_id": "stroop-trial-1-unrelated-5", "trial_type": "html-keyboard-response", "trial_index": 16, "time_elapsed": 65497, "internal_node_id": "0.0-4.0-12.0"}}, {"uniqueid": "w34656333:a65282722", "current_trial": 17, "dateTime": 1664558824850, "trialdata": {"rt": 501, "stimulus": "<p id='stroop-text' class='stroop-blue'>SHIP</p>", "response": "b", "stimulus-type": "unrelated", "word": "SHIP", "color": "blue", "correct_response": "b", "trial_id": "stroop-trial-1-unrelated-19", "trial_type": "html-keyboard-response", "trial_index": 17, "time_elapsed": 67363, "internal_node_id": "0.0-4.0-13.0"}}, {"uniqueid": "w34656333:a65282722", "current_trial": 18, "dateTime": 1664558825923, "trialdata": {"rt": 565, "stimulus": "<p id='stroop-text' class='stroop-yellow'>GREEN</p>", "response": "y", "stimulus-type": "incongruent", "word": "green", "color": "yellow", "correct_response": "y", "trial_id": "stroop-trial-1-incongruent-29", "trial_type": "html-keyboard-response", "trial_index": 18, "time_elapsed": 68437, "internal_node_id": "0.0-4.0-14.0"}}, {"uniqueid": "w34656333:a65282722", "current_trial": 19, "dateTime": 1664558827764, "trialdata": {"rt": 410, "stimulus": "<p id='stroop-text' class='stroop-yellow'>YELLOW</p>", "response": "y", "stimulus-type": "congruent", "word": "yellow", "color": "yellow", "correct_response": "y", "trial_id": "stroop-trial-1-congruent-21", "trial_type": "html-keyboard-response", "trial_index": 19, "time_elapsed": 70277, "internal_node_id": "0.0-4.0-15.0"}}, {"uniqueid": "w34656333:a65282722", "current_trial": 20, "dateTime": 1664558828869, "trialdata": {"rt": 511, "stimulus": "<p id='stroop-text' class='stroop-green'>BRAIN</p>", "response": "g", "stimulus-type": "unrelated", "word": "BRAIN", "color": "green", "correct_response": "g", "trial_id": "stroop-trial-1-unrelated-12", "trial_type": "html-keyboard-response", "trial_index": 20, "time_elapsed": 71383, "internal_node_id": "0.0-4.0-16.0"}}, {"uniqueid": "w34656333:a65282722", "current_trial": 21, "dateTime": 1664558830770, "trialdata": {"rt": 417, "stimulus": "<p id='stroop-text' class='stroop-yellow'>GREEN</p>", "response": "g", "stimulus-type": "incongruent", "word": "green", "color": "yellow", "correct_response": "y", "trial_id": "stroop-trial-1-incongruent-17", "trial_type": "html-keyboard-response", "trial_index": 21, "time_elapsed": 73283, "internal_node_id": "0.0-4.0-17.0"}}, {"uniqueid": "w34656333:a65282722", "current_trial": 22, "dateTime": 1664558832115, "trialdata": {"rt": 756, "stimulus": "<p id='stroop-text' class='stroop-yellow'>WINDOW</p>", "response": "y", "stimulus-type": "unrelated", "word": "WINDOW", "color": "yellow", "correct_response": "y", "trial_id": "stroop-trial-1-unrelated-27", "trial_type": "html-keyboard-response", "trial_index": 22, "time_elapsed": 74629, "internal_node_id": "0.0-4.0-18.0"}}, {"uniqueid": "w34656333:a65282722", "current_trial": 23, "dateTime": 1664558834071, "trialdata": {"rt": 717, "stimulus": "<p id='stroop-text' class='stroop-green'>BRIDGE</p>", "response": "g", "stimulus-type": "unrelated", "word": "BRIDGE", "color": "green", "correct_response": "g", "trial_id": "stroop-trial-1-unrelated-30", "trial_type": "html-keyboard-response", "trial_index": 23, "time_elapsed": 76585, "internal_node_id": "0.0-4.0-19.0"}}, {"uniqueid": "w34656333:a65282722", "current_trial": 24, "dateTime": 1664558835887, "trialdata": {"rt": 537, "stimulus": "<p id='stroop-text' class='stroop-red'>RED</p>", "response": "r", "stimulus-type": "congruent", "word": "red", "color": "red", "correct_response": "r", "trial_id": "stroop-trial-1-congruent-4", "trial_type": "html-keyboard-response", "trial_index": 24, "time_elapsed": 78400, "internal_node_id": "0.0-4.0-20.0"}}, {"uniqueid": "w34656333:a65282722", "current_trial": 25, "dateTime": 1664558838147, "trialdata": {"rt": 788, "stimulus": "<p id='stroop-text' class='stroop-green'>GREEN</p>", "response": "g", "stimulus-type": "congruent", "word": "green", "color": "green", "correct_response": "g", "trial_id": "stroop-trial-1-congruent-20", "trial_type": "html-keyboard-response", "trial_index": 25, "time_elapsed": 80660, "internal_node_id": "0.0-4.0-21.0"}}, {"uniqueid": "w34656333:a65282722", "current_trial": 26, "dateTime": 1664558840037, "trialdata": {"rt": 681, "stimulus": "<p id='stroop-text' class='stroop-red'>GREEN</p>", "response": "r", "stimulus-type": "incongruent", "word": "green", "color": "red", "correct_response": "r", "trial_id": "stroop-trial-1-incongruent-23", "trial_type": "html-keyboard-response", "trial_index": 26, "time_elapsed": 82550, "internal_node_id": "0.0-4.0-22.0"}}, {"uniqueid": "w34656333:a65282722", "current_trial": 27, "dateTime": 1664558841945, "trialdata": {"rt": 595, "stimulus": "<p id='stroop-text' class='stroop-green'>RED</p>", "response": "g", "stimulus-type": "incongruent", "word": "red", "color": "green", "correct_response": "g", "trial_id": "stroop-trial-1-incongruent-18", "trial_type": "html-keyboard-response", "trial_index": 27, "time_elapsed": 84458, "internal_node_id": "0.0-4.0-23.0"}}, {"uniqueid": "w34656333:a65282722", "current_trial": 28, "dateTime": 1664558843766, "trialdata": {"rt": 403, "stimulus": "<p id='stroop-text' class='stroop-yellow'>BLUE</p>", "response": "y", "stimulus-type": "incongruent", "word": "blue", "color": "yellow", "correct_response": "y", "trial_id": "stroop-trial-1-incongruent-16", "trial_type": "html-keyboard-response", "trial_index": 28, "time_elapsed": 86279, "internal_node_id": "0.0-4.0-24.0"}}, {"uniqueid": "w34656333:a65282722", "current_trial": 29, "dateTime": 1664558844864, "trialdata": {"rt": 511, "stimulus": "<p id='stroop-text' class='stroop-red'>RED</p>", "response": "r", "stimulus-type": "congruent", "word": "red", "color": "red", "correct_response": "r", "trial_id": "stroop-trial-1-congruent-12", "trial_type": "html-keyboard-response", "trial_index": 29, "time_elapsed": 87378, "internal_node_id": "0.0-4.0-25.0"}}, {"uniqueid": "w34656333:a65282722", "current_trial": 30, "dateTime": 1664558846950, "trialdata": {"rt": 588, "stimulus": "<p id='stroop-text' class='stroop-green'>BRIDGE</p>", "response": "g", "stimulus-type": "unrelated", "word": "BRIDGE", "color": "green", "correct_response": "g", "trial_id": "stroop-trial-1-unrelated-6", "trial_type": "html-keyboard-response", "trial_index": 30, "time_elapsed": 89464, "internal_node_id": "0.0-4.0-26.0"}}, {"uniqueid": "w34656333:a65282722", "current_trial": 31, "dateTime": 1664558848826, "trialdata": {"rt": 467, "stimulus": "<p id='stroop-text' class='stroop-yellow'>YELLOW</p>", "response": "y", "stimulus-type": "congruent", "word": "yellow", "color": "yellow", "correct_response": "y", "trial_id": "stroop-trial-1-congruent-24", "trial_type": "html-keyboard-response", "trial_index": 31, "time_elapsed": 91339, "internal_node_id": "0.0-4.0-27.0"}}, {"uniqueid": "w34656333:a65282722", "current_trial": 32, "dateTime": 1664558850208, "trialdata": {"rt": 845, "stimulus": "<p id='stroop-text' class='stroop-yellow'>RED</p>", "response": "y", "stimulus-type": "incongruent", "word": "red", "color": "yellow", "correct_response": "y", "trial_id": "stroop-trial-1-incongruent-25", "trial_type": "html-keyboard-response", "trial_index": 32, "time_elapsed": 92721, "internal_node_id": "0.0-4.0-28.0"}}, {"uniqueid": "w34656333:a65282722", "current_trial": 33, "dateTime": 1664558852052, "trialdata": {"rt": 694, "stimulus": "<p id='stroop-text' class='stroop-red'>BLUE</p>", "response": "r", "stimulus-type": "incongruent", "word": "blue", "color": "red", "correct_response": "r", "trial_id": "stroop-trial-1-incongruent-2", "trial_type": "html-keyboard-response", "trial_index": 33, "time_elapsed": 94565, "internal_node_id": "0.0-4.0-29.0"}}, {"uniqueid": "w34656333:a65282722", "current_trial": 34, "dateTime": 1664558854009, "trialdata": {"rt": 656, "stimulus": "<p id='stroop-text' class='stroop-green'>YELLOW</p>", "response": "g", "stimulus-type": "incongruent", "word": "yellow", "color": "green", "correct_response": "g", "trial_id": "stroop-trial-1-incongruent-4", "trial_type": "html-keyboard-response", "trial_index": 34, "time_elapsed": 96522, "internal_node_id": "0.0-4.0-30.0"}}, {"uniqueid": "w34656333:a65282722", "current_trial": 35, "dateTime": 1664558855860, "trialdata": {"rt": 510, "stimulus": "<p id='stroop-text' class='stroop-red'>BLUE</p>", "response": "r", "stimulus-type": "incongruent", "word": "blue", "color": "red", "correct_response": "r", "trial_id": "stroop-trial-1-incongruent-13", "trial_type": "html-keyboard-response", "trial_index": 35, "time_elapsed": 98374, "internal_node_id": "0.0-4.0-31.0"}}, {"uniqueid": "w34656333:a65282722", "current_trial": 36, "dateTime": 1664558857894, "trialdata": {"rt": 532, "stimulus": "<p id='stroop-text' class='stroop-green'>RED</p>", "response": "y", "stimulus-type": "incongruent", "word": "red", "color": "green", "correct_response": "g", "trial_id": "stroop-trial-1-incongruent-10", "trial_type": "html-keyboard-response", "trial_index": 36, "time_elapsed": 100407, "internal_node_id": "0.0-4.0-32.0"}}, {"uniqueid": "w34656333:a65282722", "current_trial": 37, "dateTime": 1664558859725, "trialdata": {"rt": 364, "stimulus": "<p id='stroop-text' class='stroop-yellow'>DOG</p>", "response": "y", "stimulus-type": "unrelated", "word": "DOG", "color": "yellow", "correct_response": "y", "trial_id": "stroop-trial-1-unrelated-2", "trial_type": "html-keyboard-response", "trial_index": 37, "time_elapsed": 102238, "internal_node_id": "0.0-4.0-33.0"}}, {"uniqueid": "w34656333:a65282722", "current_trial": 38, "dateTime": 1664558860985, "trialdata": {"rt": 635, "stimulus": "<p id='stroop-text' class='stroop-green'>GREEN</p>", "response": "g", "stimulus-type": "congruent", "word": "green", "color": "green", "correct_response": "g", "trial_id": "stroop-trial-1-congruent-9", "trial_type": "html-keyboard-response", "trial_index": 38, "time_elapsed": 103498, "internal_node_id": "0.0-4.0-34.0"}}, {"uniqueid": "w34656333:a65282722", "current_trial": 39, "dateTime": 1664558862749, "trialdata": {"rt": 389, "stimulus": "<p id='stroop-text' class='stroop-red'>YELLOW</p>", "response": "r", "stimulus-type": "incongruent", "word": "yellow", "color": "red", "correct_response": "r", "trial_id": "stroop-trial-1-incongruent-9", "trial_type": "html-keyboard-response", "trial_index": 39, "time_elapsed": 105262, "internal_node_id": "0.0-4.0-35.0"}}, {"uniqueid": "w34656333:a65282722", "current_trial": 40, "dateTime": 1664558863836, "trialdata": {"rt": 486, "stimulus": "<p id='stroop-text' class='stroop-red'>DOG</p>", "response": "r", "stimulus-type": "unrelated", "word": "DOG", "color": "red", "correct_response": "r", "trial_id": "stroop-trial-1-unrelated-15", "trial_type": "html-keyboard-response", "trial_index": 40, "time_elapsed": 106349, "internal_node_id": "0.0-4.0-36.0"}}, {"uniqueid": "w34656333:a65282722", "current_trial": 41, "dateTime": 1664558865086, "trialdata": {"rt": 728, "stimulus": "<p id='stroop-text' class='stroop-green'>YELLOW</p>", "response": "g", "stimulus-type": "incongruent", "word": "yellow", "color": "green", "correct_response": "g", "trial_id": "stroop-trial-1-incongruent-15", "trial_type": "html-keyboard-response", "trial_index": 41, "time_elapsed": 107599, "internal_node_id": "0.0-4.0-37.0"}}, {"uniqueid": "w34656333:a65282722", "current_trial": 42, "dateTime": 1664558866874, "trialdata": {"rt": 524, "stimulus": "<p id='stroop-text' class='stroop-blue'>GREEN</p>", "response": "b", "stimulus-type": "incongruent", "word": "green", "color": "blue", "correct_response": "b", "trial_id": "stroop-trial-1-incongruent-26", "trial_type": "html-keyboard-response", "trial_index": 42, "time_elapsed": 109388, "internal_node_id": "0.0-4.0-38.0"}}, {"uniqueid": "w34656333:a65282722", "current_trial": 43, "dateTime": 1664558868885, "trialdata": {"rt": 524, "stimulus": "<p id='stroop-text' class='stroop-red'>RED</p>", "response": "r", "stimulus-type": "congruent", "word": "red", "color": "red", "correct_response": "r", "trial_id": "stroop-trial-1-congruent-7", "trial_type": "html-keyboard-response", "trial_index": 43, "time_elapsed": 111398, "internal_node_id": "0.0-4.0-39.0"}}, {"uniqueid": "w34656333:a65282722", "current_trial": 44, "dateTime": 1664558870962, "trialdata": {"rt": 605, "stimulus": "<p id='stroop-text' class='stroop-yellow'>STONE</p>", "response": "y", "stimulus-type": "unrelated", "word": "STONE", "color": "yellow", "correct_response": "y", "trial_id": "stroop-trial-1-unrelated-20", "trial_type": "html-keyboard-response", "trial_index": 44, "time_elapsed": 113475, "internal_node_id": "0.0-4.0-40.0"}}, {"uniqueid": "w34656333:a65282722", "current_trial": 45, "dateTime": 1664558872843, "trialdata": {"rt": 490, "stimulus": "<p id='stroop-text' class='stroop-red'>RED</p>", "response": "r", "stimulus-type": "congruent", "word": "red", "color": "red", "correct_response": "r", "trial_id": "stroop-trial-1-congruent-29", "trial_type": "html-keyboard-response", "trial_index": 45, "time_elapsed": 115356, "internal_node_id": "0.0-4.0-41.0"}}, {"uniqueid": "w34656333:a65282722", "current_trial": 46, "dateTime": 1664558873823, "trialdata": {"rt": 466, "stimulus": "<p id='stroop-text' class='stroop-green'>GREEN</p>", "response": "g", "stimulus-type": "congruent", "word": "green", "color": "green", "correct_response": "g", "trial_id": "stroop-trial-1-congruent-27", "trial_type": "html-keyboard-response", "trial_index": 46, "time_elapsed": 116336, "internal_node_id": "0.0-4.0-42.0"}}, {"uniqueid": "w34656333:a65282722", "current_trial": 47, "dateTime": 1664558874790, "trialdata": {"rt": 428, "stimulus": "<p id='stroop-text' class='stroop-green'>GREEN</p>", "response": "g", "stimulus-type": "congruent", "word": "green", "color": "green", "correct_response": "g", "trial_id": "stroop-trial-1-congruent-26", "trial_type": "html-keyboard-response", "trial_index": 47, "time_elapsed": 117304, "internal_node_id": "0.0-4.0-43.0"}}, {"uniqueid": "w34656333:a65282722", "current_trial": 48, "dateTime": 1664558875944, "trialdata": {"rt": 593, "stimulus": "<p id='stroop-text' class='stroop-red'>YELLOW</p>", "response": "r", "stimulus-type": "incongruent", "word": "yellow", "color": "red", "correct_response": "r", "trial_id": "stroop-trial-1-incongruent-28", "trial_type": "html-keyboard-response", "trial_index": 48, "time_elapsed": 118457, "internal_node_id": "0.0-4.0-44.0"}}, {"uniqueid": "w34656333:a65282722", "current_trial": 49, "dateTime": 1664558877766, "trialdata": {"rt": 405, "stimulus": "<p id='stroop-text' class='stroop-blue'>BOAT</p>", "response": "b", "stimulus-type": "unrelated", "word": "BOAT", "color": "blue", "correct_response": "b", "trial_id": "stroop-trial-1-unrelated-11", "trial_type": "html-keyboard-response", "trial_index": 49, "time_elapsed": 120280, "internal_node_id": "0.0-4.0-45.0"}}, {"uniqueid": "w34656333:a65282722", "current_trial": 50, "dateTime": 1664558878951, "trialdata": {"rt": 599, "stimulus": "<p id='stroop-text' class='stroop-red'>RED</p>", "response": "r", "stimulus-type": "congruent", "word": "red", "color": "red", "correct_response": "r", "trial_id": "stroop-trial-1-congruent-30", "trial_type": "html-keyboard-response", "trial_index": 50, "time_elapsed": 121464, "internal_node_id": "0.0-4.0-46.0"}}, {"uniqueid": "w34656333:a65282722", "current_trial": 51, "dateTime": 1664558880770, "trialdata": {"rt": 410, "stimulus": "<p id='stroop-text' class='stroop-red'>WINDOW</p>", "response": "r", "stimulus-type": "unrelated", "word": "WINDOW", "color": "red", "correct_response": "r", "trial_id": "stroop-trial-1-unrelated-22", "trial_type": "html-keyboard-response", "trial_index": 51, "time_elapsed": 123284, "internal_node_id": "0.0-4.0-47.0"}}, {"uniqueid": "w34656333:a65282722", "current_trial": 52, "dateTime": 1664558881725, "trialdata": {"rt": 373, "stimulus": "<p id='stroop-text' class='stroop-green'>FORK</p>", "response": "g", "stimulus-type": "unrelated", "word": "FORK", "color": "green", "correct_response": "g", "trial_id": "stroop-trial-1-unrelated-3", "trial_type": "html-keyboard-response", "trial_index": 52, "time_elapsed": 124238, "internal_node_id": "0.0-4.0-48.0"}}, {"uniqueid": "w34656333:a65282722", "current_trial": 53, "dateTime": 1664558882849, "trialdata": {"rt": 492, "stimulus": "<p id='stroop-text' class='stroop-blue'>GREEN</p>", "response": "b", "stimulus-type": "incongruent", "word": "green", "color": "blue", "correct_response": "b", "trial_id": "stroop-trial-1-incongruent-11", "trial_type": "html-keyboard-response", "trial_index": 53, "time_elapsed": 125362, "internal_node_id": "0.0-4.0-49.0"}}, {"uniqueid": "w34656333:a65282722", "current_trial": 54, "dateTime": 1664558883811, "trialdata": {"rt": 448, "stimulus": "<p id='stroop-text' class='stroop-blue'>YELLOW</p>", "response": "b", "stimulus-type": "incongruent", "word": "yellow", "color": "blue", "correct_response": "b", "trial_id": "stroop-trial-1-incongruent-22", "trial_type": "html-keyboard-response", "trial_index": 54, "time_elapsed": 126324, "internal_node_id": "0.0-4.0-50.0"}}, {"uniqueid": "w34656333:a65282722", "current_trial": 55, "dateTime": 1664558884939, "trialdata": {"rt": 586, "stimulus": "<p id='stroop-text' class='stroop-green'>GREEN</p>", "response": "g", "stimulus-type": "congruent", "word": "green", "color": "green", "correct_response": "g", "trial_id": "stroop-trial-1-congruent-19", "trial_type": "html-keyboard-response", "trial_index": 55, "time_elapsed": 127453, "internal_node_id": "0.0-4.0-51.0"}}, {"uniqueid": "w34656333:a65282722", "current_trial": 56, "dateTime": 1664558887042, "trialdata": {"rt": 690, "stimulus": "<p id='stroop-text' class='stroop-yellow'>RED</p>", "response": "y", "stimulus-type": "incongruent", "word": "red", "color": "yellow", "correct_response": "y", "trial_id": "stroop-trial-1-incongruent-21", "trial_type": "html-keyboard-response", "trial_index": 56, "time_elapsed": 129555, "internal_node_id": "0.0-4.0-52.0"}}, {"uniqueid": "w34656333:a65282722", "current_trial": 57, "dateTime": 1664558888947, "trialdata": {"rt": 585, "stimulus": "<p id='stroop-text' class='stroop-green'>GREEN</p>", "response": "g", "stimulus-type": "congruent", "word": "green", "color": "green", "correct_response": "g", "trial_id": "stroop-trial-1-congruent-22", "trial_type": "html-keyboard-response", "trial_index": 57, "time_elapsed": 131461, "internal_node_id": "0.0-4.0-53.0"}}, {"uniqueid": "w34656333:a65282722", "current_trial": 58, "dateTime": 1664558890919, "trialdata": {"rt": 563, "stimulus": "<p id='stroop-text' class='stroop-green'>GREEN</p>", "response": "g", "stimulus-type": "congruent", "word": "green", "color": "green", "correct_response": "g", "trial_id": "stroop-trial-1-congruent-18", "trial_type": "html-keyboard-response", "trial_index": 58, "time_elapsed": 133432, "internal_node_id": "0.0-4.0-54.0"}}, {"uniqueid": "w34656333:a65282722", "current_trial": 59, "dateTime": 1664558893253, "trialdata": {"rt": 903, "stimulus": "<p id='stroop-text' class='stroop-blue'>RED</p>", "response": "b", "stimulus-type": "incongruent", "word": "red", "color": "blue", "correct_response": "b", "trial_id": "stroop-trial-1-incongruent-8", "trial_type": "html-keyboard-response", "trial_index": 59, "time_elapsed": 135766, "internal_node_id": "0.0-4.0-55.0"}}, {"uniqueid": "w34656333:a65282722", "current_trial": 60, "dateTime": 1664558895168, "trialdata": {"rt": 808, "stimulus": "<p id='stroop-text' class='stroop-green'>BLUE</p>", "response": "g", "stimulus-type": "incongruent", "word": "blue", "color": "green", "correct_response": "g", "trial_id": "stroop-trial-1-incongruent-30", "trial_type": "html-keyboard-response", "trial_index": 60, "time_elapsed": 137681, "internal_node_id": "0.0-4.0-56.0"}}, {"uniqueid": "w34656333:a65282722", "current_trial": 61, "dateTime": 1664558896928, "trialdata": {"rt": 576, "stimulus": "<p id='stroop-text' class='stroop-yellow'>BOAT</p>", "response": "y", "stimulus-type": "unrelated", "word": "BOAT", "color": "yellow", "correct_response": "y", "trial_id": "stroop-trial-1-unrelated-8", "trial_type": "html-keyboard-response", "trial_index": 61, "time_elapsed": 139442, "internal_node_id": "0.0-4.0-57.0"}}, {"uniqueid": "w34656333:a65282722", "current_trial": 62, "dateTime": 1664558898885, "trialdata": {"rt": 534, "stimulus": "<p id='stroop-text' class='stroop-green'>YELLOW</p>", "response": "g", "stimulus-type": "incongruent", "word": "yellow", "color": "green", "correct_response": "g", "trial_id": "stroop-trial-1-incongruent-1", "trial_type": "html-keyboard-response", "trial_index": 62, "time_elapsed": 141399, "internal_node_id": "0.0-4.0-58.0"}}, {"uniqueid": "w34656333:a65282722", "current_trial": 63, "dateTime": 1664558900927, "trialdata": {"rt": 568, "stimulus": "<p id='stroop-text' class='stroop-red'>RED</p>", "response": "r", "stimulus-type": "congruent", "word": "red", "color": "red", "correct_response": "r", "trial_id": "stroop-trial-1-congruent-16", "trial_type": "html-keyboard-response", "trial_index": 63, "time_elapsed": 143441, "internal_node_id": "0.0-4.0-59.0"}}, {"uniqueid": "w34656333:a65282722", "current_trial": 64, "dateTime": 1664558903029, "trialdata": {"rt": 671, "stimulus": "<p id='stroop-text' class='stroop-green'>BOTTLE</p>", "response": "g", "stimulus-type": "unrelated", "word": "BOTTLE", "color": "green", "correct_response": "g", "trial_id": "stroop-trial-1-unrelated-10", "trial_type": "html-keyboard-response", "trial_index": 64, "time_elapsed": 145542, "internal_node_id": "0.0-4.0-60.0"}}, {"uniqueid": "w34656333:a65282722", "current_trial": 65, "dateTime": 1664558904777, "trialdata": {"rt": 425, "stimulus": "<p id='stroop-text' class='stroop-blue'>BOTTLE</p>", "response": "b", "stimulus-type": "unrelated", "word": "BOTTLE", "color": "blue", "correct_response": "b", "trial_id": "stroop-trial-1-unrelated-7", "trial_type": "html-keyboard-response", "trial_index": 65, "time_elapsed": 147290, "internal_node_id": "0.0-4.0-61.0"}}, {"uniqueid": "w34656333:a65282722", "current_trial": 66, "dateTime": 1664558905957, "trialdata": {"rt": 600, "stimulus": "<p id='stroop-text' class='stroop-red'>DOG</p>", "response": "r", "stimulus-type": "unrelated", "word": "DOG", "color": "red", "correct_response": "r", "trial_id": "stroop-trial-1-unrelated-9", "trial_type": "html-keyboard-response", "trial_index": 66, "time_elapsed": 148470, "internal_node_id": "0.0-4.0-62.0"}}, {"uniqueid": "w34656333:a65282722", "current_trial": 67, "dateTime": 1664558907963, "trialdata": {"rt": 612, "stimulus": "<p id='stroop-text' class='stroop-red'>RED</p>", "response": "r", "stimulus-type": "congruent", "word": "red", "color": "red", "correct_response": "r", "trial_id": "stroop-trial-1-congruent-10", "trial_type": "html-keyboard-response", "trial_index": 67, "time_elapsed": 150476, "internal_node_id": "0.0-4.0-63.0"}}, {"uniqueid": "w34656333:a65282722", "current_trial": 68, "dateTime": 1664558909856, "trialdata": {"rt": 496, "stimulus": "<p id='stroop-text' class='stroop-yellow'>YELLOW</p>", "response": "y", "stimulus-type": "congruent", "word": "yellow", "color": "yellow", "correct_response": "y", "trial_id": "stroop-trial-1-congruent-23", "trial_type": "html-keyboard-response", "trial_index": 68, "time_elapsed": 152370, "internal_node_id": "0.0-4.0-64.0"}}, {"uniqueid": "w34656333:a65282722", "current_trial": 69, "dateTime": 1664558911966, "trialdata": {"rt": 608, "stimulus": "<p id='stroop-text' class='stroop-yellow'>YELLOW</p>", "response": "y", "stimulus-type": "congruent", "word": "yellow", "color": "yellow", "correct_response": "y", "trial_id": "stroop-trial-1-congruent-11", "trial_type": "html-keyboard-response", "trial_index": 69, "time_elapsed": 154480, "internal_node_id": "0.0-4.0-65.0"}}, {"uniqueid": "w34656333:a65282722", "current_trial": 70, "dateTime": 1664558913893, "trialdata": {"rt": 539, "stimulus": "<p id='stroop-text' class='stroop-green'>GREEN</p>", "response": "g", "stimulus-type": "congruent", "word": "green", "color": "green", "correct_response": "g", "trial_id": "stroop-trial-1-congruent-2", "trial_type": "html-keyboard-response", "trial_index": 70, "time_elapsed": 156406, "internal_node_id": "0.0-4.0-66.0"}}, {"uniqueid": "w34656333:a65282722", "current_trial": 71, "dateTime": 1664558915764, "trialdata": {"rt": 414, "stimulus": "<p id='stroop-text' class='stroop-green'>BRIDGE</p>", "response": "g", "stimulus-type": "unrelated", "word": "BRIDGE", "color": "green", "correct_response": "g", "trial_id": "stroop-trial-1-unrelated-18", "trial_type": "html-keyboard-response", "trial_index": 71, "time_elapsed": 158277, "internal_node_id": "0.0-4.0-67.0"}}, {"uniqueid": "w34656333:a65282722", "current_trial": 72, "dateTime": 1664558916955, "trialdata": {"rt": 597, "stimulus": "<p id='stroop-text' class='stroop-blue'>YELLOW</p>", "response": "b", "stimulus-type": "incongruent", "word": "yellow", "color": "blue", "correct_response": "b", "trial_id": "stroop-trial-1-incongruent-14", "trial_type": "html-keyboard-response", "trial_index": 72, "time_elapsed": 159469, "internal_node_id": "0.0-4.0-68.0"}}, {"uniqueid": "w34656333:a65282722", "current_trial": 73, "dateTime": 1664558919009, "trialdata": {"rt": 658, "stimulus": "<p id='stroop-text' class='stroop-yellow'>BRIDGE</p>", "response": "y", "stimulus-type": "unrelated", "word": "BRIDGE", "color": "yellow", "correct_response": "y", "trial_id": "stroop-trial-1-unrelated-25", "trial_type": "html-keyboard-response", "trial_index": 73, "time_elapsed": 161522, "internal_node_id": "0.0-4.0-69.0"}}, {"uniqueid": "w34656333:a65282722", "current_trial": 74, "dateTime": 1664558920810, "trialdata": {"rt": 450, "stimulus": "<p id='stroop-text' class='stroop-blue'>WINDOW</p>", "response": "b", "stimulus-type": "unrelated", "word": "WINDOW", "color": "blue", "correct_response": "b", "trial_id": "stroop-trial-1-unrelated-17", "trial_type": "html-keyboard-response", "trial_index": 74, "time_elapsed": 163323, "internal_node_id": "0.0-4.0-70.0"}}, {"uniqueid": "w34656333:a65282722", "current_trial": 75, "dateTime": 1664558921843, "trialdata": {"rt": 492, "stimulus": "<p id='stroop-text' class='stroop-yellow'>YELLOW</p>", "response": "y", "stimulus-type": "congruent", "word": "yellow", "color": "yellow", "correct_response": "y", "trial_id": "stroop-trial-1-congruent-25", "trial_type": "html-keyboard-response", "trial_index": 75, "time_elapsed": 164357, "internal_node_id": "0.0-4.0-71.0"}}, {"uniqueid": "w34656333:a65282722", "current_trial": 76, "dateTime": 1664558922753, "trialdata": {"rt": 396, "stimulus": "<p id='stroop-text' class='stroop-blue'>BLUE</p>", "response": "b", "stimulus-type": "congruent", "word": "blue", "color": "blue", "correct_response": "b", "trial_id": "stroop-trial-1-congruent-17", "trial_type": "html-keyboard-response", "trial_index": 76, "time_elapsed": 165267, "internal_node_id": "0.0-4.0-72.0"}}, {"uniqueid": "w34656333:a65282722", "current_trial": 77, "dateTime": 1664558923803, "trialdata": {"rt": 451, "stimulus": "<p id='stroop-text' class='stroop-yellow'>BOAT</p>", "response": "y", "stimulus-type": "unrelated", "word": "BOAT", "color": "yellow", "correct_response": "y", "trial_id": "stroop-trial-1-unrelated-1", "trial_type": "html-keyboard-response", "trial_index": 77, "time_elapsed": 166316, "internal_node_id": "0.0-4.0-73.0"}}, {"uniqueid": "w34656333:a65282722", "current_trial": 78, "dateTime": 1664558924771, "trialdata": {"rt": 414, "stimulus": "<p id='stroop-text' class='stroop-green'>GREEN</p>", "response": "g", "stimulus-type": "congruent", "word": "green", "color": "green", "correct_response": "g", "trial_id": "stroop-trial-1-congruent-6", "trial_type": "html-keyboard-response", "trial_index": 78, "time_elapsed": 167284, "internal_node_id": "0.0-4.0-74.0"}}, {"uniqueid": "w34656333:a65282722", "current_trial": 79, "dateTime": 1664558925715, "trialdata": {"rt": 352, "stimulus": "<p id='stroop-text' class='stroop-red'>DOG</p>", "response": "r", "stimulus-type": "unrelated", "word": "DOG", "color": "red", "correct_response": "r", "trial_id": "stroop-trial-1-unrelated-26", "trial_type": "html-keyboard-response", "trial_index": 79, "time_elapsed": 168228, "internal_node_id": "0.0-4.0-75.0"}}, {"uniqueid": "w34656333:a65282722", "current_trial": 80, "dateTime": 1664558927017, "trialdata": {"rt": 662, "stimulus": "<p id='stroop-text' class='stroop-green'>GREEN</p>", "response": "g", "stimulus-type": "congruent", "word": "green", "color": "green", "correct_response": "g", "trial_id": "stroop-trial-1-congruent-3", "trial_type": "html-keyboard-response", "trial_index": 80, "time_elapsed": 169531, "internal_node_id": "0.0-4.0-76.0"}}, {"uniqueid": "w34656333:a65282722", "current_trial": 81, "dateTime": 1664558928916, "trialdata": {"rt": 551, "stimulus": "<p id='stroop-text' class='stroop-green'>BLUE</p>", "response": "g", "stimulus-type": "incongruent", "word": "blue", "color": "green", "correct_response": "g", "trial_id": "stroop-trial-1-incongruent-12", "trial_type": "html-keyboard-response", "trial_index": 81, "time_elapsed": 171429, "internal_node_id": "0.0-4.0-77.0"}}, {"uniqueid": "w34656333:a65282722", "current_trial": 82, "dateTime": 1664558930723, "trialdata": {"rt": 364, "stimulus": "<p id='stroop-text' class='stroop-blue'>YELLOW</p>", "response": "b", "stimulus-type": "incongruent", "word": "yellow", "color": "blue", "correct_response": "b", "trial_id": "stroop-trial-1-incongruent-3", "trial_type": "html-keyboard-response", "trial_index": 82, "time_elapsed": 173236, "internal_node_id": "0.0-4.0-78.0"}}, {"uniqueid": "w34656333:a65282722", "current_trial": 83, "dateTime": 1664558931832, "trialdata": {"rt": 469, "stimulus": "<p id='stroop-text' class='stroop-blue'>GREEN</p>", "response": "b", "stimulus-type": "incongruent", "word": "green", "color": "blue", "correct_response": "b", "trial_id": "stroop-trial-1-incongruent-20", "trial_type": "html-keyboard-response", "trial_index": 83, "time_elapsed": 174345, "internal_node_id": "0.0-4.0-79.0"}}, {"uniqueid": "w34656333:a65282722", "current_trial": 84, "dateTime": 1664558932836, "trialdata": {"rt": 482, "stimulus": "<p id='stroop-text' class='stroop-red'>BOTTLE</p>", "response": "r", "stimulus-type": "unrelated", "word": "BOTTLE", "color": "red", "correct_response": "r", "trial_id": "stroop-trial-1-unrelated-23", "trial_type": "html-keyboard-response", "trial_index": 84, "time_elapsed": 175350, "internal_node_id": "0.0-4.0-80.0"}}, {"uniqueid": "w34656333:a65282722", "current_trial": 85, "dateTime": 1664558933841, "trialdata": {"rt": 483, "stimulus": "<p id='stroop-text' class='stroop-yellow'>RED</p>", "response": "y", "stimulus-type": "incongruent", "word": "red", "color": "yellow", "correct_response": "y", "trial_id": "stroop-trial-1-incongruent-19", "trial_type": "html-keyboard-response", "trial_index": 85, "time_elapsed": 176355, "internal_node_id": "0.0-4.0-81.0"}}, {"uniqueid": "w34656333:a65282722", "current_trial": 86, "dateTime": 1664558934759, "trialdata": {"rt": 410, "stimulus": "<p id='stroop-text' class='stroop-yellow'>RED</p>", "response": "y", "stimulus-type": "incongruent", "word": "red", "color": "yellow", "correct_response": "y", "trial_id": "stroop-trial-1-incongruent-7", "trial_type": "html-keyboard-response", "trial_index": 86, "time_elapsed": 177272, "internal_node_id": "0.0-4.0-82.0"}}, {"uniqueid": "w34656333:a65282722", "current_trial": 87, "dateTime": 1664558935777, "trialdata": {"rt": 424, "stimulus": "<p id='stroop-text' class='stroop-yellow'>BOAT</p>", "response": "y", "stimulus-type": "unrelated", "word": "BOAT", "color": "yellow", "correct_response": "y", "trial_id": "stroop-trial-1-unrelated-14", "trial_type": "html-keyboard-response", "trial_index": 87, "time_elapsed": 178290, "internal_node_id": "0.0-4.0-83.0"}}, {"uniqueid": "w34656333:a65282722", "current_trial": 88, "dateTime": 1664558936767, "trialdata": {"rt": 409, "stimulus": "<p id='stroop-text' class='stroop-yellow'>RED</p>", "response": "y", "stimulus-type": "incongruent", "word": "red", "color": "yellow", "correct_response": "y", "trial_id": "stroop-trial-1-incongruent-27", "trial_type": "html-keyboard-response", "trial_index": 88, "time_elapsed": 179281, "internal_node_id": "0.0-4.0-84.0"}}, {"uniqueid": "w34656333:a65282722", "current_trial": 89, "dateTime": 1664558937840, "trialdata": {"rt": 478, "stimulus": "<p id='stroop-text' class='stroop-green'>GREEN</p>", "response": "g", "stimulus-type": "congruent", "word": "green", "color": "green", "correct_response": "g", "trial_id": "stroop-trial-1-congruent-13", "trial_type": "html-keyboard-response", "trial_index": 89, "time_elapsed": 180353, "internal_node_id": "0.0-4.0-85.0"}}, {"uniqueid": "w34656333:a65282722", "current_trial": 90, "dateTime": 1664558938906, "trialdata": {"rt": 553, "stimulus": "<p id='stroop-text' class='stroop-blue'>BLUE</p>", "response": "b", "stimulus-type": "congruent", "word": "blue", "color": "blue", "correct_response": "b", "trial_id": "stroop-trial-1-congruent-15", "trial_type": "html-keyboard-response", "trial_index": 90, "time_elapsed": 181419, "internal_node_id": "0.0-4.0-86.0"}}, {"uniqueid": "w34656333:a65282722", "current_trial": 91, "dateTime": 1664558941034, "trialdata": {"rt": 671, "stimulus": "<p id='stroop-text' class='stroop-green'>GREEN</p>", "response": "g", "stimulus-type": "congruent", "word": "green", "color": "green", "correct_response": "g", "trial_id": "stroop-trial-1-congruent-1", "trial_type": "html-keyboard-response", "trial_index": 91, "time_elapsed": 183548, "internal_node_id": "0.0-4.0-87.0"}}, {"uniqueid": "w34656333:a65282722", "current_trial": 92, "dateTime": 1664558942950, "trialdata": {"rt": 591, "stimulus": "<p id='stroop-text' class='stroop-yellow'>MONKEY</p>", "response": "y", "stimulus-type": "unrelated", "word": "MONKEY", "color": "yellow", "correct_response": "y", "trial_id": "stroop-trial-1-unrelated-16", "trial_type": "html-keyboard-response", "trial_index": 92, "time_elapsed": 185464, "internal_node_id": "0.0-4.0-88.0"}}, {"uniqueid": "w34656333:a65282722", "current_trial": 93, "dateTime": 1664558944973, "trialdata": {"rt": 620, "stimulus": "<p id='stroop-text' class='stroop-green'>GREEN</p>", "response": "g", "stimulus-type": "congruent", "word": "green", "color": "green", "correct_response": "g", "trial_id": "stroop-trial-1-congruent-5", "trial_type": "html-keyboard-response", "trial_index": 93, "time_elapsed": 187487, "internal_node_id": "0.0-4.0-89.0"}}, {"uniqueid": "w34656333:a65282722", "current_trial": 94, "dateTime": 1664558958647, "trialdata": {"rt": 12298, "stimulus": "  <h1> End of block! </h1>\n\n  You have reached the end of the block 1/5. If you need a short break, feel free to take one now before moving on.\n\n  <br><br>\n  In the next block, you will complete another 90 rounds of this game.\n\n  <br><br>\n  <div style='text-align: center;'>Press <code>space</code> to begin.</div>\n  <br><br>\n<div style='text-align: center;'>(If the experiment doesn't continue, try clicking on the text and then pressing <code>space</code>.)</div>", "response": " ", "trial_id": "stroop_1_ready_2", "trial_type": "html-keyboard-response", "trial_index": 94, "time_elapsed": 201161, "internal_node_id": "0.0-5.0"}}, {"uniqueid": "w34656333:a65282722", "current_trial": 95, "dateTime": 1664558959383, "trialdata": {"rt": 734, "stimulus": "<p id='stroop-text' class='stroop-green'>BOAT</p>", "response": "g", "stimulus-type": "unrelated", "word": "BOAT", "color": "green", "correct_response": "g", "trial_id": "stroop-trial-1-unrelated-9", "trial_type": "html-keyboard-response", "trial_index": 95, "time_elapsed": 201897, "internal_node_id": "0.0-6.0-0.0"}}, {"uniqueid": "w34656333:a65282722", "current_trial": 96, "dateTime": 1664558961318, "trialdata": {"rt": 960, "stimulus": "<p id='stroop-text' class='stroop-blue'>RED</p>", "response": "b", "stimulus-type": "incongruent", "word": "red", "color": "blue", "correct_response": "b", "trial_id": "stroop-trial-1-incongruent-27", "trial_type": "html-keyboard-response", "trial_index": 96, "time_elapsed": 203831, "internal_node_id": "0.0-6.0-1.0"}}, {"uniqueid": "w34656333:a65282722", "current_trial": 97, "dateTime": 1664558962880, "trialdata": {"rt": 528, "stimulus": "<p id='stroop-text' class='stroop-yellow'>WINDOW</p>", "response": "y", "stimulus-type": "unrelated", "word": "WINDOW", "color": "yellow", "correct_response": "y", "trial_id": "stroop-trial-1-unrelated-17", "trial_type": "html-keyboard-response", "trial_index": 97, "time_elapsed": 205393, "internal_node_id": "0.0-6.0-2.0"}}, {"uniqueid": "w34656333:a65282722", "current_trial": 98, "dateTime": 1664558964780, "trialdata": {"rt": 418, "stimulus": "<p id='stroop-text' class='stroop-green'>BLUE</p>", "response": "g", "stimulus-type": "incongruent", "word": "blue", "color": "green", "correct_response": "g", "trial_id": "stroop-trial-1-incongruent-15", "trial_type": "html-keyboard-response", "trial_index": 98, "time_elapsed": 207294, "internal_node_id": "0.0-6.0-3.0"}}, {"uniqueid": "w34656333:a65282722", "current_trial": 99, "dateTime": 1664558965803, "trialdata": {"rt": 451, "stimulus": "<p id='stroop-text' class='stroop-green'>CHAIR</p>", "response": "g", "stimulus-type": "unrelated", "word": "CHAIR", "color": "green", "correct_response": "g", "trial_id": "stroop-trial-1-unrelated-22", "trial_type": "html-keyboard-response", "trial_index": 99, "time_elapsed": 208317, "internal_node_id": "0.0-6.0-4.0"}}, {"uniqueid": "w34656333:a65282722", "current_trial": 100, "dateTime": 1664558966693, "trialdata": {"rt": 335, "stimulus": "<p id='stroop-text' class='stroop-blue'>BLUE</p>", "response": "b", "stimulus-type": "congruent", "word": "blue", "color": "blue", "correct_response": "b", "trial_id": "stroop-trial-1-congruent-5", "trial_type": "html-keyboard-response", "trial_index": 100, "time_elapsed": 209207, "internal_node_id": "0.0-6.0-5.0"}}, {"uniqueid": "w34656333:a65282722", "current_trial": 101, "dateTime": 1664558967695, "trialdata": {"rt": 333, "stimulus": "<p id='stroop-text' class='stroop-blue'>BLUE</p>", "response": "b", "stimulus-type": "congruent", "word": "blue", "color": "blue", "correct_response": "b", "trial_id": "stroop-trial-1-congruent-20", "trial_type": "html-keyboard-response", "trial_index": 101, "time_elapsed": 210209, "internal_node_id": "0.0-6.0-6.0"}}, {"uniqueid": "w34656333:a65282722", "current_trial": 102, "dateTime": 1664558969076, "trialdata": {"rt": 724, "stimulus": "<p id='stroop-text' class='stroop-green'>STONE</p>", "response": "g", "stimulus-type": "unrelated", "word": "STONE", "color": "green", "correct_response": "g", "trial_id": "stroop-trial-1-unrelated-2", "trial_type": "html-keyboard-response", "trial_index": 102, "time_elapsed": 211589, "internal_node_id": "0.0-6.0-7.0"}}, {"uniqueid": "w34656333:a65282722", "current_trial": 103, "dateTime": 1664558970781, "trialdata": {"rt": 421, "stimulus": "<p id='stroop-text' class='stroop-green'>YELLOW</p>", "response": "g", "stimulus-type": "incongruent", "word": "yellow", "color": "green", "correct_response": "g", "trial_id": "stroop-trial-1-incongruent-20", "trial_type": "html-keyboard-response", "trial_index": 103, "time_elapsed": 213295, "internal_node_id": "0.0-6.0-8.0"}}, {"uniqueid": "w34656333:a65282722", "current_trial": 104, "dateTime": 1664558971875, "trialdata": {"rt": 524, "stimulus": "<p id='stroop-text' class='stroop-red'>GREEN</p>", "response": "r", "stimulus-type": "incongruent", "word": "green", "color": "red", "correct_response": "r", "trial_id": "stroop-trial-1-incongruent-29", "trial_type": "html-keyboard-response", "trial_index": 104, "time_elapsed": 214389, "internal_node_id": "0.0-6.0-9.0"}}, {"uniqueid": "w34656333:a65282722", "current_trial": 105, "dateTime": 1664558973965, "trialdata": {"rt": 603, "stimulus": "<p id='stroop-text' class='stroop-red'>RED</p>", "response": "r", "stimulus-type": "congruent", "word": "red", "color": "red", "correct_response": "r", "trial_id": "stroop-trial-1-congruent-1", "trial_type": "html-keyboard-response", "trial_index": 105, "time_elapsed": 216479, "internal_node_id": "0.0-6.0-10.0"}}, {"uniqueid": "w34656333:a65282722", "current_trial": 106, "dateTime": 1664558976030, "trialdata": {"rt": 670, "stimulus": "<p id='stroop-text' class='stroop-red'>WINDOW</p>", "response": "r", "stimulus-type": "unrelated", "word": "WINDOW", "color": "red", "correct_response": "r", "trial_id": "stroop-trial-1-unrelated-26", "trial_type": "html-keyboard-response", "trial_index": 106, "time_elapsed": 218544, "internal_node_id": "0.0-6.0-11.0"}}, {"uniqueid": "w34656333:a65282722", "current_trial": 107, "dateTime": 1664558977833, "trialdata": {"rt": 476, "stimulus": "<p id='stroop-text' class='stroop-yellow'>BLUE</p>", "response": "y", "stimulus-type": "incongruent", "word": "blue", "color": "yellow", "correct_response": "y", "trial_id": "stroop-trial-1-incongruent-30", "trial_type": "html-keyboard-response", "trial_index": 107, "time_elapsed": 220346, "internal_node_id": "0.0-6.0-12.0"}}, {"uniqueid": "w34656333:a65282722", "current_trial": 108, "dateTime": 1664558978903, "trialdata": {"rt": 541, "stimulus": "<p id='stroop-text' class='stroop-red'>GREEN</p>", "response": "g", "stimulus-type": "incongruent", "word": "green", "color": "red", "correct_response": "r", "trial_id": "stroop-trial-1-incongruent-4", "trial_type": "html-keyboard-response", "trial_index": 108, "time_elapsed": 221417, "internal_node_id": "0.0-6.0-13.0"}}, {"uniqueid": "w34656333:a65282722", "current_trial": 109, "dateTime": 1664558981006, "trialdata": {"rt": 650, "stimulus": "<p id='stroop-text' class='stroop-yellow'>RED</p>", "response": "y", "stimulus-type": "incongruent", "word": "red", "color": "yellow", "correct_response": "y", "trial_id": "stroop-trial-1-incongruent-6", "trial_type": "html-keyboard-response", "trial_index": 109, "time_elapsed": 223520, "internal_node_id": "0.0-6.0-14.0"}}, {"uniqueid": "w34656333:a65282722", "current_trial": 110, "dateTime": 1664558983229, "trialdata": {"rt": 878, "stimulus": "<p id='stroop-text' class='stroop-blue'>BOAT</p>", "response": "b", "stimulus-type": "unrelated", "word": "BOAT", "color": "blue", "correct_response": "b", "trial_id": "stroop-trial-1-unrelated-18", "trial_type": "html-keyboard-response", "trial_index": 110, "time_elapsed": 225743, "internal_node_id": "0.0-6.0-15.0"}}, {"uniqueid": "w34656333:a65282722", "current_trial": 111, "dateTime": 1664558984890, "trialdata": {"rt": 529, "stimulus": "<p id='stroop-text' class='stroop-green'>BRAIN</p>", "response": "g", "stimulus-type": "unrelated", "word": "BRAIN", "color": "green", "correct_response": "g", "trial_id": "stroop-trial-1-unrelated-13", "trial_type": "html-keyboard-response", "trial_index": 111, "time_elapsed": 227404, "internal_node_id": "0.0-6.0-16.0"}}, {"uniqueid": "w34656333:a65282722", "current_trial": 112, "dateTime": 1664558987046, "trialdata": {"rt": 689, "stimulus": "<p id='stroop-text' class='stroop-red'>GREEN</p>", "response": "r", "stimulus-type": "incongruent", "word": "green", "color": "red", "correct_response": "r", "trial_id": "stroop-trial-1-incongruent-10", "trial_type": "html-keyboard-response", "trial_index": 112, "time_elapsed": 229560, "internal_node_id": "0.0-6.0-17.0"}}, {"uniqueid": "w34656333:a65282722", "current_trial": 113, "dateTime": 1664558988933, "trialdata": {"rt": 582, "stimulus": "<p id='stroop-text' class='stroop-yellow'>YELLOW</p>", "response": "y", "stimulus-type": "congruent", "word": "yellow", "color": "yellow", "correct_response": "y", "trial_id": "stroop-trial-1-congruent-26", "trial_type": "html-keyboard-response", "trial_index": 113, "time_elapsed": 231447, "internal_node_id": "0.0-6.0-18.0"}}, {"uniqueid": "w34656333:a65282722", "current_trial": 114, "dateTime": 1664558990883, "trialdata": {"rt": 520, "stimulus": "<p id='stroop-text' class='stroop-red'>RED</p>", "response": "r", "stimulus-type": "congruent", "word": "red", "color": "red", "correct_response": "r", "trial_id": "stroop-trial-1-congruent-23", "trial_type": "html-keyboard-response", "trial_index": 114, "time_elapsed": 233397, "internal_node_id": "0.0-6.0-19.0"}}, {"uniqueid": "w34656333:a65282722", "current_trial": 115, "dateTime": 1664558992845, "trialdata": {"rt": 485, "stimulus": "<p id='stroop-text' class='stroop-red'>BLUE</p>", "response": "r", "stimulus-type": "incongruent", "word": "blue", "color": "red", "correct_response": "r", "trial_id": "stroop-trial-1-incongruent-2", "trial_type": "html-keyboard-response", "trial_index": 115, "time_elapsed": 235358, "internal_node_id": "0.0-6.0-20.0"}}, {"uniqueid": "w34656333:a65282722", "current_trial": 116, "dateTime": 1664558993843, "trialdata": {"rt": 494, "stimulus": "<p id='stroop-text' class='stroop-red'>BLUE</p>", "response": "r", "stimulus-type": "incongruent", "word": "blue", "color": "red", "correct_response": "r", "trial_id": "stroop-trial-1-incongruent-26", "trial_type": "html-keyboard-response", "trial_index": 116, "time_elapsed": 236356, "internal_node_id": "0.0-6.0-21.0"}}, {"uniqueid": "w34656333:a65282722", "current_trial": 117, "dateTime": 1664558994959, "trialdata": {"rt": 603, "stimulus": "<p id='stroop-text' class='stroop-green'>YELLOW</p>", "response": "g", "stimulus-type": "incongruent", "word": "yellow", "color": "green", "correct_response": "g", "trial_id": "stroop-trial-1-incongruent-23", "trial_type": "html-keyboard-response", "trial_index": 117, "time_elapsed": 237473, "internal_node_id": "0.0-6.0-22.0"}}, {"uniqueid": "w34656333:a65282722", "current_trial": 118, "dateTime": 1664558996882, "trialdata": {"rt": 519, "stimulus": "<p id='stroop-text' class='stroop-red'>BLUE</p>", "response": "r", "stimulus-type": "incongruent", "word": "blue", "color": "red", "correct_response": "r", "trial_id": "stroop-trial-1-incongruent-7", "trial_type": "html-keyboard-response", "trial_index": 118, "time_elapsed": 239396, "internal_node_id": "0.0-6.0-23.0"}}, {"uniqueid": "w34656333:a65282722", "current_trial": 119, "dateTime": 1664558999240, "trialdata": {"rt": 883, "stimulus": "<p id='stroop-text' class='stroop-yellow'>YELLOW</p>", "response": "y", "stimulus-type": "congruent", "word": "yellow", "color": "yellow", "correct_response": "y", "trial_id": "stroop-trial-1-congruent-14", "trial_type": "html-keyboard-response", "trial_index": 119, "time_elapsed": 241754, "internal_node_id": "0.0-6.0-24.0"}}, {"uniqueid": "w34656333:a65282722", "current_trial": 120, "dateTime": 1664559000768, "trialdata": {"rt": 416, "stimulus": "<p id='stroop-text' class='stroop-yellow'>SHIP</p>", "response": "y", "stimulus-type": "unrelated", "word": "SHIP", "color": "yellow", "correct_response": "y", "trial_id": "stroop-trial-1-unrelated-30", "trial_type": "html-keyboard-response", "trial_index": 120, "time_elapsed": 243282, "internal_node_id": "0.0-6.0-25.0"}}, {"uniqueid": "w34656333:a65282722", "current_trial": 121, "dateTime": 1664559001896, "trialdata": {"rt": 540, "stimulus": "<p id='stroop-text' class='stroop-red'>BRIDGE</p>", "response": "r", "stimulus-type": "unrelated", "word": "BRIDGE", "color": "red", "correct_response": "r", "trial_id": "stroop-trial-1-unrelated-14", "trial_type": "html-keyboard-response", "trial_index": 121, "time_elapsed": 244410, "internal_node_id": "0.0-6.0-26.0"}}, {"uniqueid": "w34656333:a65282722", "current_trial": 122, "dateTime": 1664559003888, "trialdata": {"rt": 537, "stimulus": "<p id='stroop-text' class='stroop-blue'>BRIDGE</p>", "response": "b", "stimulus-type": "unrelated", "word": "BRIDGE", "color": "blue", "correct_response": "b", "trial_id": "stroop-trial-1-unrelated-19", "trial_type": "html-keyboard-response", "trial_index": 122, "time_elapsed": 246402, "internal_node_id": "0.0-6.0-27.0"}}, {"uniqueid": "w34656333:a65282722", "current_trial": 123, "dateTime": 1664559005930, "trialdata": {"rt": 567, "stimulus": "<p id='stroop-text' class='stroop-yellow'>CHAIR</p>", "response": "y", "stimulus-type": "unrelated", "word": "CHAIR", "color": "yellow", "correct_response": "y", "trial_id": "stroop-trial-1-unrelated-23", "trial_type": "html-keyboard-response", "trial_index": 123, "time_elapsed": 248444, "internal_node_id": "0.0-6.0-28.0"}}, {"uniqueid": "w34656333:a65282722", "current_trial": 124, "dateTime": 1664559007839, "trialdata": {"rt": 479, "stimulus": "<p id='stroop-text' class='stroop-green'>BRAIN</p>", "response": "g", "stimulus-type": "unrelated", "word": "BRAIN", "color": "green", "correct_response": "g", "trial_id": "stroop-trial-1-unrelated-20", "trial_type": "html-keyboard-response", "trial_index": 124, "time_elapsed": 250353, "internal_node_id": "0.0-6.0-29.0"}}, {"uniqueid": "w34656333:a65282722", "current_trial": 125, "dateTime": 1664559008810, "trialdata": {"rt": 459, "stimulus": "<p id='stroop-text' class='stroop-green'>CHAIR</p>", "response": "g", "stimulus-type": "unrelated", "word": "CHAIR", "color": "green", "correct_response": "g", "trial_id": "stroop-trial-1-unrelated-7", "trial_type": "html-keyboard-response", "trial_index": 125, "time_elapsed": 251324, "internal_node_id": "0.0-6.0-30.0"}}, {"uniqueid": "w34656333:a65282722", "current_trial": 126, "dateTime": 1664559009848, "trialdata": {"rt": 492, "stimulus": "<p id='stroop-text' class='stroop-yellow'>RED</p>", "response": "y", "stimulus-type": "incongruent", "word": "red", "color": "yellow", "correct_response": "y", "trial_id": "stroop-trial-1-incongruent-12", "trial_type": "html-keyboard-response", "trial_index": 126, "time_elapsed": 252361, "internal_node_id": "0.0-6.0-31.0"}}, {"uniqueid": "w34656333:a65282722", "current_trial": 127, "dateTime": 1664559010889, "trialdata": {"rt": 528, "stimulus": "<p id='stroop-text' class='stroop-red'>RED</p>", "response": "r", "stimulus-type": "congruent", "word": "red", "color": "red", "correct_response": "r", "trial_id": "stroop-trial-1-congruent-12", "trial_type": "html-keyboard-response", "trial_index": 127, "time_elapsed": 253403, "internal_node_id": "0.0-6.0-32.0"}}, {"uniqueid": "w34656333:a65282722", "current_trial": 128, "dateTime": 1664559012699, "trialdata": {"rt": 346, "stimulus": "<p id='stroop-text' class='stroop-blue'>BRAIN</p>", "response": "b", "stimulus-type": "unrelated", "word": "BRAIN", "color": "blue", "correct_response": "b", "trial_id": "stroop-trial-1-unrelated-11", "trial_type": "html-keyboard-response", "trial_index": 128, "time_elapsed": 255213, "internal_node_id": "0.0-6.0-33.0"}}, {"uniqueid": "w34656333:a65282722", "current_trial": 129, "dateTime": 1664559014163, "trialdata": {"rt": 806, "stimulus": "<p id='stroop-text' class='stroop-yellow'>GREEN</p>", "response": "y", "stimulus-type": "incongruent", "word": "green", "color": "yellow", "correct_response": "y", "trial_id": "stroop-trial-1-incongruent-14", "trial_type": "html-keyboard-response", "trial_index": 129, "time_elapsed": 256677, "internal_node_id": "0.0-6.0-34.0"}}, {"uniqueid": "w34656333:a65282722", "current_trial": 130, "dateTime": 1664559015793, "trialdata": {"rt": 440, "stimulus": "<p id='stroop-text' class='stroop-green'>MONKEY</p>", "response": "g", "stimulus-type": "unrelated", "word": "MONKEY", "color": "green", "correct_response": "g", "trial_id": "stroop-trial-1-unrelated-12", "trial_type": "html-keyboard-response", "trial_index": 130, "time_elapsed": 258306, "internal_node_id": "0.0-6.0-35.0"}}, {"uniqueid": "w34656333:a65282722", "current_trial": 131, "dateTime": 1664559016917, "trialdata": {"rt": 561, "stimulus": "<p id='stroop-text' class='stroop-yellow'>YELLOW</p>", "response": "y", "stimulus-type": "congruent", "word": "yellow", "color": "yellow", "correct_response": "y", "trial_id": "stroop-trial-1-congruent-27", "trial_type": "html-keyboard-response", "trial_index": 131, "time_elapsed": 259431, "internal_node_id": "0.0-6.0-36.0"}}, {"uniqueid": "w34656333:a65282722", "current_trial": 132, "dateTime": 1664559018932, "trialdata": {"rt": 581, "stimulus": "<p id='stroop-text' class='stroop-green'>YELLOW</p>", "response": "g", "stimulus-type": "incongruent", "word": "yellow", "color": "green", "correct_response": "g", "trial_id": "stroop-trial-1-incongruent-25", "trial_type": "html-keyboard-response", "trial_index": 132, "time_elapsed": 261446, "internal_node_id": "0.0-6.0-37.0"}}, {"uniqueid": "w34656333:a65282722", "current_trial": 133, "dateTime": 1664559020856, "trialdata": {"rt": 495, "stimulus": "<p id='stroop-text' class='stroop-yellow'>YELLOW</p>", "response": "y", "stimulus-type": "congruent", "word": "yellow", "color": "yellow", "correct_response": "y", "trial_id": "stroop-trial-1-congruent-18", "trial_type": "html-keyboard-response", "trial_index": 133, "time_elapsed": 263370, "internal_node_id": "0.0-6.0-38.0"}}, {"uniqueid": "w34656333:a65282722", "current_trial": 134, "dateTime": 1664559022964, "trialdata": {"rt": 607, "stimulus": "<p id='stroop-text' class='stroop-red'>BLUE</p>", "response": "r", "stimulus-type": "incongruent", "word": "blue", "color": "red", "correct_response": "r", "trial_id": "stroop-trial-1-incongruent-28", "trial_type": "html-keyboard-response", "trial_index": 134, "time_elapsed": 265477, "internal_node_id": "0.0-6.0-39.0"}}, {"uniqueid": "w34656333:a65282722", "current_trial": 135, "dateTime": 1664559024876, "trialdata": {"rt": 525, "stimulus": "<p id='stroop-text' class='stroop-blue'>RED</p>", "response": "b", "stimulus-type": "incongruent", "word": "red", "color": "blue", "correct_response": "b", "trial_id": "stroop-trial-1-incongruent-3", "trial_type": "html-keyboard-response", "trial_index": 135, "time_elapsed": 267390, "internal_node_id": "0.0-6.0-40.0"}}, {"uniqueid": "w34656333:a65282722", "current_trial": 136, "dateTime": 1664559026935, "trialdata": {"rt": 573, "stimulus": "<p id='stroop-text' class='stroop-green'>RED</p>", "response": "g", "stimulus-type": "incongruent", "word": "red", "color": "green", "correct_response": "g", "trial_id": "stroop-trial-1-incongruent-1", "trial_type": "html-keyboard-response", "trial_index": 136, "time_elapsed": 269449, "internal_node_id": "0.0-6.0-41.0"}}, {"uniqueid": "w34656333:a65282722", "current_trial": 137, "dateTime": 1664559028833, "trialdata": {"rt": 478, "stimulus": "<p id='stroop-text' class='stroop-blue'>BLUE</p>", "response": "g", "stimulus-type": "congruent", "word": "blue", "color": "blue", "correct_response": "b", "trial_id": "stroop-trial-1-congruent-3", "trial_type": "html-keyboard-response", "trial_index": 137, "time_elapsed": 271347, "internal_node_id": "0.0-6.0-42.0"}}, {"uniqueid": "w34656333:a65282722", "current_trial": 138, "dateTime": 1664559030090, "trialdata": {"rt": 729, "stimulus": "<p id='stroop-text' class='stroop-green'>GREEN</p>", "response": "g", "stimulus-type": "congruent", "word": "green", "color": "green", "correct_response": "g", "trial_id": "stroop-trial-1-congruent-24", "trial_type": "html-keyboard-response", "trial_index": 138, "time_elapsed": 272604, "internal_node_id": "0.0-6.0-43.0"}}, {"uniqueid": "w34656333:a65282722", "current_trial": 139, "dateTime": 1664559031844, "trialdata": {"rt": 488, "stimulus": "<p id='stroop-text' class='stroop-blue'>SHIP</p>", "response": "b", "stimulus-type": "unrelated", "word": "SHIP", "color": "blue", "correct_response": "b", "trial_id": "stroop-trial-1-unrelated-21", "trial_type": "html-keyboard-response", "trial_index": 139, "time_elapsed": 274358, "internal_node_id": "0.0-6.0-44.0"}}, {"uniqueid": "w34656333:a65282722", "current_trial": 140, "dateTime": 1664559032850, "trialdata": {"rt": 490, "stimulus": "<p id='stroop-text' class='stroop-yellow'>BLUE</p>", "response": "y", "stimulus-type": "incongruent", "word": "blue", "color": "yellow", "correct_response": "y", "trial_id": "stroop-trial-1-incongruent-5", "trial_type": "html-keyboard-response", "trial_index": 140, "time_elapsed": 275364, "internal_node_id": "0.0-6.0-45.0"}}, {"uniqueid": "w34656333:a65282722", "current_trial": 141, "dateTime": 1664559034791, "trialdata": {"rt": 435, "stimulus": "<p id='stroop-text' class='stroop-yellow'>YELLOW</p>", "response": "y", "stimulus-type": "congruent", "word": "yellow", "color": "yellow", "correct_response": "y", "trial_id": "stroop-trial-1-congruent-9", "trial_type": "html-keyboard-response", "trial_index": 141, "time_elapsed": 277305, "internal_node_id": "0.0-6.0-46.0"}}, {"uniqueid": "w34656333:a65282722", "current_trial": 142, "dateTime": 1664559035870, "trialdata": {"rt": 507, "stimulus": "<p id='stroop-text' class='stroop-green'>BOTTLE</p>", "response": "g", "stimulus-type": "unrelated", "word": "BOTTLE", "color": "green", "correct_response": "g", "trial_id": "stroop-trial-1-unrelated-16", "trial_type": "html-keyboard-response", "trial_index": 142, "time_elapsed": 278384, "internal_node_id": "0.0-6.0-47.0"}}, {"uniqueid": "w34656333:a65282722", "current_trial": 143, "dateTime": 1664559037975, "trialdata": {"rt": 617, "stimulus": "<p id='stroop-text' class='stroop-green'>BRIDGE</p>", "response": "g", "stimulus-type": "unrelated", "word": "BRIDGE", "color": "green", "correct_response": "g", "trial_id": "stroop-trial-1-unrelated-1", "trial_type": "html-keyboard-response", "trial_index": 143, "time_elapsed": 280489, "internal_node_id": "0.0-6.0-48.0"}}, {"uniqueid": "w34656333:a65282722", "current_trial": 144, "dateTime": 1664559039964, "trialdata": {"rt": 609, "stimulus": "<p id='stroop-text' class='stroop-red'>GREEN</p>", "response": "r", "stimulus-type": "incongruent", "word": "green", "color": "red", "correct_response": "r", "trial_id": "stroop-trial-1-incongruent-11", "trial_type": "html-keyboard-response", "trial_index": 144, "time_elapsed": 282478, "internal_node_id": "0.0-6.0-49.0"}}, {"uniqueid": "w34656333:a65282722", "current_trial": 145, "dateTime": 1664559042126, "trialdata": {"rt": 776, "stimulus": "<p id='stroop-text' class='stroop-yellow'>BLUE</p>", "response": "y", "stimulus-type": "incongruent", "word": "blue", "color": "yellow", "correct_response": "y", "trial_id": "stroop-trial-1-incongruent-16", "trial_type": "html-keyboard-response", "trial_index": 145, "time_elapsed": 284639, "internal_node_id": "0.0-6.0-50.0"}}, {"uniqueid": "w34656333:a65282722", "current_trial": 146, "dateTime": 1664559043739, "trialdata": {"rt": 379, "stimulus": "<p id='stroop-text' class='stroop-blue'>FORK</p>", "response": "b", "stimulus-type": "unrelated", "word": "FORK", "color": "blue", "correct_response": "b", "trial_id": "stroop-trial-1-unrelated-25", "trial_type": "html-keyboard-response", "trial_index": 146, "time_elapsed": 286253, "internal_node_id": "0.0-6.0-51.0"}}, {"uniqueid": "w34656333:a65282722", "current_trial": 147, "dateTime": 1664559044813, "trialdata": {"rt": 462, "stimulus": "<p id='stroop-text' class='stroop-blue'>BLUE</p>", "response": "b", "stimulus-type": "congruent", "word": "blue", "color": "blue", "correct_response": "b", "trial_id": "stroop-trial-1-congruent-22", "trial_type": "html-keyboard-response", "trial_index": 147, "time_elapsed": 287327, "internal_node_id": "0.0-6.0-52.0"}}, {"uniqueid": "w34656333:a65282722", "current_trial": 148, "dateTime": 1664559045911, "trialdata": {"rt": 555, "stimulus": "<p id='stroop-text' class='stroop-yellow'>YELLOW</p>", "response": "y", "stimulus-type": "congruent", "word": "yellow", "color": "yellow", "correct_response": "y", "trial_id": "stroop-trial-1-congruent-10", "trial_type": "html-keyboard-response", "trial_index": 148, "time_elapsed": 288425, "internal_node_id": "0.0-6.0-53.0"}}, {"uniqueid": "w34656333:a65282722", "current_trial": 149, "dateTime": 1664559047918, "trialdata": {"rt": 567, "stimulus": "<p id='stroop-text' class='stroop-red'>RED</p>", "response": "r", "stimulus-type": "congruent", "word": "red", "color": "red", "correct_response": "r", "trial_id": "stroop-trial-1-congruent-6", "trial_type": "html-keyboard-response", "trial_index": 149, "time_elapsed": 290432, "internal_node_id": "0.0-6.0-54.0"}}, {"uniqueid": "w34656333:a65282722", "current_trial": 150, "dateTime": 1664559050123, "trialdata": {"rt": 761, "stimulus": "<p id='stroop-text' class='stroop-blue'>WINDOW</p>", "response": "b", "stimulus-type": "unrelated", "word": "WINDOW", "color": "blue", "correct_response": "b", "trial_id": "stroop-trial-1-unrelated-4", "trial_type": "html-keyboard-response", "trial_index": 150, "time_elapsed": 292637, "internal_node_id": "0.0-6.0-55.0"}}, {"uniqueid": "w34656333:a65282722", "current_trial": 151, "dateTime": 1664559051817, "trialdata": {"rt": 461, "stimulus": "<p id='stroop-text' class='stroop-blue'>BRAIN</p>", "response": "b", "stimulus-type": "unrelated", "word": "BRAIN", "color": "blue", "correct_response": "b", "trial_id": "stroop-trial-1-unrelated-8", "trial_type": "html-keyboard-response", "trial_index": 151, "time_elapsed": 294331, "internal_node_id": "0.0-6.0-56.0"}}, {"uniqueid": "w34656333:a65282722", "current_trial": 152, "dateTime": 1664559052965, "trialdata": {"rt": 602, "stimulus": "<p id='stroop-text' class='stroop-green'>GREEN</p>", "response": "g", "stimulus-type": "congruent", "word": "green", "color": "green", "correct_response": "g", "trial_id": "stroop-trial-1-congruent-7", "trial_type": "html-keyboard-response", "trial_index": 152, "time_elapsed": 295478, "internal_node_id": "0.0-6.0-57.0"}}, {"uniqueid": "w34656333:a65282722", "current_trial": 153, "dateTime": 1664559055073, "trialdata": {"rt": 717, "stimulus": "<p id='stroop-text' class='stroop-green'>YELLOW</p>", "response": "g", "stimulus-type": "incongruent", "word": "yellow", "color": "green", "correct_response": "g", "trial_id": "stroop-trial-1-incongruent-19", "trial_type": "html-keyboard-response", "trial_index": 153, "time_elapsed": 297587, "internal_node_id": "0.0-6.0-58.0"}}, {"uniqueid": "w34656333:a65282722", "current_trial": 154, "dateTime": 1664559056991, "trialdata": {"rt": 639, "stimulus": "<p id='stroop-text' class='stroop-red'>WINDOW</p>", "response": "r", "stimulus-type": "unrelated", "word": "WINDOW", "color": "red", "correct_response": "r", "trial_id": "stroop-trial-1-unrelated-3", "trial_type": "html-keyboard-response", "trial_index": 154, "time_elapsed": 299505, "internal_node_id": "0.0-6.0-59.0"}}, {"uniqueid": "w34656333:a65282722", "current_trial": 155, "dateTime": 1664559058847, "trialdata": {"rt": 498, "stimulus": "<p id='stroop-text' class='stroop-green'>GREEN</p>", "response": "g", "stimulus-type": "congruent", "word": "green", "color": "green", "correct_response": "g", "trial_id": "stroop-trial-1-congruent-2", "trial_type": "html-keyboard-response", "trial_index": 155, "time_elapsed": 301361, "internal_node_id": "0.0-6.0-60.0"}}, {"uniqueid": "w34656333:a65282722", "current_trial": 156, "dateTime": 1664559059833, "trialdata": {"rt": 480, "stimulus": "<p id='stroop-text' class='stroop-green'>FORK</p>", "response": "g", "stimulus-type": "unrelated", "word": "FORK", "color": "green", "correct_response": "g", "trial_id": "stroop-trial-1-unrelated-29", "trial_type": "html-keyboard-response", "trial_index": 156, "time_elapsed": 302347, "internal_node_id": "0.0-6.0-61.0"}}, {"uniqueid": "w34656333:a65282722", "current_trial": 157, "dateTime": 1664559061001, "trialdata": {"rt": 643, "stimulus": "<p id='stroop-text' class='stroop-red'>BLUE</p>", "response": "r", "stimulus-type": "incongruent", "word": "blue", "color": "red", "correct_response": "r", "trial_id": "stroop-trial-1-incongruent-17", "trial_type": "html-keyboard-response", "trial_index": 157, "time_elapsed": 303515, "internal_node_id": "0.0-6.0-62.0"}}, {"uniqueid": "w34656333:a65282722", "current_trial": 158, "dateTime": 1664559062991, "trialdata": {"rt": 638, "stimulus": "<p id='stroop-text' class='stroop-yellow'>BLUE</p>", "response": "y", "stimulus-type": "incongruent", "word": "blue", "color": "yellow", "correct_response": "y", "trial_id": "stroop-trial-1-incongruent-8", "trial_type": "html-keyboard-response", "trial_index": 158, "time_elapsed": 305504, "internal_node_id": "0.0-6.0-63.0"}}, {"uniqueid": "w34656333:a65282722", "current_trial": 159, "dateTime": 1664559064929, "trialdata": {"rt": 581, "stimulus": "<p id='stroop-text' class='stroop-red'>RED</p>", "response": "r", "stimulus-type": "congruent", "word": "red", "color": "red", "correct_response": "r", "trial_id": "stroop-trial-1-congruent-13", "trial_type": "html-keyboard-response", "trial_index": 159, "time_elapsed": 307443, "internal_node_id": "0.0-6.0-64.0"}}, {"uniqueid": "w34656333:a65282722", "current_trial": 160, "dateTime": 1664559066928, "trialdata": {"rt": 567, "stimulus": "<p id='stroop-text' class='stroop-yellow'>YELLOW</p>", "response": "y", "stimulus-type": "congruent", "word": "yellow", "color": "yellow", "correct_response": "y", "trial_id": "stroop-trial-1-congruent-29", "trial_type": "html-keyboard-response", "trial_index": 160, "time_elapsed": 309442, "internal_node_id": "0.0-6.0-65.0"}}, {"uniqueid": "w34656333:a65282722", "current_trial": 161, "dateTime": 1664559069428, "trialdata": {"rt": 1073, "stimulus": "<p id='stroop-text' class='stroop-blue'>YELLOW</p>", "response": "b", "stimulus-type": "incongruent", "word": "yellow", "color": "blue", "correct_response": "b", "trial_id": "stroop-trial-1-incongruent-18", "trial_type": "html-keyboard-response", "trial_index": 161, "time_elapsed": 311942, "internal_node_id": "0.0-6.0-66.0"}}, {"uniqueid": "w34656333:a65282722", "current_trial": 162, "dateTime": 1664559070905, "trialdata": {"rt": 554, "stimulus": "<p id='stroop-text' class='stroop-green'>GREEN</p>", "response": "g", "stimulus-type": "congruent", "word": "green", "color": "green", "correct_response": "g", "trial_id": "stroop-trial-1-congruent-28", "trial_type": "html-keyboard-response", "trial_index": 162, "time_elapsed": 313419, "internal_node_id": "0.0-6.0-67.0"}}, {"uniqueid": "w34656333:a65282722", "current_trial": 163, "dateTime": 1664559072822, "trialdata": {"rt": 461, "stimulus": "<p id='stroop-text' class='stroop-green'>GREEN</p>", "response": "g", "stimulus-type": "congruent", "word": "green", "color": "green", "correct_response": "g", "trial_id": "stroop-trial-1-congruent-4", "trial_type": "html-keyboard-response", "trial_index": 163, "time_elapsed": 315336, "internal_node_id": "0.0-6.0-68.0"}}, {"uniqueid": "w34656333:a65282722", "current_trial": 164, "dateTime": 1664559073783, "trialdata": {"rt": 431, "stimulus": "<p id='stroop-text' class='stroop-green'>DOG</p>", "response": "g", "stimulus-type": "unrelated", "word": "DOG", "color": "green", "correct_response": "g", "trial_id": "stroop-trial-1-unrelated-15", "trial_type": "html-keyboard-response", "trial_index": 164, "time_elapsed": 316296, "internal_node_id": "0.0-6.0-69.0"}}, {"uniqueid": "w34656333:a65282722", "current_trial": 165, "dateTime": 1664559074843, "trialdata": {"rt": 487, "stimulus": "<p id='stroop-text' class='stroop-red'>SHIP</p>", "response": "r", "stimulus-type": "unrelated", "word": "SHIP", "color": "red", "correct_response": "r", "trial_id": "stroop-trial-1-unrelated-6", "trial_type": "html-keyboard-response", "trial_index": 165, "time_elapsed": 317357, "internal_node_id": "0.0-6.0-70.0"}}, {"uniqueid": "w34656333:a65282722", "current_trial": 166, "dateTime": 1664559075787, "trialdata": {"rt": 427, "stimulus": "<p id='stroop-text' class='stroop-red'>RED</p>", "response": "r", "stimulus-type": "congruent", "word": "red", "color": "red", "correct_response": "r", "trial_id": "stroop-trial-1-congruent-16", "trial_type": "html-keyboard-response", "trial_index": 166, "time_elapsed": 318301, "internal_node_id": "0.0-6.0-71.0"}}, {"uniqueid": "w34656333:a65282722", "current_trial": 167, "dateTime": 1664559076880, "trialdata": {"rt": 528, "stimulus": "<p id='stroop-text' class='stroop-blue'>CHAIR</p>", "response": "b", "stimulus-type": "unrelated", "word": "CHAIR", "color": "blue", "correct_response": "b", "trial_id": "stroop-trial-1-unrelated-24", "trial_type": "html-keyboard-response", "trial_index": 167, "time_elapsed": 319394, "internal_node_id": "0.0-6.0-72.0"}}, {"uniqueid": "w34656333:a65282722", "current_trial": 168, "dateTime": 1664559078797, "trialdata": {"rt": 436, "stimulus": "<p id='stroop-text' class='stroop-blue'>BLUE</p>", "response": "b", "stimulus-type": "congruent", "word": "blue", "color": "blue", "correct_response": "b", "trial_id": "stroop-trial-1-congruent-11", "trial_type": "html-keyboard-response", "trial_index": 168, "time_elapsed": 321311, "internal_node_id": "0.0-6.0-73.0"}}, {"uniqueid": "w34656333:a65282722", "current_trial": 169, "dateTime": 1664559079757, "trialdata": {"rt": 406, "stimulus": "<p id='stroop-text' class='stroop-yellow'>MONKEY</p>", "response": "y", "stimulus-type": "unrelated", "word": "MONKEY", "color": "yellow", "correct_response": "y", "trial_id": "stroop-trial-1-unrelated-28", "trial_type": "html-keyboard-response", "trial_index": 169, "time_elapsed": 322271, "internal_node_id": "0.0-6.0-74.0"}}, {"uniqueid": "w34656333:a65282722", "current_trial": 170, "dateTime": 1664559080887, "trialdata": {"rt": 530, "stimulus": "<p id='stroop-text' class='stroop-blue'>BLUE</p>", "response": "b", "stimulus-type": "congruent", "word": "blue", "color": "blue", "correct_response": "b", "trial_id": "stroop-trial-1-congruent-15", "trial_type": "html-keyboard-response", "trial_index": 170, "time_elapsed": 323400, "internal_node_id": "0.0-6.0-75.0"}}, {"uniqueid": "w34656333:a65282722", "current_trial": 171, "dateTime": 1664559082834, "trialdata": {"rt": 483, "stimulus": "<p id='stroop-text' class='stroop-red'>RED</p>", "response": "r", "stimulus-type": "congruent", "word": "red", "color": "red", "correct_response": "r", "trial_id": "stroop-trial-1-congruent-25", "trial_type": "html-keyboard-response", "trial_index": 171, "time_elapsed": 325348, "internal_node_id": "0.0-6.0-76.0"}}, {"uniqueid": "w34656333:a65282722", "current_trial": 172, "dateTime": 1664559083693, "trialdata": {"rt": 336, "stimulus": "<p id='stroop-text' class='stroop-green'>WINDOW</p>", "response": "g", "stimulus-type": "unrelated", "word": "WINDOW", "color": "green", "correct_response": "g", "trial_id": "stroop-trial-1-unrelated-10", "trial_type": "html-keyboard-response", "trial_index": 172, "time_elapsed": 326207, "internal_node_id": "0.0-6.0-77.0"}}, {"uniqueid": "w34656333:a65282722", "current_trial": 173, "dateTime": 1664559085082, "trialdata": {"rt": 720, "stimulus": "<p id='stroop-text' class='stroop-green'>GREEN</p>", "response": "g", "stimulus-type": "congruent", "word": "green", "color": "green", "correct_response": "g", "trial_id": "stroop-trial-1-congruent-21", "trial_type": "html-keyboard-response", "trial_index": 173, "time_elapsed": 327596, "internal_node_id": "0.0-6.0-78.0"}}, {"uniqueid": "w34656333:a65282722", "current_trial": 174, "dateTime": 1664559086991, "trialdata": {"rt": 633, "stimulus": "<p id='stroop-text' class='stroop-blue'>RED</p>", "response": "b", "stimulus-type": "incongruent", "word": "red", "color": "blue", "correct_response": "b", "trial_id": "stroop-trial-1-incongruent-13", "trial_type": "html-keyboard-response", "trial_index": 174, "time_elapsed": 329505, "internal_node_id": "0.0-6.0-79.0"}}, {"uniqueid": "w34656333:a65282722", "current_trial": 175, "dateTime": 1664559088711, "trialdata": {"rt": 358, "stimulus": "<p id='stroop-text' class='stroop-yellow'>BLUE</p>", "response": "y", "stimulus-type": "incongruent", "word": "blue", "color": "yellow", "correct_response": "y", "trial_id": "stroop-trial-1-incongruent-24", "trial_type": "html-keyboard-response", "trial_index": 175, "time_elapsed": 331225, "internal_node_id": "0.0-6.0-80.0"}}, {"uniqueid": "w34656333:a65282722", "current_trial": 176, "dateTime": 1664559089814, "trialdata": {"rt": 456, "stimulus": "<p id='stroop-text' class='stroop-blue'>BOTTLE</p>", "response": "b", "stimulus-type": "unrelated", "word": "BOTTLE", "color": "blue", "correct_response": "b", "trial_id": "stroop-trial-1-unrelated-27", "trial_type": "html-keyboard-response", "trial_index": 176, "time_elapsed": 332328, "internal_node_id": "0.0-6.0-81.0"}}, {"uniqueid": "w34656333:a65282722", "current_trial": 177, "dateTime": 1664559090897, "trialdata": {"rt": 533, "stimulus": "<p id='stroop-text' class='stroop-red'>BLUE</p>", "response": "r", "stimulus-type": "incongruent", "word": "blue", "color": "red", "correct_response": "r", "trial_id": "stroop-trial-1-incongruent-22", "trial_type": "html-keyboard-response", "trial_index": 177, "time_elapsed": 333411, "internal_node_id": "0.0-6.0-82.0"}}, {"uniqueid": "w34656333:a65282722", "current_trial": 178, "dateTime": 1664559092881, "trialdata": {"rt": 522, "stimulus": "<p id='stroop-text' class='stroop-blue'>BLUE</p>", "response": "r", "stimulus-type": "congruent", "word": "blue", "color": "blue", "correct_response": "b", "trial_id": "stroop-trial-1-congruent-17", "trial_type": "html-keyboard-response", "trial_index": 178, "time_elapsed": 335395, "internal_node_id": "0.0-6.0-83.0"}}, {"uniqueid": "w34656333:a65282722", "current_trial": 179, "dateTime": 1664559094951, "trialdata": {"rt": 593, "stimulus": "<p id='stroop-text' class='stroop-yellow'>RED</p>", "response": "y", "stimulus-type": "incongruent", "word": "red", "color": "yellow", "correct_response": "y", "trial_id": "stroop-trial-1-incongruent-9", "trial_type": "html-keyboard-response", "trial_index": 179, "time_elapsed": 337465, "internal_node_id": "0.0-6.0-84.0"}}, {"uniqueid": "w34656333:a65282722", "current_trial": 180, "dateTime": 1664559097065, "trialdata": {"rt": 707, "stimulus": "<p id='stroop-text' class='stroop-green'>BLUE</p>", "response": "g", "stimulus-type": "incongruent", "word": "blue", "color": "green", "correct_response": "g", "trial_id": "stroop-trial-1-incongruent-21", "trial_type": "html-keyboard-response", "trial_index": 180, "time_elapsed": 339578, "internal_node_id": "0.0-6.0-85.0"}}, {"uniqueid": "w34656333:a65282722", "current_trial": 181, "dateTime": 1664559098708, "trialdata": {"rt": 357, "stimulus": "<p id='stroop-text' class='stroop-blue'>MONKEY</p>", "response": "b", "stimulus-type": "unrelated", "word": "MONKEY", "color": "blue", "correct_response": "b", "trial_id": "stroop-trial-1-unrelated-5", "trial_type": "html-keyboard-response", "trial_index": 181, "time_elapsed": 341222, "internal_node_id": "0.0-6.0-86.0"}}, {"uniqueid": "w34656333:a65282722", "current_trial": 182, "dateTime": 1664559100012, "trialdata": {"rt": 655, "stimulus": "<p id='stroop-text' class='stroop-yellow'>YELLOW</p>", "response": "y", "stimulus-type": "congruent", "word": "yellow", "color": "yellow", "correct_response": "y", "trial_id": "stroop-trial-1-congruent-30", "trial_type": "html-keyboard-response", "trial_index": 182, "time_elapsed": 342526, "internal_node_id": "0.0-6.0-87.0"}}, {"uniqueid": "w34656333:a65282722", "current_trial": 183, "dateTime": 1664559102191, "trialdata": {"rt": 840, "stimulus": "<p id='stroop-text' class='stroop-yellow'>YELLOW</p>", "response": "y", "stimulus-type": "congruent", "word": "yellow", "color": "yellow", "correct_response": "y", "trial_id": "stroop-trial-1-congruent-8", "trial_type": "html-keyboard-response", "trial_index": 183, "time_elapsed": 344705, "internal_node_id": "0.0-6.0-88.0"}}, {"uniqueid": "w34656333:a65282722", "current_trial": 184, "dateTime": 1664559103918, "trialdata": {"rt": 558, "stimulus": "<p id='stroop-text' class='stroop-green'>GREEN</p>", "response": "g", "stimulus-type": "congruent", "word": "green", "color": "green", "correct_response": "g", "trial_id": "stroop-trial-1-congruent-19", "trial_type": "html-keyboard-response", "trial_index": 184, "time_elapsed": 346432, "internal_node_id": "0.0-6.0-89.0"}}, {"uniqueid": "w34656333:a65282722", "current_trial": 185, "dateTime": 1664559128534, "trialdata": {"rt": 23177, "stimulus": "  <h1> End of block! </h1>\n\n  You have reached the end of the block 2/5. If you need a short break, feel free to take one now before moving on.\n\n  <br><br>\n  In the next block, you will complete another 90 rounds of this game.\n\n  <br><br>\n  <div style='text-align: center;'>Press <code>space</code> to begin.</div>\n  <br><br>\n<div style='text-align: center;'>(If the experiment doesn't continue, try clicking on the text and then pressing <code>space</code>.)</div>", "response": " ", "trial_id": "stroop_1_ready_3", "trial_type": "html-keyboard-response", "trial_index": 185, "time_elapsed": 371048, "internal_node_id": "0.0-7.0"}}, {"uniqueid": "w34656333:a65282722", "current_trial": 186, "dateTime": 1664559129524, "trialdata": {"rt": 987, "stimulus": "<p id='stroop-text' class='stroop-yellow'>GREEN</p>", "response": "y", "stimulus-type": "incongruent", "word": "green", "color": "yellow", "correct_response": "y", "trial_id": "stroop-trial-1-incongruent-19", "trial_type": "html-keyboard-response", "trial_index": 186, "time_elapsed": 372038, "internal_node_id": "0.0-8.0-0.0"}}, {"uniqueid": "w34656333:a65282722", "current_trial": 187, "dateTime": 1664559130990, "trialdata": {"rt": 636, "stimulus": "<p id='stroop-text' class='stroop-yellow'>BLUE</p>", "response": "y", "stimulus-type": "incongruent", "word": "blue", "color": "yellow", "correct_response": "y", "trial_id": "stroop-trial-1-incongruent-18", "trial_type": "html-keyboard-response", "trial_index": 187, "time_elapsed": 373504, "internal_node_id": "0.0-8.0-1.0"}}, {"uniqueid": "w34656333:a65282722", "current_trial": 188, "dateTime": 1664559132833, "trialdata": {"rt": 484, "stimulus": "<p id='stroop-text' class='stroop-yellow'>SHIP</p>", "response": "y", "stimulus-type": "unrelated", "word": "SHIP", "color": "yellow", "correct_response": "y", "trial_id": "stroop-trial-1-unrelated-20", "trial_type": "html-keyboard-response", "trial_index": 188, "time_elapsed": 375346, "internal_node_id": "0.0-8.0-2.0"}}, {"uniqueid": "w34656333:a65282722", "current_trial": 189, "dateTime": 1664559133875, "trialdata": {"rt": 522, "stimulus": "<p id='stroop-text' class='stroop-green'>GREEN</p>", "response": "g", "stimulus-type": "congruent", "word": "green", "color": "green", "correct_response": "g", "trial_id": "stroop-trial-1-congruent-9", "trial_type": "html-keyboard-response", "trial_index": 189, "time_elapsed": 376389, "internal_node_id": "0.0-8.0-3.0"}}, {"uniqueid": "w34656333:a65282722", "current_trial": 190, "dateTime": 1664559135879, "trialdata": {"rt": 529, "stimulus": "<p id='stroop-text' class='stroop-red'>BLUE</p>", "response": "r", "stimulus-type": "incongruent", "word": "blue", "color": "red", "correct_response": "r", "trial_id": "stroop-trial-1-incongruent-25", "trial_type": "html-keyboard-response", "trial_index": 190, "time_elapsed": 378393, "internal_node_id": "0.0-8.0-4.0"}}, {"uniqueid": "w34656333:a65282722", "current_trial": 191, "dateTime": 1664559137794, "trialdata": {"rt": 434, "stimulus": "<p id='stroop-text' class='stroop-blue'>MONKEY</p>", "response": "b", "stimulus-type": "unrelated", "word": "MONKEY", "color": "blue", "correct_response": "b", "trial_id": "stroop-trial-1-unrelated-8", "trial_type": "html-keyboard-response", "trial_index": 191, "time_elapsed": 380308, "internal_node_id": "0.0-8.0-5.0"}}, {"uniqueid": "w34656333:a65282722", "current_trial": 192, "dateTime": 1664559138821, "trialdata": {"rt": 458, "stimulus": "<p id='stroop-text' class='stroop-blue'>DOG</p>", "response": "b", "stimulus-type": "unrelated", "word": "DOG", "color": "blue", "correct_response": "b", "trial_id": "stroop-trial-1-unrelated-5", "trial_type": "html-keyboard-response", "trial_index": 192, "time_elapsed": 381335, "internal_node_id": "0.0-8.0-6.0"}}, {"uniqueid": "w34656333:a65282722", "current_trial": 193, "dateTime": 1664559139868, "trialdata": {"rt": 515, "stimulus": "<p id='stroop-text' class='stroop-red'>RED</p>", "response": "r", "stimulus-type": "congruent", "word": "red", "color": "red", "correct_response": "r", "trial_id": "stroop-trial-1-congruent-8", "trial_type": "html-keyboard-response", "trial_index": 193, "time_elapsed": 382382, "internal_node_id": "0.0-8.0-7.0"}}, {"uniqueid": "w34656333:a65282722", "current_trial": 194, "dateTime": 1664559141959, "trialdata": {"rt": 607, "stimulus": "<p id='stroop-text' class='stroop-red'>DOG</p>", "response": "r", "stimulus-type": "unrelated", "word": "DOG", "color": "red", "correct_response": "r", "trial_id": "stroop-trial-1-unrelated-6", "trial_type": "html-keyboard-response", "trial_index": 194, "time_elapsed": 384473, "internal_node_id": "0.0-8.0-8.0"}}, {"uniqueid": "w34656333:a65282722", "current_trial": 195, "dateTime": 1664559144026, "trialdata": {"rt": 663, "stimulus": "<p id='stroop-text' class='stroop-green'>GREEN</p>", "response": "g", "stimulus-type": "congruent", "word": "green", "color": "green", "correct_response": "g", "trial_id": "stroop-trial-1-congruent-17", "trial_type": "html-keyboard-response", "trial_index": 195, "time_elapsed": 386540, "internal_node_id": "0.0-8.0-9.0"}}, {"uniqueid": "w34656333:a65282722", "current_trial": 196, "dateTime": 1664559145957, "trialdata": {"rt": 599, "stimulus": "<p id='stroop-text' class='stroop-blue'>RED</p>", "response": "b", "stimulus-type": "incongruent", "word": "red", "color": "blue", "correct_response": "b", "trial_id": "stroop-trial-1-incongruent-2", "trial_type": "html-keyboard-response", "trial_index": 196, "time_elapsed": 388471, "internal_node_id": "0.0-8.0-10.0"}}, {"uniqueid": "w34656333:a65282722", "current_trial": 197, "dateTime": 1664559147748, "trialdata": {"rt": 393, "stimulus": "<p id='stroop-text' class='stroop-yellow'>BRIDGE</p>", "response": "y", "stimulus-type": "unrelated", "word": "BRIDGE", "color": "yellow", "correct_response": "y", "trial_id": "stroop-trial-1-unrelated-14", "trial_type": "html-keyboard-response", "trial_index": 197, "time_elapsed": 390262, "internal_node_id": "0.0-8.0-11.0"}}, {"uniqueid": "w34656333:a65282722", "current_trial": 198, "dateTime": 1664559148944, "trialdata": {"rt": 582, "stimulus": "<p id='stroop-text' class='stroop-red'>RED</p>", "response": "r", "stimulus-type": "congruent", "word": "red", "color": "red", "correct_response": "r", "trial_id": "stroop-trial-1-congruent-6", "trial_type": "html-keyboard-response", "trial_index": 198, "time_elapsed": 391458, "internal_node_id": "0.0-8.0-12.0"}}, {"uniqueid": "w34656333:a65282722", "current_trial": 199, "dateTime": 1664559150887, "trialdata": {"rt": 531, "stimulus": "<p id='stroop-text' class='stroop-green'>GREEN</p>", "response": "g", "stimulus-type": "congruent", "word": "green", "color": "green", "correct_response": "g", "trial_id": "stroop-trial-1-congruent-2", "trial_type": "html-keyboard-response", "trial_index": 199, "time_elapsed": 393401, "internal_node_id": "0.0-8.0-13.0"}}, {"uniqueid": "w34656333:a65282722", "current_trial": 200, "dateTime": 1664559152764, "trialdata": {"rt": 414, "stimulus": "<p id='stroop-text' class='stroop-blue'>BLUE</p>", "response": "b", "stimulus-type": "congruent", "word": "blue", "color": "blue", "correct_response": "b", "trial_id": "stroop-trial-1-congruent-21", "trial_type": "html-keyboard-response", "trial_index": 200, "time_elapsed": 395278, "internal_node_id": "0.0-8.0-14.0"}}, {"uniqueid": "w34656333:a65282722", "current_trial": 201, "dateTime": 1664559153849, "trialdata": {"rt": 495, "stimulus": "<p id='stroop-text' class='stroop-red'>RED</p>", "response": "r", "stimulus-type": "congruent", "word": "red", "color": "red", "correct_response": "r", "trial_id": "stroop-trial-1-congruent-26", "trial_type": "html-keyboard-response", "trial_index": 201, "time_elapsed": 396363, "internal_node_id": "0.0-8.0-15.0"}}, {"uniqueid": "w34656333:a65282722", "current_trial": 202, "dateTime": 1664559154809, "trialdata": {"rt": 449, "stimulus": "<p id='stroop-text' class='stroop-red'>RED</p>", "response": "r", "stimulus-type": "congruent", "word": "red", "color": "red", "correct_response": "r", "trial_id": "stroop-trial-1-congruent-3", "trial_type": "html-keyboard-response", "trial_index": 202, "time_elapsed": 397323, "internal_node_id": "0.0-8.0-16.0"}}, {"uniqueid": "w34656333:a65282722", "current_trial": 203, "dateTime": 1664559155756, "trialdata": {"rt": 405, "stimulus": "<p id='stroop-text' class='stroop-green'>BLUE</p>", "response": "g", "stimulus-type": "incongruent", "word": "blue", "color": "green", "correct_response": "g", "trial_id": "stroop-trial-1-incongruent-8", "trial_type": "html-keyboard-response", "trial_index": 203, "time_elapsed": 398270, "internal_node_id": "0.0-8.0-17.0"}}, {"uniqueid": "w34656333:a65282722", "current_trial": 204, "dateTime": 1664559156810, "trialdata": {"rt": 453, "stimulus": "<p id='stroop-text' class='stroop-yellow'>GREEN</p>", "response": "y", "stimulus-type": "incongruent", "word": "green", "color": "yellow", "correct_response": "y", "trial_id": "stroop-trial-1-incongruent-9", "trial_type": "html-keyboard-response", "trial_index": 204, "time_elapsed": 399324, "internal_node_id": "0.0-8.0-18.0"}}, {"uniqueid": "w34656333:a65282722", "current_trial": 205, "dateTime": 1664559157972, "trialdata": {"rt": 611, "stimulus": "<p id='stroop-text' class='stroop-green'>CHAIR</p>", "response": "g", "stimulus-type": "unrelated", "word": "CHAIR", "color": "green", "correct_response": "g", "trial_id": "stroop-trial-1-unrelated-1", "trial_type": "html-keyboard-response", "trial_index": 205, "time_elapsed": 400486, "internal_node_id": "0.0-8.0-19.0"}}, {"uniqueid": "w34656333:a65282722", "current_trial": 206, "dateTime": 1664559160460, "trialdata": {"rt": 1103, "stimulus": "<p id='stroop-text' class='stroop-yellow'>RED</p>", "response": "y", "stimulus-type": "incongruent", "word": "red", "color": "yellow", "correct_response": "y", "trial_id": "stroop-trial-1-incongruent-21", "trial_type": "html-keyboard-response", "trial_index": 206, "time_elapsed": 402974, "internal_node_id": "0.0-8.0-20.0"}}, {"uniqueid": "w34656333:a65282722", "current_trial": 207, "dateTime": 1664559162453, "trialdata": {"rt": 1103, "stimulus": "<p id='stroop-text' class='stroop-red'>YELLOW</p>", "response": "r", "stimulus-type": "incongruent", "word": "yellow", "color": "red", "correct_response": "r", "trial_id": "stroop-trial-1-incongruent-20", "trial_type": "html-keyboard-response", "trial_index": 207, "time_elapsed": 404967, "internal_node_id": "0.0-8.0-21.0"}}, {"uniqueid": "w34656333:a65282722", "current_trial": 208, "dateTime": 1664559163936, "trialdata": {"rt": 575, "stimulus": "<p id='stroop-text' class='stroop-blue'>RED</p>", "response": "b", "stimulus-type": "incongruent", "word": "red", "color": "blue", "correct_response": "b", "trial_id": "stroop-trial-1-incongruent-12", "trial_type": "html-keyboard-response", "trial_index": 208, "time_elapsed": 406450, "internal_node_id": "0.0-8.0-22.0"}}, {"uniqueid": "w34656333:a65282722", "current_trial": 209, "dateTime": 1664559166171, "trialdata": {"rt": 815, "stimulus": "<p id='stroop-text' class='stroop-green'>BLUE</p>", "response": "g", "stimulus-type": "incongruent", "word": "blue", "color": "green", "correct_response": "g", "trial_id": "stroop-trial-1-incongruent-23", "trial_type": "html-keyboard-response", "trial_index": 209, "time_elapsed": 408685, "internal_node_id": "0.0-8.0-23.0"}}, {"uniqueid": "w34656333:a65282722", "current_trial": 210, "dateTime": 1664559167954, "trialdata": {"rt": 604, "stimulus": "<p id='stroop-text' class='stroop-red'>RED</p>", "response": "r", "stimulus-type": "congruent", "word": "red", "color": "red", "correct_response": "r", "trial_id": "stroop-trial-1-congruent-14", "trial_type": "html-keyboard-response", "trial_index": 210, "time_elapsed": 410468, "internal_node_id": "0.0-8.0-24.0"}}, {"uniqueid": "w34656333:a65282722", "current_trial": 211, "dateTime": 1664559169775, "trialdata": {"rt": 413, "stimulus": "<p id='stroop-text' class='stroop-yellow'>YELLOW</p>", "response": "y", "stimulus-type": "congruent", "word": "yellow", "color": "yellow", "correct_response": "y", "trial_id": "stroop-trial-1-congruent-18", "trial_type": "html-keyboard-response", "trial_index": 211, "time_elapsed": 412289, "internal_node_id": "0.0-8.0-25.0"}}, {"uniqueid": "w34656333:a65282722", "current_trial": 212, "dateTime": 1664559170874, "trialdata": {"rt": 522, "stimulus": "<p id='stroop-text' class='stroop-yellow'>GREEN</p>", "response": "y", "stimulus-type": "incongruent", "word": "green", "color": "yellow", "correct_response": "y", "trial_id": "stroop-trial-1-incongruent-11", "trial_type": "html-keyboard-response", "trial_index": 212, "time_elapsed": 413387, "internal_node_id": "0.0-8.0-26.0"}}, {"uniqueid": "w34656333:a65282722", "current_trial": 213, "dateTime": 1664559172865, "trialdata": {"rt": 505, "stimulus": "<p id='stroop-text' class='stroop-blue'>MONKEY</p>", "response": "b", "stimulus-type": "unrelated", "word": "MONKEY", "color": "blue", "correct_response": "b", "trial_id": "stroop-trial-1-unrelated-25", "trial_type": "html-keyboard-response", "trial_index": 213, "time_elapsed": 415379, "internal_node_id": "0.0-8.0-27.0"}}, {"uniqueid": "w34656333:a65282722", "current_trial": 214, "dateTime": 1664559174971, "trialdata": {"rt": 617, "stimulus": "<p id='stroop-text' class='stroop-green'>RED</p>", "response": "g", "stimulus-type": "incongruent", "word": "red", "color": "green", "correct_response": "g", "trial_id": "stroop-trial-1-incongruent-28", "trial_type": "html-keyboard-response", "trial_index": 214, "time_elapsed": 417485, "internal_node_id": "0.0-8.0-28.0"}}, {"uniqueid": "w34656333:a65282722", "current_trial": 215, "dateTime": 1664559176894, "trialdata": {"rt": 545, "stimulus": "<p id='stroop-text' class='stroop-green'>YELLOW</p>", "response": "g", "stimulus-type": "incongruent", "word": "yellow", "color": "green", "correct_response": "g", "trial_id": "stroop-trial-1-incongruent-17", "trial_type": "html-keyboard-response", "trial_index": 215, "time_elapsed": 419408, "internal_node_id": "0.0-8.0-29.0"}}, {"uniqueid": "w34656333:a65282722", "current_trial": 216, "dateTime": 1664559178729, "trialdata": {"rt": 370, "stimulus": "<p id='stroop-text' class='stroop-green'>YELLOW</p>", "response": "g", "stimulus-type": "incongruent", "word": "yellow", "color": "green", "correct_response": "g", "trial_id": "stroop-trial-1-incongruent-16", "trial_type": "html-keyboard-response", "trial_index": 216, "time_elapsed": 421243, "internal_node_id": "0.0-8.0-30.0"}}, {"uniqueid": "w34656333:a65282722", "current_trial": 217, "dateTime": 1664559179889, "trialdata": {"rt": 525, "stimulus": "<p id='stroop-text' class='stroop-red'>RED</p>", "response": "r", "stimulus-type": "congruent", "word": "red", "color": "red", "correct_response": "r", "trial_id": "stroop-trial-1-congruent-16", "trial_type": "html-keyboard-response", "trial_index": 217, "time_elapsed": 422403, "internal_node_id": "0.0-8.0-31.0"}}, {"uniqueid": "w34656333:a65282722", "current_trial": 218, "dateTime": 1664559181857, "trialdata": {"rt": 497, "stimulus": "<p id='stroop-text' class='stroop-green'>CHAIR</p>", "response": "r", "stimulus-type": "unrelated", "word": "CHAIR", "color": "green", "correct_response": "g", "trial_id": "stroop-trial-1-unrelated-29", "trial_type": "html-keyboard-response", "trial_index": 218, "time_elapsed": 424371, "internal_node_id": "0.0-8.0-32.0"}}, {"uniqueid": "w34656333:a65282722", "current_trial": 219, "dateTime": 1664559182829, "trialdata": {"rt": 466, "stimulus": "<p id='stroop-text' class='stroop-red'>STONE</p>", "response": "r", "stimulus-type": "unrelated", "word": "STONE", "color": "red", "correct_response": "r", "trial_id": "stroop-trial-1-unrelated-26", "trial_type": "html-keyboard-response", "trial_index": 219, "time_elapsed": 425343, "internal_node_id": "0.0-8.0-33.0"}}, {"uniqueid": "w34656333:a65282722", "current_trial": 220, "dateTime": 1664559183924, "trialdata": {"rt": 571, "stimulus": "<p id='stroop-text' class='stroop-yellow'>WINDOW</p>", "response": "y", "stimulus-type": "unrelated", "word": "WINDOW", "color": "yellow", "correct_response": "y", "trial_id": "stroop-trial-1-unrelated-21", "trial_type": "html-keyboard-response", "trial_index": 220, "time_elapsed": 426438, "internal_node_id": "0.0-8.0-34.0"}}, {"uniqueid": "w34656333:a65282722", "current_trial": 221, "dateTime": 1664559185943, "trialdata": {"rt": 590, "stimulus": "<p id='stroop-text' class='stroop-blue'>CHAIR</p>", "response": "g", "stimulus-type": "unrelated", "word": "CHAIR", "color": "blue", "correct_response": "b", "trial_id": "stroop-trial-1-unrelated-27", "trial_type": "html-keyboard-response", "trial_index": 221, "time_elapsed": 428457, "internal_node_id": "0.0-8.0-35.0"}}, {"uniqueid": "w34656333:a65282722", "current_trial": 222, "dateTime": 1664559188038, "trialdata": {"rt": 689, "stimulus": "<p id='stroop-text' class='stroop-green'>WINDOW</p>", "response": "g", "stimulus-type": "unrelated", "word": "WINDOW", "color": "green", "correct_response": "g", "trial_id": "stroop-trial-1-unrelated-10", "trial_type": "html-keyboard-response", "trial_index": 222, "time