{"condition": 1, "counterbalance": 0, "assignmentId": "a21634997", "workerId": "w20590658", "hitId": "h64355301", "currenttrial": 143, "bonus": 0, "data": [{"uniqueid": "w20590658:a21634997", "current_trial": 0, "dateTime": 1664376107073, "trialdata": {"success": true, "trial_type": "fullscreen", "trial_index": 0, "time_elapsed": 3368, "internal_node_id": "0.0-0.0"}}, {"uniqueid": "w20590658:a21634997", "current_trial": 1, "dateTime": 1664376130872, "trialdata": {"view_history": [{"page_index": 0, "viewing_time": 23773}], "rt": 23776, "trial_id": "exp_instructions_no_distractor", "trial_type": "instructions", "trial_index": 1, "time_elapsed": 27170, "internal_node_id": "0.0-1.0"}}, {"uniqueid": "w20590658:a21634997", "current_trial": 2, "dateTime": 1664376134167, "trialdata": {"success": true, "trial_type": "fullscreen", "trial_index": 2, "time_elapsed": 30464, "internal_node_id": "0.0-2.0-0.0"}}, {"uniqueid": "w20590658:a21634997", "current_trial": 3, "dateTime": 1664376250746, "trialdata": {"view_history": [{"page_index": 0, "viewing_time": 36920}, {"page_index": 1, "viewing_time": 36100}, {"page_index": 2, "viewing_time": 13018}, {"page_index": 3, "viewing_time": 12999}, {"page_index": 4, "viewing_time": 17529}], "rt": 116567, "trial_id": "mouselab_instructions_1", "trial_type": "instructions", "trial_index": 3, "time_elapsed": 147043, "internal_node_id": "0.0-2.0-1.0"}}, {"uniqueid": "w20590658:a21634997", "current_trial": 4, "dateTime": 1664376285265, "trialdata": {"revealed_states": [], "num_clicks_accrued": [0, 0, 0, 0, 0, 0, 0, 0, 0, 0, 0, 0, 0], "stateRewards": ["", 10, -10, -10, -10, 10, 10, 10, -10, -10, -10, 10, 10], "withholdReward": false, "trial_id": "practice_1", "block": "test", "trialIndex": 0, "score": 31.75, "costs": -0.25, "simulationMode": [null, null, null], "rewards": [10, 10, 10], "path": ["0", "0", "5", "6", "7"], "rt": [10770, 8517, 7746], "actions": ["right", "right", "up"], "actionTimes": [13615, 22650, 30923], "queries": {"click": {"state": {"target": ["8"], "time": [9801]}, "edge": {"target": [], "time": []}}, "mouseover": {"state": {"target": ["0", "9", "10", "10", "8", "5", "5"], "time": [3629, 3898, 4364, 7381, 8184, 10888, 11774]}, "edge": {"target": [], "time": []}}, "mouseout": {"state": {"target": ["1", "9", "0", "9", "10", "10", "8", "5", "5", "6", "5"], "time": [58, 1540, 3862, 4331, 4430, 7413, 10170, 11123, 15617, 17686, 32234]}, "edge": {"target": [], "time": []}}}, "displayed_time": "31.45", "trialTime": 33984, "trial_type": "mouselab-mdp", "trial_index": 4, "time_elapsed": 181561, "internal_node_id": "0.0-2.0-2.0-0.0"}}, {"uniqueid": "w20590658:a21634997", "current_trial": 5, "dateTime": 1664376301820, "trialdata": {"revealed_states": [], "num_clicks_accrued": [0, 0, 0, 0, 0, 0, 0, 0, 0, 0, 0, 0, 0], "stateRewards": ["", 10, -10, -10, -10, -10, 10, 10, -10, -10, -10, -10, 10], "withholdReward": false, "trial_id": "practice_2", "block": "test", "trialIndex": 1, "score": -8.25, "costs": -0.25, "simulationMode": [null, null, null], "rewards": [10, -10, -10], "path": ["0", "0", "1", "2", "3"], "rt": [7722, 683, 346], "actions": ["up", "up", "right"], "actionTimes": [12007, 13198, 14063], "queries": {"click": {"state": {"target": ["4"], "time": [10508]}, "edge": {"target": [], "time": []}}, "mouseover": {"state": {"target": ["9", "9", "10", "11", "2", "4"], "time": [4520, 4901, 7369, 8939, 9524, 9909]}, "edge": {"target": [], "time": []}}, "mouseout": {"state": {"target": ["0", "9", "9", "10", "11", "2", "4"], "time": [4504, 4537, 5567, 7938, 9491, 9613, 10875]}, "edge": {"target": [], "time": []}}}, "displayed_time": "14.60", "trialTime": 16381, "trial_type": "mouselab-mdp", "trial_index": 5, "time_elapsed": 198118, "internal_node_id": "0.0-2.0-2.0-1.0"}}, {"uniqueid": "w20590658:a21634997", "current_trial": 6, "dateTime": 1664376346540, "trialdata": {"view_history": [{"page_index": 0, "viewing_time": 28384}, {"page_index": 1, "viewing_time": 5953}, {"page_index": 2, "viewing_time": 10366}], "rt": 44705, "trial_id": "mouselab_instructions_2_scarce", "trial_type": "instructions", "trial_index": 6, "time_elapsed": 242838, "internal_node_id": "0.0-2.0-3.0"}}, {"uniqueid": "w20590658:a21634997", "current_trial": 7, "dateTime": 1664376394009, "trialdata": {"rt": 47440, "response": {"Q0": "$-48 to $48", "Q1": "The cost is always $0.25.", "Q2": "The better I perform the higher my bonus will be.", "Q3": "Yes.", "Q4": "The values of the nodes walked through from start to finish.", "Q5": "Yes."}, "question_order": [0, 1, 2, 3, 4, 5], "correct": {"Q0": "$-48 to $48", "Q1": "The cost is always $0.25.", "Q2": "The better I perform the higher my bonus will be.", "Q3": "No, the amount of cash at each node of the web may be different each time.", "Q4": "The values of the nodes walked through from start to finish.", "Q5": "No, the spider might forget to count the money on some rounds."}, "trial_id": "mouselab_quiz_scarce", "trial_type": "survey-multi-choice", "trial_index": 7, "time_elapsed": 290307, "internal_node_id": "0.0-2.0-4.0"}}, {"uniqueid": "w20590658:a21634997", "current_trial": 8, "dateTime": 1664376404399, "trialdata": {"success": true, "trial_type": "fullscreen", "trial_index": 8, "time_elapsed": 300697, "internal_node_id": "0.0-2.1-0.1"}}, {"uniqueid": "w20590658:a21634997", "current_trial": 9, "dateTime": 1664376447701, "trialdata": {"view_history": [{"page_index": 0, "viewing_time": 14601}, {"page_index": 1, "viewing_time": 11418}, {"page_index": 2, "viewing_time": 9140}, {"page_index": 3, "viewing_time": 4394}, {"page_index": 4, "viewing_time": 3743}], "rt": 43298, "trial_id": "mouselab_instructions_1", "trial_type": "instructions", "trial_index": 9, "time_elapsed": 343999, "internal_node_id": "0.0-2.1-1.1"}}, {"uniqueid": "w20590658:a21634997", "current_trial": 10, "dateTime": 1664376453708, "trialdata": {"revealed_states": [], "num_clicks_accrued": [0, 0, 0, 0, 0, 0, 0, 0, 0, 0, 0, 0, 0], "stateRewards": ["", 10, -10, -10, -10, 10, 10, 10, -10, -10, -10, 10, 10], "withholdReward": false, "trial_id": "practice_1", "block": "test", "trialIndex": 2, "score": 32, "costs": 0, "simulationMode": [null, null, null], "rewards": [10, 10, 10], "path": ["0", "0", "5", "6", "7"], "rt": [1249, 391, 479], "actions": ["right", "right", "up"], "actionTimes": [2639, 3554, 4543], "queries": {"click": {"state": {"target": [], "time": []}, "edge": {"target": [], "time": []}}, "mouseover": {"state": {"target": ["9", "0", "5"], "time": [1739, 2541, 2577]}, "edge": {"target": [], "time": []}}, "mouseout": {"state": {"target": ["0", "9", "0"], "time": [1037, 2507, 2559]}, "edge": {"target": [], "time": []}}}, "displayed_time": "5.06", "trialTime": 5771, "trial_type": "mouselab-mdp", "trial_index": 10, "time_elapsed": 350004, "internal_node_id": "0.0-2.1-2.1-0.1"}}, {"uniqueid": "w20590658:a21634997", "current_trial": 11, "dateTime": 1664376458355, "trialdata": {"revealed_states": [], "num_clicks_accrued": [0, 0, 0, 0, 0, 0, 0, 0, 0, 0, 0, 0, 0], "stateRewards": ["", 10, -10, -10, -10, -10, 10, 10, -10, -10, -10, -10, 10], "withholdReward": false, "trial_id": "practice_2", "block": "test", "trialIndex": 3, "score": -28, "costs": 0, "simulationMode": [null, null, null], "rewards": [-10, -10, -10], "path": ["0", "0", "9", "10", "11"], "rt": [467, 146, 80], "actions": ["left", "left", "up"], "actionTimes": [2008, 2667, 3254], "queries": {"click": {"state": {"target": [], "time": []}, "edge": {"target": [], "time": []}}, "mouseover": {"state": {"target": ["9"], "time": [2001]}, "edge": {"target": [], "time": []}}, "mouseout": {"state": {"target": ["5", "0", "9"], "time": [532, 1116, 3905]}, "edge": {"target": [], "time": []}}}, "displayed_time": "3.77", "trialTime": 4490, "trial_type": "mouselab-mdp", "trial_index": 11, "time_elapsed": 354652, "internal_node_id": "0.0-2.1-2.1-1.1"}}, {"uniqueid": "w20590658:a21634997", "current_trial": 12, "dateTime": 1664376496239, "trialdata": {"view_history": [{"page_index": 0, "viewing_time": 24411}, {"page_index": 1, "viewing_time": 11029}, {"page_index": 2, "viewing_time": 2431}], "rt": 37873, "trial_id": "mouselab_instructions_2_scarce", "trial_type": "instructions", "trial_index": 12, "time_elapsed": 392537, "internal_node_id": "0.0-2.1-3.1"}}, {"uniqueid": "w20590658:a21634997", "current_trial": 13, "dateTime": 1664376587299, "trialdata": {"rt": 91051, "response": {"Q0": "$-48 to $48", "Q1": "The cost is always $0.25.", "Q2": "The better I perform the higher my bonus will be.", "Q3": "No, the amount of cash at each node of the web may be different each time.", "Q4": "The values of the nodes walked through from start to finish.", "Q5": "No, the spider might forget to count the money on some rounds."}, "question_order": [0, 1, 2, 3, 4, 5], "correct": {"Q0": "$-48 to $48", "Q1": "The cost is always $0.25.", "Q2": "The better I perform the higher my bonus will be.", "Q3": "No, the amount of cash at each node of the web may be different each time.", "Q4": "The values of the nodes walked through from start to finish.", "Q5": "No, the spider might forget to count the money on some rounds."}, "trial_id": "mouselab_quiz_scarce", "trial_type": "survey-multi-choice", "trial_index": 13, "time_elapsed": 483596, "internal_node_id": "0.0-2.1-4.1"}}, {"uniqueid": "w20590658:a21634997", "current_trial": 14, "dateTime": 1664376597693, "trialdata": {"rt": 10368, "stimulus": "\n<h1> Get ready to start the game! </h1>\n\nThank you for reading the instructions. Get ready start with the first of 4 block(s) of this game.\n<br><br>\nIn this first block, you will complete 30 rounds of this game before moving on.\n<br><br>\nRemember, the more money the spider gets, the bigger your bonus will be!\n<br><br>\n<div style='text-align: center;'>Press <code>space</code> to begin.</div>\n\n<br><br>\n(If, at any point, the <code>space</code> key does not take you to the next page, click once on the text and try again.)", "response": " ", "trial_id": "mdp_ready_1", "trial_type": "html-keyboard-response", "trial_index": 14, "time_elapsed": 493991, "internal_node_id": "0.0-4.0-0.0"}}, {"uniqueid": "w20590658:a21634997", "current_trial": 15, "dateTime": 1664376610551, "trialdata": {"revealed_states": [], "num_clicks_accrued": [0, 0, 0, 0, 0, 0, 0, 0, 0, 0, 0, 0, 0], "stateRewards": ["", 2, -4, 24, 24, 2, 4, 24, 24, -4, 8, 24, 48], "withholdReward": true, "trial_id": "mdp_268430387178", "block": "test1", "trialIndex": 4, "score": 34.75, "costs": -0.25, "simulationMode": [null, null, null], "rewards": [2, 4, 24], "path": ["0", "0", "5", "6", "8"], "rt": [2885, 137, 404], "actions": ["right", "right", "down"], "actionTimes": [5329, 5984, 6902], "queries": {"click": {"state": {"target": ["8"], "time": [3959]}, "edge": {"target": [], "time": []}}, "mouseover": {"state": {"target": ["9", "8", "0"], "time": [2707, 3427, 4625]}, "edge": {"target": [], "time": []}}, "mouseout": {"state": {"target": ["11", "11", "0", "9", "8"], "time": [670, 1801, 2170, 2724, 4241]}, "edge": {"target": [], "time": []}}}, "displayed_time": "11.45", "trialTime": 12656, "trial_type": "mouselab-mdp", "trial_index": 15, "time_elapsed": 506848, "internal_node_id": "0.0-4.0-1.0-0.0"}}, {"uniqueid": "w20590658:a21634997", "current_trial": 16, "dateTime": 1664376623176, "trialdata": {"revealed_states": [], "num_clicks_accrued": [0, 0, 0, 0, 0, 0, 0, 0, 0, 0, 0, 0, 0], "stateRewards": ["", 2, 8, -48, -24, 4, 4, 24, 48, 4, -4, -48, 48], "withholdReward": true, "trial_id": "mdp_665096999232", "block": "test1", "trialIndex": 5, "score": -33, "costs": 0, "simulationMode": [null, null, null], "rewards": [2, 8, -48], "path": ["0", "0", "1", "2", "3"], "rt": [842, 387, 65], "actions": ["up", "up", "right"], "actionTimes": [2814, 3717, 4295], "queries": {"click": {"state": {"target": [], "time": []}, "edge": {"target": [], "time": []}}, "mouseover": {"state": {"target": ["9"], "time": [2190]}, "edge": {"target": [], "time": []}}, "mouseout": {"state": {"target": ["0", "0"], "time": [587, 1526]}, "edge": {"target": [], "time": []}}}, "displayed_time": "10.97", "trialTime": 12400, "trial_type": "mouselab-mdp", "trial_index": 16, "time_elapsed": 519474, "internal_node_id": "0.0-4.0-1.0-1.0"}}, {"uniqueid": "w20590658:a21634997", "current_trial": 17, "dateTime": 1664376634065, "trialdata": {"revealed_states": [], "num_clicks_accrued": [0, 0, 0, 0, 0, 0, 0, 0, 0, 0, 0, 0, 0], "stateRewards": ["", -4, -4, 24, 48, 4, -4, -24, 24, -4, -4, 24, 24], "withholdReward": true, "trial_id": "mdp_357725458160", "block": "test1", "trialIndex": 6, "score": 20.75, "costs": -0.25, "simulationMode": [null, null, null], "rewards": [-4, -4, 24], "path": ["0", "0", "9", "10", "11"], "rt": [2046, 150, 83], "actions": ["left", "left", "up"], "actionTimes": [3812, 4470, 5069], "queries": {"click": {"state": {"target": ["11"], "time": [2835]}, "edge": {"target": [], "time": []}}, "mouseover": {"state": {"target": ["9", "11", "10"], "time": [1996, 2330, 3383]}, "edge": {"target": [], "time": []}}, "mouseout": {"state": {"target": ["9", "0", "9", "11"], "time": [560, 1359, 2246, 3353]}, "edge": {"target": [], "time": []}}}, "displayed_time": "9.77", "trialTime": 10577, "trial_type": "mouselab-mdp", "trial_index": 17, "time_elapsed": 530363, "internal_node_id": "0.0-4.0-1.0-2.0"}}, {"uniqueid": "w20590658:a21634997", "current_trial": 18, "dateTime": 1664376646809, "trialdata": {"revealed_states": [], "num_clicks_accrued": [0, 0, 0, 0, 0, 0, 0, 0, 0, 0, 0, 0, 0], "stateRewards": ["", 2, 8, -48, 24, -2, 4, 48, 48, -2, -8, 48, 24], "withholdReward": true, "trial_id": "mdp_157355418411", "block": "test1", "trialIndex": 7, "score": 55, "costs": 0, "simulationMode": [null, null, null], "rewards": [-2, 4, 48], "path": ["0", "0", "5", "6", "7"], "rt": [807, 597, 153], "actions": ["right", "right", "up"], "actionTimes": [2281, 3393, 4066], "queries": {"click": {"state": {"target": [], "time": []}, "edge": {"target": [], "time": []}}, "mouseover": {"state": {"target": ["0"], "time": [1646]}, "edge": {"target": [], "time": []}}, "mouseout": {"state": {"target": ["10", "9", "0", "0", "0", "5", "5"], "time": [319, 636, 704, 1690, 4865, 5394, 5961]}, "edge": {"target": [], "time": []}}}, "displayed_time": "11.48", "trialTime": 12464, "trial_type": "mouselab-mdp", "trial_index": 18, "time_elapsed": 543107, "internal_node_id": "0.0-4.0-1.0-3.0"}}, {"uniqueid": "w20590658:a21634997", "current_trial": 19, "dateTime": 1664376660893, "trialdata": {"revealed_states": [], "num_clicks_accrued": [0, 0, 0, 0, 0, 0, 0, 0, 0, 0, 0, 0, 0], "stateRewards": ["", -4, 8, 24, -48, -4, -8, -24, 24, 2, -4, -48, 24], "withholdReward": false, "trial_id": "mdp_898449441629", "block": "test1", "trialIndex": 8, "score": 33, "costs": 0, "simulationMode": [null, null, null], "rewards": [-4, 8, 24], "path": ["0", "0", "1", "2", "3"], "rt": [564, 2708, 629], "actions": ["up", "up", "right"], "actionTimes": [2289, 5515, 6657], "queries": {"click": {"state": {"target": [], "time": []}, "edge": {"target": [], "time": []}}, "mouseover": {"state": {"target": ["0"], "time": [2023]}, "edge": {"target": [], "time": []}}, "mouseout": {"state": {"target": ["0", "2", "4", "4", "2", "1"], "time": [2041, 3042, 4156, 5128, 7444, 13083]}, "edge": {"target": [], "time": []}}}, "displayed_time": "11.72", "trialTime": 13829, "trial_type": "mouselab-mdp", "trial_index": 19, "time_elapsed": 557191, "internal_node_id": "0.0-4.0-1.0-4.0"}}, {"uniqueid": "w20590658:a21634997", "current_trial": 20, "dateTime": 1664376672744, "trialdata": {"revealed_states": [], "num_clicks_accrued": [0, 0, 0, 0, 0, 0, 0, 0, 0, 0, 0, 0, 0], "stateRewards": ["", 2, -4, -24, 24, 2, 8, 48, 48, 2, -8, 48, -24], "withholdReward": true, "trial_id": "mdp_330392242530", "block": "test1", "trialIndex": 9, "score": 46.75, "costs": -0.25, "simulationMode": [null, null, null], "rewards": [2, -8, 48], "path": ["0", "0", "9", "10", "11"], "rt": [2475, 131, 106], "actions": ["left", "left", "up"], "actionTimes": [4177, 4816, 5442], "queries": {"click": {"state": {"target": ["11"], "time": [2549]}, "edge": {"target": [], "time": []}}, "mouseover": {"state": {"target": ["11", "9"], "time": [2263, 3663]}, "edge": {"target": [], "time": []}}, "mouseout": {"state": {"target": ["0", "11", "11", "9"], "time": [1375, 2896, 3166, 6283]}, "edge": {"target": [], "time": []}}}, "displayed_time": "9.70", "trialTime": 11654, "trial_type": "mouselab-mdp", "trial_index": 20, "time_elapsed": 569042, "internal_node_id": "0.0-4.0-1.0-5.0"}}, {"uniqueid": "w20590658:a21634997", "current_trial": 21, "dateTime": 1664376683136, "trialdata": {"revealed_states": [], "num_clicks_accrued": [0, 0, 0, 0, 0, 0, 0, 0, 0, 0, 0, 0, 0], "stateRewards": ["", 2, 4, -48, -24, 2, 8, 24, 48, -2, 4, 48, -48], "withholdReward": true, "trial_id": "mdp_551894842204", "block": "test1", "trialIndex": 10, "score": -13, "costs": 0, "simulationMode": [null, null, null], "rewards": [2, 4, -24], "path": ["0", "0", "1", "2", "4"], "rt": [1124, 70, 32], "actions": ["up", "up", "left"], "actionTimes": [2600, 3187, 3732], "queries": {"click": {"state": {"target": [], "time": []}, "edge": {"target": [], "time": []}}, "mouseover": {"state": {"target": [], "time": []}, "edge": {"target": [], "time": []}}, "mouseout": {"state": {"target": ["9", "0", "0"], "time": [525, 610, 992]}, "edge": {"target": [], "time": []}}}, "displayed_time": "9.48", "trialTime": 10196, "trial_type": "mouselab-mdp", "trial_index": 21, "time_elapsed": 579434, "internal_node_id": "0.0-4.0-1.0-6.0"}}, {"uniqueid": "w20590658:a21634997", "current_trial": 22, "dateTime": 1664376693732, "trialdata": {"revealed_states": [], "num_clicks_accrued": [0, 0, 0, 0, 0, 0, 0, 0, 0, 0, 0, 0, 0], "stateRewards": ["", 2, -8, 48, -24, 2, -4, 24, 48, 4, -4, 48, -24], "withholdReward": true, "trial_id": "mdp_656500928756", "block": "test1", "trialIndex": 11, "score": 27, "costs": 0, "simulationMode": [null, null, null], "rewards": [2, -4, 24], "path": ["0", "0", "5", "6", "7"], "rt": [1019, 82, 83], "actions": ["right", "right", "up"], "actionTimes": [2476, 3065, 3668], "queries": {"click": {"state": {"target": [], "time": []}, "edge": {"target": [], "time": []}}, "mouseover": {"state": {"target": [], "time": []}, "edge": {"target": [], "time": []}}, "mouseout": {"state": {"target": ["0", "0", "0"], "time": [813, 1798, 4516]}, "edge": {"target": [], "time": []}}}, "displayed_time": "9.46", "trialTime": 10292, "trial_type": "mouselab-mdp", "trial_index": 22, "time_elapsed": 590027, "internal_node_id": "0.0-4.0-1.0-7.0"}}, {"uniqueid": "w20590658:a21634997", "current_trial": 23, "dateTime": 1664376704379, "trialdata": {"revealed_states": [], "num_clicks_accrued": [0, 0, 0, 0, 0, 0, 0, 0, 0, 0, 0, 0, 0], "stateRewards": ["", 2, -8, 48, -24, -4, -8, -24, 48, -2, 4, 24, -48], "withholdReward": true, "trial_id": "mdp_186932504904", "block": "test1", "trialIndex": 12, "score": 40.75, "costs": -0.25, "simulationMode": [null, null, null], "rewards": [-4, -8, 48], "path": ["0", "0", "5", "6", "8"], "rt": [2195, 37, 51], "actions": ["right", "right", "down"], "actionTimes": [3573, 4126, 4698], "queries": {"click": {"state": {"target": ["8"], "time": [2858]}, "edge": {"target": [], "time": []}}, "mouseover": {"state": {"target": ["0", "8", "5"], "time": [1633, 2331, 3186]}, "edge": {"target": [], "time": []}}, "mouseout": {"state": {"target": ["0", "0", "8", "5"], "time": [713, 1733, 3167, 3218]}, "edge": {"target": [], "time": []}}}, "displayed_time": "9.38", "trialTime": 10431, "trial_type": "mouselab-mdp", "trial_index": 23, "time_elapsed": 600676, "internal_node_id": "0.0-4.0-1.0-8.0"}}, {"uniqueid": "w20590658:a21634997", "current_trial": 24, "dateTime": 1664376714144, "trialdata": {"revealed_states": [], "num_clicks_accrued": [0, 0, 0, 0, 0, 0, 0, 0, 0, 0, 0, 0, 0], "stateRewards": ["", 2, 8, 24, 24, 2, -8, -24, -48, 2, 8, -48, 48], "withholdReward": true, "trial_id": "mdp_745175888812", "block": "test1", "trialIndex": 13, "score": 38.75, "costs": -0.25, "simulationMode": [null, null, null], "rewards": [2, 8, 24], "path": ["0", "0", "1", "2", "4"], "rt": [1474, 40, 183], "actions": ["up", "up", "left"], "actionTimes": [2415, 2961, 3656], "queries": {"click": {"state": {"target": ["4"], "time": [1792]}, "edge": {"target": [], "time": []}}, "mouseover": {"state": {"target": ["1", "4", "2"], "time": [1282, 1334, 2200]}, "edge": {"target": [], "time": []}}, "mouseout": {"state": {"target": ["1", "4", "2"], "time": [1302, 2151, 4505]}, "edge": {"target": [], "time": []}}}, "displayed_time": "8.94", "trialTime": 9532, "trial_type": "mouselab-mdp", "trial_index": 24, "time_elapsed": 610442, "internal_node_id": "0.0-4.0-1.0-9.0"}}, {"uniqueid": "w20590658:a21634997", "current_trial": 25, "dateTime": 1664376725573, "trialdata": {"revealed_states": [], "num_clicks_accrued": [0, 0, 0, 0, 0, 0, 0, 0, 0, 0, 0, 0, 0], "stateRewards": ["", -4, -4, -24, 48, 2, 4, -24, -48, -2, 4, 24, 24], "withholdReward": true, "trial_id": "mdp_360934723192", "block": "test1", "trialIndex": 14, "score": 31, "costs": 0, "simulationMode": [null, null, null], "rewards": [-2, 4, 24], "path": ["0", "0", "9", "10", "11"], "rt": [612, 101, 98], "actions": ["left", "left", "up"], "actionTimes": [2156, 2780, 3394], "queries": {"click": {"state": {"target": [], "time": []}, "edge": {"target": [], "time": []}}, "mouseover": {"state": {"target": ["9"], "time": [1757]}, "edge": {"target": [], "time": []}}, "mouseout": {"state": {"target": ["1", "0", "9"], "time": [955, 1205, 2091]}, "edge": {"target": [], "time": []}}}, "displayed_time": "10.55", "trialTime": 11137, "trial_type": "mouselab-mdp", "trial_index": 25, "time_elapsed": 621870, "internal_node_id": "0.0-4.0-1.0-10.0"}}, {"uniqueid": "w20590658:a21634997", "current_trial": 26, "dateTime": 1664376737821, "trialdata": {"revealed_states": [], "num_clicks_accrued": [0, 0, 0, 0, 0, 0, 0, 0, 0, 0, 0, 0, 0], "stateRewards": ["", -2, -8, 48, 24, -2, 8, -48, -24, -2, 4, -48, 48], "withholdReward": false, "trial_id": "mdp_295220852217", "block": "test1", "trialIndex": 15, "score": 43, "costs": 0, "simulationMode": [null, null, null], "rewards": [-2, -8, 48], "path": ["0", "0", "1", "2", "3"], "rt": [657, 43, 5], "actions": ["up", "up", "right"], "actionTimes": [1954, 2507, 3020], "queries": {"click": {"state": {"target": [], "time": []}, "edge": {"target": [], "time": []}}, "mouseover": {"state": {"target": [], "time": []}, "edge": {"target": [], "time": []}}, "mouseout": {"state": {"target": ["11", "1", "1", "2"], "time": [607, 4529, 5116, 5850]}, "edge": {"target": [], "time": []}}}, "displayed_time": "10.30", "trialTime": 11940, "trial_type": "mouselab-mdp", "trial_index": 26, "time_elapsed": 634119, "internal_node_id": "0.0-4.0-1.0-11.0"}}, {"uniqueid": "w20590658:a21634997", "current_trial": 27, "dateTime": 1664376748107, "trialdata": {"revealed_states": [], "num_clicks_accrued": [0, 0, 0, 0, 0, 0, 0, 0, 0, 0, 0, 0, 0], "stateRewards": ["", 2, -4, -24, -48, -2, 8, -24, 48, -2, 8, 24, -48], "withholdReward": true, "trial_id": "mdp_566582551557", "block": "test1", "trialIndex": 16, "score": -21, "costs": 0, "simulationMode": [null, null, null], "rewards": [2, -4, -24], "path": ["0", "0", "1", "2", "3"], "rt": [612, 106, 320], "actions": ["up", "up", "right"], "actionTimes": [1904, 2531, 3362], "queries": {"click": {"state": {"target": [], "time": []}, "edge": {"target": [], "time": []}}, "mouseover": {"state": {"target": [], "time": []}, "edge": {"target": [], "time": []}}, "mouseout": {"state": {"target": ["0", "0"], "time": [420, 4140]}, "edge": {"target": [], "time": []}}}, "displayed_time": "9.29", "trialTime": 10070, "trial_type": "mouselab-mdp", "trial_index": 27, "time_elapsed": 644404, "internal_node_id": "0.0-4.0-1.0-12.0"}}, {"uniqueid": "w20590658:a21634997", "current_trial": 28, "dateTime": 1664376759281, "trialdata": {"revealed_states": [], "num_clicks_accrued": [0, 0, 0, 0, 0, 0, 0, 0, 0, 0, 0, 0, 0], "stateRewards": ["", -4, -4, -24, 24, -4, 4, -24, 48, -2, 4, 48, -48], "withholdReward": true, "trial_id": "mdp_774757609669", "block": "test1", "trialIndex": 17, "score": 52.75, "costs": -0.25, "simulationMode": [null, null, null], "rewards": [-4, 4, 48], "path": ["0", "0", "5", "6", "8"], "rt": [1922, 184, 97], "actions": ["right", "right", "down"], "actionTimes": [3084, 3773, 4388], "queries": {"click": {"state": {"target": ["6"], "time": [2327]}, "edge": {"target": [], "time": []}}, "mouseover": {"state": {"target": ["0", "5", "6", "5"], "time": [1471, 1585, 1949, 2733]}, "edge": {"target": [], "time": []}}, "mouseout": {"state": {"target": ["0", "5", "6", "5"], "time": [1566, 1603, 2700, 5637]}, "edge": {"target": [], "time": []}}}, "displayed_time": "10.16", "trialTime": 10859, "trial_type": "mouselab-mdp", "trial_index": 28, "time_elapsed": 655579, "internal_node_id": "0.0-4.0-1.0-13.0"}}, {"uniqueid": "w20590658:a21634997", "current_trial": 29, "dateTime": 1664376770017, "trialdata": {"revealed_states": [], "num_clicks_accrued": [0, 0, 0, 0, 0, 0, 0, 0, 0, 0, 0, 0, 0], "stateRewards": ["", 2, 8, 24, -48, 4, 8, 24, 48, 2, -8, -24, 24], "withholdReward": false, "trial_id": "mdp_939899431582", "block": "test1", "trialIndex": 18, "score": -25, "costs": 0, "simulationMode": [null, null, null], "rewards": [2, -8, -24], "path": ["0", "0", "9", "10", "11"], "rt": [397, 84, 63], "actions": ["left", "left", "up"], "actionTimes": [1503, 2109, 2687], "queries": {"click": {"state": {"target": [], "time": []}, "edge": {"target": [], "time": []}}, "mouseover": {"state": {"target": ["9"], "time": [1353]}, "edge": {"target": [], "time": []}}, "mouseout": {"state": {"target": ["0", "9"], "time": [1319, 3455]}, "edge": {"target": [], "time": []}}}, "displayed_time": "9.11", "trialTime": 10417, "trial_type": "mouselab-mdp", "trial_index": 29, "time_elapsed": 666314, "internal_node_id": "0.0-4.0-1.0-14.0"}}, {"uniqueid": "w20590658:a21634997", "current_trial": 30, "dateTime": 1664376781159, "trialdata": {"revealed_states": [], "num_clicks_accrued": [0, 0, 0, 0, 0, 0, 0, 0, 0, 0, 0, 0, 0], "stateRewards": ["", -2, 8, -24, 48, -4, 4, -48, 24, 4, -8, 48, -24], "withholdReward": true, "trial_id": "mdp_425320427962", "block": "test1", "trialIndex": 19, "score": -13, "costs": 0, "simulationMode": [null, null, null], "rewards": [-2, 8, -24], "path": ["0", "0", "1", "2", "3"], "rt": [340, 149, 488], "actions": ["up", "up", "right"], "actionTimes": [1315, 1971, 2977], "queries": {"click": {"state": {"target": [], "time": []}, "edge": {"target": [], "time": []}}, "mouseover": {"state": {"target": [], "time": []}, "edge": {"target": [], "time": []}}, "mouseout": {"state": {"target": ["0", "1"], "time": [2959, 9579]}, "edge": {"target": [], "time": []}}}, "displayed_time": "9.98", "trialTime": 10826, "trial_type": "mouselab-mdp", "trial_index": 30, "time_elapsed": 677456, "internal_node_id": "0.0-4.0-1.0-15.0"}}, {"uniqueid": "w20590658:a21634997", "current_trial": 31, "dateTime": 1664376792581, "trialdata": {"revealed_states": [], "num_clicks_accrued": [0, 0, 0, 0, 0, 0, 0, 0, 0, 0, 0, 0, 0], "stateRewards": ["", 2, -4, -48, 24, 4, 4, 48, -48, -2, -4, -24, -48], "withholdReward": true, "trial_id": "mdp_858916930936", "block": "test1", "trialIndex": 20, "score": 60.75, "costs": -0.25, "simulationMode": [null, null, null], "rewards": [4, 4, 48], "path": ["0", "0", "5", "6", "7"], "rt": [1530, 126, 111], "actions": ["right", "right", "up"], "actionTimes": [2702, 3347, 3966], "queries": {"click": {"state": {"target": ["7"], "time": [2175]}, "edge": {"target": [], "time": []}}, "mouseover": {"state": {"target": ["5", "7"], "time": [1452, 1814]}, "edge": {"target": [], "time": []}}, "mouseout": {"state": {"target": ["1", "0", "0", "5", "7", "7", "7"], "time": [295, 362, 1431, 1468, 2449, 4636, 5019]}, "edge": {"target": [], "time": []}}}, "displayed_time": "10.17", "trialTime": 11130, "trial_type": "mouselab-mdp", "trial_index": 31, "time_elapsed": 688879, "internal_node_id": "0.0-4.0-1.0-16.0"}}, {"uniqueid": "w20590658:a21634997", "current_trial": 32, "dateTime": 1664376803128, "trialdata": {"revealed_states": [], "num_clicks_accrued": [0, 0, 0, 0, 0, 0, 0, 0, 0, 0, 0, 0, 0], "stateRewards": ["", -2, 4, -48, 24, -4, 8, 48, 24, -2, 4, -48, -24], "withholdReward": false, "trial_id": "mdp_740882974347", "block": "test1", "trialIndex": 21, "score": 31, "costs": 0, "simulationMode": [null, null, null], "rewards": [-2, 4, 24], "path": ["0", "0", "1", "2", "4"], "rt": [475, 273, 5], "actions": ["up", "up", "left"], "actionTimes": [1763, 2543, 3060], "queries": {"click": {"state": {"target": [], "time": []}, "edge": {"target": [], "time": []}}, "mouseover": {"state": {"target": ["9"], "time": [1617]}, "edge": {"target": [], "time": []}}, "mouseout": {"state": {"target": ["5", "0", "9"], "time": [818, 1582, 3789]}, "edge": {"target": [], "time": []}}}, "displayed_time": "9.29", "trialTime": 10329, "trial_type": "mouselab-mdp", "trial_index": 32, "time_elapsed": 699426, "internal_node_id": "0.0-4.0-1.0-17.0"}}, {"uniqueid": "w20590658:a21634997", "current_trial": 33, "dateTime": 1664376814411, "trialdata": {"revealed_states": [], "num_clicks_accrued": [0, 0, 0, 0, 0, 0, 0, 0, 0, 0, 0, 0, 0], "stateRewards": ["", 4, -8, 48, -24, -4, 4, 24, 24, -2, -4, 24, 24], "withholdReward": true, "trial_id": "mdp_542168715839", "block": "test1", "trialIndex": 22, "score": 22.75, "costs": -0.25, "simulationMode": [null, null, null], "rewards": [-2, -4, 24], "path": ["0", "0", "9", "10", "11"], "rt": [1761, 67, 34], "actions": ["left", "left", "up"], "actionTimes": [2770, 3343, 3894], "queries": {"click": {"state": {"target": ["11"], "time": [2029]}, "edge": {"target": [], "time": []}}, "mouseover": {"state": {"target": ["9", "10", "11", "10"], "time": [1272, 1556, 1704, 2404]}, "edge": {"target": [], "time": []}}, "mouseout": {"state": {"target": ["0", "0", "9", "10", "11", "10", "10"], "time": [268, 501, 1487, 1621, 2355, 4437, 4514]}, "edge": {"target": [], "time": []}}}, "displayed_time": "10.01", "trialTime": 10935, "trial_type": "mouselab-mdp", "trial_index": 33, "time_elapsed": 710708, "internal_node_id": "0.0-4.0-1.0-18.0"}}, {"uniqueid": "w20590658:a21634997", "current_trial": 34, "dateTime": 1664376824610, "trialdata": {"revealed_states": [], "num_clicks_accrued": [0, 0, 0, 0, 0, 0, 0, 0, 0, 0, 0, 0, 0], "stateRewards": ["", -2, -8, 48, -24, 2, -4, -48, -24, -2, -4, -48, 48], "withholdReward": true, "trial_id": "mdp_143798438087", "block": "test1", "trialIndex": 23, "score": -45, "costs": 0, "simulationMode": [null, null, null], "rewards": [2, -4, -48], "path": ["0", "0", "5", "6", "7"], "rt": [1020, 35, 204], "actions": ["right", "right", "up"], "actionTimes": [2179, 2719, 3438], "queries": {"click": {"state": {"target": [], "time": []}, "edge": {"target": [], "time": []}}, "mouseover": {"state": {"target": ["0"], "time": [2116]}, "edge": {"target": [], "time": []}}, "mouseout": {"state": {"target": ["0", "0", "0"], "time": [1362, 2205, 4016]}, "edge": {"target": [], "time": []}}}, "displayed_time": "9.16", "trialTime": 9910, "trial_type": "mouselab-mdp", "trial_index": 34, "time_elapsed": 720908, "internal_node_id": "0.0-4.0-1.0-19.0"}}, {"uniqueid": "w20590658:a21634997", "current_trial": 35, "dateTime": 1664376835521, "trialdata": {"revealed_states": [], "num_clicks_accrued": [0, 0, 0, 0, 0, 0, 0, 0, 0, 0, 0, 0, 0], "stateRewards": ["", -4, -8, -48, 48, -2, 8, 48, 48, -2, -4, -48, -48], "withholdReward": true, "trial_id": "mdp_752833580638", "block": "test1", "trialIndex": 24, "score": 41, "costs": 0, "simulationMode": [null, null, null], "rewards": [-4, -8, 48], "path": ["0", "0", "1", "2", "4"], "rt": [870, 85, 41], "actions": ["up", "up", "left"], "actionTimes": [2170, 2762, 3319], "queries": {"click": {"state": {"target": [], "time": []}, "edge": {"target": [], "time": []}}, "mouseover": {"state": {"target": ["9"], "time": [1506]}, "edge": {"target": [], "time": []}}, "mouseout": {"state": {"target": ["7", "9", "0"], "time": [487, 4209, 4759]}, "edge": {"target": [], "time": []}}}, "displayed_time": "9.30", "trialTime": 10552, "trial_type": "mouselab-mdp", "trial_index": 35, "time_elapsed": 731819, "internal_node_id": "0.0-4.0-1.0-20.0"}}, {"uniqueid": "w20590658:a21634997", "current_trial": 36, "dateTime": 1664376845872, "trialdata": {"revealed_states": [], "num_clicks_accrued": [0, 0, 0, 0, 0, 0, 0, 0, 0, 0, 0, 0, 0], "stateRewards": ["", 4, 8, 48, -48, -4, 8, -24, -24, -4, 8, 48, 48], "withholdReward": true, "trial_id": "mdp_377640328420", "block": "test1", "trialIndex": 25, "score": 57, "costs": 0, "simulationMode": [null, null, null], "rewards": [-4, 8, 48], "path": ["0", "0", "9", "10", "11"], "rt": [427, 114, 1384], "actions": ["left", "left", "up"], "actionTimes": [1729, 2372, 4270], "queries": {"click": {"state": {"target": [], "time": []}, "edge": {"target": [], "time": []}}, "mouseover": {"state": {"target": ["9"], "time": [1498]}, "edge": {"target": [], "time": []}}, "mouseout": {"state": {"target": ["9", "9", "9"], "time": [5018, 5719, 6487]}, "edge": {"target": [], "time": []}}}, "displayed_time": "9.30", "trialTime": 10045, "trial_type": "mouselab-mdp", "trial_index": 36, "time_elapsed": 742170, "internal_node_id": "0.0-4.0-1.0-21.0"}}, {"uniqueid": "w20590658:a21634997", "current_trial": 37, "dateTime": 1664376859245, "trialdata": {"revealed_states": [], "num_clicks_accrued": [0, 0, 0, 0, 0, 0, 0, 0, 0, 0, 0, 0, 0], "stateRewards": ["", 4, -8, 24, 48, 2, 4, 48, 48, 2, 8, -48, -48], "withholdReward": true, "trial_id": "mdp_783704746330", "block": "test1", "trialIndex": 26, "score": 24.75, "costs": -0.25, "simulationMode": [null, null, null], "rewards": [4, -8, 24], "path": ["0", "0", "1", "2", "3"], "rt": [1730, 12, 25], "actions": ["up", "up", "right"], "actionTimes": [2654, 3186, 3716], "queries": {"click": {"state": {"target": ["3"], "time": [2139]}, "edge": {"target": [], "time": []}}, "mouseover": {"state": {"target": ["1", "3", "2"], "time": [1586, 1852, 2457]}, "edge": {"target": [], "time": []}}, "mouseout": {"state": {"target": ["1", "3", "2", "3"], "time": [1605, 2453, 2472, 4490]}, "edge": {"target": [], "time": []}}}, "displayed_time": "9.93", "trialTime": 13042, "trial_type": "mouselab-mdp", "trial_index": 37, "time_elapsed": 755542, "internal_node_id": "0.0-4.0-1.0-22.0"}}, {"uniqueid": "w20590658:a21634997", "current_trial": 38, "dateTime": 1664376871017, "trialdata": {"revealed_states": [], "num_clicks_accrued": [0, 0, 0, 0, 0, 0, 0, 0, 0, 0, 0, 0, 0], "stateRewards": ["", 4, 4, 48, -48, 4, 4, -48, 24, 2, 8, 24, -48], "withholdReward": false, "trial_id": "mdp_291674656283", "block": "test1", "trialIndex": 27, "score": -35, "costs": 0, "simulationMode": [null, null, null], "rewards": [4, 4, -48], "path": ["0", "0", "1", "2", "4"], "rt": [883, 134, 34], "actions": ["up", "up", "left"], "actionTimes": [2534, 3190, 3741], "queries": {"click": {"state": {"target": [], "time": []}, "edge": {"target": [], "time": []}}, "mouseover": {"state": {"target": [], "time": []}, "edge": {"target": [], "time": []}}, "mouseout": {"state": {"target": ["1"], "time": [964]}, "edge": {"target": [], "time": []}}}, "displayed_time": "10.65", "trialTime": 11461, "trial_type": "mouselab-mdp", "trial_index": 38, "time_elapsed": 767315, "internal_node_id": "0.0-4.0-1.0-23.0"}}, {"uniqueid": "w20590658:a21634997", "current_trial": 39, "dateTime": 1664376882381, "trialdata": {"revealed_states": [], "num_clicks_accrued": [0, 0, 0, 0, 0, 0, 0, 0, 0, 0, 0, 0, 0], "stateRewards": ["", -4, -4, -24, -24, -2, 4, 48, -24, -2, -4, -24, 48], "withholdReward": true, "trial_id": "mdp_855903341564", "block": "test1", "trialIndex": 28, "score": 55, "costs": 0, "simulationMode": [null, null, null], "rewards": [-2, 4, 48], "path": ["0", "0", "5", "6", "7"], "rt": [371, 94, 13], "actions": ["right", "right", "up"], "actionTimes": [1459, 2065, 2600], "queries": {"click": {"state": {"target": [], "time": []}, "edge": {"target": [], "time": []}}, "mouseover": {"state": {"target": [], "time": []}, "edge": {"target": [], "time": []}}, "mouseout": {"state": {"target": ["1", "0", "5"], "time": [330, 3685, 3734]}, "edge": {"target": [], "time": []}}}, "displayed_time": "10.09", "trialTime": 10991, "trial_type": "mouselab-mdp", "trial_index": 39, "time_elapsed": 778678, "internal_node_id": "0.0-4.0-1.0-24.0"}}, {"uniqueid": "w20590658:a21634997", "current_trial": 40, "dateTime": 1664376897775, "trialdata": {"revealed_states": [], "num_clicks_accrued": [0, 0, 0, 0, 0, 0, 0, 0, 0, 0, 0, 0, 0], "stateRewards": ["", -2, 4, -48, -48, 4, 4, 48, -48, 2, 8, 24, 48], "withholdReward": false, "trial_id": "mdp_686771069745", "block": "test1", "trialIndex": 29, "score": 39, "costs": 0, "simulationMode": [null, null, null], "rewards": [2, 8, 24], "path": ["0", "0", "9", "10", "11"], "rt": [641, 137, 73], "actions": ["left", "left", "up"], "actionTimes": [1849, 2490, 3078], "queries": {"click": {"state": {"target": [], "time": []}, "edge": {"target": [], "time": []}}, "mouseover": {"state": {"target": [], "time": []}, "edge": {"target": [], "time": []}}, "mouseout": {"state": {"target": ["9"], "time": [4271]}, "edge": {"target": [], "time": []}}}, "displayed_time": "10.21", "trialTime": 15068, "trial_type": "mouselab-mdp", "trial_index": 40, "time_elapsed": 794073, "internal_node_id": "0.0-4.0-1.0-25.0"}}, {"uniqueid": "w20590658:a21634997", "current_trial": 41, "dateTime": 1664376909381, "trialdata": {"revealed_states": [], "num_clicks_accrued": [0, 0, 0, 0, 0, 0, 0, 0, 0, 0, 0, 0, 0], "stateRewards": ["", -2, 8, 48, -48, 4, -8, 24, 24, 4, 4, -48, -24], "withholdReward": false, "trial_id": "mdp_746937869927", "block": "test1", "trialIndex": 30, "score": 58.75, "costs": -0.25, "simulationMode": [null, null, null], "rewards": [-2, 8, 48], "path": ["0", "0", "1", "2", "3"], "rt": [4802, 373, 238], "actions": ["up", "up", "right"], "actionTimes": [5801, 6701, 7464], "queries": {"click": {"state": {"target": ["4"], "time": [3027]}, "edge": {"target": [], "time": []}}, "mouseover": {"state": {"target": ["1", "2", "4"], "time": [1487, 1927, 2371]}, "edge": {"target": [], "time": []}}, "mouseout": {"state": {"target": ["0", "0", "1", "2", "4", "1", "0", "1"], "time": [200, 1140, 1584, 2354, 8082, 8477, 8761, 8828]}, "edge": {"target": [], "time": []}}}, "displayed_time": "10.00", "trialTime": 11273, "trial_type": "mouselab-mdp", "trial_index": 41, "time_elapsed": 805678, "internal_node_id": "0.0-4.0-1.0-26.0"}}, {"uniqueid": "w20590658:a21634997", "current_trial": 42, "dateTime": 1664376919891, "trialdata": {"revealed_states": [], "num_clicks_accrued": [0, 0, 0, 0, 0, 0, 0, 0, 0, 0, 0, 0, 0], "stateRewards": ["", 2, -8, -48, 24, 4, 8, 48, -48, 2, -4, 24, 24], "withholdReward": true, "trial_id": "mdp_130475327289", "block": "test1", "trialIndex": 31, "score": -31.25, "costs": -0.25, "simulationMode": [null, null, null], "rewards": [4, 8, -48], "path": ["0", "0", "5", "6", "8"], "rt": [3156, 14, 28], "actions": ["right", "right", "down"], "actionTimes": [4674, 5207, 5745], "queries": {"click": {"state": {"target": ["10"], "time": [3645]}, "edge": {"target": [], "time": []}}, "mouseover": {"state": {"target": ["5", "7", "5", "1", "4", "10"], "time": [1758, 2109, 2628, 2929, 2978, 3327]}, "edge": {"target": [], "time": []}}, "mouseout": {"state": {"target": ["1", "5", "7", "5", "1", "4", "10", "9", "0"], "time": [439, 1794, 2275, 2910, 2946, 3060, 3995, 7667, 7716]}, "edge": {"target": [], "time": []}}}, "displayed_time": "9.52", "trialTime": 10190, "trial_type": "mouselab-mdp", "trial_index": 42, "time_elapsed": 816188, "internal_node_id": "0.0-4.0-1.0-27.0"}}, {"uniqueid": "w20590658:a21634997", "current_trial": 43, "dateTime": 1664376930580, "trialdata": {"revealed_states": [], "num_clicks_accrued": [0, 0, 0, 0, 0, 0, 0, 0, 0, 0, 0, 0, 0], "stateRewards": ["", 4, -4, 48, 24, 2, -8, 24, -48, -2, -4, -48, -48], "withholdReward": true, "trial_id": "mdp_655302318695", "block": "test1", "trialIndex": 32, "score": 28.75, "costs": -0.25, "simulationMode": [null, null, null], "rewards": [4, -4, 24], "path": ["0", "0", "1", "2", "4"], "rt": [2245, 66, 73], "actions": ["up", "up", "left"], "actionTimes": [3410, 3993, 4583], "queries": {"click": {"state": {"target": ["4"], "time": [2708]}, "edge": {"target": [], "time": []}}, "mouseover": {"state": {"target": ["1", "2", "4", "2"], "time": [1520, 1560, 2437, 3154]}, "edge": {"target": [], "time": []}}, "mouseout": {"state": {"target": ["0", "1", "2", "4", "2", "2", "1", "1"], "time": [351, 1540, 1802, 3089, 5458, 5742, 9381, 9712]}, "edge": {"target": [], "time": []}}}, "displayed_time": "9.17", "trialTime": 10359, "trial_type": "mouselab-mdp", "trial_index": 43, "time_elapsed": 826878, "internal_node_id": "0.0-4.0-1.0-28.0"}}, {"uniqueid": "w20590658:a21634997", "current_trial": 44, "dateTime": 1664376942385, "trialdata": {"revealed_states": [], "num_clicks_accrued": [0, 0, 0, 0, 0, 0, 0, 0, 0, 0, 0, 0, 0], "stateRewards": ["", 2, 4, -48, -24, -4, 4, -24, 24, -2, -8, -24, 24], "withholdReward": false, "trial_id": "mdp_640720803523", "block": "test1", "trialIndex": 33, "score": 29, "costs": 0, "simulationMode": [null, null, null], "rewards": [-4, 4, 24], "path": ["0", "0", "5", "6", "8"], "rt": [933, 110, 36], "actions": ["right", "right", "down"], "actionTimes": [2364, 2995, 3539], "queries": {"click": {"state": {"target": [], "time": []}, "edge": {"target": [], "time": []}}, "mouseover": {"state": {"target": [], "time": []}, "edge": {"target": [], "time": []}}, "mouseout": {"state": {"target": ["9", "0", "0", "0"], "time": [313, 6636, 10593, 10930]}, "edge": {"target": [], "time": []}}}, "displayed_time": "10.43", "trialTime": 11494, "trial_type": "mouselab-mdp", "trial_index": 44, "time_elapsed": 838683, "internal_node_id": "0.0-4.0-1.0-29.0"}}, {"uniqueid": "w20590658:a21634997", "current_trial": 45, "dateTime": 1664376947293, "trialdata": {"rt": 4858, "stimulus": "<h1> End of block! </h1>\n\nYou have reached the end of the block 1/4. If you need a short break, feel free to take one now before moving on.\n\n<br><br>\nIn the next block, you will complete another 30 rounds of this game.\n\n<br><br>\n<div style='text-align: center;'>Press <code>space</code> to begin.</div>\n<br><br>\n<div style='text-align: center;'>(If the experiment doesn't continue, try clicking on the text and then pressing <code>space</code>.)</div>", "response": " ", "trial_id": "mdp_ready_2", "trial_type": "html-keyboard-response", "trial_index": 45, "time_elapsed": 843591, "internal_node_id": "0.0-4.0-2.0"}}, {"uniqueid": "w20590658:a21634997", "current_trial": 46, "dateTime": 1664376957895, "trialdata": {"revealed_states": [], "num_clicks_accrued": [0, 0, 0, 0, 0, 0, 0, 0, 0, 0, 0, 0, 0], "stateRewards": ["", 2, 4, -24, -48, 4, -4, 24, 48, -4, -4, -24, 48], "withholdReward": true, "trial_id": "mdp_181958792175", "block": "test2", "trialIndex": 34, "score": -13, "costs": 0, "simulationMode": [null, null, null], "rewards": [2, 4, -24], "path": ["0", "0", "1", "2", "3"], "rt": [311, 56, 25], "actions": ["up", "up", "right"], "actionTimes": [1896, 2472, 3007], "queries": {"click": {"state": {"target": [], "time": []}, "edge": {"target": [], "time": []}}, "mouseover": {"state": {"target": [], "time": []}, "edge": {"target": [], "time": []}}, "mouseout": {"state": {"target": ["4", "4", "0", "0"], "time": [308, 592, 1731, 4282]}, "edge": {"target": [], "time": []}}}, "displayed_time": "9.59", "trialTime": 10244, "trial_type": "mouselab-mdp", "trial_index": 46, "time_elapsed": 854192, "internal_node_id": "0.0-4.0-3.0-0.0"}}, {"uniqueid": "w20590658:a21634997", "current_trial": 47, "dateTime": 1664376967892, "trialdata": {"revealed_states": [], "num_clicks_accrued": [0, 0, 0, 0, 0, 0, 0, 0, 0, 0, 0, 0, 0], "stateRewards": ["", 2, 4, 48, 48, 4, -8, 24, -48, -4, -8, -24, -48], "withholdReward": false, "trial_id": "mdp_343818007251", "block": "test2", "trialIndex": 35, "score": 59, "costs": 0, "simulationMode": [null, null, null], "rewards": [2, 4, 48], "path": ["0", "0", "1", "2", "4"], "rt": [370, 397, 1888], "actions": ["up", "up", "left"], "actionTimes": [1545, 2448, 4857], "queries": {"click": {"state": {"target": [], "time": []}, "edge": {"target": [], "time": []}}, "mouseover": {"state": {"target": [], "time": []}, "edge": {"target": [], "time": []}}, "mouseout": {"state": {"target": ["1", "0", "1", "1", "4", "2", "2"], "time": [429, 2766, 2809, 3099, 4121, 5498, 6003]}, "edge": {"target": [], "time": []}}}, "displayed_time": "9.18", "trialTime": 9647, "trial_type": "mouselab-mdp", "trial_index": 47, "time_elapsed": 864189, "internal_node_id": "0.0-4.0-3.0-1.0"}}, {"uniqueid": "w20590658:a21634997", "current_trial": 48, "dateTime": 1664376979386, "trialdata": {"revealed_states": [], "num_clicks_accrued": [0, 0, 0, 0, 0, 0, 0, 0, 0, 0, 0, 0, 0], "stateRewards": ["", -4, -8, -24, 24, 4, 4, -48, -48, -4, -4, 24, -48], "withholdReward": true, "trial_id": "mdp_431592223624", "block": "test2", "trialIndex": 36, "score": -31, "costs": 0, "simulationMode": [null, null, null], "rewards": [-4, -8, -24], "path": ["0", "0", "1", "2", "3"], "rt": [428, 263, 29], "actions": ["up", "up", "right"], "actionTimes": [2827, 3600, 4201], "queries": {"click": {"state": {"target": [], "time": []}, "edge": {"target": [], "time": []}}, "mouseover": {"state": {"target": [], "time": []}, "edge": {"target": [], "time": []}}, "mouseout": {"state": {"target": ["0", "1", "1", "2", "2", "2", "3", "2"], "time": [2585, 4936, 5202, 7320, 7804, 8611, 8673, 10146]}, "edge": {"target": [], "time": []}}}, "displayed_time": "10.40", "trialTime": 11193, "trial_type": "mouselab-mdp", "trial_index": 48, "time_elapsed": 875683, "internal_node_id": "0.0-4.0-3.0-2.0"}}, {"uniqueid": "w20590658:a21634997", "current_trial": 49, "dateTime": 1664376990688, "trialdata": {"revealed_states": [], "num_clicks_accrued": [0, 0, 0, 0, 0, 0, 0, 0, 0, 0, 0, 0, 0], "stateRewards": ["", -2, -8, 48, 24, 2, 4, 24, -24, -2, -4, 48, -48], "withholdReward": true, "trial_id": "mdp_411152402386", "block": "test2", "trialIndex": 37, "score": 35, "costs": 0, "simulationMode": [null, null, null], "rewards": [2, 4, 24], "path": ["0", "0", "5", "6", "7"], "rt": [678, 130, 82], "actions": ["right", "right", "up"], "actionTimes": [1760, 2397, 3000], "queries": {"click": {"state": {"target": [], "time": []}, "edge": {"target": [], "time": []}}, "mouseover": {"state": {"target": ["9"], "time": [1298]}, "edge": {"target": [], "time": []}}, "mouseout": {"state": {"target": ["1", "9", "5", "5", "0", "5", "0", "5", "5", "6", "6", "6", "5"], "time": [293, 3565, 4200, 5440, 6018, 6903, 7572, 8339, 9072, 9112, 9873, 10244, 10609]}, "edge": {"target": [], "time": []}}}, "displayed_time": "10.08", "trialTime": 10929, "trial_type": "mouselab-mdp", "trial_index": 49, "time_elapsed": 886985, "internal_node_id": "0.0-4.0-3.0-3.0"}}, {"uniqueid": "w20590658:a21634997", "current_trial": 50, "dateTime": 1664376999721, "trialdata": {"revealed_states": [], "num_clicks_accrued": [0, 0, 0, 0, 0, 0, 0, 0, 0, 0, 0, 0, 0], "stateRewards": ["", -2, -4, -24, -48, -4, -8, -48, 24, -4, -8, -24, -48], "withholdReward": true, "trial_id": "mdp_475782454549", "block": "test2", "trialIndex": 38, "score": 16.75, "costs": -0.25, "simulationMode": [null, null, null], "rewards": [-4, -8, 24], "path": ["0", "0", "5", "6", "8"], "rt": [2286, 473, 527], "actions": ["right", "right", "down"], "actionTimes": [3351, 4336, 5374], "queries": {"click": {"state": {"target": ["11"], "time": [2324]}, "edge": {"target": [], "time": []}}, "mouseover": {"state": {"target": ["9", "10", "10", "11", "10"], "time": [1259, 1293, 1604, 2055, 2823]}, "edge": {"target": [], "time": []}}, "mouseout": {"state": {"target": ["0", "9", "10", "10", "11", "10", "1", "0", "0", "5", "0", "5"], "time": [1242, 1276, 1310, 1943, 2723, 6329, 6646, 7165, 7852, 8181, 8515, 8565]}, "edge": {"target": [], "time": []}}}, "displayed_time": "8.06", "trialTime": 8789, "trial_type": "mouselab-mdp", "trial_index": 50, "time_elapsed": 896018, "internal_node_id": "0.0-4.0-3.0-4.0"}}, {"uniqueid": "w20590658:a21634997", "current_trial": 51, "dateTime": 1664377010166, "trialdata": {"revealed_states": [], "num_clicks_accrued": [0, 0, 0, 0, 0, 0, 0, 0, 0, 0, 0, 0, 0], "stateRewards": ["", -4, 8, -24, -24, 4, -8, 48, -24, -4, -8, -24, -48], "withholdReward": false, "trial_id": "mdp_391766721791", "block": "test2", "trialIndex": 39, "score": -55.25, "costs": -0.25, "simulationMode": [null, null, null], "rewards": [-4, -8, -48], "path": ["0", "0", "9", "10", "12"], "rt": [2200, 108, 89], "actions": ["left", "left", "down"], "actionTimes": [3334, 3952, 4549], "queries": {"click": {"state": {"target": ["3"], "time": [2044]}, "edge": {"target": [], "time": []}}, "mouseover": {"state": {"target": ["1", "2", "2", "3", "1", "9"], "time": [1254, 1280, 1572, 1702, 2370, 3088]}, "edge": {"target": [], "time": []}}, "mouseout": {"state": {"target": ["5", "0", "1", "2", "2", "3", "1", "9", "9", "0"], "time": [300, 1235, 1273, 1300, 1636, 2320, 2724, 3107, 5657, 9747]}, "edge": {"target": [], "time": []}}}, "displayed_time": "9.13", "trialTime": 10169, "trial_type": "mouselab-mdp", "trial_index": 51, "time_elapsed": 906464, "internal_node_id": "0.0-4.0-3.0-5.0"}}, {"uniqueid": "w20590658:a21634997", "current_trial": 52, "dateTime": 1664377020256, "trialdata": {"revealed_states": [], "num_clicks_accrued": [0, 0, 0, 0, 0, 0, 0, 0, 0, 0, 0, 0, 0], "stateRewards": ["", -2, -4, -24, -24, 4, 8, 24, 24, -2, 8, 48, 48], "withholdReward": true, "trial_id": "mdp_620787912291", "block": "test2", "trialIndex": 40, "score": -25, "costs": 0, "simulationMode": [null, null, null], "rewards": [-2, -4, -24], "path": ["0", "0", "1", "2", "3"], "rt": [437, 104, 56], "actions": ["up", "up", "right"], "actionTimes": [1552, 2163, 2733], "queries": {"click": {"state": {"target": [], "time": []}, "edge": {"target": [], "time": []}}, "mouseover": {"state": {"target": ["1", "2"], "time": [1388, 1488]}, "edge": {"target": [], "time": []}}, "mouseout": {"state": {"target": ["1", "2", "3", "2"], "time": [1455, 3492, 3775, 3826]}, "edge": {"target": [], "time": []}}}, "displayed_time": "9.12", "trialTime": 9731, "trial_type": "mouselab-mdp", "trial_index": 52, "time_elapsed": 916554, "internal_node_id": "0.0-4.0-3.0-6.0"}}, {"uniqueid": "w20590658:a21634997", "current_trial": 53, "dateTime": 1664377030574, "trialdata": {"revealed_states": [], "num_clicks_accrued": [0, 0, 0, 0, 0, 0, 0, 0, 0, 0, 0, 0, 0], "stateRewards": ["", 4, 4, 48, -48, 4, 4, -48, 24, 2, 8, 24, -48], "withholdReward": false, "trial_id": "mdp_291674656283", "block": "test2", "trialIndex": 41, "score": 37, "costs": 0, "simulationMode": [null, null, null], "rewards": [4, 4, 24], "path": ["0", "0", "5", "6", "8"], "rt": [436, 120, 94], "actions": ["right", "right", "down"], "actionTimes": [1774, 2404, 3010], "queries": {"click": {"state": {"target": [], "time": []}, "edge": {"target": [], "time": []}}, "mouseover": {"state": {"target": [], "time": []}, "edge": {"target": [], "time": []}}, "mouseout": {"state": {"target": ["0"], "time": [4230]}, "edge": {"target": [], "time": []}}}, "displayed_time": "9.34", "trialTime": 10023, "trial_type": "mouselab-mdp", "trial_index": 53, "time_elapsed": 926871, "internal_node_id": "0.0-4.0-3.0-7.0"}}, {"uniqueid": "w20590658:a21634997", "current_trial": 54, "dateTime": 1664377041831, "trialdata": {"revealed_states": [], "num_clicks_accrued": [0, 0, 0, 0, 0, 0, 0, 0, 0, 0, 0, 0, 0], "stateRewards": ["", -2, -8, 48, 24, 2, 8, -48, 24, -4, 8, 48, 48], "withholdReward": false, "trial_id": "mdp_875436109858", "block": "test2", "trialIndex": 42, "score": 42.75, "costs": -0.25, "simulationMode": [null, null, null], "rewards": [-2, -8, 48], "path": ["0", "0", "1", "2", "3"], "rt": [1552, 42, 127], "actions": ["up", "up", "right"], "actionTimes": [2588, 3142, 3815], "queries": {"click": {"state": {"target": ["3"], "time": [1851]}, "edge": {"target": [], "time": []}}, "mouseover": {"state": {"target": ["1", "2", "3", "2", "2"], "time": [1227, 1271, 1591, 2160, 2509]}, "edge": {"target": [], "time": []}}, "mouseout": {"state": {"target": ["0", "1", "2", "3", "2", "2", "3", "3", "0"], "time": [1208, 1246, 1288, 2126, 2178, 4514, 4545, 4828, 10721]}, "edge": {"target": [], "time": []}}}, "displayed_time": "10.04", "trialTime": 11028, "trial_type": "mouselab-mdp", "trial_index": 54, "time_elapsed": 938129, "internal_node_id": "0.0-4.0-3.0-8.0"}}, {"uniqueid": "w20590658:a21634997", "current_trial": 55, "dateTime": 1664377052068, "trialdata": {"revealed_states": [], "num_clicks_accrued": [0, 0, 0, 0, 0, 0, 0, 0, 0, 0, 0, 0, 0], "stateRewards": ["", 4, -8, 48, 24, 4, -4, 48, 48, -4, 8, -48, 24], "withholdReward": false, "trial_id": "mdp_303828806348", "block": "test2", "trialIndex": 43, "score": 52.75, "costs": -0.25, "simulationMode": [null, null, null], "rewards": [4, -4, 48], "path": ["0", "0", "5", "6", "7"], "rt": [1202, 149, 90], "actions": ["right", "right", "up"], "actionTimes": [2292, 2958, 3567], "queries": {"click": {"state": {"target": ["7"], "time": [1820]}, "edge": {"target": [], "time": []}}, "mouseover": {"state": {"target": ["5", "7", "5"], "time": [1221, 1587, 2125]}, "edge": {"target": [], "time": []}}, "mouseout": {"state": {"target": ["0", "5", "7", "5", "5", "5", "0", "9", "10", "9", "0"], "time": [269, 1241, 2108, 2155, 4291, 5981, 6349, 6428, 6744, 7211, 7611]}, "edge": {"target": [], "time": []}}}, "displayed_time": "9.09", "trialTime": 9914, "trial_type": "mouselab-mdp", "trial_index": 55, "time_elapsed": 948366, "internal_node_id": "0.0-4.0-3.0-9.0"}}, {"uniqueid": "w20590658:a21634997", "current_trial": 56, "dateTime": 1664377064228, "trialdata": {"revealed_states": [], "num_clicks_accrued": [0, 0, 0, 0, 0, 0, 0, 0, 0, 0, 0, 0, 0], "stateRewards": ["", -4, -8, -48, 48, -2, -8, -48, -24, 4, 8, 24, -48], "withholdReward": true, "trial_id": "mdp_509977295685", "block": "test2", "trialIndex": 44, "score": -31.25, "costs": -0.25, "simulationMode": [null, null, null], "rewards": [4, 8, -48], "path": ["0", "0", "9", "10", "12"], "rt": [2000, 428, 90], "actions": ["left", "left", "down"], "actionTimes": [3070, 4014, 4614], "queries": {"click": {"state": {"target": ["8"], "time": [2022]}, "edge": {"target": [], "time": []}}, "mouseover": {"state": {"target": ["8"], "time": [1798]}, "edge": {"target": [], "time": []}}, "mouseout": {"state": {"target": ["0", "8", "0", "0", "0", "0", "0", "5", "0", "5", "0", "5", "0", "0"], "time": [1146, 2314, 6235, 6588, 7086, 7387, 7822, 8072, 8627, 8906, 9006, 9762, 10391, 11577]}, "edge": {"target": [], "time": []}}}, "displayed_time": "11.07", "trialTime": 11819, "trial_type": "mouselab-mdp", "trial_index": 56, "time_elapsed": 960525, "internal_node_id": "0.0-4.0-3.0-10.0"}}, {"uniqueid": "w20590658:a21634997", "current_trial": 57, "dateTime": 1664377075310, "trialdata": {"revealed_states": [], "num_clicks_accrued": [0, 0, 0, 0, 0, 0, 0, 0, 0, 0, 0, 0, 0], "stateRewards": ["", 2, -4, 48, -48, -2, 8, -48, 24, -2, -8, 48, 48], "withholdReward": false, "trial_id": "mdp_949326095747", "block": "test2", "trialIndex": 45, "score": 51, "costs": 0, "simulationMode": [null, null, null], "rewards": [2, -4, 48], "path": ["0", "0", "1", "2", "3"], "rt": [978, 95, 108], "actions": ["up", "up", "right"], "actionTimes": [1869, 2472, 3103], "queries": {"click": {"state": {"target": [], "time": []}, "edge": {"target": [], "time": []}}, "mouseover": {"state": {"target": ["1", "2"], "time": [1422, 1506]}, "edge": {"target": [], "time": []}}, "mouseout": {"state": {"target": ["0", "1", "2", "3"], "time": [503, 1456, 3851, 5628]}, "edge": {"target": [], "time": []}}}, "displayed_time": "9.89", "trialTime": 10761, "trial_type": "mouselab-mdp", "trial_index": 57, "time_elapsed": 971608, "internal_node_id": "0.0-4.0-3.0-11.0"}}, {"uniqueid": "w20590658:a21634997", "current_trial": 58, "dateTime": 1664377087270, "trialdata": {"revealed_states": [], "num_clicks_accrued": [0, 0, 0, 0, 0, 0, 0, 0, 0, 0, 0, 0, 0], "stateRewards": ["", 2, -4, -48, -48, -2, -4, -24, -48, -2, 8, 24, 24], "withholdReward": true, "trial_id": "mdp_656069446729", "block": "test2", "trialIndex": 46, "score": -45, "costs": 0, "simulationMode": [null, null, null], "rewards": [2, -4, -48], "path": ["0", "0", "1", "2", "4"], "rt": [405, 77, 127], "actions": ["up", "up", "left"], "actionTimes": [1888, 2482, 3133], "queries": {"click": {"state": {"target": [], "time": []}, "edge": {"target": [], "time": []}}, "mouseover": {"state": {"target": [], "time": []}, "edge": {"target": [], "time": []}}, "mouseout": {"state": {"target": ["0", "5", "0"], "time": [3836, 4107, 4170]}, "edge": {"target": [], "time": []}}}, "displayed_time": "10.48", "trialTime": 11583, "trial_type": "mouselab-mdp", "trial_index": 58, "time_elapsed": 983568, "internal_node_id": "0.0-4.0-3.0-12.0"}}, {"uniqueid": "w20590658:a21634997", "current_trial": 59, "dateTime": 1664377098141, "trialdata": {"revealed_states": [], "num_clicks_accrued": [0, 0, 0, 0, 0, 0, 0, 0, 0, 0, 0, 0, 0], "stateRewards": ["", 2, 8, -48, -24, 2, -4, -48, 24, 2, -4, -24, -24], "withholdReward": false, "trial_id": "mdp_954659099093", "block": "test2", "trialIndex": 47, "score": 27, "costs": 0, "simulationMode": [null, null, null], "rewards": [2, -4, 24], "path": ["0", "0", "5", "6", "8"], "rt": [497, 124, 52], "actions": ["right", "right", "down"], "actionTimes": [1362, 2003, 2565], "queries": {"click": {"state": {"target": [], "time": []}, "edge": {"target": [], "time": []}}, "mouseover": {"state": {"target": [], "time": []}, "edge": {"target": [], "time": []}}, "mouseout": {"state": {"target": ["0", "0", "0", "0", "0", "0", "5", "0", "5", "5", "5", "5"], "time": [null, 245, 1343, 3512, 3930, 4595, 4830, 5213, 5550, 5933, 9136, 9888]}, "edge": {"target": [], "time": []}}}, "displayed_time": "9.87", "trialTime": 10514, "trial_type": "mouselab-mdp", "trial_index": 59, "time_elapsed": 994439, "internal_node_id": "0.0-4.0-3.0-13.0"}}, {"uniqueid": "w20590658:a21634997", "current_trial": 60, "dateTime": 1664377109462, "trialdata": {"revealed_states": [], "num_clicks_accrued": [0, 0, 0, 0, 0, 0, 0, 0, 0, 0, 0, 0, 0], "stateRewards": ["", -2, 8, 48, 48, 4, -8, -48, 48, 2, -4, -48, 48], "withholdReward": true, "trial_id": "mdp_132958048709", "block": "test2", "trialIndex": 48, "score": 59, "costs": 0, "simulationMode": [null, null, null], "rewards": [-2, 8, 48], "path": ["0", "0", "1", "2", "4"], "rt": [184, 131, 462], "actions": ["up", "up", "left"], "actionTimes": [1364, 2012, 3091], "queries": {"click": {"state": {"target": [], "time": []}, "edge": {"target": [], "time": []}}, "mouseover": {"state": {"target": [], "time": []}, "edge": {"target": [], "time": []}}, "mouseout": {"state": {"target": ["0", "0", "5"], "time": [277, 3697, 3752]}, "edge": {"target": [], "time": []}}}, "displayed_time": "10.18", "trialTime": 10987, "trial_type": "mouselab-mdp", "trial_index": 60, "time_elapsed": 1005760, "internal_node_id": "0.0-4.0-3.0-14.0"}}, {"uniqueid": "w20590658:a21634997", "current_trial": 61, "dateTime": 1664377122735, "trialdata": {"revealed_states": [], "num_clicks_accrued": [0, 0, 0, 0, 0, 0, 0, 0, 0, 0, 0, 0, 0], "stateRewards": ["", 4, 4, -24, -48, -4, 4, -48, 24, 4, -8, -48, 48], "withholdReward": true, "trial_id": "mdp_566768794366", "block": "test2", "trialIndex": 49, "score": -43, "costs": 0, "simulationMode": [null, null, null], "rewards": [-4, 4, -48], "path": ["0", "0", "5", "6", "7"], "rt": [831, 29, 65], "actions": ["right", "right", "up"], "actionTimes": [3939, 4484, 5072], "queries": {"click": {"state": {"target": [], "time": []}, "edge": {"target": [], "time": []}}, "mouseover": {"state": {"target": [], "time": []}, "edge": {"target": [], "time": []}}, "mouseout": {"state": {"target": ["0", "0", "9", "0"], "time": [698, 5985, 12595, 12694]}, "edge": {"target": [], "time": []}}}, "displayed_time": "12.11", "trialTime": 12915, "trial_type": "mouselab-mdp", "trial_index": 61, "time_elapsed": 1019033, "internal_node_id": "0.0-4.0-3.0-15.0"}}, {"uniqueid": "w20590658:a21634997", "current_trial": 62, "dateTime": 1664377132921, "trialdata": {"revealed_states": [], "num_clicks_accrued": [0, 0, 0, 0, 0, 0, 0, 0, 0, 0, 0, 0, 0], "stateRewards": ["", -2, 8, -48, 48, 4, -8, -48, 48, 4, -4, -24, 48], "withholdReward": true, "trial_id": "mdp_144739116828", "block": "test2", "trialIndex": 50, "score": -19, "costs": 0, "simulationMode": [null, null, null], "rewards": [4, -4, -24], "path": ["0", "0", "9", "10", "11"], "rt": [370, 199, 45], "actions": ["left", "left", "up"], "actionTimes": [1455, 2170, 2734], "queries": {"click": {"state": {"target": [], "time": []}, "edge": {"target": [], "time": []}}, "mouseover": {"state": {"target": ["9"], "time": [1434]}, "edge": {"target": [], "time": []}}, "mouseout": {"state": {"target": ["0", "9", "0"], "time": [533, 3537, 3586]}, "edge": {"target": [], "time": []}}}, "displayed_time": "9.09", "trialTime": 9870, "trial_type": "mouselab-mdp", "trial_index": 62, "time_elapsed": 1029218, "internal_node_id": "0.0-4.0-3.0-16.0"}}, {"uniqueid": "w20590658:a21634997", "current_trial": 63, "dateTime": 1664377144457, "trialdata": {"revealed_states": [], "num_clicks_accrued": [0, 0, 0, 0, 0, 0, 0, 0, 0, 0, 0, 0, 0], "stateRewards": ["", 2, -8, 24, 24, 4, -4, -24, -48, 4, 8, 24, 24], "withholdReward": true, "trial_id": "mdp_249803813713", "block": "test2", "trialIndex": 51, "score": 23, "costs": 0, "simulationMode": [null, null, null], "rewards": [2, -8, 24], "path": ["0", "0", "1", "2", "3"], "rt": [311, 180, 12], "actions": ["up", "up", "right"], "actionTimes": [1406, 2105, 2645], "queries": {"click": {"state": {"target": [], "time": []}, "edge": {"target": [], "time": []}}, "mouseover": {"state": {"target": [], "time": []}, "edge": {"target": [], "time": []}}, "mouseout": {"state": {"target": ["0", "0", "0", "0", "1", "1", "1", "1"], "time": [435, 3957, 4358, 4894, 8013, 8580, 9098, 10632]}, "edge": {"target": [], "time": []}}}, "displayed_time": "9.11", "trialTime": 11195, "trial_type": "mouselab-mdp", "trial_index": 63, "time_elapsed": 1040754, "internal_node_id": "0.0-4.0-3.0-17.0"}}, {"uniqueid": "w20590658:a21634997", "current_trial": 64, "dateTime": 1664377154801, "trialdata": {"revealed_states": [], "num_clicks_accrued": [0, 0, 0, 0, 0, 0, 0, 0, 0, 0, 0, 0, 0], "stateRewards": ["", -4, 4, -24, 24, -2, -4, 48, 24, 2, 8, -48, 24], "withholdReward": true, "trial_id": "mdp_150340189492", "block": "test2", "trialIndex": 52, "score": 47, "costs": 0, "simulationMode": [null, null, null], "rewards": [-2, -4, 48], "path": ["0", "0", "5", "6", "7"], "rt": [458, 37, 108], "actions": ["right", "right", "up"], "actionTimes": [1531, 2074, 2696], "queries": {"click": {"state": {"target": [], "time": []}, "edge": {"target": [], "time": []}}, "mouseover": {"state": {"target": [], "time": []}, "edge": {"target": [], "time": []}}, "mouseout": {"state": {"target": ["1", "0", "0"], "time": [364, 4188, 5206]}, "edge": {"target": [], "time": []}}}, "displayed_time": "9.07", "trialTime": 10003, "trial_type": "mouselab-mdp", "trial_index": 64, "time_elapsed": 1051099, "internal_node_id": "0.0-4.0-3.0-18.0"}}, {"uniqueid": "w20590658:a21634997", "current_trial": 65, "dateTime": 1664377165102, "trialdata": {"revealed_states": [], "num_clicks_accrued": [0, 0, 0, 0, 0, 0, 0, 0, 0, 0, 0, 0, 0], "stateRewards": ["", -4, 8, -24, -48, 2, 8, -48, -24, -2, -4, 48, -48], "withholdReward": true, "trial_id": "mdp_599927291428", "block": "test2", "trialIndex": 53, "score": -49, "costs": 0, "simulationMode": [null, null, null], "rewards": [-2, -4, -48], "path": ["0", "0", "9", "10", "12"], "rt": [301, 51, 32], "actions": ["left", "left", "down"], "actionTimes": [1394, 1963, 2522], "queries": {"click": {"state": {"target": [], "time": []}, "edge": {"target": [], "time": []}}, "mouseover": {"state": {"target": [], "time": []}, "edge": {"target": [], "time": []}}, "mouseout": {"state": {"target": ["5", "0", "5", "5"], "time": [271, 3843, 3909, 4281]}, "edge": {"target": [], "time": []}}}, "displayed_time": "9.09", "trialTime": 9962, "trial_type": "mouselab-mdp", "trial_index": 65, "time_elapsed": 1061399, "internal_node_id": "0.0-4.0-3.0-19.0"}}, {"uniqueid": "w20590658:a21634997", "current_trial": 66, "dateTime": 1664377174376, "trialdata": {"revealed_states": [], "num_clicks_accrued": [0, 0, 0, 0, 0, 0, 0, 0, 0, 0, 0, 0, 0], "stateRewards": ["", 2, 8, 48, -48, -2, -4, -24, 24, 4, -4, 48, -48], "withholdReward": true, "trial_id": "mdp_105734044587", "block": "test2", "trialIndex": 54, "score": 63, "costs": 0, "simulationMode": [null, null, null], "rewards": [2, 8, 48], "path": ["0", "0", "1", "2", "3"], "rt": [339, 168, 432], "actions": ["up", "up", "right"], "actionTimes": [1363, 2041, 3404], "queries": {"click": {"state": {"target": [], "time": []}, "edge": {"target": [], "time": []}}, "mouseover": {"state": {"target": [], "time": []}, "edge": {"target": [], "time": []}}, "mouseout": {"state": {"target": ["0", "0", "0", "0"], "time": [4395, 4806, 5092, 5541]}, "edge": {"target": [], "time": []}}}, "displayed_time": "8.03", "trialTime": 8918, "trial_type": "mouselab-mdp", "trial_index": 66, "time_elapsed": 1070674, "internal_node_id": "0.0-4.0-3.0-20.0"}}, {"uniqueid": "w20590658:a21634997", "current_trial": 67, "dateTime": 1664377185186, "trialdata": {"revealed_states": [], "num_clicks_accrued": [0, 0, 0, 0, 0, 0, 0, 0, 0, 0, 0, 0, 0], "stateRewards": ["", 2, 8, -24, -48, -4, 8, -48, -48, -2, -8, -24, -24], "withholdReward": true, "trial_id": "mdp_978177451072", "block": "test2", "trialIndex": 55, "score": -29.25, "costs": -0.25, "simulationMode": [null, null, null], "rewards": [-2, -8, -24], "path": ["0", "0", "9", "10", "11"], "rt": [1835, 131, 687], "actions": ["left", "left", "up"], "actionTimes": [2779, 3418, 4625], "queries": {"click": {"state": {"target": ["3"], "time": [1881]}, "edge": {"target": [], "time": []}}, "mouseover": {"state": {"target": ["3"], "time": [1615]}, "edge": {"target": [], "time": []}}, "mouseout": {"state": {"target": ["0", "3", "1", "9", "0", "9", "0", "9", "0", "9", "0"], "time": [548, 2149, 5554, 7828, 8074, 8442, 8825, 9343, 9425, 9981, 10026]}, "edge": {"target": [], "time": []}}}, "displayed_time": "9.95", "trialTime": 10545, "trial_type": "mouselab-mdp", "trial_index": 67, "time_elapsed": 1081484, "internal_node_id": "0.0-4.0-3.0-21.0"}}, {"uniqueid": "w20590658:a21634997", "current_trial": 68, "dateTime": 1664377195211, "trialdata": {"revealed_states": [], "num_clicks_accrued": [0, 0, 0, 0, 0, 0, 0, 0, 0, 0, 0, 0, 0], "stateRewards": ["", 4, 4, 24, -48, 2, -8, -24, -48, 4, 8, 48, 48], "withholdReward": true, "trial_id": "mdp_592471239511", "block": "test2", "trialIndex": 56, "score": 37, "costs": 0, "simulationMode": [null, null, null], "rewards": [4, 4, 24], "path": ["0", "0", "1", "2", "3"], "rt": [360, 150, 79], "actions": ["up", "up", "right"], "actionTimes": [1312, 1973, 2569], "queries": {"click": {"state": {"target": [], "time": []}, "edge": {"target": [], "time": []}}, "mouseover": {"state": {"target": [], "time": []}, "edge": {"target": [], "time": []}}, "mouseout": {"state": {"target": ["0", "0", "9"], "time": [388, 3404, 9465]}, "edge": {"target": [], "time": []}}}, "displayed_time": "8.95", "trialTime": 9743, "trial_type": "mouselab-mdp", "trial_index": 68, "time_elapsed": 1091509, "internal_node_id": "0.0-4.0-3.0-22.0"}}, {"uniqueid": "w20590658:a21634997", "current_trial": 69, "dateTime": 1664377206075, "trialdata": {"revealed_states": [], "num_clicks_accrued": [0, 0, 0, 0, 0, 0, 0, 0, 0, 0, 0, 0, 0], "stateRewards": ["", 2, 8, -24, -48, 2, 4, -24, 48, 2, -8, 48, -24], "withholdReward": true, "trial_id": "mdp_791659307216", "block": "test2", "trialIndex": 57, "score": 59, "costs": 0, "simulationMode": [null, null, null], "rewards": [2, 4, 48], "path": ["0", "0", "5", "6", "8"], "rt": [189, 101, 528], "actions": ["right", "right", "down"], "actionTimes": [1198, 1822, 2866], "queries": {"click": {"state": {"target": [], "time": []}, "edge": {"target": [], "time": []}}, "mouseover": {"state": {"target": [], "time": []}, "edge": {"target": [], "time": []}}, "mouseout": {"state": {"target": ["0"], "time": [3702]}, "edge": {"target": [], "time": []}}}, "displayed_time": "10.01", "trialTime": 10558, "trial_type": "mouselab-mdp", "trial_index": 69, "time_elapsed": 1102373, "internal_node_id": "0.0-4.0-3.0-23.0"}}, {"uniqueid": "w20590658:a21634997", "current_trial": 70, "dateTime": 1664377215951, "trialdata": {"revealed_states": [], "num_clicks_accrued": [0, 0, 0, 0, 0, 0, 0, 0, 0, 0, 0, 0, 0], "stateRewards": ["", -2, -4, -24, 48, -4, 8, 48, 48, 2, 8, -48, -24], "withholdReward": true, "trial_id": "mdp_136376573354", "block": "test2", "trialIndex": 58, "score": -25, "costs": 0, "simulationMode": [null, null, null], "rewards": [-2, -4, -24], "path": ["0", "0", "1", "2", "3"], "rt": [398, 164, 18], "actions": ["up", "up", "right"], "actionTimes": [1416, 2094, 2637], "queries": {"click": {"state": {"target": [], "time": []}, "edge": {"target": [], "time": []}}, "mouseover": {"state": {"target": [], "time": []}, "edge": {"target": [], "time": []}}, "mouseout": {"state": {"target": [], "time": []}, "edge": {"target": [], "time": []}}}, "displayed_time": "9.02", "trialTime": 9545, "trial_type": "mouselab-mdp", "trial_index": 70, "time_elapsed": 1112249, "internal_node_id": "0.0-4.0-3.0-24.0"}}, {"uniqueid": "w20590658:a21634997", "current_trial": 71, "dateTime": 1664377227019, "trialdata": {"revealed_states": [], "num_clicks_accrued": [0, 0, 0, 0, 0, 0, 0, 0, 0, 0, 0, 0, 0], "stateRewards": ["", 4, -8, -24, 24, 2, -4, 24, 24, 2, -4, 48, 48], "withholdReward": true, "trial_id": "mdp_457607480918", "block": "test2", "trialIndex": 59, "score": 50.75, "costs": -0.25, "simulationMode": [null, null, null], "rewards": [2, -4, 48], "path": ["0", "0", "9", "10", "11"], "rt": [1872, 121, 98], "actions": ["left", "left", "up"], "actionTimes": [2804, 3442, 4051], "queries": {"click": {"state": {"target": ["11"], "time": [1795]}, "edge": {"target": [], "time": []}}, "mouseover": {"state": {"target": ["9", "11", "10"], "time": [1203, 1497, 2232]}, "edge": {"target": [], "time": []}}, "mouseout": {"state": {"target": ["0", "9", "11", "10"], "time": [1182, 1220, 2182, 5428]}, "edge": {"target": [], "time": []}}}, "displayed_time": "9.93", "trialTime": 10719, "trial_type": "mouselab-mdp", "trial_index": 71, "time_elapsed": 1123316, "internal_node_id": "0.0-4.0-3.0-25.0"}}, {"uniqueid": "w20590658:a21634997", "current_trial": 72, "dateTime": 1664377238464, "trialdata": {"revealed_states": [], "num_clicks_accrued": [0, 0, 0, 0, 0, 0, 0, 0, 0, 0, 0, 0, 0], "stateRewards": ["", 2, -4, 24, 24, 2, 4, 24, 24, -4, 8, 24, 48], "withholdReward": false, "trial_id": "mdp_268430387178", "block": "test2", "trialIndex": 60, "score": 32.75, "costs": -0.25, "simulationMode": [null, null, null], "rewards": [-4, 8, 24], "path": ["0", "0", "9", "10", "11"], "rt": [1530, 25, 293], "actions": ["left", "left", "up"], "actionTimes": [2610, 3185, 3985], "queries": {"click": {"state": {"target": ["11"], "time": [1823]}, "edge": {"target": [], "time": []}}, "mouseover": {"state": {"target": ["11", "11"], "time": [1219, 1616]}, "edge": {"target": [], "time": []}}, "mouseout": {"state": {"target": ["9", "11", "11"], "time": [284, 1237, 2217]}, "edge": {"target": [], "time": []}}}, "displayed_time": "10.08", "trialTime": 11052, "trial_type": "mouselab-mdp", "trial_index": 72, "time_elapsed": 1134762, "internal_node_id": "0.0-4.0-3.0-26.0"}}, {"uniqueid": "w20590658:a21634997", "current_trial": 73, "dateTime": 1664377248566, "trialdata": {"revealed_states": [], "num_clicks_accrued": [0, 0, 0, 0, 0, 0, 0, 0, 0, 0, 0, 0, 0], "stateRewards": ["", -2, 8, -24, 24, 2, -8, 48, -24, 2, 8, -24, -24], "withholdReward": true, "trial_id": "mdp_674708270444", "block": "test2", "trialIndex": 61, "score": 46.75, "costs": -0.25, "simulationMode": [null, null, null], "rewards": [2, -8, 48], "path": ["0", "0", "5", "6", "7"], "rt": [2011, 138, 47], "actions": ["right", "right", "up"], "actionTimes": [2916, 3566, 4125], "queries": {"click": {"state": {"target": ["3"], "time": [1739]}, "edge": {"target": [], "time": []}}, "mouseover": {"state": {"target": ["1", "2", "3", "1"], "time": [1141, 1163, 1487, 2055]}, "edge": {"target": [], "time": []}}, "mouseout": {"state": {"target": ["9", "1", "2", "3", "1", "1"], "time": [286, 1160, 1180, 2005, 4828, 5095]}, "edge": {"target": [], "time": []}}}, "displayed_time": "8.91", "trialTime": 9693, "trial_type": "mouselab-mdp", "trial_index": 73, "time_elapsed": 1144863, "internal_node_id": "0.0-4.0-3.0-27.0"}}, {"uniqueid": "w20590658:a21634997", "current_trial": 74, "dateTime": 1664377259453, "trialdata": {"revealed_states": [], "num_clicks_accrued": [0, 0, 0, 0, 0, 0, 0, 0, 0, 0, 0, 0, 0], "stateRewards": ["", 4, -4, 24, 48, 4, 8, -24, -24, -2, 4, 48, 48], "withholdReward": true, "trial_id": "mdp_624998450453", "block": "test2", "trialIndex": 62, "score": 55, "costs": 0, "simulationMode": [null, null, null], "rewards": [-2, 4, 48], "path": ["0", "0", "9", "10", "11"], "rt": [728, 118, 41], "actions": ["left", "left", "up"], "actionTimes": [1650, 2287, 2845], "queries": {"click": {"state": {"target": [], "time": []}, "edge": {"target": [], "time": []}}, "mouseover": {"state": {"target": ["9"], "time": [1163]}, "edge": {"target": [], "time": []}}, "mouseout": {"state": {"target": ["9", "0", "9", "0", "0"], "time": [3452, 3701, 4090, 4184, 4553]}, "edge": {"target": [], "time": []}}}, "displayed_time": "9.92", "trialTime": 10443, "trial_type": "mouselab-mdp", "trial_index": 74, "time_elapsed": 1155751, "internal_node_id": "0.0-4.0-3.0-28.0"}}, {"uniqueid": "w20590658:a21634997", "current_trial": 75, "dateTime": 1664377269491, "trialdata": {"revealed_states": [], "num_clicks_accrued": [0, 0, 0, 0, 0, 0, 0, 0, 0, 0, 0, 0, 0], "stateRewards": ["", -2, -8, 48, 24, -2, 8, -48, -24, -2, 4, -48, 48], "withholdReward": true, "trial_id": "mdp_295220852217", "block": "test2", "trialIndex": 63, "score": 43, "costs": 0, "simulationMode": [null, null, null], "rewards": [-2, -8, 48], "path": ["0", "0", "1", "2", "3"], "rt": [366, 75, 7], "actions": ["up", "up", "right"], "actionTimes": [1345, 1940, 2457], "queries": {"click": {"state": {"target": [], "time": []}, "edge": {"target": [], "time": []}}, "mouseover": {"state": {"target": [], "time": []}, "edge": {"target": [], "time": []}}, "mouseout": {"state": {"target": ["0"], "time": [3317]}, "edge": {"target": [], "time": []}}}, "displayed_time": "8.98", "trialTime": 9629, "trial_type": "mouselab-mdp", "trial_index": 75, "time_elapsed": 1165789, "internal_node_id": "0.0-4.0-3.0-29.0"}}, {"uniqueid": "w20590658:a21634997", "current_trial": 76, "dateTime": 1664377271375, "trialdata": {"rt": 1854, "stimulus": "<h1> End of block! </h1>\n\nYou have reached the end of the block 2/4. If you need a short break, feel free to take one now before moving on.\n\n<br><br>\nIn the next block, you will complete another 30 rounds of this game.\n\n<br><br>\n<div style='text-align: center;'>Press <code>space</code> to begin.</div>\n<br><br>\n<div style='text-align: center;'>(If the experiment doesn't continue, try clicking on the text and then pressing <code>space</code>.)</div>", "response": " ", "trial_id": "mdp_ready_3", "trial_type": "html-keyboard-response", "trial_index": 76, "time_elapsed": 1167672, "internal_node_id": "0.0-4.0-4.0"}}, {"uniqueid": "w20590658:a21634997", "current_trial": 77, "dateTime": 1664377282603, "trialdata": {"revealed_states": [], "num_clicks_accrued": [0, 0, 0, 0, 0, 0, 0, 0, 0, 0, 0, 0, 0], "stateRewards": ["", 4, 4, 48, -48, -2, 4, 48, -48, -4, 4, -24, -24], "withholdReward": true, "trial_id": "mdp_753324812898", "block": "test3", "trialIndex": 64, "score": 61, "costs": 0, "simulationMode": [null, null, null], "rewards": [4, 4, 48], "path": ["0", "0", "1", "2", "3"], "rt": [363, 132, 17], "actions": ["up", "up", "right"], "actionTimes": [1901, 2548, 3078], "queries": {"click": {"state": {"target": [], "time": []}, "edge": {"target": [], "time": []}}, "mouseover": {"state": {"target": [], "time": []}, "edge": {"target": [], "time": []}}, "mouseout": {"state": {"target": ["4", "0", "1", "0"], "time": [598, 3758, 10650, 10736]}, "edge": {"target": [], "time": []}}}, "displayed_time": "9.54", "trialTime": 10837, "trial_type": "mouselab-mdp", "trial_index": 77, "time_elapsed": 1178901, "internal_node_id": "0.0-4.0-5.0-0.0"}}, {"uniqueid": "w20590658:a21634997", "current_trial": 78, "dateTime": 1664377294324, "trialdata": {"revealed_states": [], "num_clicks_accrued": [0, 0, 0, 0, 0, 0, 0, 0, 0, 0, 0, 0, 0], "stateRewards": ["", -4, 8, 24, 24, -2, 8, -48, 48, 4, -8, 48, -48], "withholdReward": false, "trial_id": "mdp_295249220524", "block": "test3", "trialIndex": 65, "score": 49, "costs": 0, "simulationMode": [null, null, null], "rewards": [4, -8, 48], "path": ["0", "0", "9", "10", "11"], "rt": [828, 46, 33], "actions": ["left", "left", "up"], "actionTimes": [2160, 2732, 3285], "queries": {"click": {"state": {"target": [], "time": []}, "edge": {"target": [], "time": []}}, "mouseover": {"state": {"target": [], "time": []}, "edge": {"target": [], "time": []}}, "mouseout": {"state": {"target": ["0", "0", "0", "0", "0"], "time": [224, 1560, 4046, 4330, 11058]}, "edge": {"target": [], "time": []}}}, "displayed_time": "10.34", "trialTime": 11378, "trial_type": "mouselab-mdp", "trial_index": 78, "time_elapsed": 1190621, "internal_node_id": "0.0-4.0-5.0-1.0"}}, {"uniqueid": "w20590658:a21634997", "current_trial": 79, "dateTime": 1664377308264, "trialdata": {"revealed_states": [], "num_clicks_accrued": [0, 0, 0, 0, 0, 0, 0, 0, 0, 0, 0, 0, 0], "stateRewards": ["", -4, 4, -48, -48, -2, -8, -48, -24, 4, 8, -24, 24], "withholdReward": true, "trial_id": "mdp_449260894259", "block": "test3", "trialIndex": 66, "score": 40.75, "costs": -0.25, "simulationMode": [null, null, null], "rewards": [4, 8, 24], "path": ["0", "0", "9", "10", "12"], "rt": [2202, 23, 843], "actions": ["left", "left", "down"], "actionTimes": [3271, 3865, 5237], "queries": {"click": {"state": {"target": ["7"], "time": [2077]}, "edge": {"target": [], "time": []}}, "mouseover": {"state": {"target": ["7"], "time": [1782]}, "edge": {"target": [], "time": []}}, "mouseout": {"state": {"target": ["0", "7"], "time": [1147, 2348]}, "edge": {"target": [], "time": []}}}, "displayed_time": "9.07", "trialTime": 13555, "trial_type": "mouselab-mdp", "trial_index": 79, "time_elapsed": 1204561, "internal_node_id": "0.0-4.0-5.0-2.0"}}, {"uniqueid": "w20590658:a21634997", "current_trial": 80, "dateTime": 1664377318941, "trialdata": {"revealed_states": [], "num_clicks_accrued": [0, 0, 0, 0, 0, 0, 0, 0, 0, 0, 0, 0, 0], "stateRewards": ["", -2, -8, 48, -24, 2, -4, -48, -24, -2, -4, -48, 48], "withholdReward": true, "trial_id": "mdp_143798438087", "block": "test3", "trialIndex": 67, "score": 43, "costs": 0, "simulationMode": [null, null, null], "rewards": [-2, -8, 48], "path": ["0", "0", "1", "2", "3"], "rt": [1428, 120, 67], "actions": ["up", "up", "right"], "actionTimes": [2721, 3349, 3930], "queries": {"click": {"state": {"target": [], "time": []}, "edge": {"target": [], "time": []}}, "mouseover": {"state": {"target": ["1"], "time": [1490]}, "edge": {"target": [], "time": []}}, "mouseout": {"state": {"target": ["1", "1", "1"], "time": [4632, 5049, 5361]}, "edge": {"target": [], "time": []}}}, "displayed_time": "9.29", "trialTime": 10241, "trial_type": "mouselab-mdp", "trial_index": 80, "time_elapsed": 1215239, "internal_node_id": "0.0-4.0-5.0-3.0"}}, {"uniqueid": "w20590658:a21634997", "current_trial": 81, "dateTime": 1664377329053, "trialdata": {"revealed_states": [], "num_clicks_accrued": [0, 0, 0, 0, 0, 0, 0, 0, 0, 0, 0, 0, 0], "stateRewards": ["", 2, -8, 48, -24, -4, -8, -24, 48, -2, 4, 24, -48], "withholdReward": true, "trial_id": "mdp_186932504904", "block": "test3", "trialIndex": 68, "score": -25, "costs": 0, "simulationMode": [null, null, null], "rewards": [2, -8, -24], "path": ["0", "0", "1", "2", "4"], "rt": [487, 271, 69], "actions": ["up", "up", "left"], "actionTimes": [1616, 2397, 2980], "queries": {"click": {"state": {"target": [], "time": []}, "edge": {"target": [], "time": []}}, "mouseover": {"state": {"target": [], "time": []}, "edge": {"target": [], "time": []}}, "mouseout": {"state": {"target": ["1", "0"], "time": [603, 1274]}, "edge": {"target": [], "time": []}}}, "displayed_time": "9.13", "trialTime": 9771, "trial_type": "mouselab-mdp", "trial_index": 81, "time_elapsed": 1225351, "internal_node_id": "0.0-4.0-5.0-4.0"}}, {"uniqueid": "w20590658:a21634997", "current_trial": 82, "dateTime": 1664377340766, "trialdata": {"revealed_states": [], "num_clicks_accrued": [0, 0, 0, 0, 0, 0, 0, 0, 0, 0, 0, 0, 0], "stateRewards": ["", -2, 4, -24, 24, -4, -8, 24, -48, -4, -4, -48, -24], "withholdReward": true, "trial_id": "mdp_753137520419", "block": "test3", "trialIndex": 69, "score": -55, "costs": 0, "simulationMode": [null, null, null], "rewards": [-4, -8, -48], "path": ["0", "0", "5", "6", "8"], "rt": [554, 197, 483], "actions": ["right", "right", "down"], "actionTimes": [1549, 2258, 3263], "queries": {"click": {"state": {"target": [], "time": []}, "edge": {"target": [], "time": []}}, "mouseover": {"state": {"target": [], "time": []}, "edge": {"target": [], "time": []}}, "mouseout": {"state": {"target": [], "time": []}, "edge": {"target": [], "time": []}}}, "displayed_time": "9.00", "trialTime": 11305, "trial_type": "mouselab-mdp", "trial_index": 82, "time_elapsed": 1237063, "internal_node_id": "0.0-4.0-5.0-5.0"}}, {"uniqueid": "w20590658:a21634997", "current_trial": 83, "dateTime": 1664377351633, "trialdata": {"revealed_states": [], "num_clicks_accrued": [0, 0, 0, 0, 0, 0, 0, 0, 0, 0, 0, 0, 0], "stateRewards": ["", 2, -4, 48, -48, 2, 4, -24, 24, -4, -8, 24, -48], "withholdReward": true, "trial_id": "mdp_238810765895", "block": "test3", "trialIndex": 70, "score": -13.25, "costs": -0.25, "simulationMode": [null, null, null], "rewards": [2, 4, -24], "path": ["0", "0", "5", "6", "7"], "rt": [2061, 78, 508], "actions": ["right", "right", "up"], "actionTimes": [2914, 3516, 4552], "queries": {"click": {"state": {"target": ["4"], "time": [1746]}, "edge": {"target": [], "time": []}}, "mouseover": {"state": {"target": ["1", "4"], "time": [1197, 1481]}, "edge": {"target": [], "time": []}}, "mouseout": {"state": {"target": ["0", "1", "4", "0"], "time": [1146, 1215, 2080, 10243]}, "edge": {"target": [], "time": []}}}, "displayed_time": "9.86", "trialTime": 10443, "trial_type": "mouselab-mdp", "trial_index": 83, "time_elapsed": 1247930, "internal_node_id": "0.0-4.0-5.0-6.0"}}, {"uniqueid": "w20590658:a21634997", "current_trial": 84, "dateTime": 1664377362718, "trialdata": {"revealed_states": [], "num_clicks_accrued": [0, 0, 0, 0, 0, 0, 0, 0, 0, 0, 0, 0, 0], "stateRewards": ["", 2, 4, -24, -24, 4, 8, -48, 48, 2, 4, -24, -48], "withholdReward": false, "trial_id": "mdp_565165082781", "block": "test3", "trialIndex": 71, "score": -37.25, "costs": -0.25, "simulationMode": [null, null, null], "rewards": [2, 4, -48], "path": ["0", "0", "9", "10", "12"], "rt": [1644, 123, 10], "actions": ["left", "left", "down"], "actionTimes": [2614, 3248, 3770], "queries": {"click": {"state": {"target": ["3"], "time": [1742]}, "edge": {"target": [], "time": []}}, "mouseover": {"state": {"target": ["2", "3", "9"], "time": [1134, 1487, 2470]}, "edge": {"target": [], "time": []}}, "mouseout": {"state": {"target": ["0", "2", "3", "9", "10"], "time": [1088, 1161, 2003, 4774, 4874]}, "edge": {"target": [], "time": []}}}, "displayed_time": "9.97", "trialTime": 10721, "trial_type": "mouselab-mdp", "trial_index": 84, "time_elapsed": 1259015, "internal_node_id": "0.0-4.0-5.0-7.0"}}, {"uniqueid": "w20590658:a21634997", "current_trial": 85, "dateTime": 1664377372757, "trialdata": {"revealed_states": [], "num_clicks_accrued": [0, 0, 0, 0, 0, 0, 0, 0, 0, 0, 0, 0, 0], "stateRewards": ["", 2, -8, 48, -24, 2, 8, 24, -24, 4, -4, -48, -48], "withholdReward": false, "trial_id": "mdp_130946197263", "block": "test3", "trialIndex": 72, "score": 38.75, "costs": -0.25, "simulationMode": [null, null, null], "rewards": [2, 8, 24], "path": ["0", "0", "5", "6", "7"], "rt": [2016, 120, 138], "actions": ["right", "right", "up"], "actionTimes": [3030, 3673, 4332], "queries": {"click": {"state": {"target": ["4"], "time": [2057]}, "edge": {"target": [], "time": []}}, "mouseover": {"state": {"target": ["1", "4"], "time": [1332, 1520]}, "edge": {"target": [], "time": []}}, "mouseout": {"state": {"target": ["9", "1", "0", "1", "4", "1", "1"], "time": [250, 481, 1316, 1490, 2402, 5455, 5823]}, "edge": {"target": [], "time": []}}}, "displayed_time": "9.02", "trialTime": 9692, "trial_type": "mouselab-mdp", "trial_index": 85, "time_elapsed": 1269054, "internal_node_id": "0.0-4.0-5.0-8.0"}}, {"uniqueid": "w20590658:a21634997", "current_trial": 86, "dateTime": 1664377382630, "trialdata": {"revealed_states": [], "num_clicks_accrued": [0, 0, 0, 0, 0, 0, 0, 0, 0, 0, 0, 0, 0], "stateRewards": ["", -2, 4, 24, 48, 2, 4, -48, -48, 2, 8, 48, -48], "withholdReward": true, "trial_id": "mdp_409609775558", "block": "test3", "trialIndex": 73, "score": 55, "costs": 0, "simulationMode": [null, null, null], "rewards": [-2, 4, 48], "path": ["0", "0", "1", "2", "4"], "rt": [774, 102, 576], "actions": ["up", "up", "left"], "actionTimes": [1760, 2373, 3469], "queries": {"click": {"state": {"target": [], "time": []}, "edge": {"target": [], "time": []}}, "mouseover": {"state": {"target": ["1"], "time": [1221]}, "edge": {"target": [], "time": []}}, "mouseout": {"state": {"target": ["1"], "time": [348]}, "edge": {"target": [], "time": []}}}, "displayed_time": "8.99", "trialTime": 9535, "trial_type": "mouselab-mdp", "trial_index": 86, "time_elapsed": 1278927, "internal_node_id": "0.0-4.0-5.0-9.0"}}, {"uniqueid": "w20590658:a21634997", "current_trial": 87, "dateTime": 1664377392517, "trialdata": {"revealed_states": [], "num_clicks_accrued": [0, 0, 0, 0, 0, 0, 0, 0, 0, 0, 0, 0, 0], "stateRewards": ["", -4, -8, 48, -24, 4, -8, 48, 48, -2, 4, -48, -24], "withholdReward": true, "trial_id": "mdp_925905402462", "block": "test3", "trialIndex": 74, "score": 41, "costs": 0, "simulationMode": [null, null, null], "rewards": [-4, -8, 48], "path": ["0", "0", "1", "2", "3"], "rt": [342, 165, 439], "actions": ["up", "up", "right"], "actionTimes": [1236, 1913, 2869], "queries": {"click": {"state": {"target": [], "time": []}, "edge": {"target": [], "time": []}}, "mouseover": {"state": {"target": ["1"], "time": [1110]}, "edge": {"target": [], "time": []}}, "mouseout": {"state": {"target": ["1", "1", "1", "1"], "time": [395, 1143, 4465, 4913]}, "edge": {"target": [], "time": []}}}, "displayed_time": "8.89", "trialTime": 9551, "trial_type": "mouselab-mdp", "trial_index": 87, "time_elapsed": 1288814, "internal_node_id": "0.0-4.0-5.0-10.0"}}, {"uniqueid": "w20590658:a21634997", "current_trial": 88, "dateTime": 1664377403535, "trialdata": {"revealed_states": [], "num_clicks_accrued": [0, 0, 0, 0, 0, 0, 0, 0, 0, 0, 0, 0, 0], "stateRewards": ["", -2, 8, -48, 48, -4, 8, -24, 24, 4, -4, 24, -48], "withholdReward": true, "trial_id": "mdp_904238083902", "block": "test3", "trialIndex": 75, "score": -37.25, "costs": -0.25, "simulationMode": [null, null, null], "rewards": [-2, 8, -48], "path": ["0", "0", "1", "2", "3"], "rt": [1316, 358, 51], "actions": ["up", "up", "right"], "actionTimes": [3479, 4361, 4964], "queries": {"click": {"state": {"target": ["10"], "time": [3437]}, "edge": {"target": [], "time": []}}, "mouseover": {"state": {"target": ["9", "10"], "time": [2866, 3196]}, "edge": {"target": [], "time": []}}, "mouseout": {"state": {"target": ["1", "11", "10", "9", "0", "9", "10", "9", "10", "9"], "time": [359, 1390, 1475, 1509, 2845, 3161, 8669, 8986, 9538, 9955]}, "edge": {"target": [], "time": []}}}, "displayed_time": "10.16", "trialTime": 10723, "trial_type": "mouselab-mdp", "trial_index": 88, "time_elapsed": 1299833, "internal_node_id": "0.0-4.0-5.0-11.0"}}, {"uniqueid": "w20590658:a21634997", "current_trial": 89, "dateTime": 1664377415388, "trialdata": {"revealed_states": [], "num_clicks_accrued": [0, 0, 0, 0, 0, 0, 0, 0, 0, 0, 0, 0, 0], "stateRewards": ["", 4, -4, 48, -48, -4, -4, 48, -48, 4, 4, -48, -24], "withholdReward": true, "trial_id": "mdp_490058671112", "block": "test3", "trialIndex": 76, "score": 53, "costs": 0, "simulationMode": [null, null, null], "rewards": [4, -4, 48], "path": ["0", "0", "1", "2", "3"], "rt": [316, 109, 54], "actions": ["up", "up", "right"], "actionTimes": [1461, 2095, 2654], "queries": {"click": {"state": {"target": [], "time": []}, "edge": {"target": [], "time": []}}, "mouseover": {"state": {"target": [], "time": []}, "edge": {"target": [], "time": []}}, "mouseout": {"state": {"target": ["0"], "time": [1328]}, "edge": {"target": [], "time": []}}}, "displayed_time": "10.15", "trialTime": 11413, "trial_type": "mouselab-mdp", "trial_index": 89, "time_elapsed": 1311686, "internal_node_id": "0.0-4.0-5.0-12.0"}}, {"uniqueid": "w20590658:a21634997", "current_trial": 90, "dateTime": 1664377426696, "trialdata": {"revealed_states": [], "num_clicks_accrued": [0, 0, 0, 0, 0, 0, 0, 0, 0, 0, 0, 0, 0], "stateRewards": ["", 2, 8, -24, -48, -4, 8, -48, -48, -2, -8, -24, -24], "withholdReward": false, "trial_id": "mdp_978177451072", "block": "test3", "trialIndex": 77, "score": -39.25, "costs": -0.25, "simulationMode": [null, null, null], "rewards": [-4, 8, -48], "path": ["0", "0", "5", "6", "8"], "rt": [1909, 155, 40], "actions": ["right", "right", "down"], "actionTimes": [2978, 3655, 4208], "queries": {"click": {"state": {"target": ["3"], "time": [1950]}, "edge": {"target": [], "time": []}}, "mouseover": {"state": {"target": ["3"], "time": [1645]}, "edge": {"target": [], "time": []}}, "mouseout": {"state": {"target": ["0", "3", "1", "1", "1"], "time": [574, 2296, 5121, 5518, 5852]}, "edge": {"target": [], "time": []}}}, "displayed_time": "10.07", "trialTime": 11005, "trial_type": "mouselab-mdp", "trial_index": 90, "time_elapsed": 1322994, "internal_node_id": "0.0-4.0-5.0-13.0"}}, {"uniqueid": "w20590658:a21634997", "current_trial": 91, "dateTime": 1664377436862, "trialdata": {"revealed_states": [], "num_clicks_accrued": [0, 0, 0, 0, 0, 0, 0, 0, 0, 0, 0, 0, 0], "stateRewards": ["", 2, -4, -24, -24, -2, -8, -48, 24, -4, -8, 24, 24], "withholdReward": true, "trial_id": "mdp_521351546461", "block": "test3", "trialIndex": 78, "score": -21, "costs": 0, "simulationMode": [null, null, null], "rewards": [2, -4, -24], "path": ["0", "0", "1", "2", "3"], "rt": [171, 47, 199], "actions": ["up", "up", "right"], "actionTimes": [1434, 2066, 2765], "queries": {"click": {"state": {"target": [], "time": []}, "edge": {"target": [], "time": []}}, "mouseover": {"state": {"target": [], "time": []}, "edge": {"target": [], "time": []}}, "mouseout": {"state": {"target": ["0", "0", "0"], "time": [813, 3469, 3781]}, "edge": {"target": [], "time": []}}}, "displayed_time": "9.27", "trialTime": 9838, "trial_type": "mouselab-mdp", "trial_index": 91, "time_elapsed": 1333160, "internal_node_id": "0.0-4.0-5.0-14.0"}}, {"uniqueid": "w20590658:a21634997", "current_trial": 92, "dateTime": 1664377446967, "trialdata": {"revealed_states": [], "num_clicks_accrued": [0, 0, 0, 0, 0, 0, 0, 0, 0, 0, 0, 0, 0], "stateRewards": ["", 2, 8, 48, -48, -2, -4, -24, 24, 4, -4, 48, -48], "withholdReward": true, "trial_id": "mdp_105734044587", "block": "test3", "trialIndex": 79, "score": 62.75, "costs": -0.25, "simulationMode": [null, null, null], "rewards": [2, 8, 48], "path": ["0", "0", "1", "2", "3"], "rt": [2148, 124, 51], "actions": ["up", "up", "right"], "actionTimes": [3079, 3719, 4280], "queries": {"click": {"state": {"target": ["4"], "time": [1623]}, "edge": {"target": [], "time": []}}, "mouseover": {"state": {"target": ["4"], "time": [1387]}, "edge": {"target": [], "time": []}}, "mouseout": {"state": {"target": ["0", "4", "1", "0", "0", "0"], "time": [1048, 1973, 5228, 7514, 8430, 9433]}, "edge": {"target": [], "time": []}}}, "displayed_time": "8.93", "trialTime": 9755, "trial_type": "mouselab-mdp", "trial_index": 92, "time_elapsed": 1343264, "internal_node_id": "0.0-4.0-5.0-15.0"}}, {"uniqueid": "w20590658:a21634997", "current_trial": 93, "dateTime": 1664377457156, "trialdata": {"revealed_states": [], "num_clicks_accrued": [0, 0, 0, 0, 0, 0, 0, 0, 0, 0, 0, 0, 0], "stateRewards": ["", -2, 8, 48, 48, 4, -8, -48, 48, 2, -4, -48, 48], "withholdReward": true, "trial_id": "mdp_132958048709", "block": "test3", "trialIndex": 80, "score": -45.25, "costs": -0.25, "simulationMode": [null, null, null], "rewards": [2, -4, -48], "path": ["0", "0", "9", "10", "11"], "rt": [2184, 150, 17], "actions": ["left", "left", "up"], "actionTimes": [3104, 3775, 4311], "queries": {"click": {"state": {"target": ["6"], "time": [2289]}, "edge": {"target": [], "time": []}}, "mouseover": {"state": {"target": ["5", "6", "5", "0"], "time": [1654, 1988, 2638, 2972]}, "edge": {"target": [], "time": []}}, "mouseout": {"state": {"target": ["5", "6", "5", "0", "9", "9", "0", "0", "0", "0"], "time": [1687, 2604, 2657, 3038, 5294, 5728, 5749, 6078, 6577, 9397]}, "edge": {"target": [], "time": []}}}, "displayed_time": "8.92", "trialTime": 9862, "trial_type": "mouselab-mdp", "trial_index": 93, "time_elapsed": 1353454, "internal_node_id": "0.0-4.0-5.0-16.0"}}, {"uniqueid": "w20590658:a21634997", "current_trial": 94, "dateTime": 1664377467961, "trialdata": {"revealed_states": [], "num_clicks_accrued": [0, 0, 0, 0, 0, 0, 0, 0, 0, 0, 0, 0, 0], "stateRewards": ["", 4, -4, 48, -48, -2, -8, -24, 48, -2, 4, 24, -24], "withholdReward": true, "trial_id": "mdp_507290896735", "block": "test3", "trialIndex": 81, "score": 52.75, "costs": -0.25, "simulationMode": [null, null, null], "rewards": [4, -4, 48], "path": ["0", "0", "1", "2", "3"], "rt": [1211, 27, 61], "actions": ["up", "up", "right"], "actionTimes": [2220, 2769, 3353], "queries": {"click": {"state": {"target": ["3"], "time": [1755]}, "edge": {"target": [], "time": []}}, "mouseover": {"state": {"target": ["1", "3"], "time": [1146, 1485]}, "edge": {"target": [], "time": []}}, "mouseout": {"state": {"target": ["0", "1", "3"], "time": [1129, 1167, 2037]}, "edge": {"target": [], "time": []}}}, "displayed_time": "9.01", "trialTime": 10435, "trial_type": "mouselab-mdp", "trial_index": 94, "time_elapsed": 1364259, "internal_node_id": "0.0-4.0-5.0-17.0"}}, {"uniqueid": "w20590658:a21634997", "current_trial": 95, "dateTime": 1664377482959, "trialdata": {"revealed_states": [], "num_clicks_accrued": [0, 0, 0, 0, 0, 0, 0, 0, 0, 0, 0, 0, 0], "stateRewards": ["", -4, -4, -48, 48, -4, -8, -24, -48, -2, 8, 48, 24], "withholdReward": true, "trial_id": "mdp_365393526663", "block": "test3", "trialIndex": 82, "score": 44.75, "costs": -0.25, "simulationMode": [null, null, null], "rewards": [-4, -4, 48], "path": ["0", "0", "1", "2", "4"], "rt": [3527, 40, 67], "actions": ["up", "up", "left"], "actionTimes": [4416, 4968, 5546], "queries": {"click": {"state": {"target": ["4"], "time": [1764]}, "edge": {"target": [], "time": []}}, "mouseover": {"state": {"target": ["1", "4"], "time": [1038, 1359]}, "edge": {"target": [], "time": []}}, "mouseout": {"state": {"target": ["1", "1", "4"], "time": [301, 1091, 14382]}, "edge": {"target": [], "time": []}}}, "displayed_time": "9.89", "trialTime": 14636, "trial_type": "mouselab-mdp", "trial_index": 95, "time_elapsed": 1379257, "internal_node_id": "0.0-4.0-5.0-18.0"}}, {"uniqueid": "w20590658:a21634997", "current_trial": 96, "dateTime": 1664377493250, "trialdata": {"revealed_states": [], "num_clicks_accrued": [0, 0, 0, 0, 0, 0, 0, 0, 0, 0, 0, 0, 0], "stateRewards": ["", -2, 4, -48, -48, -4, -8, 48, -48, 2, 4, 48, -48], "withholdReward": false, "trial_id": "mdp_258647270500", "block": "test3", "trialIndex": 83, "score": -41.25, "costs": -0.25, "simulationMode": [null, null, null], "rewards": [-2, 4, -48], "path": ["0", "0", "1", "2", "3"], "rt": [1496, 451, 29], "actions": ["up", "up", "right"], "actionTimes": [2562, 3531, 4076], "queries": {"click": {"state": {"target": ["8"], "time": [1708]}, "edge": {"target": [], "time": []}}, "mouseover": {"state": {"target": ["8", "0"], "time": [1425, 2258]}, "edge": {"target": [], "time": []}}, "mouseout": {"state": {"target": ["2", "1", "0", "8", "0", "9"], "time": [125, 372, 1124, 1949, 2277, 5296]}, "edge": {"target": [], "time": []}}}, "displayed_time": "9.07", "trialTime": 9844, "trial_type": "mouselab-mdp", "trial_index": 96, "time_elapsed": 1389547, "internal_node_id": "0.0-4.0-5.0-19.0"}}, {"uniqueid": "w20590658:a21634997", "current_trial": 97, "dateTime": 1664377504731, "trialdata": {"revealed_states": [], "num_clicks_accrued": [0, 0, 0, 0, 0, 0, 0, 0, 0, 0, 0, 0, 0], "stateRewards": ["", 2, -8, 48, -24, 2, -4, 24, 48, 4, -4, 48, -24], "withholdReward": true, "trial_id": "mdp_656500928756", "block": "test3", "trialIndex": 84, "score": 52.75, "costs": -0.25, "simulationMode": [null, null, null], "rewards": [4, -4, 48], "path": ["0", "0", "9", "10", "11"], "rt": [1465, 89, 97], "actions": ["left", "left", "up"], "actionTimes": [2894, 3591, 4196], "queries": {"click": {"state": {"target": ["11"], "time": [2461]}, "edge": {"target": [], "time": []}}, "mouseover": {"state": {"target": ["9", "11", "11"], "time": [1643, 1893, 2216]}, "edge": {"target": [], "time": []}}, "mouseout": {"state": {"target": ["9", "9", "11"], "time": [640, 1680, 2131]}, "edge": {"target": [], "time": []}}}, "displayed_time": "10.43", "trialTime": 11112, "trial_type": "mouselab-mdp", "trial_index": 97, "time_elapsed": 1401029, "internal_node_id": "0.0-4.0-5.0-20.0"}}, {"uniqueid": "w20590658:a21634997", "current_trial": 98, "dateTime": 1664377514821, "trialdata": {"revealed_states": [], "num_clicks_accrued": [0, 0, 0, 0, 0, 0, 0, 0, 0, 0, 0, 0, 0], "stateRewards": ["", 4, 8, -24, 48, -2, -4, 24, -24, -2, 4, 24, 24], "withholdReward": true, "trial_id": "mdp_948713805479", "block": "test3", "trialIndex": 85, "score": 64.75, "costs": -0.25, "simulationMode": [null, null, null], "rewards": [4, 8, 48], "path": ["0", "0", "1", "2", "4"], "rt": [1316, 79, 17], "actions": ["up", "up", "left"], "actionTimes": [2355, 2955, 3496], "queries": {"click": {"state": {"target": ["4"], "time": [1887]}, "edge": {"target": [], "time": []}}, "mouseover": {"state": {"target": ["2", "4", "1"], "time": [1387, 1670, 2258]}, "edge": {"target": [], "time": []}}, "mouseout": {"state": {"target": ["11", "0", "2", "4", "1"], "time": [229, 1130, 1453, 2239, 2278]}, "edge": {"target": [], "time": []}}}, "displayed_time": "9.04", "trialTime": 9714, "trial_type": "mouselab-mdp", "trial_index": 98, "time_elapsed": 1411117, "internal_node_id": "0.0-4.0-5.0-21.0"}}, {"uniqueid": "w20590658:a21634997", "current_trial": 99, "dateTime": 1664377523799, "trialdata": {"revealed_states": [], "num_clicks_accrued": [0, 0, 0, 0, 0, 0, 0, 0, 0, 0, 0, 0, 0], "stateRewards": ["", 2, 4, 24, 48, -2, 8, 24, -24, -4, -4, 48, 48], "withholdReward": true, "trial_id": "mdp_753439303214", "block": "test3", "trialIndex": 86, "score": 34.75, "costs": -0.25, "simulationMode": [null, null, null], "rewards": [2, 4, 24], "path": ["0", "0", "1", "2", "3"], "rt": [1446, 175, 512], "actions": ["up", "up", "right"], "actionTimes": [2327, 3008, 4029], "queries": {"click": {"state": {"target": ["3"], "time": [1613]}, "edge": {"target": [], "time": []}}, "mouseover": {"state": {"target": ["3"], "time": [1345]}, "edge": {"target": [], "time": []}}, "mouseout": {"state": {"target": ["3"], "time": [1945]}, "edge": {"target": [], "time": []}}}, "displayed_time": "7.88", "trialTime": 8604, "trial_type": "mouselab-mdp", "trial_index": 99, "time_elapsed": 1420096, "internal_node_id": "0.0-4.0-5.0-22.0"}}, {"uniqueid": "w20590658:a21634997", "current_trial": 100, "dateTime": 1664377534114, "trialdata": {"revealed_states": [], "num_clicks_accrued": [0, 0, 0, 0, 0, 0, 0, 0, 0, 0, 0, 0, 0], "stateRewards": ["", -4, -8, -24, 24, 4, 4, -48, -48, -4, -4