{"condition": 1, "counterbalance": 0, "assignmentId": "a73495764", "workerId": "w91134540", "hitId": "h44513606", "currenttrial": 136, "bonus": 0, "data": [{"uniqueid": "w91134540:a73495764", "current_trial": 0, "dateTime": 1664555096161, "trialdata": {"success": true, "trial_type": "fullscreen", "trial_index": 0, "time_elapsed": 3720, "internal_node_id": "0.0-0.0"}}, {"uniqueid": "w91134540:a73495764", "current_trial": 1, "dateTime": 1664555128740, "trialdata": {"view_history": [{"page_index": 0, "viewing_time": 32570}], "rt": 32572, "trial_id": "exp_instructions_no_distractor", "trial_type": "instructions", "trial_index": 1, "time_elapsed": 36300, "internal_node_id": "0.0-1.0"}}, {"uniqueid": "w91134540:a73495764", "current_trial": 2, "dateTime": 1664555137440, "trialdata": {"success": true, "trial_type": "fullscreen", "trial_index": 2, "time_elapsed": 44999, "internal_node_id": "0.0-2.0-0.0"}}, {"uniqueid": "w91134540:a73495764", "current_trial": 3, "dateTime": 1664555415666, "trialdata": {"view_history": [{"page_index": 0, "viewing_time": 96032}, {"page_index": 1, "viewing_time": 35430}, {"page_index": 2, "viewing_time": 119240}, {"page_index": 3, "viewing_time": 10481}, {"page_index": 4, "viewing_time": 17040}], "rt": 278224, "trial_id": "mouselab_instructions_1", "trial_type": "instructions", "trial_index": 3, "time_elapsed": 323226, "internal_node_id": "0.0-2.0-1.0"}}, {"uniqueid": "w91134540:a73495764", "current_trial": 4, "dateTime": 1664555449966, "trialdata": {"revealed_states": [], "num_clicks_accrued": [0, 0, 0, 0, 0, 0, 0, 0, 0, 0, 0, 0, 0], "stateRewards": ["", -10, 10, -10, 10, -10, 10, -10, -10, 10, -10, 10, -10], "withholdReward": false, "trial_id": "practice_1", "block": "test", "trialIndex": 0, "score": -8.5, "costs": -0.5, "simulationMode": [null, null, null], "rewards": [10, -10, -10], "path": ["0", "0", "9", "10", "12"], "rt": [22280, 2242, 1167], "actions": ["left", "left", "down"], "actionTimes": [23434, 26168, 27826], "queries": {"click": {"state": {"target": ["1", "5"], "time": [9495, 18962]}, "edge": {"target": [], "time": []}}, "mouseover": {"state": {"target": ["5", "8", "0", "9", "1", "5", "0", "2", "0", "5", "6", "8", "5", "0", "5", "6", "5", "0", "9"], "time": [1942, 8726, 8775, 8808, 9126, 11275, 11360, 12175, 12808, 13542, 13843, 17309, 17776, 17926, 18109, 18308, 18607, 19842, 20009]}, "edge": {"target": [], "time": []}}, "mouseout": {"state": {"target": ["0", "5", "8", "0", "9", "1", "5", "0", "1", "2", "1", "0", "5", "6", "8", "5", "0", "5", "6", "5", "0"], "time": [1112, 1957, 8740, 8790, 9009, 10276, 11325, 11391, 12142, 12675, 12725, 13408, 13658, 17226, 17626, 17859, 18060, 18159, 18559, 19809, 19910]}, "edge": {"target": [], "time": []}}}, "displayed_time": "28.32", "trialTime": 30998, "trial_type": "mouselab-mdp", "trial_index": 4, "time_elapsed": 357525, "internal_node_id": "0.0-2.0-2.0-0.0"}}, {"uniqueid": "w91134540:a73495764", "current_trial": 5, "dateTime": 1664555469513, "trialdata": {"revealed_states": [], "num_clicks_accrued": [0, 0, 0, 0, 0, 0, 0, 0, 0, 0, 0, 0, 0], "stateRewards": ["", 10, 10, 10, -10, 10, 10, 10, 10, 10, 10, 10, 10], "withholdReward": false, "trial_id": "practice_2", "block": "test", "trialIndex": 1, "score": 31.5, "costs": -0.5, "simulationMode": [null, null, null], "rewards": [10, 10, 10], "path": ["0", "0", "1", "2", "3"], "rt": [7608, 616, 2133], "actions": ["up", "up", "right"], "actionTimes": [9715, 10822, 13456], "queries": {"click": {"state": {"target": ["1", "2"], "time": [5961, 8743]}, "edge": {"target": [], "time": []}}, "mouseover": {"state": {"target": ["5", "6", "5", "1", "2", "1", "3", "2", "3"], "time": [2474, 4007, 4056, 4990, 5474, 5807, 8007, 8440, 9073]}, "edge": {"target": [], "time": []}}, "mouseout": {"state": {"target": ["9", "5", "6", "5", "1", "2", "1", "3", "2", "3"], "time": [1574, 2489, 4022, 4157, 5391, 5741, 6406, 8407, 9056, 9089]}, "edge": {"target": [], "time": []}}}, "displayed_time": "13.96", "trialTime": 19511, "trial_type": "mouselab-mdp", "trial_index": 5, "time_elapsed": 377072, "internal_node_id": "0.0-2.0-2.0-1.0"}}, {"uniqueid": "w91134540:a73495764", "current_trial": 6, "dateTime": 1664555515613, "trialdata": {"view_history": [{"page_index": 0, "viewing_time": 29492}, {"page_index": 1, "viewing_time": 11504}, {"page_index": 2, "viewing_time": 5099}], "rt": 46095, "trial_id": "mouselab_instructions_2_scarce", "trial_type": "instructions", "trial_index": 6, "time_elapsed": 423173, "internal_node_id": "0.0-2.0-3.0"}}, {"uniqueid": "w91134540:a73495764", "current_trial": 7, "dateTime": 1664555574951, "trialdata": {"rt": 59330, "response": {"Q0": "$-48 to $48", "Q1": "The cost is always $0.25.", "Q2": "The better I perform the higher my bonus will be.", "Q3": "No, the amount of cash at each node of the web may be different each time.", "Q4": "The values of the nodes walked through from start to finish.", "Q5": "No, the spider might forget to count the money on some rounds."}, "question_order": [0, 1, 2, 3, 4, 5], "correct": {"Q0": "$-48 to $48", "Q1": "The cost is always $0.25.", "Q2": "The better I perform the higher my bonus will be.", "Q3": "No, the amount of cash at each node of the web may be different each time.", "Q4": "The values of the nodes walked through from start to finish.", "Q5": "No, the spider might forget to count the money on some rounds."}, "trial_id": "mouselab_quiz_scarce", "trial_type": "survey-multi-choice", "trial_index": 7, "time_elapsed": 482510, "internal_node_id": "0.0-2.0-4.0"}}, {"uniqueid": "w91134540:a73495764", "current_trial": 8, "dateTime": 1664555580351, "trialdata": {"rt": 5385, "stimulus": "\n<h1> Get ready to start the game! </h1>\n\nThank you for reading the instructions. Get ready start with the first of 4 block(s) of this game.\n<br><br>\nIn this first block, you will complete 30 rounds of this game before moving on.\n<br><br>\nRemember, the more money the spider gets, the bigger your bonus will be!\n<br><br>\n<div style='text-align: center;'>Press <code>space</code> to begin.</div>\n\n<br><br>\n(If, at any point, the <code>space</code> key does not take you to the next page, click once on the text and try again.)", "response": " ", "trial_id": "mdp_ready_1", "trial_type": "html-keyboard-response", "trial_index": 8, "time_elapsed": 487911, "internal_node_id": "0.0-4.0-0.0"}}, {"uniqueid": "w91134540:a73495764", "current_trial": 9, "dateTime": 1664555604223, "trialdata": {"revealed_states": [], "num_clicks_accrued": [0, 0, 0, 0, 0, 0, 0, 0, 0, 0, 0, 0, 0], "stateRewards": ["", -2, 4, -24, 48, 4, -8, 48, -48, 2, -8, 48, 24], "withholdReward": true, "trial_id": "mdp_501111216502", "block": "test1", "trialIndex": 2, "score": 48.75, "costs": -0.25, "simulationMode": [null, null, null], "rewards": [4, -8, 48], "path": ["0", "0", "5", "6", "7"], "rt": [12973, 5415, 351], "actions": ["right", "right", "up"], "actionTimes": [15171, 21081, 21936], "queries": {"click": {"state": {"target": ["5"], "time": [13172]}, "edge": {"target": [], "time": []}}, "mouseover": {"state": {"target": ["5", "6", "5", "0", "0", "5", "1", "5", "6", "5", "8"], "time": [2767, 6002, 7467, 7534, 7734, 8085, 9168, 10101, 10367, 11134, 14633]}, "edge": {"target": [], "time": []}}, "mouseout": {"state": {"target": ["0", "5", "6", "5", "0", "0", "5", "1", "5", "6", "5", "8", "8"], "time": [2752, 2799, 7436, 7500, 7618, 7818, 9002, 9234, 10184, 11052, 14618, 14650, 20517]}, "edge": {"target": [], "time": []}}}, "displayed_time": "22.43", "trialTime": 23829, "trial_type": "mouselab-mdp", "trial_index": 9, "time_elapsed": 511782, "internal_node_id": "0.0-4.0-1.0-0.0"}}, {"uniqueid": "w91134540:a73495764", "current_trial": 10, "dateTime": 1664555618263, "trialdata": {"revealed_states": [], "num_clicks_accrued": [0, 0, 0, 0, 0, 0, 0, 0, 0, 0, 0, 0, 0], "stateRewards": ["", 4, -4, 24, 48, 4, 8, -24, -24, -2, 4, 48, 48], "withholdReward": true, "trial_id": "mdp_624998450453", "block": "test1", "trialIndex": 3, "score": 28.5, "costs": -0.5, "simulationMode": [null, null, null], "rewards": [4, -4, 24], "path": ["0", "0", "1", "2", "3"], "rt": [8215, 178, 192], "actions": ["up", "up", "right"], "actionTimes": [10977, 11646, 12341], "queries": {"click": {"state": {"target": ["3", "1"], "time": [6602, 8737]}, "edge": {"target": [], "time": []}}, "mouseover": {"state": {"target": ["5", "6", "5", "7", "3", "1"], "time": [3382, 3449, 4533, 4934, 6382, 8216]}, "edge": {"target": [], "time": []}}, "mouseout": {"state": {"target": ["8", "10", "9", "5", "6", "5", "7", "3", "1"], "time": [2083, 2299, 2383, 3433, 4284, 4733, 5934, 8068, 10217]}, "edge": {"target": [], "time": []}}}, "displayed_time": "12.83", "trialTime": 14002, "trial_type": "mouselab-mdp", "trial_index": 10, "time_elapsed": 525822, "internal_node_id": "0.0-4.0-1.0-1.0"}}, {"uniqueid": "w91134540:a73495764", "current_trial": 11, "dateTime": 1664555631328, "trialdata": {"revealed_states": [], "num_clicks_accrued": [0, 0, 0, 0, 0, 0, 0, 0, 0, 0, 0, 0, 0], "stateRewards": ["", -4, 4, -48, -48, -4, 8, -24, 24, 2, -4, 48, 48], "withholdReward": true, "trial_id": "mdp_821566905048", "block": "test1", "trialIndex": 4, "score": 50.5, "costs": -0.5, "simulationMode": [null, null, null], "rewards": [2, -4, 48], "path": ["0", "0", "9", "10", "12"], "rt": [5098, 124, 221], "actions": ["left", "left", "down"], "actionTimes": [7905, 8518, 9232], "queries": {"click": {"state": {"target": ["12", "9"], "time": [4930, 6214]}, "edge": {"target": [], "time": []}}, "mouseover": {"state": {"target": ["5", "6", "8", "10", "12", "10", "9"], "time": [3195, 3227, 3846, 4312, 4728, 5645, 6028]}, "edge": {"target": [], "time": []}}, "mouseout": {"state": {"target": ["8", "5", "5", "6", "8", "10", "12", "10", "9"], "time": [2378, 2426, 3210, 3243, 3859, 4694, 5461, 5794, 6794]}, "edge": {"target": [], "time": []}}}, "displayed_time": "10.81", "trialTime": 13028, "trial_type": "mouselab-mdp", "trial_index": 11, "time_elapsed": 538888, "internal_node_id": "0.0-4.0-1.0-2.0"}}, {"uniqueid": "w91134540:a73495764", "current_trial": 12, "dateTime": 1664555645557, "trialdata": {"revealed_states": [], "num_clicks_accrued": [0, 0, 0, 0, 0, 0, 0, 0, 0, 0, 0, 0, 0], "stateRewards": ["", 2, -8, 48, -24, 2, -4, 24, 48, 4, -4, 48, -24], "withholdReward": true, "trial_id": "mdp_656500928756", "block": "test1", "trialIndex": 5, "score": 26.25, "costs": -0.75, "simulationMode": [null, null, null], "rewards": [2, -4, 24], "path": ["0", "0", "5", "6", "7"], "rt": [9487, 147, 239], "actions": ["right", "right", "up"], "actionTimes": [11230, 11874, 12616], "queries": {"click": {"state": {"target": ["4", "7", "5"], "time": [6667, 8665, 10364]}, "edge": {"target": [], "time": []}}, "mouseover": {"state": {"target": ["5", "9", "1", "1", "4", "2", "7", "7", "6", "5", "6"], "time": [2944, 4128, 5294, 5728, 6377, 7995, 8112, 8377, 9326, 9478, 10777]}, "edge": {"target": [], "time": []}}, "mouseout": {"state": {"target": ["0", "5", "9", "1", "1", "4", "2", "7", "7", "6", "5"], "time": [2928, 2960, 4778, 5343, 5761, 7762, 8045, 8126, 9277, 9393, 10727]}, "edge": {"target": [], "time": []}}}, "displayed_time": "13.11", "trialTime": 14190, "trial_type": "mouselab-mdp", "trial_index": 12, "time_elapsed": 553117, "internal_node_id": "0.0-4.0-1.0-3.0"}}, {"uniqueid": "w91134540:a73495764", "current_trial": 13, "dateTime": 1664555692890, "trialdata": {"revealed_states": [], "num_clicks_accrued": [0, 0, 0, 0, 0, 0, 0, 0, 0, 0, 0, 0, 0], "stateRewards": ["", -4, 8, -48, -48, -2, -8, -24, -48, 2, -4, -48, 24], "withholdReward": false, "trial_id": "mdp_743906784415", "block": "test1", "trialIndex": 6, "score": 26.25, "costs": -0.75, "simulationMode": [null, null, null], "rewards": [2, -4, 24], "path": ["0", "0", "9", "10", "12"], "rt": [5534, 108, 137], "actions": ["left", "left", "down"], "actionTimes": [9432, 10037, 10667], "queries": {"click": {"state": {"target": ["9", "11", "12"], "time": [5683, 6866, 8401]}, "edge": {"target": [], "time": []}}, "mouseover": {"state": {"target": ["0", "0", "9", "9", "10", "11", "10", "12", "5"], "time": [4297, 4880, 4946, 5246, 6581, 6696, 7395, 7514, 9014]}, "edge": {"target": [], "time": []}}, "mouseout": {"state": {"target": ["6", "5", "0", "0", "0", "9", "9", "10", "11", "10", "12", "5"], "time": [3513, 3563, 3745, 4613, 4912, 4996, 6264, 6630, 7365, 7446, 8929, 9030]}, "edge": {"target": [], "time": []}}}, "displayed_time": "12.90", "trialTime": 47293, "trial_type": "mouselab-mdp", "trial_index": 13, "time_elapsed": 600450, "internal_node_id": "0.0-4.0-1.0-4.0"}}, {"uniqueid": "w91134540:a73495764", "current_trial": 14, "dateTime": 1664555704880, "trialdata": {"revealed_states": [], "num_clicks_accrued": [0, 0, 0, 0, 0, 0, 0, 0, 0, 0, 0, 0, 0], "stateRewards": ["", 2, -4, 24, 24, 4, -4, -24, 24, -4, -4, 48, 48], "withholdReward": true, "trial_id": "mdp_566306223773", "block": "test1", "trialIndex": 7, "score": 28.75, "costs": -0.25, "simulationMode": [null, null, null], "rewards": [4, -4, 24], "path": ["0", "0", "5", "6", "8"], "rt": [4135, 219, 284], "actions": ["right", "right", "down"], "actionTimes": [5460, 6181, 6963], "queries": {"click": {"state": {"target": ["8"], "time": [3831]}, "edge": {"target": [], "time": []}}, "mouseover": {"state": {"target": ["5", "6", "8", "5"], "time": [1894, 1930, 2812, 4379]}, "edge": {"target": [], "time": []}}, "mouseout": {"state": {"target": ["5", "0", "5", "6", "8"], "time": [745, 1863, 1929, 1945, 4313]}, "edge": {"target": [], "time": []}}}, "displayed_time": "10.33", "trialTime": 11947, "trial_type": "mouselab-mdp", "trial_index": 14, "time_elapsed": 612440, "internal_node_id": "0.0-4.0-1.0-5.0"}}, {"uniqueid": "w91134540:a73495764", "current_trial": 15, "dateTime": 1664555717769, "trialdata": {"revealed_states": [], "num_clicks_accrued": [0, 0, 0, 0, 0, 0, 0, 0, 0, 0, 0, 0, 0], "stateRewards": ["", -4, 8, 24, -24, 4, -8, -24, -24, -2, 8, -48, 24], "withholdReward": true, "trial_id": "mdp_240302100183", "block": "test1", "trialIndex": 8, "score": 32, "costs": -1, "simulationMode": [null, null, null], "rewards": [-4, 8, 24], "path": ["0", "0", "1", "2", "3"], "rt": [9203, 42, 123], "actions": ["up", "up", "right"], "actionTimes": [10749, 11283, 11900], "queries": {"click": {"state": {"target": ["5", "6", "8", "7"], "time": [2527, 4961, 6443, 7943]}, "edge": {"target": [], "time": []}}, "mouseover": {"state": {"target": ["5", "5", "6", "8", "6", "8", "7", "1", "2", "3"], "time": [1974, 2425, 3774, 4140, 4674, 6141, 7757, 9041, 9206, 9942]}, "edge": {"target": [], "time": []}}, "mouseout": {"state": {"target": ["5", "0", "5", "5", "6", "8", "6", "8", "7", "1", "2", "3"], "time": [707, 756, 2023, 3607, 4091, 4643, 5507, 6741, 8907, 9089, 9625, 9955]}, "edge": {"target": [], "time": []}}}, "displayed_time": "12.39", "trialTime": 12847, "trial_type": "mouselab-mdp", "trial_index": 15, "time_elapsed": 625329, "internal_node_id": "0.0-4.0-1.0-6.0"}}, {"uniqueid": "w91134540:a73495764", "current_trial": 16, "dateTime": 1664555742203, "trialdata": {"revealed_states": [], "num_clicks_accrued": [0, 0, 0, 0, 0, 0, 0, 0, 0, 0, 0, 0, 0], "stateRewards": ["", 2, -8, 48, -24, -4, -8, -24, 48, -2, 4, 24, -48], "withholdReward": false, "trial_id": "mdp_186932504904", "block": "test1", "trialIndex": 9, "score": 46.5, "costs": -0.5, "simulationMode": [null, null, null], "rewards": [2, -8, 48], "path": ["0", "0", "1", "2", "3"], "rt": [4224, 78, 226], "actions": ["up", "up", "right"], "actionTimes": [18325, 18899, 19616], "queries": {"click": {"state": {"target": ["1", "3"], "time": [16408, 17408]}, "edge": {"target": [], "time": []}}, "mouseover": {"state": {"target": ["1", "1", "2", "3", "2"], "time": [14687, 16154, 16838, 17238, 17838]}, "edge": {"target": [], "time": []}}, "mouseout": {"state": {"target": ["1", "1", "2", "3", "2"], "time": [14773, 16772, 17187, 17755, 17937]}, "edge": {"target": [], "time": []}}}, "displayed_time": "23.11", "trialTime": 24396, "trial_type": "mouselab-mdp", "trial_index": 16, "time_elapsed": 649763, "internal_node_id": "0.0-4.0-1.0-7.0"}}, {"uniqueid": "w91134540:a73495764", "current_trial": 17, "dateTime": 1664555757188, "trialdata": {"revealed_states": [], "num_clicks_accrued": [0, 0, 0, 0, 0, 0, 0, 0, 0, 0, 0, 0, 0], "stateRewards": ["", -2, 8, -48, -24, -2, 8, 48, -48, -4, 8, 24, 48], "withholdReward": true, "trial_id": "mdp_160707003673", "block": "test1", "trialIndex": 10, "score": 55.5, "costs": -1.5, "simulationMode": [null, null, null], "rewards": [-4, 8, 48], "path": ["0", "0", "9", "10", "12"], "rt": [9376, 165, 153], "actions": ["left", "left", "down"], "actionTimes": [11807, 12465, 13119], "queries": {"click": {"state": {"target": ["9", "1", "5", "8", "3", "12"], "time": [3571, 5654, 7004, 8170, 9453, 10655]}, "edge": {"target": [], "time": []}}, "mouseover": {"state": {"target": ["5", "6", "5", "0", "9", "1", "1", "5", "6", "8", "3", "3", "3", "2", "4", "12"], "time": [2786, 2833, 3100, 3133, 3183, 4718, 5484, 6567, 7617, 7833, 8768, 9018, 9268, 9884, 9967, 10418]}, "edge": {"target": [], "time": []}}, "mouseout": {"state": {"target": ["1", "5", "6", "5", "0", "9", "1", "1", "5", "6", "8", "5", "3", "3", "3", "2", "4", "12"], "time": [2135, 2817, 3084, 3117, 3150, 4618, 4851, 6018, 7568, 7785, 8585, 8651, 8903, 9033, 9850, 9934, 10000, 11452]}, "edge": {"target": [], "time": []}}}, "displayed_time": "13.62", "trialTime": 14943, "trial_type": "mouselab-mdp", "trial_index": 17, "time_elapsed": 664748, "internal_node_id": "0.0-4.0-1.0-8.0"}}, {"uniqueid": "w91134540:a73495764", "current_trial": 18, "dateTime": 1664555770002, "trialdata": {"revealed_states": [], "num_clicks_accrued": [0, 0, 0, 0, 0, 0, 0, 0, 0, 0, 0, 0, 0], "stateRewards": ["", -4, 4, 48, 24, -4, 4, -24, 48, -2, -8, 24, -48], "withholdReward": true, "trial_id": "mdp_261501605436", "block": "test1", "trialIndex": 11, "score": 52.25, "costs": -0.75, "simulationMode": [null, null, null], "rewards": [-4, 4, 48], "path": ["0", "0", "1", "2", "3"], "rt": [4899, 682, 68], "actions": ["up", "up", "right"], "actionTimes": [8117, 9301, 9872], "queries": {"click": {"state": {"target": ["5", "2", "3"], "time": [5106, 6273, 7305]}, "edge": {"target": [], "time": []}}, "mouseover": {"state": {"target": ["5", "1", "2", "3", "7"], "time": [4802, 5704, 6020, 7120, 7736]}, "edge": {"target": [], "time": []}}, "mouseout": {"state": {"target": ["0", "5", "1", "2", "3", "7", "0"], "time": [4771, 5504, 5954, 7088, 7687, 11937, 12452]}, "edge": {"target": [], "time": []}}}, "displayed_time": "12.22", "trialTime": 12777, "trial_type": "mouselab-mdp", "trial_index": 18, "time_elapsed": 677562, "internal_node_id": "0.0-4.0-1.0-9.0"}}, {"uniqueid": "w91134540:a73495764", "current_trial": 19, "dateTime": 1664555780814, "trialdata": {"revealed_states": [], "num_clicks_accrued": [0, 0, 0, 0, 0, 0, 0, 0, 0, 0, 0, 0, 0], "stateRewards": ["", -2, 8, 48, 48, 2, 4, -48, 24, -4, -8, 48, 24], "withholdReward": true, "trial_id": "mdp_572910394648", "block": "test1", "trialIndex": 12, "score": 16.5, "costs": -0.5, "simulationMode": [null, null, null], "rewards": [-4, -8, 24], "path": ["0", "0", "9", "10", "12"], "rt": [6121, 76, 99], "actions": ["left", "left", "down"], "actionTimes": [7105, 7678, 8270], "queries": {"click": {"state": {"target": ["10", "12"], "time": [3056, 3738]}, "edge": {"target": [], "time": []}}, "mouseover": {"state": {"target": ["1", "9", "10", "12"], "time": [2135, 2668, 2885, 3568]}, "edge": {"target": [], "time": []}}, "mouseout": {"state": {"target": ["0", "1", "9", "10", "12", "10"], "time": [2035, 2523, 2684, 3519, 4054, 4118]}, "edge": {"target": [], "time": []}}}, "displayed_time": "8.99", "trialTime": 10770, "trial_type": "mouselab-mdp", "trial_index": 19, "time_elapsed": 688374, "internal_node_id": "0.0-4.0-1.0-10.0"}}, {"uniqueid": "w91134540:a73495764", "current_trial": 20, "dateTime": 1664555818184, "trialdata": {"revealed_states": [], "num_clicks_accrued": [0, 0, 0, 0, 0, 0, 0, 0, 0, 0, 0, 0, 0], "stateRewards": ["", -2, 8, 24, -48, -2, -4, 24, 48, 2, 8, -48, -48], "withholdReward": false, "trial_id": "mdp_562228697607", "block": "test1", "trialIndex": 13, "score": 34.25, "costs": -0.75, "simulationMode": [null, null, null], "rewards": [-2, 8, 24], "path": ["0", "0", "1", "2", "3"], "rt": [31309, 521, 75], "actions": ["up", "up", "right"], "actionTimes": [35066, 36080, 36650], "queries": {"click": {"state": {"target": ["5", "6", "2"], "time": [32061, 32829, 33827]}, "edge": {"target": [], "time": []}}, "mouseover": {"state": {"target": ["5", "6", "2", "2", "3"], "time": [31892, 32408, 33326, 33758, 34191]}, "edge": {"target": [], "time": []}}, "mouseout": {"state": {"target": ["0", "5", "6", "2", "2"], "time": [31824, 32376, 33225, 33375, 34142]}, "edge": {"target": [], "time": []}}}, "displayed_time": "37.14", "trialTime": 37329, "trial_type": "mouselab-mdp", "trial_index": 20, "time_elapsed": 725744, "internal_node_id": "0.0-4.0-1.0-11.0"}}, {"uniqueid": "w91134540:a73495764", "current_trial": 21, "dateTime": 1664555832300, "trialdata": {"revealed_states": [], "num_clicks_accrued": [0, 0, 0, 0, 0, 0, 0, 0, 0, 0, 0, 0, 0], "stateRewards": ["", 2, 4, -48, -24, -4, 4, -24, 24, -2, -8, -24, 24], "withholdReward": true, "trial_id": "mdp_640720803523", "block": "test1", "trialIndex": 14, "score": 28.5, "costs": -0.5, "simulationMode": [null, null, null], "rewards": [-4, 4, 24], "path": ["0", "0", "5", "6", "8"], "rt": [3029, 553, 421], "actions": ["right", "right", "down"], "actionTimes": [5949, 6991, 7908], "queries": {"click": {"state": {"target": ["8", "5"], "time": [4323, 5174]}, "edge": {"target": [], "time": []}}, "mouseover": {"state": {"target": ["0", "5", "6", "6", "8", "5", "6"], "time": [3369, 3420, 3503, 3888, 4154, 4721, 5486]}, "edge": {"target": [], "time": []}}, "mouseout": {"state": {"target": ["3", "1", "0", "5", "6", "6", "8", "5", "6"], "time": [2454, 2554, 3386, 3469, 3589, 3903, 4688, 5471, 5503]}, "edge": {"target": [], "time": []}}}, "displayed_time": "10.92", "trialTime": 14074, "trial_type": "mouselab-mdp", "trial_index": 21, "time_elapsed": 739860, "internal_node_id": "0.0-4.0-1.0-12.0"}}, {"uniqueid": "w91134540:a73495764", "current_trial": 22, "dateTime": 1664555843542, "trialdata": {"revealed_states": [], "num_clicks_accrued": [0, 0, 0, 0, 0, 0, 0, 0, 0, 0, 0, 0, 0], "stateRewards": ["", -2, -8, -24, 48, -2, -8, -48, -48, 2, -8, -48, 24], "withholdReward": true, "trial_id": "mdp_288324580942", "block": "test1", "trialIndex": 15, "score": 21.75, "costs": -1.25, "simulationMode": [null, null, null], "rewards": [2, -8, 24], "path": ["0", "0", "9", "10", "12"], "rt": [4955, 71, 208], "actions": ["left", "left", "down"], "actionTimes": [6811, 7377, 8081], "queries": {"click": {"state": {"target": ["1", "2", "3", "10", "12"], "time": [2826, 3458, 4311, 5279, 5760]}, "edge": {"target": [], "time": []}}, "mouseover": {"state": {"target": ["1", "2", "1", "2", "3", "12", "10", "12", "9", "0", "5"], "time": [2390, 2457, 2690, 3173, 3957, 4923, 5057, 5540, 6157, 6274, 6306]}, "edge": {"target": [], "time": []}}, "mouseout": {"state": {"target": ["7", "1", "2", "1", "2", "3", "12", "10", "12", "9", "0", "5"], "time": [1373, 2424, 2641, 3123, 3857, 4641, 4990, 5491, 6075, 6241, 6289, 10307]}, "edge": {"target": [], "time": []}}}, "displayed_time": "10.86", "trialTime": 11202, "trial_type": "mouselab-mdp", "trial_index": 22, "time_elapsed": 751102, "internal_node_id": "0.0-4.0-1.0-13.0"}}, {"uniqueid": "w91134540:a73495764", "current_trial": 23, "dateTime": 1664555858096, "trialdata": {"revealed_states": [], "num_clicks_accrued": [0, 0, 0, 0, 0, 0, 0, 0, 0, 0, 0, 0, 0], "stateRewards": ["", -2, -4, -24, 24, -2, 4, -24, -24, -4, 4, 24, -24], "withholdReward": false, "trial_id": "mdp_999419261719", "block": "test1", "trialIndex": 16, "score": 27.5, "costs": -1.5, "simulationMode": [null, null, null], "rewards": [-4, 4, 24], "path": ["0", "0", "9", "10", "11"], "rt": [9796, 124, 47], "actions": ["left", "left", "up"], "actionTimes": [12255, 12866, 13406], "queries": {"click": {"state": {"target": ["5", "9", "1", "3", "12", "11"], "time": [7547, 8330, 9047, 9763, 10612, 11311]}, "edge": {"target": [], "time": []}}, "mouseover": {"state": {"target": ["0", "5", "5", "0", "9", "1", "3", "12", "10", "11", "0"], "time": [2925, 3009, 7142, 8009, 8177, 8744, 9560, 10360, 11008, 11092, 11744]}, "edge": {"target": [], "time": []}}, "mouseout": {"state": {"target": ["0", "0", "5", "5", "0", "9", "1", "3", "1", "12", "10", "11", "0"], "time": [1575, 2958, 3025, 7943, 8042, 8659, 9492, 10242, 10275, 10993, 11041, 11642, 11776]}, "edge": {"target": [], "time": []}}}, "displayed_time": "13.91", "trialTime": 14508, "trial_type": "mouselab-mdp", "trial_index": 23, "time_elapsed": 765656, "internal_node_id": "0.0-4.0-1.0-14.0"}}, {"uniqueid": "w91134540:a73495764", "current_trial": 24, "dateTime": 1664555871401, "trialdata": {"revealed_states": [], "num_clicks_accrued": [0, 0, 0, 0, 0, 0, 0, 0, 0, 0, 0, 0, 0], "stateRewards": ["", 2, -4, -24, -24, -2, -8, -48, 24, -4, -8, 24, 24], "withholdReward": true, "trial_id": "mdp_521351546461", "block": "test1", "trialIndex": 17, "score": 18.5, "costs": -0.5, "simulationMode": [null, null, null], "rewards": [-2, -8, 24], "path": ["0", "0", "5", "6", "8"], "rt": [4110, 102, 183], "actions": ["right", "right", "down"], "actionTimes": [8817, 9411, 10092], "queries": {"click": {"state": {"target": ["5", "8"], "time": [7178, 7962]}, "edge": {"target": [], "time": []}}, "mouseover": {"state": {"target": ["0", "9", "0", "5", "6", "8", "6"], "time": [5476, 5576, 6743, 6860, 7676, 7776, 8309]}, "edge": {"target": [], "time": []}}, "mouseout": {"state": {"target": ["0", "0", "9", "0", "5", "6", "8", "6"], "time": [5260, 5526, 6510, 6793, 7626, 7709, 8260, 8341]}, "edge": {"target": [], "time": []}}}, "displayed_time": "12.71", "trialTime": 13263, "trial_type": "mouselab-mdp", "trial_index": 24, "time_elapsed": 778960, "internal_node_id": "0.0-4.0-1.0-15.0"}}, {"uniqueid": "w91134540:a73495764", "current_trial": 25, "dateTime": 1664555881737, "trialdata": {"revealed_states": [], "num_clicks_accrued": [0, 0, 0, 0, 0, 0, 0, 0, 0, 0, 0, 0, 0], "stateRewards": ["", -4, -8, -48, 24, -4, -4, -24, -48, 2, -8, -24, -48], "withholdReward": true, "trial_id": "mdp_628181832088", "block": "test1", "trialIndex": 18, "score": 16, "costs": -1, "simulationMode": [null, null, null], "rewards": [-4, -8, 24], "path": ["0", "0", "1", "2", "4"], "rt": [5006, 523, 45], "actions": ["up", "up", "left"], "actionTimes": [6643, 7662, 8201], "queries": {"click": {"state": {"target": ["5", "7", "3", "4"], "time": [3010, 3609, 4358, 5075]}, "edge": {"target": [], "time": []}}, "mouseover": {"state": {"target": ["5", "7", "3", "2", "4", "10", "9"], "time": [2840, 3373, 4157, 4857, 5007, 5907, 6255]}, "edge": {"target": [], "time": []}}, "mouseout": {"state": {"target": ["0", "5", "7", "3", "2", "4", "10", "9"], "time": [2672, 3291, 3990, 4823, 4924, 5691, 6224, 6273]}, "edge": {"target": [], "time": []}}}, "displayed_time": "9.64", "trialTime": 10296, "trial_type": "mouselab-mdp", "trial_index": 25, "time_elapsed": 789296, "internal_node_id": "0.0-4.0-1.0-16.0"}}, {"uniqueid": "w91134540:a73495764", "current_trial": 26, "dateTime": 1664555893098, "trialdata": {"revealed_states": [], "num_clicks_accrued": [0, 0, 0, 0, 0, 0, 0, 0, 0, 0, 0, 0, 0], "stateRewards": ["", 2, 8, -48, 48, -4, -8, 24, 24, -2, -8, 24, -24], "withholdReward": false, "trial_id": "mdp_910248289075", "block": "test1", "trialIndex": 19, "score": 16, "costs": -1, "simulationMode": [null, null, null], "rewards": [-4, -8, 24], "path": ["0", "0", "5", "6", "7"], "rt": [5114, 67, 20], "actions": ["right", "right", "up"], "actionTimes": [8013, 8567, 9086], "queries": {"click": {"state": {"target": ["10", "12", "6", "7"], "time": [3869, 4937, 6386, 7069]}, "edge": {"target": [], "time": []}}, "mouseover": {"state": {"target": ["9", "10", "12", "5", "6", "6", "6", "7"], "time": [3533, 3683, 4399, 5849, 5882, 6201, 6249, 6900]}, "edge": {"target": [], "time": []}}, "mouseout": {"state": {"target": ["0", "0", "9", "10", "12", "5", "6", "6", "6", "6", "7"], "time": [2417, 3417, 3583, 4351, 5533, 5866, 5916, 6215, 6684, 6851, 7716]}, "edge": {"target": [], "time": []}}}, "displayed_time": "10.90", "trialTime": 11317, "trial_type": "mouselab-mdp", "trial_index": 26, "time_elapsed": 800657, "internal_node_id": "0.0-4.0-1.0-17.0"}}, {"uniqueid": "w91134540:a73495764", "current_trial": 27, "dateTime": 1664555905735, "trialdata": {"revealed_states": [], "num_clicks_accrued": [0, 0, 0, 0, 0, 0, 0, 0, 0, 0, 0, 0, 0], "stateRewards": ["", -2, -4, -24, -48, -2, 8, -48, 24, 4, -4, -24, -24], "withholdReward": true, "trial_id": "mdp_915304165774", "block": "test1", "trialIndex": 20, "score": 34, "costs": -1, "simulationMode": [null, null, null], "rewards": [-2, 8, 24], "path": ["0", "0", "5", "6", "8"], "rt": [4763, 32, 117], "actions": ["right", "right", "down"], "actionTimes": [8054, 8589, 9208], "queries": {"click": {"state": {"target": ["1", "3", "4", "8"], "time": [4760, 5426, 6410, 7227]}, "edge": {"target": [], "time": []}}, "mouseover": {"state": {"target": ["1", "1", "3", "2", "4", "5", "8"], "time": [4092, 4625, 5275, 5891, 6225, 6889, 6958]}, "edge": {"target": [], "time": []}}, "mouseout": {"state": {"target": ["6", "5", "0", "1", "1", "3", "2", "4", "1", "5", "8"], "time": [2908, 2940, 3191, 4141, 5158, 5842, 6025, 6808, 6857, 6906, 7741]}, "edge": {"target": [], "time": []}}}, "displayed_time": "12.29", "trialTime": 12595, "trial_type": "mouselab-mdp", "trial_index": 27, "time_elapsed": 813294, "internal_node_id": "0.0-4.0-1.0-18.0"}}, {"uniqueid": "w91134540:a73495764", "current_trial": 28, "dateTime": 1664555919395, "trialdata": {"revealed_states": [], "num_clicks_accrued": [0, 0, 0, 0, 0, 0, 0, 0, 0, 0, 0, 0, 0], "stateRewards": ["", 4, 4, -48, -48, 4, 4, -24, -24, -4, 8, -48, 24], "withholdReward": true, "trial_id": "mdp_669785455541", "block": "test1", "trialIndex": 21, "score": 32.5, "costs": -0.5, "simulationMode": [null, null, null], "rewards": [-4, 8, 24], "path": ["0", "0", "9", "10", "12"], "rt": [4409, 1087, 206], "actions": ["left", "left", "down"], "actionTimes": [7069, 8645, 9348], "queries": {"click": {"state": {"target": ["9", "12"], "time": [5112, 6027]}, "edge": {"target": [], "time": []}}, "mouseover": {"state": {"target": ["5", "9", "10", "12", "10"], "time": [3442, 4593, 5643, 5960, 6509]}, "edge": {"target": [], "time": []}}, "mouseout": {"state": {"target": ["6", "7", "5", "5", "9", "10", "12", "10", "9"], "time": [2010, 2242, 2341, 3475, 5610, 5658, 6459, 6642, 6710]}, "edge": {"target": [], "time": []}}}, "displayed_time": "11.66", "trialTime": 13623, "trial_type": "mouselab-mdp", "trial_index": 28, "time_elapsed": 826955, "internal_node_id": "0.0-4.0-1.0-19.0"}}, {"uniqueid": "w91134540:a73495764", "current_trial": 29, "dateTime": 1664555936484, "trialdata": {"revealed_states": [], "num_clicks_accrued": [0, 0, 0, 0, 0, 0, 0, 0, 0, 0, 0, 0, 0], "stateRewards": ["", 4, 4, 48, -24, -4, -8, 24, -24, 2, -8, -24, 24], "withholdReward": true, "trial_id": "mdp_933201675789", "block": "test1", "trialIndex": 22, "score": 16.5, "costs": -0.5, "simulationMode": [null, null, null], "rewards": [-4, -8, 24], "path": ["0", "0", "5", "6", "7"], "rt": [5289, 297, 294], "actions": ["right", "right", "up"], "actionTimes": [12313, 13106, 13902], "queries": {"click": {"state": {"target": ["5", "7"], "time": [9561, 10462]}, "edge": {"target": [], "time": []}}, "mouseover": {"state": {"target": ["0", "5", "6", "5", "6", "7"], "time": [7442, 7492, 8676, 9461, 10077, 10241]}, "edge": {"target": [], "time": []}}, "mouseout": {"state": {"target": ["0", "5", "6", "5", "6", "7"], "time": [7475, 7541, 8709, 10009, 10210, 11910]}, "edge": {"target": [], "time": []}}}, "displayed_time": "15.03", "trialTime": 17045, "trial_type": "mouselab-mdp", "trial_index": 29, "time_elapsed": 844044, "internal_node_id": "0.0-4.0-1.0-20.0"}}, {"uniqueid": "w91134540:a73495764", "current_trial": 30, "dateTime": 1664555956065, "trialdata": {"revealed_states": [], "num_clicks_accrued": [0, 0, 0, 0, 0, 0, 0, 0, 0, 0, 0, 0, 0], "stateRewards": ["", 2, 8, 48, 24, 2, 8, 48, 48, -2, -4, -24, -48], "withholdReward": true, "trial_id": "mdp_717636349175", "block": "test1", "trialIndex": 23, "score": 62.75, "costs": -0.25, "simulationMode": [null, null, null], "rewards": [2, 8, 48], "path": ["0", "0", "1", "2", "3"], "rt": [4065, 475, 172], "actions": ["up", "up", "right"], "actionTimes": [15172, 16149, 16813], "queries": {"click": {"state": {"target": ["3"], "time": [13877]}, "edge": {"target": [], "time": []}}, "mouseover": {"state": {"target": ["0", "1", "2", "3", "1"], "time": [12990, 13090, 13390, 13690, 14407]}, "edge": {"target": [], "time": []}}, "mouseout": {"state": {"target": ["6", "5", "0", "0", "1", "2", "3", "1", "0"], "time": [10757, 10790, 11959, 13023, 13158, 13659, 14275, 14808, 18759]}, "edge": {"target": [], "time": []}}}, "displayed_time": "19.11", "trialTime": 19542, "trial_type": "mouselab-mdp", "trial_index": 30, "time_elapsed": 863625, "internal_node_id": "0.0-4.0-1.0-21.0"}}, {"uniqueid": "w91134540:a73495764", "current_trial": 31, "dateTime": 1664555995852, "trialdata": {"revealed_states": [], "num_clicks_accrued": [0, 0, 0, 0, 0, 0, 0, 0, 0, 0, 0, 0, 0], "stateRewards": ["", 2, -8, 24, -24, -2, 8, -48, -48, 2, -8, -24, -48], "withholdReward": true, "trial_id": "mdp_744278669205", "block": "test1", "trialIndex": 24, "score": 22.25, "costs": -0.75, "simulationMode": [null, null, null], "rewards": [2, -8, 24], "path": ["0", "0", "1", "2", "3"], "rt": [5983, 50, 292], "actions": ["up", "up", "right"], "actionTimes": [32897, 33435, 34226], "queries": {"click": {"state": {"target": ["8", "7", "3"], "time": [27987, 30186, 31954]}, "edge": {"target": [], "time": []}}, "mouseover": {"state": {"target": ["5", "8", "6", "7", "7", "3", "3"], "time": [27452, 27886, 28435, 28484, 30069, 30917, 31786]}, "edge": {"target": [], "time": []}}, "mouseout": {"state": {"target": ["0", "5", "8", "6", "7", "7", "3", "3", "6"], "time": [27419, 27552, 28386, 28467, 28518, 30886, 30951, 32351, 36419]}, "edge": {"target": [], "time": []}}}, "displayed_time": "35.92", "trialTime": 39756, "trial_type": "mouselab-mdp", "trial_index": 31, "time_elapsed": 903412, "internal_node_id": "0.0-4.0-1.0-22.0"}}, {"uniqueid": "w91134540:a73495764", "current_trial": 32, "dateTime": 1664556007291, "trialdata": {"revealed_states": [], "num_clicks_accrued": [0, 0, 0, 0, 0, 0, 0, 0, 0, 0, 0, 0, 0], "stateRewards": ["", -2, 8, 48, -48, 4, -8, 24, 24, 4, 4, -48, -24], "withholdReward": true, "trial_id": "mdp_746937869927", "block": "test1", "trialIndex": 25, "score": 58, "costs": -1, "simulationMode": [null, null, null], "rewards": [-2, 8, 48], "path": ["0", "0", "1", "2", "3"], "rt": [4879, 338, 156], "actions": ["up", "up", "right"], "actionTimes": [5733, 6558, 7209], "queries": {"click": {"state": {"target": ["12", "11", "4", "3"], "time": [2456, 3239, 4089, 4789]}, "edge": {"target": [], "time": []}}, "mouseover": {"state": {"target": ["9", "12", "10", "11", "2", "4", "2", "3", "7"], "time": [2037, 2237, 2936, 3003, 3821, 3955, 4419, 4538, 5204]}, "edge": {"target": [], "time": []}}, "mouseout": {"state": {"target": ["0", "9", "12", "10", "11", "2", "4", "2", "3", "7", "6"], "time": [1988, 2088, 2921, 2970, 3588, 3888, 4404, 4470, 5155, 5355, 11370]}, "edge": {"target": [], "time": []}}}, "displayed_time": "9.86", "trialTime": 11397, "trial_type": "mouselab-mdp", "trial_index": 32, "time_elapsed": 914851, "internal_node_id": "0.0-4.0-1.0-23.0"}}, {"uniqueid": "w91134540:a73495764", "current_trial": 33, "dateTime": 1664556024026, "trialdata": {"revealed_states": [], "num_clicks_accrued": [0, 0, 0, 0, 0, 0, 0, 0, 0, 0, 0, 0, 0], "stateRewards": ["", 2, 8, 24, -48, 4, 8, 24, 48, 2, -8, -24, 24], "withholdReward": false, "trial_id": "mdp_939899431582", "block": "test1", "trialIndex": 26, "score": 40.5, "costs": -0.5, "simulationMode": [null, null, null], "rewards": [4, 8, 24], "path": ["0", "0", "5", "6", "7"], "rt": [12338, 518, 64], "actions": ["right", "right", "up"], "actionTimes": [14188, 15203, 15766], "queries": {"click": {"state": {"target": ["6", "7"], "time": [12407, 13606]}, "edge": {"target": [], "time": []}}, "mouseover": {"state": {"target": ["5", "5", "5", "6", "7"], "time": [11301, 11519, 11736, 12102, 13487]}, "edge": {"target": [], "time": []}}, "mouseout": {"state": {"target": ["0", "5", "5", "5", "6", "7"], "time": [11286, 11369, 11569, 11786, 12970, 13870]}, "edge": {"target": [], "time": []}}}, "displayed_time": "16.27", "trialTime": 16695, "trial_type": "mouselab-mdp", "trial_index": 33, "time_elapsed": 931585, "internal_node_id": "0.0-4.0-1.0-24.0"}}, {"uniqueid": "w91134540:a73495764", "current_trial": 34, "dateTime": 1664556034259, "trialdata": {"revealed_states": [], "num_clicks_accrued": [0, 0, 0, 0, 0, 0, 0, 0, 0, 0, 0, 0, 0], "stateRewards": ["", -4, 4, -24, -24, -4, -8, 24, 48, 4, -4, 24, 48], "withholdReward": true, "trial_id": "mdp_175395325183", "block": "test1", "trialIndex": 27, "score": 52.5, "costs": -0.5, "simulationMode": [null, null, null], "rewards": [4, -4, 48], "path": ["0", "0", "9", "10", "12"], "rt": [3226, 355, 93], "actions": ["left", "left", "down"], "actionTimes": [5140, 5988, 6575], "queries": {"click": {"state": {"target": ["10", "12"], "time": [3769, 4335]}, "edge": {"target": [], "time": []}}, "mouseover": {"state": {"target": ["9", "10", "12"], "time": [3583, 3631, 4131]}, "edge": {"target": [], "time": []}}, "mouseout": {"state": {"target": ["8", "0", "9", "10", "12"], "time": [1498, 2549, 3598, 4100, 4750]}, "edge": {"target": [], "time": []}}}, "displayed_time": "9.92", "trialTime": 10193, "trial_type": "mouselab-mdp", "trial_index": 34, "time_elapsed": 941819, "internal_node_id": "0.0-4.0-1.0-25.0"}}, {"uniqueid": "w91134540:a73495764", "current_trial": 35, "dateTime": 1664556044101, "trialdata": {"revealed_states": [], "num_clicks_accrued": [0, 0, 0, 0, 0, 0, 0, 0, 0, 0, 0, 0, 0], "stateRewards": ["", -4, 8, 48, -48, 2, -4, 24, -24, -2, 4, -24, -24], "withholdReward": true, "trial_id": "mdp_804988042722", "block": "test1", "trialIndex": 28, "score": 26.5, "costs": -0.5, "simulationMode": [null, null, null], "rewards": [2, -4, 24], "path": ["0", "0", "5", "6", "7"], "rt": [2114, 102, 95], "actions": ["right", "right", "up"], "actionTimes": [3306, 3901, 4491], "queries": {"click": {"state": {"target": ["5", "7"], "time": [2083, 2715]}, "edge": {"target": [], "time": []}}, "mouseover": {"state": {"target": ["5", "6", "5", "7"], "time": [1713, 1864, 1997, 2564]}, "edge": {"target": [], "time": []}}, "mouseout": {"state": {"target": ["0", "5", "6", "5", "7"], "time": [1664, 1729, 1913, 2463, 2997]}, "edge": {"target": [], "time": []}}}, "displayed_time": "9.20", "trialTime": 9798, "trial_type": "mouselab-mdp", "trial_index": 35, "time_elapsed": 951661, "internal_node_id": "0.0-4.0-1.0-26.0"}}, {"uniqueid": "w91134540:a73495764", "current_trial": 36, "dateTime": 1664556057427, "trialdata": {"revealed_states": [], "num_clicks_accrued": [0, 0, 0, 0, 0, 0, 0, 0, 0, 0, 0, 0, 0], "stateRewards": ["", -4, -8, 48, 48, -4, 4, 48, -24, 4, 8, -24, -48], "withholdReward": false, "trial_id": "mdp_142906093415", "block": "test1", "trialIndex": 29, "score": 40, "costs": -1, "simulationMode": [null, null, null], "rewards": [-4, -8, 48], "path": ["0", "0", "1", "2", "4"], "rt": [5620, 89, 256], "actions": ["up", "up", "left"], "actionTimes": [6827, 7411, 8161], "queries": {"click": {"state": {"target": ["8", "12", "11", "4"], "time": [2724, 3992, 4674, 5442]}, "edge": {"target": [], "time": []}}, "mouseover": {"state": {"target": ["5", "8", "12", "12", "10", "11", "4", "2"], "time": [1572, 2621, 3405, 3871, 4421, 4505, 5289, 5704]}, "edge": {"target": [], "time": []}}, "mouseout": {"state": {"target": ["6", "5", "5", "8", "12", "12", "10", "11", "4", "2"], "time": [904, 955, 1622, 3288, 3523, 4405, 4455, 5090, 5689, 5756]}, "edge": {"target": [], "time": []}}}, "displayed_time": "10.21", "trialTime": 13283, "trial_type": "mouselab-mdp", "trial_index": 36, "time_elapsed": 964986, "internal_node_id": "0.0-4.0-1.0-27.0"}}, {"uniqueid": "w91134540:a73495764", "current_trial": 37, "dateTime": 1664556073353, "trialdata": {"revealed_states": [], "num_clicks_accrued": [0, 0, 0, 0, 0, 0, 0, 0, 0, 0, 0, 0, 0], "stateRewards": ["", 2, 8, -48, 24, -2, 4, 48, 48, -2, -8, 48, 24], "withholdReward": true, "trial_id": "mdp_157355418411", "block": "test1", "trialIndex": 30, "score": 54.75, "costs": -0.25, "simulationMode": [null, null, null], "rewards": [-2, 4, 48], "path": ["0", "0", "5", "6", "7"], "rt": [2089, 58, 188], "actions": ["right", "right", "up"], "actionTimes": [5484, 6036, 6717], "queries": {"click": {"state": {"target": ["7"], "time": [4567]}, "edge": {"target": [], "time": []}}, "mouseover": {"state": {"target": ["5", "6", "7"], "time": [4028, 4061, 4330]}, "edge": {"target": [], "time": []}}, "mouseout": {"state": {"target": ["5", "0", "5", "6", "7"], "time": [2496, 4013, 4045, 4079, 5096]}, "edge": {"target": [], "time": []}}}, "displayed_time": "11.40", "trialTime": 15883, "trial_type": "mouselab-mdp", "trial_index": 37, "time_elapsed": 980912, "internal_node_id": "0.0-4.0-1.0-28.0"}}, {"uniqueid": "w91134540:a73495764", "current_trial": 38, "dateTime": 1664556103736, "trialdata": {"revealed_states": [], "num_clicks_accrued": [0, 0, 0, 0, 0, 0, 0, 0, 0, 0, 0, 0, 0], "stateRewards": ["", 2, -8, 24, 24, 2, 4, -48, -48, 4, 4, -24, 48], "withholdReward": false, "trial_id": "mdp_985707010949", "block": "test1", "trialIndex": 31, "score": 22.25, "costs": -0.75, "simulationMode": [null, null, null], "rewards": [2, -8, 24], "path": ["0", "0", "1", "2", "4"], "rt": [7900, 355, 150], "actions": ["up", "up", "left"], "actionTimes": [23880, 24725, 25370], "queries": {"click": {"state": {"target": ["4", "7", "3"], "time": [18822, 20256, 21008]}, "edge": {"target": [], "time": []}}, "mouseover": {"state": {"target": ["0", "9", "9", "1", "2", "4", "2", "3", "3", "7", "3", "9", "10", "12", "9", "1"], "time": [17122, 17203, 17571, 17955, 18154, 18770, 19237, 19270, 19604, 20121, 20988, 21554, 22355, 22770, 23403, 23420]}, "edge": {"target": [], "time": []}}, "mouseout": {"state": {"target": ["7", "5", "0", "9", "9", "1", "2", "4", "2", "3", "3", "7", "3", "9", "10", "12", "9", "1"], "time": [15671, 15737, 17170, 17271, 17704, 18088, 18586, 19172, 19253, 19303, 19855, 20736, 21455, 22354, 22370, 23373, 23420, 23436]}, "edge": {"target": [], "time": []}}}, "displayed_time": "25.87", "trialTime": 30340, "trial_type": "mouselab-mdp", "trial_index": 38, "time_elapsed": 1011295, "internal_node_id": "0.0-4.0-1.0-29.0"}}, {"uniqueid": "w91134540:a73495764", "current_trial": 39, "dateTime": 1664556111378, "trialdata": {"rt": 7636, "stimulus": "<h1> End of block! </h1>\n\nYou have reached the end of the block 1/4. If you need a short break, feel free to take one now before moving on.\n\n<br><br>\nIn the next block, you will complete another 30 rounds of this game.\n\n<br><br>\n<div style='text-align: center;'>Press <code>space</code> to begin.</div>\n<br><br>\n<div style='text-align: center;'>(If the experiment doesn't continue, try clicking on the text and then pressing <code>space</code>.)</div>", "response": " ", "trial_id": "mdp_ready_2", "trial_type": "html-keyboard-response", "trial_index": 39, "time_elapsed": 1018938, "internal_node_id": "0.0-4.0-2.0"}}, {"uniqueid": "w91134540:a73495764", "current_trial": 40, "dateTime": 1664556121921, "trialdata": {"revealed_states": [], "num_clicks_accrued": [0, 0, 0, 0, 0, 0, 0, 0, 0, 0, 0, 0, 0], "stateRewards": ["", -4, 8, -24, 48, 2, -8, 24, 48, 2, -8, -24, -48], "withholdReward": true, "trial_id": "mdp_493778446445", "block": "test2", "trialIndex": 32, "score": 46.75, "costs": -0.25, "simulationMode": [null, null, null], "rewards": [2, -8, 48], "path": ["0", "0", "5", "6", "8"], "rt": [1967, 22, 64], "actions": ["right", "right", "down"], "actionTimes": [3646, 4165, 4724], "queries": {"click": {"state": {"target": ["8"], "time": [2863]}, "edge": {"target": [], "time": []}}, "mouseover": {"state": {"target": ["5", "6", "8", "6", "7"], "time": [2295, 2326, 2644, 3160, 3193]}, "edge": {"target": [], "time": []}}, "mouseout": {"state": {"target": ["5", "5", "6", "8", "6", "7"], "time": [1460, 2309, 2343, 3144, 3177, 3244]}, "edge": {"target": [], "time": []}}}, "displayed_time": "9.68", "trialTime": 10498, "trial_type": "mouselab-mdp", "trial_index": 40, "time_elapsed": 1029480, "internal_node_id": "0.0-4.0-3.0-0.0"}}, {"uniqueid": "w91134540:a73495764", "current_trial": 41, "dateTime": 1664556136495, "trialdata": {"revealed_states": [], "num_clicks_accrued": [0, 0, 0, 0, 0, 0, 0, 0, 0, 0, 0, 0, 0], "stateRewards": ["", -2, -4, -24, 24, -2, 4, -24, -24, -4, 4, 24, -24], "withholdReward": true, "trial_id": "mdp_999419261719", "block": "test2", "trialIndex": 33, "score": 28.5, "costs": -0.5, "simulationMode": [null, null, null], "rewards": [-4, 4, 24], "path": ["0", "0", "9", "10", "11"], "rt": [2500, 502, 78], "actions": ["left", "left", "up"], "actionTimes": [3684, 4687, 5263], "queries": {"click": {"state": {"target": ["12", "11"], "time": [2137, 2956]}, "edge": {"target": [], "time": []}}, "mouseover": {"state": {"target": ["0", "9", "10", "12", "10", "11", "11", "1"], "time": [1702, 1735, 1870, 2019, 2502, 2535, 2820, 3352]}, "edge": {"target": [], "time": []}}, "mouseout": {"state": {"target": ["7", "5", "0", "9", "10", "12", "10", "11", "11"], "time": [818, 886, 1718, 1768, 1919, 2470, 2518, 2584, 3269]}, "edge": {"target": [], "time": []}}}, "displayed_time": "8.19", "trialTime": 14530, "trial_type": "mouselab-mdp", "trial_index": 41, "time_elapsed": 1044055, "internal_node_id": "0.0-4.0-3.0-1.0"}}, {"uniqueid": "w91134540:a73495764", "current_trial": 42, "dateTime": 1664556162357, "trialdata": {"revealed_states": [], "num_clicks_accrued": [0, 0, 0, 0, 0, 0, 0, 0, 0, 0, 0, 0, 0], "stateRewards": ["", 4, -4, 48, -48, 2, 8, -48, 24, -2, -4, -24, 48], "withholdReward": true, "trial_id": "mdp_937564992306", "block": "test2", "trialIndex": 34, "score": 46.25, "costs": -0.75, "simulationMode": [null, null, null], "rewards": [-2, -4, 48], "path": ["0", "0", "9", "10", "12"], "rt": [9615, 361, 184], "actions": ["left", "left", "down"], "actionTimes": [18660, 19522, 20195], "queries": {"click": {"state": {"target": ["9", "4", "12"], "time": [15245, 16764, 17696]}, "edge": {"target": [], "time": []}}, "mouseover": {"state": {"target": ["9", "9", "4", "12", "12", "5", "7"], "time": [14328, 14827, 16594, 17328, 17576, 18160, 18177]}, "edge": {"target": [], "time": []}}, "mouseout": {"state": {"target": ["1", "9", "9", "4", "12", "12", "5", "7"], "time": [8778, 14428, 16011, 17244, 17360, 18094, 18177, 18210]}, "edge": {"target": [], "time": []}}}, "displayed_time": "20.69", "trialTime": 25818, "trial_type": "mouselab-mdp", "trial_index": 42, "time_elapsed": 1069917, "internal_node_id": "0.0-4.0-3.0-2.0"}}, {"uniqueid": "w91134540:a73495764", "current_trial": 43, "dateTime": 1664556182656, "trialdata": {"revealed_states": [], "num_clicks_accrued": [0, 0, 0, 0, 0, 0, 0, 0, 0, 0, 0, 0, 0], "stateRewards": ["", 2, 4, -24, -48, 4, -4, 24, 48, -4, -4, -24, 48], "withholdReward": true, "trial_id": "mdp_181958792175", "block": "test2", "trialIndex": 35, "score": -13.25, "costs": -0.25, "simulationMode": [null, null, null], "rewards": [2, 4, -24], "path": ["0", "0", "1", "2", "3"], "rt": [9698, 754, 71], "actions": ["up", "up", "right"], "actionTimes": [16732, 17984, 18551], "queries": {"click": {"state": {"target": ["8"], "time": [15968]}, "edge": {"target": [], "time": []}}, "mouseover": {"state": {"target": ["9", "9", "5", "6", "8", "6", "7"], "time": [14681, 15015, 15114, 15648, 15731, 16280, 16329]}, "edge": {"target": [], "time": []}}, "mouseout": {"state": {"target": ["7", "5", "0", "9", "9", "5", "6", "8", "6", "7"], "time": [6713, 6780, 6999, 14797, 15047, 15164, 15680, 16248, 16313, 16363]}, "edge": {"target": [], "time": []}}}, "displayed_time": "19.05", "trialTime": 20252, "trial_type": "mouselab-mdp", "trial_index": 43, "time_elapsed": 1090215, "internal_node_id": "0.0-4.0-3.0-3.0"}}, {"uniqueid": "w91134540:a73495764", "current_trial": 44, "dateTime": 1664556192589, "trialdata": {"revealed_states": [], "num_clicks_accrued": [0, 0, 0, 0, 0, 0, 0, 0, 0, 0, 0, 0, 0], "stateRewards": ["", -4, -4, -24, 48, 2, 4, -24, -48, -2, 4, 24, 24], "withholdReward": true, "trial_id": "mdp_360934723192", "block": "test2", "trialIndex": 36, "score": 44, "costs": -1, "simulationMode": [null, null, null], "rewards": [-4, -4, 48], "path": ["0", "0", "1", "2", "4"], "rt": [4321, 333, 80], "actions": ["up", "up", "left"], "actionTimes": [5253, 6080, 6661], "queries": {"click": {"state": {"target": ["8", "7", "3", "4"], "time": [2135, 2867, 3651, 4415]}, "edge": {"target": [], "time": []}}, "mouseover": {"state": {"target": ["0", "5", "6", "8", "6", "7", "3", "3", "2", "4"], "time": [1249, 1596, 1680, 1831, 2631, 2664, 3264, 3549, 4131, 4382]}, "edge": {"target": [], "time": []}}, "mouseout": {"state": {"target": ["0", "5", "6", "8", "6", "7", "3", "3", "2", "4"], "time": [1298, 1647, 1782, 2550, 2647, 3249, 3298, 4082, 4215, 4815]}, "edge": {"target": [], "time": []}}}, "displayed_time": "8.94", "trialTime": 9886, "trial_type": "mouselab-mdp", "trial_index": 44, "time_elapsed": 1100149, "internal_node_id": "0.0-4.0-3.0-4.0"}}, {"uniqueid": "w91134540:a73495764", "current_trial": 45, "dateTime": 1664556206735, "trialdata": {"revealed_states": [], "num_clicks_accrued": [0, 0, 0, 0, 0, 0, 0, 0, 0, 0, 0, 0, 0], "stateRewards": ["", -4, -8, -24, 24, 4, 4, -48, -48, -4, -4, 24, -48], "withholdReward": true, "trial_id": "mdp_431592223624", "block": "test2", "trialIndex": 37, "score": 19.75, "costs": -1.25, "simulationMode": [null, null, null], "rewards": [-4, -4, 24], "path": ["0", "0", "9", "10", "11"], "rt": [10050, 306, 112], "actions": ["left", "left", "up"], "actionTimes": [11897, 12690, 13296], "queries": {"click": {"state": {"target": ["6", "8", "7", "12", "11"], "time": [7738, 8421, 9122, 10172, 11004]}, "edge": {"target": [], "time": []}}, "mouseover": {"state": {"target": ["5", "6", "8", "7", "0", "9", "12", "10", "11", "11"], "time": [6885, 7569, 8252, 8918, 9601, 9703, 10019, 10568, 10600, 10886]}, "edge": {"target": [], "time": []}}, "mouseout": {"state": {"target": ["7", "5", "5", "6", "8", "6", "7", "6", "0", "9", "12", "10", "11", "11", "7"], "time": [1101, 1635, 6952, 8202, 8852, 8902, 9402, 9434, 9617, 9953, 10536, 10584, 10618, 11285, 11469]}, "edge": {"target": [], "time": []}}}, "displayed_time": "13.79", "trialTime": 14102, "trial_type": "mouselab-mdp", "trial_index": 45, "time_elapsed": 1114294, "internal_node_id": "0.0-4.0-3.0-5.0"}}, {"uniqueid": "w91134540:a73495764", "current_trial": 46, "dateTime": 1664556216101, "trialdata": {"revealed_states": [], "num_clicks_accrued": [0, 0, 0, 0, 0, 0, 0, 0, 0, 0, 0, 0, 0], "stateRewards": ["", -2, 8, 48, -48, 4, -8, 24, 24, 4, 4, -48, -24], "withholdReward": true, "trial_id": "mdp_746937869927", "block": "test2", "trialIndex": 38, "score": 58.25, "costs": -0.75, "simulationMode": [null, null, null], "rewards": [-2, 8, 48], "path": ["0", "0", "1", "2", "3"], "rt": [3321, 485, 213], "actions": ["up", "up", "right"], "actionTimes": [5122, 6104, 6815], "queries": {"click": {"state": {"target": ["11", "4", "3"], "time": [2989, 3557, 4122]}, "edge": {"target": [], "time": []}}, "mouseover": {"state": {"target": ["11", "4", "2", "3", "7"], "time": [2887, 3387, 3852, 3919, 4419]}, "edge": {"target": [], "time": []}}, "mouseout": {"state": {"target": ["8", "0", "11", "4", "2", "3", "7"], "time": [1219, 1536, 3337, 3820, 3885, 4337, 4603]}, "edge": {"target": [], "time": []}}}, "displayed_time": "8.80", "trialTime": 9319, "trial_type": "mouselab-mdp", "trial_index": 46, "time_elapsed": 1123661, "internal_node_id": "0.0-4.0-3.0-6.0"}}, {"uniqueid": "w91134540:a73495764", "current_trial": 47, "dateTime": 1664556228722, "trialdata": {"revealed_states": [], "num_clicks_accrued": [0, 0, 0, 0, 0, 0, 0, 0, 0, 0, 0, 0, 0], "stateRewards": ["", -2, -4, -24, -48, 2, -8, -24, -24, 4, -8, 48, 48], "withholdReward": true, "trial_id": "mdp_950599994674", "block": "test2", "trialIndex": 39, "score": 48.5, "costs": -0.5, "simulationMode": [null, null, null], "rewards": [4, -8, 48], "path": ["0", "0", "9", "10", "11"], "rt": [4521, 75, 120], "actions": ["left", "left", "up"], "actionTimes": [7192, 7765, 8376], "queries": {"click": {"state": {"target": ["7", "11"], "time": [5429, 6344]}, "edge": {"target": [], "time": []}}, "mouseover": {"state": {"target": ["5", "7", "5", "0", "11", "10", "12"], "time": [5125, 5173, 5807, 5825, 6157, 6740, 6875]}, "edge": {"target": [], "time": []}}, "mouseout": {"state": {"target": ["6", "0", "5", "7", "5", "0", "11", "10", "12"], "time": [1974, 3175, 5157, 5775, 5824, 5841, 6725, 6773, 6907]}, "edge": {"target": [], "time": []}}}, "displayed_time": "11.67", "trialTime": 12579, "trial_type": "mouselab-mdp", "trial_index": 47, "time_elapsed": 1136282, "internal_node_id": "0.0-4.0-3.0-7.0"}}, {"uniqueid": "w91134540:a73495764", "current_trial": 48, "dateTime": 1664556241898, "trialdata": {"revealed_states": [], "num_clicks_accrued": [0, 0, 0, 0, 0, 0, 0, 0, 0, 0, 0, 0, 0], "stateRewards": ["", -4, 8, -24, -24, 2, 4, 48, 48, -2, 4, 24, -48], "withholdReward": false, "trial_id": "mdp_397308196941", "block": "test2", "trialIndex": 40, "score": 58.75, "costs": -0.25, "simulationMode": [null, null, null], "rewards": [2, 4, 48], "path": ["0", "0", "5", "6", "8"], "rt": [2181, 252, 53], "actions": ["right", "right", "down"], "actionTimes": [6142, 6900, 7455], "queries": {"click": {"state": {"target": ["8"], "time": [5537]}, "edge": {"target": [], "time": []}}, "mouseover": {"state": {"target": ["5", "8"], "time": [4317, 5485]}, "edge": {"target": [], "time": []}}, "mouseout": {"state": {"target": ["6", "0", "5", "8"], "time": [3686, 4302, 4334, 5902]}, "edge": {"target": [], "time": []}}}, "displayed_time": "11.97", "trialTime": 13131, "trial_type": "mouselab-mdp", "trial_index": 48, "time_elapsed": 1149457, "internal_node_id": "0.0-4.0-3.0-8.0"}}, {"uniqueid": "w91134540:a73495764", "current_trial": 49, "dateTime": 1664556254302, "trialdata": {"revealed_states": [], "num_clicks_accrued": [0, 0, 0, 0, 0, 0, 0, 0, 0, 0, 0, 0, 0], "stateRewards": ["", -4, 8, 24, -48, -4, -8, -24, 24, 2, -4, -48, 24], "withholdReward": true, "trial_id": "mdp_898449441629", "block": "test2", "trialIndex": 41, "score": 26.5, "costs": -0.5, "simulationMode": [null, null, null], "rewards": [2, -4, 24], "path": ["0", "0", "9", "10", "12"], "rt": [3005, 272, 670], "actions": ["left", "left", "down"], "actionTimes": [5840, 6605, 7769], "queries": {"click": {"state": {"target": ["11", "12"], "time": [4485, 5054]}, "edge": {"target": [], "time": []}}, "mouseover": {"state": {"target": ["9", "11", "10", "12", "8"], "time": [3418, 4400, 4783, 4817, 5484]}, "edge": {"target": [], "time": []}}, "mouseout": {"state": {"target": ["8", "9", "11", "10", "12", "8"], "time": [1985, 3585, 4768, 4799, 5385, 5499]}, "edge": {"target": [], "time": []}}}, "displayed_time": "11.83", "trialTime": 12351, "trial_type": "mouselab-mdp", "trial_index": 49, "time_elapsed": 1161862, "internal_node_id": "0.0-4.0-3.0-9.0"}}, {"uniqueid": "w91134540:a73495764", "current_trial": 50, "dateTime": 1664556264705, "trialdata": {"revealed_states": [], "num_clicks_accrued": [0, 0, 0, 0, 0, 0, 0, 0, 0, 0, 0, 0, 0], "stateRewards": ["", -2, -8, -24, -24, 4, -4, -48, 48, 2, 8, 48, -48], "withholdReward": true, "trial_id": "mdp_498095124548", "block": "test2", "trialIndex": 42, "score": 61.75, "costs": -1.25, "simulationMode": [null, null, null], "rewards": [2, 8, 48], "path": ["0", "0", "9", "10", "11"], "rt": [6271, 455, 118], "actions": ["left", "left", "up"], "actionTimes": [7799, 8752, 9365], "queries": {"click": {"state": {"target": ["7", "3", "4", "12", "11"], "time": [4219, 4883, 5568, 6301, 6952]}, "edge": {"target": [], "time": []}}, "mouseover": {"state": {"target": ["7", "3", "2", "4", "10", "12", "10", "11", "5"], "time": [4134, 4799, 5314, 5380, 6033, 6216, 6648, 6798, 7365]}, "edge": {"target": [], "time": []}}, "mouseout": {"state": {"target": ["12", "10", "9", "0", "7", "3", "2", "4", "10", "12", "10", "11", "5"], "time": [1034, 1151, 1301, 1434, 4667, 5299, 5364, 5816, 6148, 6615, 6697, 7232, 7380]}, "edge": {"target": [], "time": []}}}, "displayed_time": "9.86", "trialTime": 10359, "trial_type": "mouselab-mdp", "trial_index": 50, "time_elapsed": 1172265, "internal_node_id": "0.0-4.0-3.0-10.0"}}, {"uniqueid": "w91134540:a73495764", "current_trial": 51, "dateTime": 1664556278672, "trialdata": {"revealed_states": [], "num_clicks_accrued": [0, 0, 0, 0, 0, 0, 0, 0, 0, 0, 0, 0, 0], "stateRewards": ["", 2, -8, -24, -48, -2, -4, 48, 48, 4, 8, 48, 48], "withholdReward": true, "trial_id": "mdp_347285045422", "block": "test2", "trialIndex": 43, "score": 46.75, "costs": -0.25, "simulationMode": [null, null, null], "rewards": [-2, -4, 48], "path": ["0", "0", "5", "6", "8"], "rt": [1691, 125, 114], "actions": ["right", "right", "down"], "actionTimes": [5414, 6033, 6639], "queries": {"click": {"state": {"target": ["8"], "time": [4875]}, "edge": {"target": [], "time": []}}, "mouseover": {"state": {"target": ["8", "8"], "time": [4208, 4809]}, "edge": {"target": [], "time": []}}, "mouseout": {"state": {"target": ["8", "0", "8"], "time": [3442, 4142, 4276]}, "edge": {"target": [], "time": []}}}, "displayed_time": "12.72", "trialTime": 13922, "trial_type": "mouselab-mdp", "trial_index": 51, "time_elapsed": 1186231, "internal_node_id": "0.0-4.0-3.0-11.0"}}, {"uniqueid": "w91134540:a73495764", "current_trial": 52, "dateTime": 1664556289384, "trialdata": {"revealed_states": [], "num_clicks_accrued": [0, 0, 0, 0, 0, 0, 0, 0, 0, 0, 0, 0, 0], "stateRewards": ["", -2, -4, -24, -24, 4, 8, 24, 24, -2, 8, 48, 48], "withholdReward": true, "trial_id": "mdp_620787912291", "block": "test2", "trialIndex": 44, "score": 40.5, "costs": -0.5, "simulationMode": [null, null, null], "rewards": [4, 8, 24], "path": ["0", "0", "5", "6", "8"], "rt": [2953, 380, 89], "actions": ["right", "right", "down"], "actionTimes": [4221, 5096, 5673], "queries": {"click": {"state": {"target": ["8", "7"], "time": [2335, 3138]}, "edge": {"target": [], "time": []}}, "mouseover": {"state": {"target": ["5", "8", "6", "7"], "time": [1800, 1866, 2767, 2833]}, "edge": {"target": [], "time": []}}, "mouseout": {"state": {"target": ["8", "0", "5", "8", "6", "7"], "time": [900, 1785, 1833, 2716, 2800, 3501]}, "edge": {"target": [], "time": []}}}, "displayed_time": "10.27", "trialTime": 10662, "trial_type": "mouselab-mdp", "trial_index": 52, "time_elapsed": 1196944, "internal_node_id": "0.0-4.0-3.0-12.0"}}, {"uniqueid": "w91134540:a73495764", "current_trial": 53, "dateTime": 1664556299427, "trialdata": {"revealed_states": [], "num_clicks_accrued": [0, 0, 0, 0, 0, 0, 0, 0, 0, 0, 0, 0, 0], "stateRewards": ["", 2, -8, 48, -24, 2, -4, 24, 48, 4, -4, 48, -24], "withholdReward": false, "trial_id": "mdp_656500928756", "block": "test2", "trialIndex": 45, "score": 46.75, "costs": -0.25, "simulationMode": [null, null, null], "rewards": [2, -8, 48], "path": ["0", "0", "1", "2", "3"], "rt": [2422, 289, 521], "actions": ["up", "up", "right"], "actionTimes": [3778, 4563, 5578], "queries": {"click": {"state": {"target": ["3"], "time": [2711]}, "edge": {"target": [], "time": []}}, "mouseover": {"state": {"target": ["1", "2", "3", "2", "4", "9"], "time": [1891, 2257, 2539, 3157, 3257, 3458]}, "edge": {"target": [], "time": []}}, "mouseout": {"state": {"target": ["6", "5", "0", "1", "2", "3", "2", "4"], "time": [1043, 1072, 1840, 1957, 2508, 3124, 3207, 3341]}, "edge": {"target": [], "time": []}}}, "displayed_time": "8.36", "trialTime": 9996, "trial_type": "mouselab-mdp", "trial_index": 53, "time_elapsed": 1206987, "internal_node_id": "0.0-4.0-3.0-13.0"}}, {"uniqueid": "w91134540:a73495764", "current_trial": 54, "dateTime": 1664556310546, "trialdata": {"revealed_states": [], "num_clicks_accrued": [0, 0, 0, 0, 0, 0, 0, 0, 0, 0, 0, 0, 0], "stateRewards": ["", 2, -8, 48, -24, -4, -8, -24, 48, -2, 4, 24, -48], "withholdReward": false, "trial_id": "mdp_186932504904", "block": "test2", "trialIndex": 46, "score": 30.25, "costs": -0.75, "simulationMode": [null, null, null], "rewards": [-2, 4, 24], "path": ["0", "0", "9", "10", "11"], "rt": [3389, 211, 84], "actions": ["left", "left", "up"], "actionTimes": [5480, 6181, 6755], "queries": {"click": {"state": {"target": ["12", "7", "11"], "time": [3140, 3857, 4657]}, "edge": {"target": [], "time": []}}, "mouseover": {"state": {"target": ["0", "12", "7", "11"], "time": [2605, 3005, 3654, 4505]}, "edge": {"target": [], "time": []}}, "mouseout": {"state": {"target": ["9", "0", "0", "12", "7", "11"], "time": [987, 1354, 2620, 3504, 4172, 4971]}, "edge": {"target": [], "time": []}}}, "displayed_time": "10.09", "trialTime": 11078, "trial_type": "mouselab-mdp", "trial_index": 54, "time_elapsed": 1218106, "internal_node_id": "0.0-4.0-3.0-14.0"}}, {"uniqueid": "w91134540:a73495764", "current_trial": 55, "dateTime": 1664556321827, "trialdata": {"revealed_states": [], "num_clicks_accrued": [0, 0, 0, 0, 0, 0, 0, 0, 0, 0, 0, 0, 0], "stateRewards": ["", -4, -4, -24, 24, 4, 4, -24, -24, -4, 4, 24, 24], "withholdReward": false, "trial_id": "mdp_787781487383", "block": "test2", "trialIndex": 47, "score": 28.25, "costs": -0.75, "simulationMode": [null, null, null], "rewards": [-4, 4, 24], "path": ["0", "0", "9", "10", "11"], "rt": [4080, 120, 122], "actions": ["left", "left", "up"], "actionTimes": [6108, 6717, 7334], "queries": {"click": {"state": {"target": ["8", "7", "11"], "time": [3616, 4417, 5265]}, "edge": {"target": [], "time": []}}, "mouseover": {"state": {"target": ["9", "8", "8", "6", "7", "6", "0", "9", "11"], "time": [2512, 3095, 3346, 4161, 4212, 4878, 4928, 4962, 5061]}, "edge": {"target": [], "time": []}}, "mouseout": {"state": {"target": ["5", "9", "8", "8", "6", "7", "6", "0", "9", "11"], "time": [1545, 3012, 3128, 4145, 4194, 4696, 4895, 4945, 4978, 5780]}, "edge": {"target": [], "time": []}}}, "displayed_time": "10.03", "trialTime": 11234, "trial_type": "mouselab-mdp", "trial_index": 55, "time_elapsed": 1229386, "internal_node_id": "0.0-4.0-3.0-15.0"}}, {"uniqueid": "w91134540:a73495764", "current_trial": 56, "dateTime": 1664556332562, "trialdata": {"revealed_states": [], "num_clicks_accrued": [0, 0, 0, 0, 0, 0, 0, 0, 0, 0, 0, 0, 0], "stateRewards": ["", -4, 4, -24, 48, 2, 4, -48, 24, 4, -8, -24, 24], "withholdReward": true, "trial_id": "mdp_740130150937", "block": "test2", "trialIndex": 48, "score": 24.75, "costs": -0.25, "simulationMode": [null, null, null], "rewards": [4, -8, 24], "path": ["0", "0", "9", "10", "12"], "rt": [1623, 496, 195], "actions": ["left", "left", "down"], "actionTimes": [3004, 3994, 4676], "queries": {"click": {"state": {"target": ["12"], "time": [2267]}, "edge": {"target": [], "time": []}}, "mouseover": {"state": {"target": ["12", "9"], "time": [2082, 2615]}, "edge": {"target": [], "time": []}}, "mouseout": {"state": {"target": ["0", "12", "9"], "time": [1930, 2514, 2647]}, "edge": {"target": [], "time": []}}}, "displayed_time": "10.38", "trialTime": 10688, "trial_type": "mouselab-mdp", "trial_index": 56, "time_elapsed": 1240121, "internal_node_id": "0.0-4.0-3.0-16.0"}}, {"uniqueid": "w91134540:a73495764", "current_trial": 57, "dateTime": 1664556342433, "trialdata": {"revealed_states": [], "num_clicks_accrued": [0, 0, 0, 0, 0, 0, 0, 0, 0, 0, 0, 0, 0], "stateRewards": ["", -4, 8, -24, 24, -2, -8, 24, -24, 4, -4, -48, 48], "withholdReward": true, "trial_id": "mdp_297684722007", "block": "test2", "trialIndex": 49, "score": 18.75, "costs": -0.25, "simulationMode": [null, null, null], "rewards": [-2, -8, 24], "path": ["0", "0", "5", "6", "7"], "rt": [1737, 180, 197], "actions": ["right", "right", "up"], "actionTimes": [3100, 3778, 4479], "queries": {"click": {"state": {"target": ["7"], "time": [2417]}, "edge": {"target": [], "time": []}}, "mouseover": {"state": {"target": ["0", "5", "6", "7"], "time": [1765, 2063, 2131, 2231]}, "edge": {"target": [], "time": []}}, "mouseout": {"state": {"target": ["0", "0", "5", "6", "7"], "time": [880, 2048, 2098, 2181, 2832]}, "edge": {"target": [], "time": []}}}, "displayed_time": "9.37", "trialTime": 9826, "trial_type": "mouselab-mdp", "trial_index": 57, "time_elapsed": 1249993, "internal_node_id": "0.0-4.0-3.0-17.0"}}, {"uniqueid": "w91134540:a73495764", "current_trial": 58, "dateTime": 1664556352564, "trialdata": {"revealed_states": [], "num_clicks_accrued": [0, 0, 0, 0, 0, 0, 0, 0, 0, 0, 0, 0, 0], "stateRewards": ["", -2, -4, -24, 48, -4, 8, 48, 48, 2, 8, -48, -24], "withholdReward": true, "trial_id": "mdp_136376573354", "block": "test2", "trialIndex": 50, "score": 56.75, "costs": -0.25, "simulationMode": [null, null, null], "rewards": [-4, 8, 48], "path": ["0", "0", "5", "6", "7"], "rt": [1877, 126, 164], "actions": ["right", "right", "up"], "actionTimes": [3232, 3851, 4507], "queries": {"click": {"state": {"target": ["7"], "time": [2546]}, "edge": {"target": [], "time": []}}, "mouseover": {"state": {"target": ["7"], "time": [2310]}, "edge": {"target": [], "time": []}}, "mouseout": {"state": {"target": ["6", "5", "7"], "time": [827, 858, 2994]}, "edge": {"target": [], "time": []}}}, "displayed_time": "9.36", "trialTime": 10086, "trial_type": "mouselab-mdp", "trial_index": 58, "time_elapsed": 1260124, "internal_node_id": "0.0-4.0-3.0-18.0"}}, {"uniqueid": "w91134540:a73495764", "current_trial": 59, "dateTime": 1664556366330, "trialdata": {"revealed_states": [], "num_clicks_accrued": [0, 0, 0, 0, 0, 0, 0, 0, 0, 0, 0, 0, 0], "stateRewards": ["", -2, 8, 48, 48, 2, 4, -48, 24, -4, -8, 48, 24], "withholdReward": true, "trial_id": "mdp_572910394648", "block": "test2", "trialIndex": 51, "score": 16.75, "costs": -0.25, "simulationMode": [null, null, null], "rewards": [-4, -8, 24], "path": ["0", "0", "9", "10", "12"], "rt": [1963, 134, 210], "actions": ["left", "left", "down"], "actionTimes": [3923, 4549, 5255], "queries": {"click": {"state": {"target": ["12"], "time": [3196]}, "edge": {"target": [], "time": []}}, "mouseover": {"state": {"target": ["9", "12", "0"], "time": [2578, 3146, 3611]}, "edge": {"target": [], "time": []}}, "mouseout": {"state": {"target": ["8", "5", "0", "9", "12", "0", "5", "0"], "time": [1580, 1678, 2563, 2594, 3579, 3628, 13180, 13279]}, "edge": {"target": [], "time": []}}}, "displayed_time": "10.96", "trialTime": 13720, "trial_type": "mouselab-mdp", "trial_index": 59, "time_elapsed": 1273890, "internal_node_id": "0.0-4.0-3.0-19.0"}}, {"uniqueid": "w91134540:a73495764", "current_trial": 60, "dateTime": 1664556376502, "trialdata": {"revealed_states": [], "num_clicks_accrued": [0, 0, 0, 0, 0, 0, 0, 0, 0, 0, 0, 0, 0], "stateRewards": ["", 2, -8, 24, -24, -2, 8, -48, -48, 2, -8, -24, -48], "withholdReward": false, "trial_id": "mdp_744278669205", "block": "test2", "trialIndex": 52, "score": 22, "costs": -1, "simulationMode": [null, null, null], "rewards": [2, -8, 24], "path": ["0", "0", "1", "2", "3"], "rt": [4148, 161, 251], "actions": ["up", "up", "right"], "actionTimes": [4914, 5573, 6314], "queries": {"click": {"state": {"target": ["12", "7", "8", "3"], "time": [1631, 2413, 3065, 4033]}, "edge": {"target": [], "time": []}}, "mouseover": {"state": {"target": ["12", "6", "7", "6", "8", "3", "3"], "time": [1496, 2080, 2279, 2778, 2862, 3513, 3880]}, "edge": {"target": [], "time": []}}, "mouseout": {"state": {"target": ["0", "12", "6", "7", "6", "8", "3", "3"], "time": [1263, 1897, 2112, 2764, 2828, 3413, 3528, 4547]}, "edge": {"target": [], "time": []}}}, "displayed_time": "9.77", "trialTime": 10126, "trial_type": "mouselab-mdp", "trial_index": 60, "time_elapsed": 1284062, "internal_node_id": "0.0-4.0-3.0-20.0"}}, {"uniqueid": "w91134540:a73495764", "current_trial": 61, "dateTime": 1664556389476, "trialdata": {"revealed_states": [], "num_clicks_accrued": [0, 0, 0, 0, 0, 0, 0, 0, 0, 0, 0, 0, 0], "stateRewards": ["", 4, -4, 48, -48, 4, -4, 24, -24, 4, 8, -24, -48], "withholdReward": true, "trial_id": "mdp_433630527224", "block": "test2", "trialIndex": 53, "score": 52.5, "costs": -0.5, "simulationMode": [null, null, null], "rewards": [4, -4, 48], "path": ["0", "0", "1", "2", "3"], "rt": [2360, 154, 89], "actions": ["up", "up", "right"], "actionTimes": [3547, 4195, 4779], "queries": {"click": {"state": {"target": ["4", "3"], "time": [2093, 2727]}, "edge": {"target": [], "time": []}}, "mouseover": {"state": {"target": ["1", "2", "4", "2", "3", "7"], "time": [1707, 1741, 1874, 2474, 2524, 3141]}, "edge": {"target": [], "time": []}}, "mouseout": {"state": {"target": ["0", "1", "2", "4", "2", "3", "7"], "time": [1658, 1740, 1773, 2442, 2506, 3058, 3157]}, "edge": {"target": [], "time": []}}}, "displayed_time": "9.19", "trialTime": 12928, "trial_type": "mouselab-mdp", "trial_index": 61, "time_elapsed": 1297036, "internal_node_id": "0.0-4.0-3.0-21.0"}}, {"uniqueid": "w91134540:a73495764", "current_trial": 62, "dateTime": 1664556416851, "trialdata": {"revealed_states": [], "num_clicks_accrued": [0, 0, 0, 0, 0, 0, 0, 0, 0, 0, 0, 0, 0], "stateRewards": ["", 2, -4, 48, -24, 4, -8, -24, 48, -2, -4, 24, -48], "withholdReward": true, "trial_id": "mdp_357328205509", "block": "test2", "trialIndex": 54, "score": 48.25, "costs": -0.75, "simulationMode": [null, null, null], "rewards": [4, -8, 48], "path": ["0", "0", "5", "6", "8"], "rt": [4024, 568, 107], "actions": ["right", "right", "down"], "actionTimes": [18355, 19414, 20019], "queries": {"click": {"state": {"target": ["4", "7", "8"], "time": [15331, 16784, 17699]}, "edge": {"target": [], "time": []}}, "mouseover": {"state": {"target": ["4", "7", "7", "6", "8"], "time": [15281, 16180, 16647, 17212, 17330]}, "edge": {"target": [], "time": []}}, "mouseout": {"state": {"target": ["6", "5", "0", "4", "7", "7", "6", "8"], "time": [14062, 14112, 14713, 15696, 16213, 17163, 17281, 18081]}, "edge": {"target": [], "time": []}}}, "displayed_time": "22.33", "trialTime": 27325, "trial_type": "mouselab-mdp", "trial_index": 62, "time_elapsed": 1324410, "internal_node_id": "0.0-4.0-3.0-22.0"}}, {"uniqueid": "w91134540:a73495764", "current_trial": 63, "dateTime": 1664556431958, "trialdata": {"revealed_states": [], "num_clicks_accrued": [0, 0, 0, 0, 0, 0, 0, 0, 0, 0, 0, 0, 0], "stateRewards": ["", -2, 8, 48, -24, 2, 4, -48, -24, -4, 8, -48, -48], "withholdReward": true, "trial_id": "mdp_539167561933", "block": "test2", "trialIndex": 55, "score": 58.5, "costs": -0.5, "simulationMode": [null, null, null], "rewards": [-2, 8, 48], "path": ["0", "0", "1", "2", "3"], "rt": [2615, 1, 68], "actions": ["up", "up", "right"], "actionTimes": [8033, 8534, 9117], "queries": {"click": {"state": {"target": ["12", "3"], "time": [6286, 7168]}, "edge": {"target": [], "time": []}}, "mouseover": {"state": {"target": ["12", "10", "2", "3"], "time": [6099, 6682, 6749, 7033]}, "edge": {"target": [], "time": []}}, "mouseout": {"state": {"target": ["0", "12", "10", "2", "3"], "time": [5983, 6666, 6700, 6783, 7616]}, "edge": {"target": [], "time": []}}}, "displayed_time": "14.42", "trialTime": 15052, "trial_type": "mouselab-mdp", "trial_index": 63, "time_elapsed": 1339518, "internal_node_id": "0.0-4.0-3.0-23.0"}}, {"uniqueid": "w91134540:a73495764", "current_trial": 64, "dateTime": 1664556442860, "trialdata": {"revealed_states": [], "num_clicks_accrued": [0, 0, 0, 0, 0, 0, 0, 0, 0, 0, 0, 0, 0], "stateRewards": ["", 2, -4, 48, -48, -4, -8, -48, 24, -4, 4, 48, 48], "withholdReward": false, "trial_id": "mdp_544803968425", "block": "test2", "trialIndex": 56, "score": 16.75, "costs": -0.25, "simulationMode": [null, null, null], "rewards": [-4, -8, 24], "path": ["0", "0", "5", "6", "8"], "rt": [1737, 374, 331], "actions": ["right", "right", "down"], "actionTimes": [3183, 4055, 4878], "queries": {"click": {"state": {"target": ["8"], "time": [2250]}, "edge": {"target": [], "time": []}}, "mouseover": {"state": {"target": ["8"], "time": [2047]}, "edge": {"target": [], "time": []}}, "mouseout": {"state": {"target": ["6", "5", "0", "8"], "time": [1114, 1162, 1931, 2613]}, "edge": {"target": [], "time": []}}}, "displayed_time": "10.45", "trialTime": 10852, "trial_type": "mouselab-mdp", "trial_index": 64, "time_elapsed": 1350420, "internal_node_id": "0.0-4.0-3.0-24.0"}}, {"uniqueid": "w91134540:a73495764", "current_trial": 65, "dateTime": 1664556461853, "trialdata": {"revealed_states": [], "num_clicks_accrued": [0, 0, 0, 0, 0, 0, 0, 0, 0, 0, 0, 0, 0], "stateRewards": ["", -2, 8, 24, -48, -2, -4, 24, 48, 2, 8, -48, -48], "withholdReward": false, "trial_id": "mdp_562228697607", "block": "test2", "trialIndex": 57, "score": 34.25, "costs": -0.75, "simulationMode": [null, null, null], "rewards": [-2, 8, 24], "path": ["0", "0", "1", "2", "3"], "rt": [3640, 544, 158], "actions": ["up", "up", "right"], "actionTimes": [12253, 13293, 13941], "queries": {"click": {"state": {"target": ["12", "11", "3"], "time": [9454, 10286, 11404]}, "edge": {"target": [], "time": []}}, "mouseover": {"state": {"target": ["9", "10", "12", "10", "11", "2", "3", "3", "7"], "time": [9100, 9149, 9282, 9966, 9999, 10684, 10817, 11316, 11850]}, "edge": {"target": [], "time": []}}, "mouseout": {"state": {"target": ["9", "0", "9", "10", "12", "10", "11", "2", "3", "3", "7"], "time": [8433, 9084, 9133, 9232, 9951, 9982, 10601, 10698, 10832, 11817, 11866]}, "edge": {"target": [], "time": []}}}, "displayed_time": "17.62", "trialTime": 18947, "trial_type": "mouselab-mdp", "trial_index": 65, "time_elapsed": 1369412, "internal_node_id": "0.0-4.0-3.0-25.0"}}, {"uniqueid": "w91134540:a73495764", "current_trial": 66, "dateTime": 1664556472230, "trialdata": {"revealed_states": [], "num_clicks_accrued": [0, 0, 0, 0, 0, 0, 0, 0, 0, 0, 0, 0, 0], "stateRewards": ["", -2, -4, -24, -48, -4, -8, -48, 24, -4, -8, -24, -48], "withholdReward": false, "trial_id": "mdp_475782454549", "block": "test2", "trialIndex": 58, "score": 16.75, "costs": -0.25, "simulationMode": [null, null, null], "rewards": [-4, -8, 24], "path": ["0", "0", "5", "6", "8"], "rt": [1300, 258, 214], "actions": ["right", "right", "down"], "actionTimes": [2799, 3558, 4264], "queries": {"click": {"state": {"target": ["8"], "time": [2305]}, "edge": {"target": [], "time": []}}, "mouseover": {"state": {"target": ["5", "8"], "time": [2034, 2149]}, "edge": {"target": [], "time": []}}, "mouseout": {"state": {"target": ["0", "5", "8"], "time": [1816, 2102, 2633]}, "edge": {"target": [], "time": []}}}, "displayed_time": "9.50", "trialTime": 10324, "trial_type": "mouselab-mdp", "trial_index": 66, "time_elapsed": 1379789, "internal_node_id": "0.0-4.0-3.0-26.0"}}, {"uniqueid": "w91134540:a73495764", "current_trial": 67, "dateTime": 1664556487242, "trialdata": {"revealed_states": [], "num_clicks_accrued": [0, 0, 0, 0, 0, 0, 0, 0, 0, 0, 0, 0, 0], "stateRewards": ["", -2, 8, 48, 24, 2, -8, -24, -48, -4, 8, -48, 24], "withholdReward": true, "trial_id": "mdp_224053025943", "block": "test2", "trialIndex": 59, "score": 32.75, "costs": -0.25, "simulationMode": [null, null, null], "rewards": [-4, 8, 24], "path": ["0", "0", "9", "10", "12"], "rt": [1712, 153, 228], "actions": ["left", "left", "down"], "actionTimes": [4826, 5478, 6203], "queries": {"click": {"state": {"target": ["12"], "time": [3917]}, "edge": {"target": [], "time": []}}, "mouseover": {"state": {"target": ["12", "8"], "time": [3792, 4443]}, "edge": {"target": [], "time": []}}, "mouseout": {"state": {"target": ["8", "9", "9", "0", "12", "8", "8"], "time": [1894, 2010, 2209, 3709, 4210, 4476, 14610]}, "edge": {"target": [], "time": []}}}, "displayed_time": "11.12", "trialTime": 14962, "trial_type": "mouselab-mdp", "trial_index": 67, "time_elapsed": 1394801, "internal_node_id": "0.0-4.0-3.0-27.0"}}, {"uniqueid": "w91134540:a73495764", "current_trial": 68, "dateTime": 1664556497065, "trialdata": {"revealed_states": [], "num_clicks_accrued": [0, 0, 0, 0, 0, 0, 0, 0, 0, 0, 0, 0, 0], "stateRewards": ["", -4, -8, 48, 48, -4, 4, 48, -24, 4, 8, -24, -48], "withholdReward": true, "trial_id": "mdp_142906093415", "block": "test2", "trialIndex": 60, "score": 40.5, "costs": -0.5, "simulationMode": [null, null, null], "rewards": [-4, -8, 48], "path": ["0", "0", "1", "2", "3"], "rt": [3090, 49, 87], "actions": ["up", "up", "right"], "actionTimes": [4393, 4936, 5520], "queries": {"click": {"state": {"target": ["12", "3"], "time": [2320, 3539]}, "edge": {"target": [], "time": []}}, "mouseover": {"state": {"target": ["9", "12", "0", "7", "3"], "time": [1768, 2168, 2685, 2802, 3235]}, "edge": {"target": [], "time": []}}, "mouseout": {"state": {"target": ["0", "9", "12", "0", "7", "3"], "time": [1735, 1818, 2635, 2701, 2902, 4034]}, "edge": {"target": [], "time": []}}}, "displayed_time": "9.31", "trialTime": 9777, "trial_type": "mouselab-mdp", "trial_index": 68, "time_elapsed": 1404625, "internal_node_id": "0.0-4.0-3.0-28.0"}}, {"uniqueid": "w91134540:a73495764", "current_trial": 69, "dateTime": 1664556507240, "trialdata": {"revealed_states": [], "num_clicks_accrued": [0, 0, 0, 0, 0, 0, 0, 0, 0, 0, 0, 0, 0], "stateRewards": ["", -2, -8, 48, 24, 4, -8, 24, 48, 4, -4, 24, -48], "withholdReward": true, "trial_id": "mdp_871576155740", "block": "test2", "trialIndex": 61, "score": 48.75, "costs": -0.25, "simulationMode": [null, null, null], "rewards": [4, -8, 48], "path": ["0", "0", "5", "6", "8"], "rt": [1633, 299, 154], "actions": ["right", "right", "down"], "actionTimes": [3273, 4073, 4729], "queries": {"click": {"state": {"target": ["8"], "time": [2679]}, "edge": {"target": [], "time": []}}, "mouseover": {"state": {"target": ["5", "8"], "time": [1991, 2374]}, "edge": {"target": [], "time": []}}, "mouseout": {"state": {"target": ["7", "0", "9", "0", "5", "5"], "time": [973, 1024, 1056, 1240, 1441, 2007]}, "edge": {"target": [], "time": []}}}, "displayed_time": "9.64", "trialTime": 10125, "trial_type": "mouselab-mdp", "trial_index": 69, "time_elapsed": 1414799, "internal_node_id": "0.0-4.0-3.0-29.0"}}, {"uniqueid": "w91134540:a73495764", "current_trial": 70, "dateTime": 1664556510901, "trialdata": {"rt": 3653, "stimulus": "<h1> End of block! </h1>\n\nYou have reached the end of the block 2/4. If you need a short break, feel free to take one now before moving on.\n\n<br><br>\nIn the next block, you will complete another 30 rounds of this game.\n\n<br><br>\n<div style='text-align: center;'>Press <code>space</code> to begin.</div>\n<br><br>\n<div style='text-align: center;'>(If the experiment doesn't continue, try clicking on the text and then pressing <code>space</code>.)</div>", "response": " ", "trial_id": "mdp_ready_3", "trial_type": "html-keyboard-response", "trial_index": 70, "time_elapsed": 1418461, "internal_node_id": "0.0-4.0-4.0"}}, {"uniqueid": "w91134540:a73495764", "current_trial": 71, "dateTime": 1664556520457, "trialdata": {"revealed_states": [], "num_clicks_accrued": [0, 0, 0, 0, 0, 0, 0, 0, 0, 0, 0, 0, 0], "stateRewards": ["", 2, -8, -24, -48, -2, -4, 48, 48, 4, 8, 48, 48], "withholdReward": true, "trial_id": "mdp_347285045422", "block": "test3", "trialIndex": 62, "score": 46.75, "costs": -0.25, "simulationMode": [null, null, null], "rewards": [-2, -4, 48], "path": ["0", "0", "5", "6", "8"], "rt": [1589, 214, 276], "actions": ["right", "right", "down"], "actionTimes": [2748, 3457, 4235], "queries": {"click": {"state": {"target": ["8"], "time": [2230]}, "edge": {"target": [], "time": []}}, "mouseover": {"state": {"target": ["5", "8"], "time": [1576, 1959]}, "edge": {"target": [], "time": []}}, "mouseout": {"state": {"target": ["1", "0", "5", "8"], "time": [527, 1543, 1593, 2543]}, "edge": {"target": [], "time": []}}}, "displayed_time": "9.16", "trialTime": 9510, "trial_type": "mouselab-mdp", "trial_index": 71, "time_elapsed": 1428017, "internal_node_id": "0.0-4.0-5.0-0.0"}}, {"uniqueid": "w91134540:a73495764", "current_trial": 72, "dateTime": 1664556537010, "trialdata": {"revealed_states": [], "num_clicks_accrued": [0, 0, 0, 0, 0, 0, 0, 0, 0, 0, 0, 0, 0], "stateRewards": ["", 4, -4, 48, 24, 2, 4, 24, -24, 2, 4, 24, 48], "withholdReward": true, "trial_id": "mdp_736351885282", "block": "test3", "trialIndex": 63, "score": 28.75, "costs": -0.25, "simulationMode": [null, null, null], "rewards": [4, -4, 24], "path": ["0", "0", "1", "2", "4"], "rt": [1729, 92, 108], "actions": ["up", "up", "left"], "actionTimes": [8128, 8708, 9308], "queries": {"click": {"state": {"target": ["4"], "time": [7301]}, "edge": {"target": [], "time": []}}, "mouseover": {"state": {"target": ["1", "2", "4", "1", "5"], "time": [6915, 6964, 7115, 7714, 7747]}, "edge": {"target": [], "time": []}}, "mouseout": {"state": {"target": ["6", "5", "1", "2", "4", "1", "5"], "time": [5281, 5349, 6948, 6998, 7698, 7731, 7764]}, "edge": {"target": [], "time": []}}}, "displayed_time": "15.40", "trialTime": 16502, "trial_type": "mouselab-mdp", "trial_index": 72, "time_elapsed": 1444569, "internal_node_id": "0.0-4.0-5.0-1.0"}}, {"uniqueid": "w91134540:a73495764", "current_trial": 73, "dateTime": 1664556547018, "trialdata": {"revealed_states": [], "num_clicks_accrued": [0, 0, 0, 0, 0, 0, 0, 0, 0, 0, 0, 0, 0], "stateRewards": ["", 4, -4, 48, -48, 4, -4, 24, -24, 4, 8, -24, -48], "withholdReward": true, "trial_id": "mdp_433630527224", "block": "test3", "trialIndex": 64, "score": 28.5, "costs": -0.5, "simulationMode": [null, null, null], "rewards": [4, -4, 24], "path": ["0", "0", "5", "6", "7"], "rt": [2480, 174, 97], "actions": ["right", "right", "up"], "actionTimes": [3258, 3932, 4521], "queries": {"click": {"state": {"target": ["8", "7"], "time": [1708, 2426]}, "edge": {"target": [], "time": []}}, "mouseover": {"state": {"target": ["8", "6", "7"], "time": [1609, 2140, 2225]}, "edge": {"target": [], "time": []}}, "mouseout": {"state": {"target": ["5", "0", "8", "6", "7"], "time": [525, 1041, 2124, 2174, 3026]}, "edge": {"target": [], "time": []}}}, "displayed_time": "8.78", "trialTime": 9953, "trial_type": "mouselab-mdp", "trial_index": 73, "time_elapsed": 1454577, "internal_node_id": "0.0-4.0-5.0-2.0"}}, {"uniqueid": "w91134540:a73495764", "current_trial": 74, "dateTime": 1664556557776, "trialdata": {"revealed_states": [], "num_clicks_accrued": [0, 0, 0, 0, 0, 0, 0, 0, 0, 0, 0, 0, 0], "stateRewards": ["", 4, 4, 48, -48, -2, 4, 48, -48, -4, 4, -24, -24], "withholdReward": true, "trial_id": "mdp_753324812898", "block": "test3", "trialIndex": 65, "score": 60.25, "costs": -0.75, "simulationMode": [null, null, null], "rewards": [4, 4, 48], "path": ["0", "0", "1", "2", "3"], "rt": [3991, 194, 9], "actions": ["up", "up", "right"], "actionTimes": [4927, 5617, 6115], "queries": {"click": {"state": {"target": ["12", "4", "3"], "time": [1741, 2990, 3925]}, "edge": {"target": [], "time": []}}, "mouseover": {"state": {"target": ["9", "12", "10", "11", "4", "2", "3", "3"], "time": [1306, 1689, 2140, 2171, 2941, 3457, 3505, 3839]}, "edge": {"target": [], "time": []}}, "mouseout": {"state": {"target": ["7", "9", "12", "10", "11", "4", "2", "3", "3"], "time": [589, 1321, 2139, 2155, 2205, 3457, 3488, 3521, 4373]}, "edge": {"target": [], "time": []}}}, "displayed_time": "9.94", "trialTime": 10708, "trial_type": "mouselab-mdp", "trial_index": 74, "time_elapsed": 1465335, "internal_node_id": "0.0-4.0-5.0-3.0"}}, {"uniqueid": "w91134540:a73495764", "current_trial": 75, "dateTime": 1664556568297, "trialdata": {"revealed_states": [], "num_clicks_accrued": [0, 0, 0, 0, 0, 0, 0, 0, 0, 0, 0, 0, 0], "stateRewards": ["", -2, 8, 48, 24, 2, -8, -24, -48, -4, 8, -48, 24], "withholdReward": true, "trial_id": "mdp_224053025943", "block": "test3", "trialIndex": 66, "score": 34.75, "costs": -0.25, "simulationMode": [null, null, null], "rewards": [-2, 8, 24], "path": ["0", "0", "1", "2", "4"], "rt": [1696, 44, 135], "actions": ["up", "up", "left"], "actionTimes": [2800, 3333, 3958], "queries": {"click": {"state": {"target": ["4"], "time": [1907]}, "edge": {"target": [], "time": []}}, "mouseover": {"state": {"target": ["1", "2", "4", "0"], "time": [1555, 1622, 1722, 2372]}, "edge": {"target": [], "time": []}}, "mouseout": {"state": {"target": ["5", "0", "1", "2", "4", "0"], "time": [839, 1505, 1571, 1671, 2307, 2388]}, "edge": {"target": [], "time": []}}}, "displayed_time": "10.11", "trialTime": 10462, "trial_type": "mouselab-mdp", "trial_index": 75, "time_elapsed": 1475857, "internal_node_id": "0.0-4.0-5.0-4.0"}}, {"uniqueid": "w91134540:a73495764", "current_trial": 76, "dateTime": 1664556577675, "trialdata": {"revealed_states": [], "num_clicks_accrued": [0, 0, 0, 0, 0, 0, 0, 0, 0, 0, 0, 0, 0], "stateRewards": ["", -2, 4, 24, 48, 2, 4, -48, -48, 2, 8, 48, -48], "withholdReward": true, "trial_id": "mdp_409609775558", "block": "test3", "trialIndex": 67, "score": 62.5, "costs": -0.5, "simulationMode": [null, null, null], "rewards": [2, 8, 48], "path": ["0", "0", "9", "10", "11"], "rt": [2799, 144, 78], "actions": ["left", "left", "up"], "actionTimes": [3629, 4273, 4841], "queries": {"click": {"state": {"target": ["12", "11"], "time": [1948, 2799]}, "edge": {"target": [], "time": []}}, "mouseover": {"state": {"target": ["10", "12", "9", "11", "1", "6"], "time": [1612, 1845, 2379, 2712, 3112, 3278]}, "edge": {"target": [], "time": []}}, "mouseout": {"state": {"target": ["0", "10", "12", "9", "11", "1"], "time": [645, 1762, 2262, 2410, 3062, 3129]}, "edge": {"target": [], "time": []}}}, "displayed_time": "8.83", "trialTime": 9330, "trial_type": "mouselab-mdp", "trial_index": 76, "time_elapsed": 1485234, "internal_node_id": "0.0-4.0-5.0-5.0"}}, {"uniqueid": "w91134540:a73495764", "current_trial": 77, "dateTime": 1664556588658, "trialdata": {"revealed_states": [], "num_clicks_accrued": [0, 0, 0, 0, 0, 0, 0, 0, 0, 0, 0, 0, 0], "stateRewards": ["", 2, -8, 48, -24, 2, -4, 24, 48, 4, -4, 48, -24], "withholdReward": true, "trial_id": "mdp_656500928756", "block": "test3", "trialIndex": 68, "score": 50.75, "costs": -0.25, "simulationMode": [null, null, null], "rewards": [2, -4, 48], "path": ["0", "0", "5", "6", "8"], "rt": [1405, 292, 485], "actions": ["right", "right", "down"], "actionTimes": [2423, 3206, 4183], "queries": {"click": {"state": {"target": ["8"], "time": [1966]}, "edge": {"target": [], "time": []}}, "mouseover": {"state": {"target": ["8"], "time": [1781]}, "edge": {"target": [], "time": []}}, "mouseout": {"state": {"target": ["6", "5", "8"], "time": [631, 798, 2231]}, "edge": {"target": [], "time": []}}}, "displayed_time": "8.02", "trialTime": 10932, "trial_type": "mouselab-mdp", "trial_index": 77, "time_elapsed": 1496217, "internal_node_id": "0.0-4.0-5.0-6.0"}}, {"uniqueid": "w91134540:a73495764", "current_trial": 78, "dateTime": 1664556604266, "trialdata": {"revealed_states": [], "num_clicks_accrued": [0, 0, 0, 0, 0, 0, 0, 0, 0, 0, 0, 0, 0], "stateRewards": ["", 2, 4, -48, 24, -4, 4, -24, 48, -2, -8, -48, 48], "withholdReward": true, "trial_id": "mdp_424193661731", "block": "test3", "trialIndex": 69, "score": 42.75, "costs": -0.25, "simulationMode": [null, null, null], "rewards": [-2, -8, 48], "path": ["0", "0", "9", "10", "12"], "rt": [1640, 201, 152], "actions": ["left", "left", "down"], "actionTimes": [3286, 3983, 4633], "queries": {"click": {"state": {"target": ["12"], "time": [2517]}, "edge": {"target": [], "time": []}}, "mouseover": {"state": {"target": ["0", "12"], "time": [2168, 2315]}, "edge": {"target": [], "time": []}}, "mouseout": {"state": {"target": ["5", "0", "0", "12"], "time": [848, 1514, 2197, 2916]}, "edge": {"target": [], "time": []}}}, "displayed_time": "10.65", "trialTime": 15557, "trial_type": "mouselab-mdp", "trial_index": 78, "time_elapsed": 1511826, "internal_node_id": "0.0-4.0-5.0-7.0"}}, {"uniqueid": "w91134540:a73495764", "current_trial": 79, "dateTime": 1664556618775, "trialdata": {"revealed_states": [], "num_clicks_accrued": [0, 0, 0, 0, 0, 0, 0, 0, 0, 0, 0, 0, 0], "stateRewards": ["", -2, -8, -24, -48, 4, -8, 48, 24, 2, 4, -48, -48], "withholdReward": true, "trial_id": "mdp_898082967464", "block": "test3", "trialIndex": 70, "score": 24, "costs": -1, "simulationMode": [null, null, null], "rewards": [4, -8, 24], "path": ["0", "0", "5", "6", "8"], "rt": [5053, 103, 376], "actions": ["right", "right", "down"], "actionTimes": [6192, 6792, 7665], "queries": {"click": {"state": {"target": ["12", "3", "4", "8"], "time": [2359, 3526, 4228, 5309]}, "edge": {"target": [], "time": []}}, "mouseover": {"state": {"target": ["0", "12", "12", "5", "1", "3", "2", "4", "4", "1", "5", "8", "8", "6", "7"], "time": [1658, 1774, 2241, 2790, 3174, 3457, 3923, 3956, 4090, 4556, 4590, 4673, 5124, 5573, 5742]}, "edge": {"target": [], "time": []}}, "mouseout": {"state": {"target": ["8", "9", "0", "12", "12", "5", "1", "3", "2", "4", "4", "1", "5", "8", "8", "6", "7"], "time": [540, 923, 1690, 1823, 2674, 2840, 3189, 3908, 3939, 4006, 4524, 4572, 4605, 4841, 5524, 5673, 5773]}, "edge": {"target": [], "time": []}}}, "displayed_time": "10.14", "trialTime": 14458, "trial_type": "mouselab-mdp", "trial_index": 79, "time_elapsed": 1526334, "internal_node_id": "0.0-4.0-5.0-8.0"}}, {"uniqueid": "w91134540:a73495764", "current_trial": 80, "dateTime": 1664556632109, "trialdata": {"revealed_states": [], "num_clicks_accrued": [0, 0, 0, 0, 0, 0, 0, 0, 0, 0, 0, 0, 0], "stateRewards": ["", 2, -4, 48, -48, -4, -8, -48, 24, -4, 4, 48, 48], "withholdReward": false, "trial_id": "mdp_544803968425", "block": "test3", "trialIndex": 71, "score": 52.75, "costs": -0.25, "simulationMode": [null, null, null], "rewards": [-4, 4, 48], "path": ["0", "0", "9", "10", "12"], "rt": [1372, 143, 121], "actions": ["left", "left", "down"], "actionTimes": [2780, 3422, 4034], "queries": {"click": {"state": {"target": ["12"], "time": [2101]}, "edge": {"target": [], "time": []}}, "mouseover": {"state": {"target": ["12", "8"], "time": [1946, 2530]}, "edge": {"target": [], "time": []}}, "mouseout": {"state": {"target": ["9", "0", "12"], "time": [1078, 1830, 2462]}, "edge": {"target": [], "time": []}}}, "displayed_time": "9.41", "trialTime": 13281, "trial_type": "mouselab-mdp", "trial_index": 80, "time_elapsed": 1539668, "internal_node_id": "0.0-4.0-5.0-9.0"}}, {"uniqueid": "w91134540:a73495764", "current_trial": 81, "dateTime": 1664556650389, "trialdata": {"revealed_states": [], "num_clicks_accrued": [0, 0, 0, 0, 0, 0, 0, 0, 0, 0, 0, 0, 0], "stateRewards": ["", 2, -4, -48, 24, 4, 4, 48, -48, -2, -4, -24, -48], "withholdReward": true, "trial_id": "mdp_858916930936", "block": "test3", "trialIndex": 72, "score": 59.75, "costs": -1.25, "simulationMode": [null, null, null], "rewards": [4, 4, 48], "path": ["0", "0", "5", "6", "7"], "rt": [11845, 625, 22], "actions": ["right", "right", "up"], "actionTimes": [13988, 15104, 15617], "queries": {"click": {"state": {"target": ["12", "3", "11", "8", "7"], "time": [8850, 9997, 10881, 11899, 13216]}, "edge": {"target": [], "time": []}}, "mouseover": {"state": {"target": ["9", "12", "2", "3", "2", "4", "11", "1", "6", "8", "6", "7"], "time": [8246, 8645, 9646, 9945, 10395, 10444, 10746, 11278, 11328, 11611, 12961, 13028]}, "edge": {"target": [], "time": []}}, "mouseout": {"state": {"target": ["8", "5", "9", "12", "2", "3", "2", "4", "11", "1", "6", "8", "6", "7"], "time": [994, 1596, 8378, 9196, 9661, 10363, 10429, 10494, 11247, 11295, 11345, 12930, 12995, 13662]}, "edge": {"target": [], "time": []}}}, "displayed_time": "16.13", "trialTime": 18227, "trial_type": "mouselab-mdp", "trial_index": 81, "time_elapsed": 1557948, "internal_node_id": "0.0-4.0-5.0-10.0"}}, {"uniqueid": "w91134540:a73495764", "current_trial": 82, "dateTime": 1664556660808, "trialdata": {"revealed_states": [], "num_clicks_accrued": [0, 0, 0, 0, 0, 0, 0, 0, 0, 0, 0, 0, 0], "stateRewards": ["", 4, -8, 24, 48, -2, -4, -48, 24, 2, 4, -48, -24], "withholdReward": true, "trial_id": "mdp_749974461966", "block": "test3", "trialIndex": 73, "score": 48.5, "costs": -0.5, "simulationMode": [null, null, null], "rewards": [4, -8, 48], "path": ["0", "0", "1", "2", "4"], "rt": [3537, 393, 119], "actions": ["up", "up", "left"], "actionTimes": [4425, 5319, 5932], "queries": {"click": {"state": {"target": ["7", "4"], "time": [2231, 3531]}, "edge": {"target": [], "time": []}}, "mouseover": {"state": {"target": ["1", "7", "4", "4", "1", "5", "6"], "time": [1878, 2127, 3128, 3445, 3960, 3992, 4009]}, "edge": {"target": [], "time": []}}, "mouseout": {"state": {"target": ["1", "7", "4", "4", "1", "5"], "time": [1893, 2961, 3311, 3927, 3975, 4009]}, "edge": {"target": [], "time": []}}}, "displayed_time": "8.89", "trialTime": 10361, "trial_type": "mouselab-mdp", "trial_index": 82, "time_elapsed": 1568368, "internal_node_id": "0.0-4.0-5.0-11.0"}}, {"uniqueid": "w91134540:a73495764", "current_trial": 83, "dateTime": 1664556675902, "trialdata": {"revealed_states": [], "num_clicks_accrued": [0, 0, 0, 0, 0, 0, 0, 0, 0, 0, 0, 0, 0], "stateRewards": ["", -2, 4, 24, 48, 2, 4, -48, -48, -2, 8, 48, -24], "withholdReward": true, "trial_id": "mdp_305701202606", "block": "test3", "trialIndex": 74, "score": 54.75, "costs": -0.25, "simulationMode": [null, null, null], "rewards": [-2, 4, 48], "path": ["0", "0", "1", "2", "4"], "rt": [6358, 118, 103], "actions": ["up", "up", "left"], "actionTimes": [7733, 8345, 8947], "queries": {"click": {"state": {"target": ["4"], "time": [6847]}, "edge": {"target": [], "time": []}}, "mouseover": {"state": {"target": ["5", "4", "4", "2", "3"], "time": [1944, 3012, 6744, 7361, 7378]}, "edge": {"target": [], "time": []}}, "mouseout": {"state": {"target": ["6", "5", "0", "5", "4", "4", "2", "3"], "time": [562, 610, 1862, 2162, 3928, 7345, 7378, 7394]}, "edge": {"target": [], "time": []}}}, "displayed_time": "10.38", "trialTime": 15039, "trial_type": "mouselab-mdp", "trial_index": 83, "time_elapsed": 1583462, "internal_node_id": "0.0-4.0-5.0-12.0"}}, {"uniqueid": "w91134540:a73495764", "current_trial": 84, "dateTime": 1664556688285, "trialdata": {"revealed_states": [], "num_clicks_accrued": [0, 0, 0, 0, 0, 0, 0, 0, 0, 0, 0, 0, 0], "stateRewards": ["", -4, -8, -24, 24, 2, 8, 24, 48, 2, 4, 24, -48], "withholdReward": true, "trial_id": "mdp_122352383932", "block": "test3", "trialIndex": 75, "score": 16.25, "costs": -0.75, "simulationMode": [null, null, null], "rewards": [-4, -8, 24], "path": ["0", "0", "1", "2", "4"], "rt": [3751, 223, 181], "actions": ["up", "up", "left"], "actionTimes": [5810, 6526, 7200], "queries": {"click": {"state": {"target": ["12", "3", "4"], "time": [3287, 4254, 4970]}, "edge": {"target": [], "time": []}}, "mouseover": {"state": {"target": ["0", "12", "12", "0", "1", "3", "4", "6"], "time": [2553, 2650, 3185, 3719, 3752, 4119, 4851, 5385]}, "edge": {"target": [], "time": []}}, "mouseout": {"state": {"target": ["7", "5", "0", "12", "12", "0", "1", "3", "4", "6"], "time": [1585, 1685, 2567, 2684, 3585, 3735, 3784, 4703, 5252, 5401]}, "edge": {"target": [], "time": []}}}, "displayed_time": "10.06", "trialTime": 12330, "trial_type": "mouselab-mdp", "trial_index": 84, "time_elapsed": 1595845, "internal_node_id": "0.0-4.0-5.0-13.0"}}, {"uniqueid": "w91134540:a73495764", "current_trial": 85, "dateTime": 1664556699803, "trialdata": {"revealed_states": [], "num_clicks_accrued": [0, 0, 0, 0, 0, 0, 0, 0, 0, 0, 0, 0, 0], "stateRewards": ["", 4, -8, 48, -24, -4, 4, 24, 24, -2, -4, 24, 24], "withholdReward": false, "trial_id": "mdp_542168715839", "block": "test3", "trialIndex": 76, "score": 22.75, "costs": -0.25, "simulationMode": [null, null, null], "rewards": [-2, -4, 24], "path": ["0", "0", "9", "10", "11"], "rt": [2961, 88, 73], "actions": ["left", "left", "up"], "actionTimes": [4092, 4672, 5239], "queries": {"click": {"state": {"target": ["11"], "time": [2604]}, "edge": {"target": [], "time": []}}, "mouseover": {"state": {"target": ["9", "11", "10", "10", "11", "5"], "time": [1534, 2018, 2066, 2217, 2517, 3584]}, "edge": {"target": [], "time": []}}, "mouseout": {"state": {"target": ["8", "5", "9", "11", "10", "10", "11", "5"], "time": [750, 799, 1549, 2050, 2100, 2283, 3518, 3600]}, "edge": {"target": [], "time": []}}}, "displayed_time": "10.13", "trialTime": 11462, "trial_type": "mouselab-mdp", "trial_index": 85, "time_elapsed": 1607363, "internal_node_id": "0.0-4.0-5.0-14.0"}}, {"uniqueid": "w91134540:a73495764", "current_trial": 86, "dateTime": 1664556717202, "trialdata": {"revealed_states": [], "num_clicks_accrued": [0, 0, 0, 0, 0, 0, 0, 0, 0, 0, 0, 0, 0], "stateRewards": ["", -4, 4, -48, -48, -4, 8, -24, 24, 2, -4, 48, 48], "withholdReward": true, "trial_id": "mdp_821566905048", "block": "test3", "trialIndex": 77, "score": 32.75, "costs": -0.25, "simulationMode": [null, null, null], "rewards": [-4, 8, 24], "path": ["0", "0", "5", "6", "8"], "rt": [2365, 464, 105], "actions": ["right", "right", "down"], "actionTimes": [3483, 4446, 5053], "queries": {"click": {"state": {"target": ["8"], "time": [2651]}, "edge": {"target": [], "time": []}}, "mouseover": {"state": {"target": ["0", "6", "8"], "time": [1517, 1782, 2549]}, "edge": {"target": [], "time": []}}, "mouseout": {"state": {"target": ["5", "0", "6", "8"], "time": [883, 1548, 1798, 2983]}, "edge": {"target": [], "time": []}}}, "displayed_time": "9.12", "trialTime": 17343, "trial_type": "mouselab-mdp", "trial_index": 86, "time_elapsed": 1624762, "internal_node_id": "0.0-4.0-5.0-15.0"}}, {"uniqueid": "w91134540:a73495764", "current_trial": 87, "dateTime": 1664556728402, "trialdata": {"revealed_states": [], "num_clicks_accrued": [0, 0, 0, 0, 0, 0, 0, 0, 0, 0, 0, 0, 0], "stateRewards": ["", 2, 8, -48, -24, 2, -4, -48, 24, 2, -4, -24, -24], "withholdReward": true, "trial_id": "mdp_954659099093", "block": "test3", "trialIndex": 78, "score": 25.5, "costs": -1.5, "simulationMode": [null, null, null], "rewards": [2, -4, 24], "path": ["0", "0", "5", "6", "8"], "rt": [6815, 361, 225], "actions": ["right", "right", "down"], "actionTimes": [7966, 8829, 9544], "queries": {"click": {"state": {"target": ["7", "4", "12", "11", "3", "8"], "time": [2256, 3203, 4420, 5386, 6138, 7254]}, "edge": {"target": [], "time": []}}, "mouseover": {"state": {"target": ["8", "6", "7", "7", "3", "2", "4", "4", "10", "12", "10", "11", "3", "8"], "time": [1700, 1834, 1867, 2134, 2768, 2900, 2934, 3102, 3751, 4318, 4734, 5251, 5885, 6935]}, "edge": {"target": [], "time": []}}, "mouseout": {"state": {"target": ["6", "8", "6", "7", "7", "3", "2", "4", "4", "10", "12", "10", "11", "3", "8"], "time": [884, 1818, 1850, 1883, 2717, 2884, 2933, 3001, 3584, 3818, 4684, 4852, 5752, 6469, 7634]}, "edge": {"target": [], "time": []}}}, "displayed_time": "10.15", "trialTime": 11145, "trial_type": "mouselab-mdp", "trial_index": 87, "time_elapsed": 1635962, "internal_node_id": "0.0-4.0-5.0-16.0"}}, {"uniqueid": "w91134540:a73495764", "current_trial": 88, "dateTime": 1664556739856, "trialdata": {"revealed_states": [], "num_clicks_accrued": [0, 0, 0, 0, 0, 0, 0, 0, 0, 0, 0, 0, 0], "stateRewards": ["", 4, 4, 48, -48, 4, 4, -48, 24, 2, 8, 24, -48], "withholdReward": false, "trial_id": "mdp_291674656283", "block": "test3", "trialIndex": 79, "score": 36.75, "costs": -0.25, "simulationMode": [null, null, null], "rewards": [4, 4, 24], "path": ["0", "0", "5", "6", "8"], "rt": [1965, 320, 104], "actions": ["right", "right", "down"], "actionTimes": [3899, 4710, 5310], "queries": {"click": {"state": {"target": ["8"], "time": [3107]}, "edge": {"target": [], "time": []}}, "mouseover": {"state": {"target": ["5", "8"], "time": [2388, 2989]}, "edge": {"target": [], "time": []}}, "mouseout": {"state": {"target": ["8", "0", "5"], "time": [671, 2373, 2404]}, "edge": {"target": [], "time": []}}}, "displayed_time": "10.94", "trialTime": 11403, "trial_type": "mouselab-mdp", "trial_index": 88, "time_elapsed": 1647416, "internal_node_id": "0.0-4.0-5.0-17.0"}}, {"uniqueid": "w91134540:a73495764", "current_trial": 89, "dateTime": 1664556749782, "trialdata": {"revealed_states": [], "num_clicks_accrued": [0, 0, 0, 0, 0, 0, 0, 0, 0