{"condition": 0, "counterbalance": 0, "assignmentId": "a41176416", "workerId": "w60055161", "hitId": "h43719076", "currenttrial": 252, "bonus": 0, "data": [{"uniqueid": "w60055161:a41176416", "current_trial": 0, "dateTime": 1664555208277, "trialdata": {"success": true, "trial_type": "fullscreen", "trial_index": 0, "time_elapsed": 8858, "internal_node_id": "0.0-0.0"}}, {"uniqueid": "w60055161:a41176416", "current_trial": 1, "dateTime": 1664555228074, "trialdata": {"view_history": [{"page_index": 0, "viewing_time": 19760}], "rt": 19765, "trial_id": "exp_instructions_distractor", "trial_type": "instructions", "trial_index": 1, "time_elapsed": 28662, "internal_node_id": "0.0-1.0"}}, {"uniqueid": "w60055161:a41176416", "current_trial": 2, "dateTime": 1664555296323, "trialdata": {"view_history": [{"page_index": 0, "viewing_time": 68237}], "rt": 68238, "trial_id": "color_game_instructions", "trial_type": "instructions", "trial_index": 2, "time_elapsed": 96910, "internal_node_id": "0.0-2.0"}}, {"uniqueid": "w60055161:a41176416", "current_trial": 3, "dateTime": 1664555299504, "trialdata": {"rt": 3174, "stimulus": "<h1> Get ready to start the game! </h1>\n\nThank you for reading the instructions. Get ready start with the first of 5 block(s) of this game.\n<br><br>\nIn this first block, you will complete 90 rounds of this game before moving on.\n<br><br>\nRemember, the better you perform, the bigger your bonus will be!\n<br><br>\n<div style='text-align: center;'>Press <code>space</code> to begin.</div>", "response": " ", "trial_id": "stroop_1_ready_1", "trial_type": "html-keyboard-response", "trial_index": 3, "time_elapsed": 100092, "internal_node_id": "0.0-3.0"}}, {"uniqueid": "w60055161:a41176416", "current_trial": 4, "dateTime": 1664555301642, "trialdata": {"rt": 2058, "stimulus": "<p id='stroop-text' class='stroop-green'>GREEN</p>", "response": "g", "stimulus-type": "congruent", "word": "green", "color": "green", "correct_response": "g", "trial_id": "stroop-trial-1-congruent-30", "trial_type": "html-keyboard-response", "trial_index": 4, "time_elapsed": 102227, "internal_node_id": "0.0-4.0-0.0"}}, {"uniqueid": "w60055161:a41176416", "current_trial": 5, "dateTime": 1664555303666, "trialdata": {"rt": 1480, "stimulus": "<p id='stroop-text' class='stroop-blue'>BLUE</p>", "response": "b", "stimulus-type": "congruent", "word": "blue", "color": "blue", "correct_response": "b", "trial_id": "stroop-trial-1-congruent-12", "trial_type": "html-keyboard-response", "trial_index": 5, "time_elapsed": 104253, "internal_node_id": "0.0-4.0-1.0"}}, {"uniqueid": "w60055161:a41176416", "current_trial": 6, "dateTime": 1664555306693, "trialdata": {"rt": 2508, "stimulus": "<p id='stroop-text' class='stroop-red'>WINDOW</p>", "response": "r", "stimulus-type": "unrelated", "word": "WINDOW", "color": "red", "correct_response": "r", "trial_id": "stroop-trial-1-unrelated-19", "trial_type": "html-keyboard-response", "trial_index": 6, "time_elapsed": 107280, "internal_node_id": "0.0-4.0-2.0"}}, {"uniqueid": "w60055161:a41176416", "current_trial": 7, "dateTime": 1664555308314, "trialdata": {"rt": 1112, "stimulus": "<p id='stroop-text' class='stroop-red'>WINDOW</p>", "response": "r", "stimulus-type": "unrelated", "word": "WINDOW", "color": "red", "correct_response": "r", "trial_id": "stroop-trial-1-unrelated-10", "trial_type": "html-keyboard-response", "trial_index": 7, "time_elapsed": 108900, "internal_node_id": "0.0-4.0-3.0"}}, {"uniqueid": "w60055161:a41176416", "current_trial": 8, "dateTime": 1664555309579, "trialdata": {"rt": 743, "stimulus": "<p id='stroop-text' class='stroop-red'>RED</p>", "response": "r", "stimulus-type": "congruent", "word": "red", "color": "red", "correct_response": "r", "trial_id": "stroop-trial-1-congruent-17", "trial_type": "html-keyboard-response", "trial_index": 8, "time_elapsed": 110163, "internal_node_id": "0.0-4.0-4.0"}}, {"uniqueid": "w60055161:a41176416", "current_trial": 9, "dateTime": 1664555311903, "trialdata": {"rt": 1806, "stimulus": "<p id='stroop-text' class='stroop-blue'>RED</p>", "response": "b", "stimulus-type": "incongruent", "word": "red", "color": "blue", "correct_response": "b", "trial_id": "stroop-trial-1-incongruent-7", "trial_type": "html-keyboard-response", "trial_index": 9, "time_elapsed": 112490, "internal_node_id": "0.0-4.0-5.0"}}, {"uniqueid": "w60055161:a41176416", "current_trial": 10, "dateTime": 1664555314170, "trialdata": {"rt": 1759, "stimulus": "<p id='stroop-text' class='stroop-green'>FORK</p>", "response": "g", "stimulus-type": "unrelated", "word": "FORK", "color": "green", "correct_response": "g", "trial_id": "stroop-trial-1-unrelated-21", "trial_type": "html-keyboard-response", "trial_index": 10, "time_elapsed": 114757, "internal_node_id": "0.0-4.0-6.0"}}, {"uniqueid": "w60055161:a41176416", "current_trial": 11, "dateTime": 1664555316478, "trialdata": {"rt": 1789, "stimulus": "<p id='stroop-text' class='stroop-yellow'>BLUE</p>", "response": "y", "stimulus-type": "incongruent", "word": "blue", "color": "yellow", "correct_response": "y", "trial_id": "stroop-trial-1-incongruent-22", "trial_type": "html-keyboard-response", "trial_index": 11, "time_elapsed": 117066, "internal_node_id": "0.0-4.0-7.0"}}, {"uniqueid": "w60055161:a41176416", "current_trial": 12, "dateTime": 1664555319779, "trialdata": {"rt": 2794, "stimulus": "<p id='stroop-text' class='stroop-red'>BLUE</p>", "response": "r", "stimulus-type": "incongruent", "word": "blue", "color": "red", "correct_response": "r", "trial_id": "stroop-trial-1-incongruent-20", "trial_type": "html-keyboard-response", "trial_index": 12, "time_elapsed": 120366, "internal_node_id": "0.0-4.0-8.0"}}, {"uniqueid": "w60055161:a41176416", "current_trial": 13, "dateTime": 1664555321063, "trialdata": {"rt": 776, "stimulus": "<p id='stroop-text' class='stroop-red'>RED</p>", "response": "r", "stimulus-type": "congruent", "word": "red", "color": "red", "correct_response": "r", "trial_id": "stroop-trial-1-congruent-6", "trial_type": "html-keyboard-response", "trial_index": 13, "time_elapsed": 121650, "internal_node_id": "0.0-4.0-9.0"}}, {"uniqueid": "w60055161:a41176416", "current_trial": 14, "dateTime": 1664555322880, "trialdata": {"rt": 1259, "stimulus": "<p id='stroop-text' class='stroop-green'>GREEN</p>", "response": "g", "stimulus-type": "congruent", "word": "green", "color": "green", "correct_response": "g", "trial_id": "stroop-trial-1-congruent-10", "trial_type": "html-keyboard-response", "trial_index": 14, "time_elapsed": 123468, "internal_node_id": "0.0-4.0-10.0"}}, {"uniqueid": "w60055161:a41176416", "current_trial": 15, "dateTime": 1664555325251, "trialdata": {"rt": 1862, "stimulus": "<p id='stroop-text' class='stroop-blue'>RED</p>", "response": "b", "stimulus-type": "incongruent", "word": "red", "color": "blue", "correct_response": "b", "trial_id": "stroop-trial-1-incongruent-12", "trial_type": "html-keyboard-response", "trial_index": 15, "time_elapsed": 125837, "internal_node_id": "0.0-4.0-11.0"}}, {"uniqueid": "w60055161:a41176416", "current_trial": 16, "dateTime": 1664555327584, "trialdata": {"rt": 1807, "stimulus": "<p id='stroop-text' class='stroop-green'>DOG</p>", "response": "g", "stimulus-type": "unrelated", "word": "DOG", "color": "green", "correct_response": "g", "trial_id": "stroop-trial-1-unrelated-4", "trial_type": "html-keyboard-response", "trial_index": 16, "time_elapsed": 128172, "internal_node_id": "0.0-4.0-12.0"}}, {"uniqueid": "w60055161:a41176416", "current_trial": 17, "dateTime": 1664555330757, "trialdata": {"rt": 2665, "stimulus": "<p id='stroop-text' class='stroop-yellow'>GREEN</p>", "response": "y", "stimulus-type": "incongruent", "word": "green", "color": "yellow", "correct_response": "y", "trial_id": "stroop-trial-1-incongruent-27", "trial_type": "html-keyboard-response", "trial_index": 17, "time_elapsed": 131344, "internal_node_id": "0.0-4.0-13.0"}}, {"uniqueid": "w60055161:a41176416", "current_trial": 18, "dateTime": 1664555333023, "trialdata": {"rt": 1759, "stimulus": "<p id='stroop-text' class='stroop-red'>YELLOW</p>", "response": "r", "stimulus-type": "incongruent", "word": "yellow", "color": "red", "correct_response": "r", "trial_id": "stroop-trial-1-incongruent-17", "trial_type": "html-keyboard-response", "trial_index": 18, "time_elapsed": 133610, "internal_node_id": "0.0-4.0-14.0"}}, {"uniqueid": "w60055161:a41176416", "current_trial": 19, "dateTime": 1664555335347, "trialdata": {"rt": 1814, "stimulus": "<p id='stroop-text' class='stroop-blue'>BRAIN</p>", "response": "b", "stimulus-type": "unrelated", "word": "BRAIN", "color": "blue", "correct_response": "b", "trial_id": "stroop-trial-1-unrelated-3", "trial_type": "html-keyboard-response", "trial_index": 19, "time_elapsed": 135935, "internal_node_id": "0.0-4.0-15.0"}}, {"uniqueid": "w60055161:a41176416", "current_trial": 20, "dateTime": 1664555338053, "trialdata": {"rt": 2190, "stimulus": "<p id='stroop-text' class='stroop-yellow'>RED</p>", "response": "y", "stimulus-type": "incongruent", "word": "red", "color": "yellow", "correct_response": "y", "trial_id": "stroop-trial-1-incongruent-18", "trial_type": "html-keyboard-response", "trial_index": 20, "time_elapsed": 138640, "internal_node_id": "0.0-4.0-16.0"}}, {"uniqueid": "w60055161:a41176416", "current_trial": 21, "dateTime": 1664555339910, "trialdata": {"rt": 1350, "stimulus": "<p id='stroop-text' class='stroop-blue'>BLUE</p>", "response": "b", "stimulus-type": "congruent", "word": "blue", "color": "blue", "correct_response": "b", "trial_id": "stroop-trial-1-congruent-24", "trial_type": "html-keyboard-response", "trial_index": 21, "time_elapsed": 140497, "internal_node_id": "0.0-4.0-17.0"}}, {"uniqueid": "w60055161:a41176416", "current_trial": 22, "dateTime": 1664555342425, "trialdata": {"rt": 2006, "stimulus": "<p id='stroop-text' class='stroop-green'>STONE</p>", "response": "g", "stimulus-type": "unrelated", "word": "STONE", "color": "green", "correct_response": "g", "trial_id": "stroop-trial-1-unrelated-18", "trial_type": "html-keyboard-response", "trial_index": 22, "time_elapsed": 143012, "internal_node_id": "0.0-4.0-18.0"}}, {"uniqueid": "w60055161:a41176416", "current_trial": 23, "dateTime": 1664555344110, "trialdata": {"rt": 1177, "stimulus": "<p id='stroop-text' class='stroop-green'>WINDOW</p>", "response": "g", "stimulus-type": "unrelated", "word": "WINDOW", "color": "green", "correct_response": "g", "trial_id": "stroop-trial-1-unrelated-15", "trial_type": "html-keyboard-response", "trial_index": 23, "time_elapsed": 144697, "internal_node_id": "0.0-4.0-19.0"}}, {"uniqueid": "w60055161:a41176416", "current_trial": 24, "dateTime": 1664555348457, "trialdata": {"rt": 3839, "stimulus": "<p id='stroop-text' class='stroop-green'>GREEN</p>", "response": "g", "stimulus-type": "congruent", "word": "green", "color": "green", "correct_response": "g", "trial_id": "stroop-trial-1-congruent-27", "trial_type": "html-keyboard-response", "trial_index": 24, "time_elapsed": 149044, "internal_node_id": "0.0-4.0-20.0"}}, {"uniqueid": "w60055161:a41176416", "current_trial": 25, "dateTime": 1664555350086, "trialdata": {"rt": 1121, "stimulus": "<p id='stroop-text' class='stroop-green'>BRAIN</p>", "response": "g", "stimulus-type": "unrelated", "word": "BRAIN", "color": "green", "correct_response": "g", "trial_id": "stroop-trial-1-unrelated-12", "trial_type": "html-keyboard-response", "trial_index": 25, "time_elapsed": 150673, "internal_node_id": "0.0-4.0-21.0"}}, {"uniqueid": "w60055161:a41176416", "current_trial": 26, "dateTime": 1664555352918, "trialdata": {"rt": 2324, "stimulus": "<p id='stroop-text' class='stroop-yellow'>YELLOW</p>", "response": "y", "stimulus-type": "congruent", "word": "yellow", "color": "yellow", "correct_response": "y", "trial_id": "stroop-trial-1-congruent-18", "trial_type": "html-keyboard-response", "trial_index": 26, "time_elapsed": 153505, "internal_node_id": "0.0-4.0-22.0"}}, {"uniqueid": "w60055161:a41176416", "current_trial": 27, "dateTime": 1664555355190, "trialdata": {"rt": 1759, "stimulus": "<p id='stroop-text' class='stroop-blue'>WINDOW</p>", "response": "b", "stimulus-type": "unrelated", "word": "WINDOW", "color": "blue", "correct_response": "b", "trial_id": "stroop-trial-1-unrelated-17", "trial_type": "html-keyboard-response", "trial_index": 27, "time_elapsed": 155776, "internal_node_id": "0.0-4.0-23.0"}}, {"uniqueid": "w60055161:a41176416", "current_trial": 28, "dateTime": 1664555357037, "trialdata": {"rt": 1317, "stimulus": "<p id='stroop-text' class='stroop-green'>GREEN</p>", "response": "g", "stimulus-type": "congruent", "word": "green", "color": "green", "correct_response": "g", "trial_id": "stroop-trial-1-congruent-20", "trial_type": "html-keyboard-response", "trial_index": 28, "time_elapsed": 157624, "internal_node_id": "0.0-4.0-24.0"}}, {"uniqueid": "w60055161:a41176416", "current_trial": 29, "dateTime": 1664555359438, "trialdata": {"rt": 1812, "stimulus": "<p id='stroop-text' class='stroop-blue'>YELLOW</p>", "response": "b", "stimulus-type": "incongruent", "word": "yellow", "color": "blue", "correct_response": "b", "trial_id": "stroop-trial-1-incongruent-6", "trial_type": "html-keyboard-response", "trial_index": 29, "time_elapsed": 160025, "internal_node_id": "0.0-4.0-25.0"}}, {"uniqueid": "w60055161:a41176416", "current_trial": 30, "dateTime": 1664555361626, "trialdata": {"rt": 1663, "stimulus": "<p id='stroop-text' class='stroop-yellow'>DOG</p>", "response": "y", "stimulus-type": "unrelated", "word": "DOG", "color": "yellow", "correct_response": "y", "trial_id": "stroop-trial-1-unrelated-1", "trial_type": "html-keyboard-response", "trial_index": 30, "time_elapsed": 162213, "internal_node_id": "0.0-4.0-26.0"}}, {"uniqueid": "w60055161:a41176416", "current_trial": 31, "dateTime": 1664555363463, "trialdata": {"rt": 1198, "stimulus": "<p id='stroop-text' class='stroop-yellow'>WINDOW</p>", "response": "y", "stimulus-type": "unrelated", "word": "WINDOW", "color": "yellow", "correct_response": "y", "trial_id": "stroop-trial-1-unrelated-7", "trial_type": "html-keyboard-response", "trial_index": 31, "time_elapsed": 164049, "internal_node_id": "0.0-4.0-27.0"}}, {"uniqueid": "w60055161:a41176416", "current_trial": 32, "dateTime": 1664555364672, "trialdata": {"rt": 691, "stimulus": "<p id='stroop-text' class='stroop-yellow'>BOTTLE</p>", "response": "y", "stimulus-type": "unrelated", "word": "BOTTLE", "color": "yellow", "correct_response": "y", "trial_id": "stroop-trial-1-unrelated-24", "trial_type": "html-keyboard-response", "trial_index": 32, "time_elapsed": 165259, "internal_node_id": "0.0-4.0-28.0"}}, {"uniqueid": "w60055161:a41176416", "current_trial": 33, "dateTime": 1664555367058, "trialdata": {"rt": 1876, "stimulus": "<p id='stroop-text' class='stroop-green'>BLUE</p>", "response": "g", "stimulus-type": "incongruent", "word": "blue", "color": "green", "correct_response": "g", "trial_id": "stroop-trial-1-incongruent-26", "trial_type": "html-keyboard-response", "trial_index": 33, "time_elapsed": 167645, "internal_node_id": "0.0-4.0-29.0"}}, {"uniqueid": "w60055161:a41176416", "current_trial": 34, "dateTime": 1664555370507, "trialdata": {"rt": 2938, "stimulus": "<p id='stroop-text' class='stroop-green'>BLUE</p>", "response": "g", "stimulus-type": "incongruent", "word": "blue", "color": "green", "correct_response": "g", "trial_id": "stroop-trial-1-incongruent-21", "trial_type": "html-keyboard-response", "trial_index": 34, "time_elapsed": 171094, "internal_node_id": "0.0-4.0-30.0"}}, {"uniqueid": "w60055161:a41176416", "current_trial": 35, "dateTime": 1664555373506, "trialdata": {"rt": 2494, "stimulus": "<p id='stroop-text' class='stroop-red'>BLUE</p>", "response": "r", "stimulus-type": "incongruent", "word": "blue", "color": "red", "correct_response": "r", "trial_id": "stroop-trial-1-incongruent-30", "trial_type": "html-keyboard-response", "trial_index": 35, "time_elapsed": 174094, "internal_node_id": "0.0-4.0-31.0"}}, {"uniqueid": "w60055161:a41176416", "current_trial": 36, "dateTime": 1664555375268, "trialdata": {"rt": 1252, "stimulus": "<p id='stroop-text' class='stroop-red'>YELLOW</p>", "response": "r", "stimulus-type": "incongruent", "word": "yellow", "color": "red", "correct_response": "r", "trial_id": "stroop-trial-1-incongruent-3", "trial_type": "html-keyboard-response", "trial_index": 36, "time_elapsed": 175853, "internal_node_id": "0.0-4.0-32.0"}}, {"uniqueid": "w60055161:a41176416", "current_trial": 37, "dateTime": 1664555376358, "trialdata": {"rt": 571, "stimulus": "<p id='stroop-text' class='stroop-red'>CHAIR</p>", "response": "r", "stimulus-type": "unrelated", "word": "CHAIR", "color": "red", "correct_response": "r", "trial_id": "stroop-trial-1-unrelated-5", "trial_type": "html-keyboard-response", "trial_index": 37, "time_elapsed": 176944, "internal_node_id": "0.0-4.0-33.0"}}, {"uniqueid": "w60055161:a41176416", "current_trial": 38, "dateTime": 1664555378003, "trialdata": {"rt": 1123, "stimulus": "<p id='stroop-text' class='stroop-blue'>FORK</p>", "response": "b", "stimulus-type": "unrelated", "word": "FORK", "color": "blue", "correct_response": "b", "trial_id": "stroop-trial-1-unrelated-26", "trial_type": "html-keyboard-response", "trial_index": 38, "time_elapsed": 178590, "internal_node_id": "0.0-4.0-34.0"}}, {"uniqueid": "w60055161:a41176416", "current_trial": 39, "dateTime": 1664555379811, "trialdata": {"rt": 1291, "stimulus": "<p id='stroop-text' class='stroop-red'>YELLOW</p>", "response": "r", "stimulus-type": "incongruent", "word": "yellow", "color": "red", "correct_response": "r", "trial_id": "stroop-trial-1-incongruent-14", "trial_type": "html-keyboard-response", "trial_index": 39, "time_elapsed": 180398, "internal_node_id": "0.0-4.0-35.0"}}, {"uniqueid": "w60055161:a41176416", "current_trial": 40, "dateTime": 1664555381831, "trialdata": {"rt": 1511, "stimulus": "<p id='stroop-text' class='stroop-green'>MONKEY</p>", "response": "g", "stimulus-type": "unrelated", "word": "MONKEY", "color": "green", "correct_response": "g", "trial_id": "stroop-trial-1-unrelated-22", "trial_type": "html-keyboard-response", "trial_index": 40, "time_elapsed": 182419, "internal_node_id": "0.0-4.0-36.0"}}, {"uniqueid": "w60055161:a41176416", "current_trial": 41, "dateTime": 1664555383741, "trialdata": {"rt": 1393, "stimulus": "<p id='stroop-text' class='stroop-blue'>GREEN</p>", "response": "b", "stimulus-type": "incongruent", "word": "green", "color": "blue", "correct_response": "b", "trial_id": "stroop-trial-1-incongruent-10", "trial_type": "html-keyboard-response", "trial_index": 41, "time_elapsed": 184324, "internal_node_id": "0.0-4.0-37.0"}}, {"uniqueid": "w60055161:a41176416", "current_trial": 42, "dateTime": 1664555387500, "trialdata": {"rt": 3210, "stimulus": "<p id='stroop-text' class='stroop-blue'>RED</p>", "response": "b", "stimulus-type": "incongruent", "word": "red", "color": "blue", "correct_response": "b", "trial_id": "stroop-trial-1-incongruent-1", "trial_type": "html-keyboard-response", "trial_index": 42, "time_elapsed": 188083, "internal_node_id": "0.0-4.0-38.0"}}, {"uniqueid": "w60055161:a41176416", "current_trial": 43, "dateTime": 1664555389408, "trialdata": {"rt": 1393, "stimulus": "<p id='stroop-text' class='stroop-red'>BLUE</p>", "response": "r", "stimulus-type": "incongruent", "word": "blue", "color": "red", "correct_response": "r", "trial_id": "stroop-trial-1-incongruent-25", "trial_type": "html-keyboard-response", "trial_index": 43, "time_elapsed": 189994, "internal_node_id": "0.0-4.0-39.0"}}, {"uniqueid": "w60055161:a41176416", "current_trial": 44, "dateTime": 1664555392389, "trialdata": {"rt": 2113, "stimulus": "<p id='stroop-text' class='stroop-green'>BLUE</p>", "response": "g", "stimulus-type": "incongruent", "word": "blue", "color": "green", "correct_response": "g", "trial_id": "stroop-trial-1-incongruent-16", "trial_type": "html-keyboard-response", "trial_index": 44, "time_elapsed": 192633, "internal_node_id": "0.0-4.0-40.0"}}, {"uniqueid": "w60055161:a41176416", "current_trial": 45, "dateTime": 1664555393844, "trialdata": {"rt": 943, "stimulus": "<p id='stroop-text' class='stroop-green'>GREEN</p>", "response": "g", "stimulus-type": "congruent", "word": "green", "color": "green", "correct_response": "g", "trial_id": "stroop-trial-1-congruent-1", "trial_type": "html-keyboard-response", "trial_index": 45, "time_elapsed": 194430, "internal_node_id": "0.0-4.0-41.0"}}, {"uniqueid": "w60055161:a41176416", "current_trial": 46, "dateTime": 1664555396081, "trialdata": {"rt": 1578, "stimulus": "<p id='stroop-text' class='stroop-yellow'>GREEN</p>", "response": "y", "stimulus-type": "incongruent", "word": "green", "color": "yellow", "correct_response": "y", "trial_id": "stroop-trial-1-incongruent-28", "trial_type": "html-keyboard-response", "trial_index": 46, "time_elapsed": 196667, "internal_node_id": "0.0-4.0-42.0"}}, {"uniqueid": "w60055161:a41176416", "current_trial": 47, "dateTime": 1664555398210, "trialdata": {"rt": 1486, "stimulus": "<p id='stroop-text' class='stroop-green'>RED</p>", "response": "g", "stimulus-type": "incongruent", "word": "red", "color": "green", "correct_response": "g", "trial_id": "stroop-trial-1-incongruent-8", "trial_type": "html-keyboard-response", "trial_index": 47, "time_elapsed": 198797, "internal_node_id": "0.0-4.0-43.0"}}, {"uniqueid": "w60055161:a41176416", "current_trial": 48, "dateTime": 1664555399406, "trialdata": {"rt": 679, "stimulus": "<p id='stroop-text' class='stroop-green'>GREEN</p>", "response": "g", "stimulus-type": "congruent", "word": "green", "color": "green", "correct_response": "g", "trial_id": "stroop-trial-1-congruent-29", "trial_type": "html-keyboard-response", "trial_index": 48, "time_elapsed": 199992, "internal_node_id": "0.0-4.0-44.0"}}, {"uniqueid": "w60055161:a41176416", "current_trial": 49, "dateTime": 1664555406265, "trialdata": {"rt": 6314, "stimulus": "<p id='stroop-text' class='stroop-blue'>RED</p>", "response": "b", "stimulus-type": "incongruent", "word": "red", "color": "blue", "correct_response": "b", "trial_id": "stroop-trial-1-incongruent-23", "trial_type": "html-keyboard-response", "trial_index": 49, "time_elapsed": 206852, "internal_node_id": "0.0-4.0-45.0"}}, {"uniqueid": "w60055161:a41176416", "current_trial": 50, "dateTime": 1664555409835, "trialdata": {"rt": 3065, "stimulus": "<p id='stroop-text' class='stroop-green'>WINDOW</p>", "response": "g", "stimulus-type": "unrelated", "word": "WINDOW", "color": "green", "correct_response": "g", "trial_id": "stroop-trial-1-unrelated-11", "trial_type": "html-keyboard-response", "trial_index": 50, "time_elapsed": 210422, "internal_node_id": "0.0-4.0-46.0"}}, {"uniqueid": "w60055161:a41176416", "current_trial": 51, "dateTime": 1664555412068, "trialdata": {"rt": 1723, "stimulus": "<p id='stroop-text' class='stroop-yellow'>GREEN</p>", "response": "y", "stimulus-type": "incongruent", "word": "green", "color": "yellow", "correct_response": "y", "trial_id": "stroop-trial-1-incongruent-5", "trial_type": "html-keyboard-response", "trial_index": 51, "time_elapsed": 212655, "internal_node_id": "0.0-4.0-47.0"}}, {"uniqueid": "w60055161:a41176416", "current_trial": 52, "dateTime": 1664555413637, "trialdata": {"rt": 1062, "stimulus": "<p id='stroop-text' class='stroop-red'>MONKEY</p>", "response": "r", "stimulus-type": "unrelated", "word": "MONKEY", "color": "red", "correct_response": "r", "trial_id": "stroop-trial-1-unrelated-30", "trial_type": "html-keyboard-response", "trial_index": 52, "time_elapsed": 214225, "internal_node_id": "0.0-4.0-48.0"}}, {"uniqueid": "w60055161:a41176416", "current_trial": 53, "dateTime": 1664555414766, "trialdata": {"rt": 621, "stimulus": "<p id='stroop-text' class='stroop-red'>SHIP</p>", "response": "r", "stimulus-type": "unrelated", "word": "SHIP", "color": "red", "correct_response": "r", "trial_id": "stroop-trial-1-unrelated-8", "trial_type": "html-keyboard-response", "trial_index": 53, "time_elapsed": 215353, "internal_node_id": "0.0-4.0-49.0"}}, {"uniqueid": "w60055161:a41176416", "current_trial": 54, "dateTime": 1664555415871, "trialdata": {"rt": 594, "stimulus": "<p id='stroop-text' class='stroop-red'>RED</p>", "response": "r", "stimulus-type": "congruent", "word": "red", "color": "red", "correct_response": "r", "trial_id": "stroop-trial-1-congruent-25", "trial_type": "html-keyboard-response", "trial_index": 54, "time_elapsed": 216458, "internal_node_id": "0.0-4.0-50.0"}}, {"uniqueid": "w60055161:a41176416", "current_trial": 55, "dateTime": 1664555418478, "trialdata": {"rt": 2096, "stimulus": "<p id='stroop-text' class='stroop-green'>RED</p>", "response": "g", "stimulus-type": "incongruent", "word": "red", "color": "green", "correct_response": "g", "trial_id": "stroop-trial-1-incongruent-24", "trial_type": "html-keyboard-response", "trial_index": 55, "time_elapsed": 219065, "internal_node_id": "0.0-4.0-51.0"}}, {"uniqueid": "w60055161:a41176416", "current_trial": 56, "dateTime": 1664555420482, "trialdata": {"rt": 1497, "stimulus": "<p id='stroop-text' class='stroop-yellow'>YELLOW</p>", "response": "y", "stimulus-type": "congruent", "word": "yellow", "color": "yellow", "correct_response": "y", "trial_id": "stroop-trial-1-congruent-22", "trial_type": "html-keyboard-response", "trial_index": 56, "time_elapsed": 221069, "internal_node_id": "0.0-4.0-52.0"}}, {"uniqueid": "w60055161:a41176416", "current_trial": 57, "dateTime": 1664555421764, "trialdata": {"rt": 768, "stimulus": "<p id='stroop-text' class='stroop-yellow'>FORK</p>", "response": "y", "stimulus-type": "unrelated", "word": "FORK", "color": "yellow", "correct_response": "y", "trial_id": "stroop-trial-1-unrelated-14", "trial_type": "html-keyboard-response", "trial_index": 57, "time_elapsed": 222351, "internal_node_id": "0.0-4.0-53.0"}}, {"uniqueid": "w60055161:a41176416", "current_trial": 58, "dateTime": 1664555423464, "trialdata": {"rt": 1188, "stimulus": "<p id='stroop-text' class='stroop-green'>MONKEY</p>", "response": "g", "stimulus-type": "unrelated", "word": "MONKEY", "color": "green", "correct_response": "g", "trial_id": "stroop-trial-1-unrelated-28", "trial_type": "html-keyboard-response", "trial_index": 58, "time_elapsed": 224051, "internal_node_id": "0.0-4.0-54.0"}}, {"uniqueid": "w60055161:a41176416", "current_trial": 59, "dateTime": 1664555424541, "trialdata": {"rt": 553, "stimulus": "<p id='stroop-text' class='stroop-green'>GREEN</p>", "response": "g", "stimulus-type": "congruent", "word": "green", "color": "green", "correct_response": "g", "trial_id": "stroop-trial-1-congruent-13", "trial_type": "html-keyboard-response", "trial_index": 59, "time_elapsed": 225128, "internal_node_id": "0.0-4.0-55.0"}}, {"uniqueid": "w60055161:a41176416", "current_trial": 60, "dateTime": 1664555427286, "trialdata": {"rt": 2235, "stimulus": "<p id='stroop-text' class='stroop-red'>BRIDGE</p>", "response": "r", "stimulus-type": "unrelated", "word": "BRIDGE", "color": "red", "correct_response": "r", "trial_id": "stroop-trial-1-unrelated-13", "trial_type": "html-keyboard-response", "trial_index": 60, "time_elapsed": 227874, "internal_node_id": "0.0-4.0-56.0"}}, {"uniqueid": "w60055161:a41176416", "current_trial": 61, "dateTime": 1664555429151, "trialdata": {"rt": 1358, "stimulus": "<p id='stroop-text' class='stroop-green'>BRIDGE</p>", "response": "g", "stimulus-type": "unrelated", "word": "BRIDGE", "color": "green", "correct_response": "g", "trial_id": "stroop-trial-1-unrelated-6", "trial_type": "html-keyboard-response", "trial_index": 61, "time_elapsed": 229738, "internal_node_id": "0.0-4.0-57.0"}}, {"uniqueid": "w60055161:a41176416", "current_trial": 62, "dateTime": 1664555430983, "trialdata": {"rt": 1324, "stimulus": "<p id='stroop-text' class='stroop-yellow'>SHIP</p>", "response": "y", "stimulus-type": "unrelated", "word": "SHIP", "color": "yellow", "correct_response": "y", "trial_id": "stroop-trial-1-unrelated-16", "trial_type": "html-keyboard-response", "trial_index": 62, "time_elapsed": 231570, "internal_node_id": "0.0-4.0-58.0"}}, {"uniqueid": "w60055161:a41176416", "current_trial": 63, "dateTime": 1664555432170, "trialdata": {"rt": 675, "stimulus": "<p id='stroop-text' class='stroop-yellow'>GREEN</p>", "response": "y", "stimulus-type": "incongruent", "word": "green", "color": "yellow", "correct_response": "y", "trial_id": "stroop-trial-1-incongruent-19", "trial_type": "html-keyboard-response", "trial_index": 63, "time_elapsed": 232758, "internal_node_id": "0.0-4.0-59.0"}}, {"uniqueid": "w60055161:a41176416", "current_trial": 64, "dateTime": 1664555434257, "trialdata": {"rt": 1578, "stimulus": "<p id='stroop-text' class='stroop-blue'>BOAT</p>", "response": "b", "stimulus-type": "unrelated", "word": "BOAT", "color": "blue", "correct_response": "b", "trial_id": "stroop-trial-1-unrelated-20", "trial_type": "html-keyboard-response", "trial_index": 64, "time_elapsed": 234845, "internal_node_id": "0.0-4.0-60.0"}}, {"uniqueid": "w60055161:a41176416", "current_trial": 65, "dateTime": 1664555436282, "trialdata": {"rt": 1510, "stimulus": "<p id='stroop-text' class='stroop-red'>RED</p>", "response": "r", "stimulus-type": "congruent", "word": "red", "color": "red", "correct_response": "r", "trial_id": "stroop-trial-1-congruent-5", "trial_type": "html-keyboard-response", "trial_index": 65, "time_elapsed": 236869, "internal_node_id": "0.0-4.0-61.0"}}, {"uniqueid": "w60055161:a41176416", "current_trial": 66, "dateTime": 1664555438032, "trialdata": {"rt": 1228, "stimulus": "<p id='stroop-text' class='stroop-blue'>RED</p>", "response": "b", "stimulus-type": "incongruent", "word": "red", "color": "blue", "correct_response": "b", "trial_id": "stroop-trial-1-incongruent-15", "trial_type": "html-keyboard-response", "trial_index": 66, "time_elapsed": 238619, "internal_node_id": "0.0-4.0-62.0"}}, {"uniqueid": "w60055161:a41176416", "current_trial": 67, "dateTime": 1664555439008, "trialdata": {"rt": 464, "stimulus": "<p id='stroop-text' class='stroop-blue'>BLUE</p>", "response": "b", "stimulus-type": "congruent", "word": "blue", "color": "blue", "correct_response": "b", "trial_id": "stroop-trial-1-congruent-11", "trial_type": "html-keyboard-response", "trial_index": 67, "time_elapsed": 239595, "internal_node_id": "0.0-4.0-63.0"}}, {"uniqueid": "w60055161:a41176416", "current_trial": 68, "dateTime": 1664555440391, "trialdata": {"rt": 875, "stimulus": "<p id='stroop-text' class='stroop-yellow'>YELLOW</p>", "response": "y", "stimulus-type": "congruent", "word": "yellow", "color": "yellow", "correct_response": "y", "trial_id": "stroop-trial-1-congruent-19", "trial_type": "html-keyboard-response", "trial_index": 68, "time_elapsed": 240978, "internal_node_id": "0.0-4.0-64.0"}}, {"uniqueid": "w60055161:a41176416", "current_trial": 69, "dateTime": 1664555441965, "trialdata": {"rt": 1067, "stimulus": "<p id='stroop-text' class='stroop-red'>RED</p>", "response": "r", "stimulus-type": "congruent", "word": "red", "color": "red", "correct_response": "r", "trial_id": "stroop-trial-1-congruent-23", "trial_type": "html-keyboard-response", "trial_index": 69, "time_elapsed": 242552, "internal_node_id": "0.0-4.0-65.0"}}, {"uniqueid": "w60055161:a41176416", "current_trial": 70, "dateTime": 1664555443928, "trialdata": {"rt": 1448, "stimulus": "<p id='stroop-text' class='stroop-blue'>STONE</p>", "response": "b", "stimulus-type": "unrelated", "word": "STONE", "color": "blue", "correct_response": "b", "trial_id": "stroop-trial-1-unrelated-25", "trial_type": "html-keyboard-response", "trial_index": 70, "time_elapsed": 244515, "internal_node_id": "0.0-4.0-66.0"}}, {"uniqueid": "w60055161:a41176416", "current_trial": 71, "dateTime": 1664555445665, "trialdata": {"rt": 1228, "stimulus": "<p id='stroop-text' class='stroop-green'>GREEN</p>", "response": "g", "stimulus-type": "congruent", "word": "green", "color": "green", "correct_response": "g", "trial_id": "stroop-trial-1-congruent-16", "trial_type": "html-keyboard-response", "trial_index": 71, "time_elapsed": 246252, "internal_node_id": "0.0-4.0-67.0"}}, {"uniqueid": "w60055161:a41176416", "current_trial": 72, "dateTime": 1664555447163, "trialdata": {"rt": 991, "stimulus": "<p id='stroop-text' class='stroop-red'>RED</p>", "response": "r", "stimulus-type": "congruent", "word": "red", "color": "red", "correct_response": "r", "trial_id": "stroop-trial-1-congruent-4", "trial_type": "html-keyboard-response", "trial_index": 72, "time_elapsed": 247750, "internal_node_id": "0.0-4.0-68.0"}}, {"uniqueid": "w60055161:a41176416", "current_trial": 73, "dateTime": 1664555448475, "trialdata": {"rt": 805, "stimulus": "<p id='stroop-text' class='stroop-red'>YELLOW</p>", "response": "r", "stimulus-type": "incongruent", "word": "yellow", "color": "red", "correct_response": "r", "trial_id": "stroop-trial-1-incongruent-29", "trial_type": "html-keyboard-response", "trial_index": 73, "time_elapsed": 249062, "internal_node_id": "0.0-4.0-69.0"}}, {"uniqueid": "w60055161:a41176416", "current_trial": 74, "dateTime": 1664555449980, "trialdata": {"rt": 977, "stimulus": "<p id='stroop-text' class='stroop-green'>GREEN</p>", "response": "g", "stimulus-type": "congruent", "word": "green", "color": "green", "correct_response": "g", "trial_id": "stroop-trial-1-congruent-2", "trial_type": "html-keyboard-response", "trial_index": 74, "time_elapsed": 250568, "internal_node_id": "0.0-4.0-70.0"}}, {"uniqueid": "w60055161:a41176416", "current_trial": 75, "dateTime": 1664555451143, "trialdata": {"rt": 655, "stimulus": "<p id='stroop-text' class='stroop-red'>RED</p>", "response": "r", "stimulus-type": "congruent", "word": "red", "color": "red", "correct_response": "r", "trial_id": "stroop-trial-1-congruent-9", "trial_type": "html-keyboard-response", "trial_index": 75, "time_elapsed": 251730, "internal_node_id": "0.0-4.0-71.0"}}, {"uniqueid": "w60055161:a41176416", "current_trial": 76, "dateTime": 1664555452783, "trialdata": {"rt": 1131, "stimulus": "<p id='stroop-text' class='stroop-green'>GREEN</p>", "response": "g", "stimulus-type": "congruent", "word": "green", "color": "green", "correct_response": "g", "trial_id": "stroop-trial-1-congruent-8", "trial_type": "html-keyboard-response", "trial_index": 76, "time_elapsed": 253370, "internal_node_id": "0.0-4.0-72.0"}}, {"uniqueid": "w60055161:a41176416", "current_trial": 77, "dateTime": 1664555453866, "trialdata": {"rt": 571, "stimulus": "<p id='stroop-text' class='stroop-green'>WINDOW</p>", "response": "g", "stimulus-type": "unrelated", "word": "WINDOW", "color": "green", "correct_response": "g", "trial_id": "stroop-trial-1-unrelated-27", "trial_type": "html-keyboard-response", "trial_index": 77, "time_elapsed": 254453, "internal_node_id": "0.0-4.0-73.0"}}, {"uniqueid": "w60055161:a41176416", "current_trial": 78, "dateTime": 1664555454827, "trialdata": {"rt": 455, "stimulus": "<p id='stroop-text' class='stroop-green'>GREEN</p>", "response": "g", "stimulus-type": "congruent", "word": "green", "color": "green", "correct_response": "g", "trial_id": "stroop-trial-1-congruent-21", "trial_type": "html-keyboard-response", "trial_index": 78, "time_elapsed": 255414, "internal_node_id": "0.0-4.0-74.0"}}, {"uniqueid": "w60055161:a41176416", "current_trial": 79, "dateTime": 1664555456376, "trialdata": {"rt": 881, "stimulus": "<p id='stroop-text' class='stroop-red'>BLUE</p>", "response": "r", "stimulus-type": "incongruent", "word": "blue", "color": "red", "correct_response": "r", "trial_id": "stroop-trial-1-incongruent-2", "trial_type": "html-keyboard-response", "trial_index": 79, "time_elapsed": 256962, "internal_node_id": "0.0-4.0-75.0"}}, {"uniqueid": "w60055161:a41176416", "current_trial": 80, "dateTime": 1664555457845, "trialdata": {"rt": 944, "stimulus": "<p id='stroop-text' class='stroop-red'>BOTTLE</p>", "response": "r", "stimulus-type": "unrelated", "word": "BOTTLE", "color": "red", "correct_response": "r", "trial_id": "stroop-trial-1-unrelated-23", "trial_type": "html-keyboard-response", "trial_index": 80, "time_elapsed": 258431, "internal_node_id": "0.0-4.0-76.0"}}, {"uniqueid": "w60055161:a41176416", "current_trial": 81, "dateTime": 1664555459599, "trialdata": {"rt": 1204, "stimulus": "<p id='stroop-text' class='stroop-yellow'>YELLOW</p>", "response": "y", "stimulus-type": "congruent", "word": "yellow", "color": "yellow", "correct_response": "y", "trial_id": "stroop-trial-1-congruent-15", "trial_type": "html-keyboard-response", "trial_index": 81, "time_elapsed": 260185, "internal_node_id": "0.0-4.0-77.0"}}, {"uniqueid": "w60055161:a41176416", "current_trial": 82, "dateTime": 1664555461338, "trialdata": {"rt": 1202, "stimulus": "<p id='stroop-text' class='stroop-red'>RED</p>", "response": "r", "stimulus-type": "congruent", "word": "red", "color": "red", "correct_response": "r", "trial_id": "stroop-trial-1-congruent-26", "trial_type": "html-keyboard-response", "trial_index": 82, "time_elapsed": 261925, "internal_node_id": "0.0-4.0-78.0"}}, {"uniqueid": "w60055161:a41176416", "current_trial": 83, "dateTime": 1664555462721, "trialdata": {"rt": 854, "stimulus": "<p id='stroop-text' class='stroop-red'>RED</p>", "response": "r", "stimulus-type": "congruent", "word": "red", "color": "red", "correct_response": "r", "trial_id": "stroop-trial-1-congruent-14", "trial_type": "html-keyboard-response", "trial_index": 83, "time_elapsed": 263307, "internal_node_id": "0.0-4.0-79.0"}}, {"uniqueid": "w60055161:a41176416", "current_trial": 84, "dateTime": 1664555465945, "trialdata": {"rt": 2704, "stimulus": "<p id='stroop-text' class='stroop-blue'>BLUE</p>", "response": "b", "stimulus-type": "congruent", "word": "blue", "color": "blue", "correct_response": "b", "trial_id": "stroop-trial-1-congruent-28", "trial_type": "html-keyboard-response", "trial_index": 84, "time_elapsed": 266532, "internal_node_id": "0.0-4.0-80.0"}}, {"uniqueid": "w60055161:a41176416", "current_trial": 85, "dateTime": 1664555468014, "trialdata": {"rt": 1553, "stimulus": "<p id='stroop-text' class='stroop-green'>RED</p>", "response": "g", "stimulus-type": "incongruent", "word": "red", "color": "green", "correct_response": "g", "trial_id": "stroop-trial-1-incongruent-11", "trial_type": "html-keyboard-response", "trial_index": 85, "time_elapsed": 268601, "internal_node_id": "0.0-4.0-81.0"}}, {"uniqueid": "w60055161:a41176416", "current_trial": 86, "dateTime": 1664555471900, "trialdata": {"rt": 1859, "stimulus": "<p id='stroop-text' class='stroop-blue'>YELLOW</p>", "response": "b", "stimulus-type": "incongruent", "word": "yellow", "color": "blue", "correct_response": "b", "trial_id": "stroop-trial-1-incongruent-13", "trial_type": "html-keyboard-response", "trial_index": 86, "time_elapsed": 272484, "internal_node_id": "0.0-4.0-82.0"}}, {"uniqueid": "w60055161:a41176416", "current_trial": 87, "dateTime": 1664555473332, "trialdata": {"rt": 911, "stimulus": "<p id='stroop-text' class='stroop-yellow'>YELLOW</p>", "response": "y", "stimulus-type": "congruent", "word": "yellow", "color": "yellow", "correct_response": "y", "trial_id": "stroop-trial-1-congruent-3", "trial_type": "html-keyboard-response", "trial_index": 87, "time_elapsed": 273919, "internal_node_id": "0.0-4.0-83.0"}}, {"uniqueid": "w60055161:a41176416", "current_trial": 88, "dateTime": 1664555475450, "trialdata": {"rt": 1608, "stimulus": "<p id='stroop-text' class='stroop-blue'>DOG</p>", "response": "b", "stimulus-type": "unrelated", "word": "DOG", "color": "blue", "correct_response": "b", "trial_id": "stroop-trial-1-unrelated-9", "trial_type": "html-keyboard-response", "trial_index": 88, "time_elapsed": 276037, "internal_node_id": "0.0-4.0-84.0"}}, {"uniqueid": "w60055161:a41176416", "current_trial": 89, "dateTime": 1664555477219, "trialdata": {"rt": 918, "stimulus": "<p id='stroop-text' class='stroop-yellow'>WINDOW</p>", "response": "y", "stimulus-type": "unrelated", "word": "WINDOW", "color": "yellow", "correct_response": "y", "trial_id": "stroop-trial-1-unrelated-2", "trial_type": "html-keyboard-response", "trial_index": 89, "time_elapsed": 277806, "internal_node_id": "0.0-4.0-85.0"}}, {"uniqueid": "w60055161:a41176416", "current_trial": 90, "dateTime": 1664555478373, "trialdata": {"rt": 640, "stimulus": "<p id='stroop-text' class='stroop-yellow'>GREEN</p>", "response": "y", "stimulus-type": "incongruent", "word": "green", "color": "yellow", "correct_response": "y", "trial_id": "stroop-trial-1-incongruent-4", "trial_type": "html-keyboard-response", "trial_index": 90, "time_elapsed": 278960, "internal_node_id": "0.0-4.0-86.0"}}, {"uniqueid": "w60055161:a41176416", "current_trial": 91, "dateTime": 1664555479901, "trialdata": {"rt": 1013, "stimulus": "<p id='stroop-text' class='stroop-green'>GREEN</p>", "response": "g", "stimulus-type": "congruent", "word": "green", "color": "green", "correct_response": "g", "trial_id": "stroop-trial-1-congruent-7", "trial_type": "html-keyboard-response", "trial_index": 91, "time_elapsed": 280488, "internal_node_id": "0.0-4.0-87.0"}}, {"uniqueid": "w60055161:a41176416", "current_trial": 92, "dateTime": 1664555481374, "trialdata": {"rt": 936, "stimulus": "<p id='stroop-text' class='stroop-yellow'>DOG</p>", "response": "y", "stimulus-type": "unrelated", "word": "DOG", "color": "yellow", "correct_response": "y", "trial_id": "stroop-trial-1-unrelated-29", "trial_type": "html-keyboard-response", "trial_index": 92, "time_elapsed": 281961, "internal_node_id": "0.0-4.0-88.0"}}, {"uniqueid": "w60055161:a41176416", "current_trial": 93, "dateTime": 1664555482850, "trialdata": {"rt": 865, "stimulus": "<p id='stroop-text' class='stroop-red'>GREEN</p>", "response": "r", "stimulus-type": "incongruent", "word": "green", "color": "red", "correct_response": "r", "trial_id": "stroop-trial-1-incongruent-9", "trial_type": "html-keyboard-response", "trial_index": 93, "time_elapsed": 283437, "internal_node_id": "0.0-4.0-89.0"}}, {"uniqueid": "w60055161:a41176416", "current_trial": 94, "dateTime": 1664555546281, "trialdata": {"rt": 61642, "stimulus": "  <h1> End of block! </h1>\n\n  You have reached the end of the block 1/5. If you need a short break, feel free to take one now before moving on.\n\n  <br><br>\n  In the next block, you will complete another 90 rounds of this game.\n\n  <br><br>\n  <div style='text-align: center;'>Press <code>space</code> to begin.</div>\n  <br><br>\n<div style='text-align: center;'>(If the experiment doesn't continue, try clicking on the text and then pressing <code>space</code>.)</div>", "response": " ", "trial_id": "stroop_1_ready_2", "trial_type": "html-keyboard-response", "trial_index": 94, "time_elapsed": 346863, "internal_node_id": "0.0-5.0"}}, {"uniqueid": "w60055161:a41176416", "current_trial": 95, "dateTime": 1664555552308, "trialdata": {"rt": 5550, "stimulus": "<p id='stroop-text' class='stroop-red'>GREEN</p>", "response": "r", "stimulus-type": "incongruent", "word": "green", "color": "red", "correct_response": "r", "trial_id": "stroop-trial-1-incongruent-27", "trial_type": "html-keyboard-response", "trial_index": 95, "time_elapsed": 352894, "internal_node_id": "0.0-6.0-0.0"}}, {"uniqueid": "w60055161:a41176416", "current_trial": 96, "dateTime": 1664555554452, "trialdata": {"rt": 1609, "stimulus": "<p id='stroop-text' class='stroop-green'>MONKEY</p>", "response": "g", "stimulus-type": "unrelated", "word": "MONKEY", "color": "green", "correct_response": "g", "trial_id": "stroop-trial-1-unrelated-25", "trial_type": "html-keyboard-response", "trial_index": 96, "time_elapsed": 355039, "internal_node_id": "0.0-6.0-1.0"}}, {"uniqueid": "w60055161:a41176416", "current_trial": 97, "dateTime": 1664555556691, "trialdata": {"rt": 1336, "stimulus": "<p id='stroop-text' class='stroop-blue'>BLUE</p>", "response": "b", "stimulus-type": "congruent", "word": "blue", "color": "blue", "correct_response": "b", "trial_id": "stroop-trial-1-congruent-14", "trial_type": "html-keyboard-response", "trial_index": 97, "time_elapsed": 357278, "internal_node_id": "0.0-6.0-2.0"}}, {"uniqueid": "w60055161:a41176416", "current_trial": 98, "dateTime": 1664555558224, "trialdata": {"rt": 1023, "stimulus": "<p id='stroop-text' class='stroop-yellow'>BRIDGE</p>", "response": "y", "stimulus-type": "unrelated", "word": "BRIDGE", "color": "yellow", "correct_response": "y", "trial_id": "stroop-trial-1-unrelated-1", "trial_type": "html-keyboard-response", "trial_index": 98, "time_elapsed": 358811, "internal_node_id": "0.0-6.0-3.0"}}, {"uniqueid": "w60055161:a41176416", "current_trial": 99, "dateTime": 1664555559255, "trialdata": {"rt": 522, "stimulus": "<p id='stroop-text' class='stroop-yellow'>YELLOW</p>", "response": "y", "stimulus-type": "congruent", "word": "yellow", "color": "yellow", "correct_response": "y", "trial_id": "stroop-trial-1-congruent-13", "trial_type": "html-keyboard-response", "trial_index": 99, "time_elapsed": 359842, "internal_node_id": "0.0-6.0-4.0"}}, {"uniqueid": "w60055161:a41176416", "current_trial": 100, "dateTime": 1664555561437, "trialdata": {"rt": 1670, "stimulus": "<p id='stroop-text' class='stroop-green'>GREEN</p>", "response": "g", "stimulus-type": "congruent", "word": "green", "color": "green", "correct_response": "g", "trial_id": "stroop-trial-1-congruent-19", "trial_type": "html-keyboard-response", "trial_index": 100, "time_elapsed": 362022, "internal_node_id": "0.0-6.0-5.0"}}, {"uniqueid": "w60055161:a41176416", "current_trial": 101, "dateTime": 1664555563909, "trialdata": {"rt": 1952, "stimulus": "<p id='stroop-text' class='stroop-blue'>YELLOW</p>", "response": "b", "stimulus-type": "incongruent", "word": "yellow", "color": "blue", "correct_response": "b", "trial_id": "stroop-trial-1-incongruent-5", "trial_type": "html-keyboard-response", "trial_index": 101, "time_elapsed": 364495, "internal_node_id": "0.0-6.0-6.0"}}, {"uniqueid": "w60055161:a41176416", "current_trial": 102, "dateTime": 1664555566793, "trialdata": {"rt": 1222, "stimulus": "<p id='stroop-text' class='stroop-red'>BRAIN</p>", "response": "r", "stimulus-type": "unrelated", "word": "BRAIN", "color": "red", "correct_response": "r", "trial_id": "stroop-trial-1-unrelated-8", "trial_type": "html-keyboard-response", "trial_index": 102, "time_elapsed": 367380, "internal_node_id": "0.0-6.0-7.0"}}, {"uniqueid": "w60055161:a41176416", "current_trial": 103, "dateTime": 1664555568791, "trialdata": {"rt": 1423, "stimulus": "<p id='stroop-text' class='stroop-blue'>WINDOW</p>", "response": "b", "stimulus-type": "unrelated", "word": "WINDOW", "color": "blue", "correct_response": "b", "trial_id": "stroop-trial-1-unrelated-28", "trial_type": "html-keyboard-response", "trial_index": 103, "time_elapsed": 369375, "internal_node_id": "0.0-6.0-8.0"}}, {"uniqueid": "w60055161:a41176416", "current_trial": 104, "dateTime": 1664555571257, "trialdata": {"rt": 1923, "stimulus": "<p id='stroop-text' class='stroop-yellow'>MONKEY</p>", "response": "y", "stimulus-type": "unrelated", "word": "MONKEY", "color": "yellow", "correct_response": "y", "trial_id": "stroop-trial-1-unrelated-20", "trial_type": "html-keyboard-response", "trial_index": 104, "time_elapsed": 371844, "internal_node_id": "0.0-6.0-9.0"}}, {"uniqueid": "w60055161:a41176416", "current_trial": 105, "dateTime": 1664555573328, "trialdata": {"rt": 1548, "stimulus": "<p id='stroop-text' class='stroop-green'>BRAIN</p>", "response": "g", "stimulus-type": "unrelated", "word": "BRAIN", "color": "green", "correct_response": "g", "trial_id": "stroop-trial-1-unrelated-18", "trial_type": "html-keyboard-response", "trial_index": 105, "time_elapsed": 373914, "internal_node_id": "0.0-6.0-10.0"}}, {"uniqueid": "w60055161:a41176416", "current_trial": 106, "dateTime": 1664555574776, "trialdata": {"rt": 931, "stimulus": "<p id='stroop-text' class='stroop-yellow'>GREEN</p>", "response": "y", "stimulus-type": "incongruent", "word": "green", "color": "yellow", "correct_response": "y", "trial_id": "stroop-trial-1-incongruent-25", "trial_type": "html-keyboard-response", "trial_index": 106, "time_elapsed": 375362, "internal_node_id": "0.0-6.0-11.0"}}, {"uniqueid": "w60055161:a41176416", "current_trial": 107, "dateTime": 1664555577963, "trialdata": {"rt": 1146, "stimulus": "<p id='stroop-text' class='stroop-red'>RED</p>", "response": "r", "stimulus-type": "congruent", "word": "red", "color": "red", "correct_response": "r", "trial_id": "stroop-trial-1-congruent-15", "trial_type": "html-keyboard-response", "trial_index": 107, "time_elapsed": 378550, "internal_node_id": "0.0-6.0-12.0"}}, {"uniqueid": "w60055161:a41176416", "current_trial": 108, "dateTime": 1664555580114, "trialdata": {"rt": 1612, "stimulus": "<p id='stroop-text' class='stroop-blue'>FORK</p>", "response": "b", "stimulus-type": "unrelated", "word": "FORK", "color": "blue", "correct_response": "b", "trial_id": "stroop-trial-1-unrelated-29", "trial_type": "html-keyboard-response", "trial_index": 108, "time_elapsed": 380700, "internal_node_id": "0.0-6.0-13.0"}}, {"uniqueid": "w60055161:a41176416", "current_trial": 109, "dateTime": 1664555582180, "trialdata": {"rt": 1554, "stimulus": "<p id='stroop-text' class='stroop-green'>BOTTLE</p>", "response": "g", "stimulus-type": "unrelated", "word": "BOTTLE", "color": "green", "correct_response": "g", "trial_id": "stroop-trial-1-unrelated-4", "trial_type": "html-keyboard-response", "trial_index": 109, "time_elapsed": 382767, "internal_node_id": "0.0-6.0-14.0"}}, {"uniqueid": "w60055161:a41176416", "current_trial": 110, "dateTime": 1664555584420, "trialdata": {"rt": 1694, "stimulus": "<p id='stroop-text' class='stroop-red'>RED</p>", "response": "r", "stimulus-type": "congruent", "word": "red", "color": "red", "correct_response": "r", "trial_id": "stroop-trial-1-congruent-21", "trial_type": "html-keyboard-response", "trial_index": 110, "time_elapsed": 385006, "internal_node_id": "0.0-6.0-15.0"}}, {"uniqueid": "w60055161:a41176416", "current_trial": 111, "dateTime": 1664555585791, "trialdata": {"rt": 845, "stimulus": "<p id='stroop-text' class='stroop-green'>GREEN</p>", "response": "g", "stimulus-type": "congruent", "word": "green", "color": "green", "correct_response": "g", "trial_id": "stroop-trial-1-congruent-12", "trial_type": "html-keyboard-response", "trial_index": 111, "time_elapsed": 386377, "internal_node_id": "0.0-6.0-16.0"}}, {"uniqueid": "w60055161:a41176416", "current_trial": 112, "dateTime": 1664555587020, "trialdata": {"rt": 697, "stimulus": "<p id='stroop-text' class='stroop-green'>RED</p>", "response": "g", "stimulus-type": "incongruent", "word": "red", "color": "green", "correct_response": "g", "trial_id": "stroop-trial-1-incongruent-2", "trial_type": "html-keyboard-response", "trial_index": 112, "time_elapsed": 387606, "internal_node_id": "0.0-6.0-17.0"}}, {"uniqueid": "w60055161:a41176416", "current_trial": 113, "dateTime": 1664555588673, "trialdata": {"rt": 1115, "stimulus": "<p id='stroop-text' class='stroop-yellow'>BRAIN</p>", "response": "y", "stimulus-type": "unrelated", "word": "BRAIN", "color": "yellow", "correct_response": "y", "trial_id": "stroop-trial-1-unrelated-3", "trial_type": "html-keyboard-response", "trial_index": 113, "time_elapsed": 389260, "internal_node_id": "0.0-6.0-18.0"}}, {"uniqueid": "w60055161:a41176416", "current_trial": 114, "dateTime": 1664555591071, "trialdata": {"rt": 1867, "stimulus": "<p id='stroop-text' class='stroop-red'>BLUE</p>", "response": "r", "stimulus-type": "incongruent", "word": "blue", "color": "red", "correct_response": "r", "trial_id": "stroop-trial-1-incongruent-24", "trial_type": "html-keyboard-response", "trial_index": 114, "time_elapsed": 391658, "internal_node_id": "0.0-6.0-19.0"}}, {"uniqueid": "w60055161:a41176416", "current_trial": 115, "dateTime": 1664555593662, "trialdata": {"rt": 2075, "stimulus": "<p id='stroop-text' class='stroop-blue'>BLUE</p>", "response": "b", "stimulus-type": "congruent", "word": "blue", "color": "blue", "correct_response": "b", "trial_id": "stroop-trial-1-congruent-20", "trial_type": "html-keyboard-response", "trial_index": 115, "time_elapsed": 394249, "internal_node_id": "0.0-6.0-20.0"}}, {"uniqueid": "w60055161:a41176416", "current_trial": 116, "dateTime": 1664555594738, "trialdata": {"rt": 546, "stimulus": "<p id='stroop-text' class='stroop-blue'>WINDOW</p>", "response": "b", "stimulus-type": "unrelated", "word": "WINDOW", "color": "blue", "correct_response": "b", "trial_id": "stroop-trial-1-unrelated-10", "trial_type": "html-keyboard-response", "trial_index": 116, "time_elapsed": 395324, "internal_node_id": "0.0-6.0-21.0"}}, {"uniqueid": "w60055161:a41176416", "current_trial": 117, "dateTime": 1664555596890, "trialdata": {"rt": 1624, "stimulus": "<p id='stroop-text' class='stroop-red'>CHAIR</p>", "response": "r", "stimulus-type": "unrelated", "word": "CHAIR", "color": "red", "correct_response": "r", "trial_id": "stroop-trial-1-unrelated-9", "trial_type": "html-keyboard-response", "trial_index": 117, "time_elapsed": 397476, "internal_node_id": "0.0-6.0-22.0"}}, {"uniqueid": "w60055161:a41176416", "current_trial": 118, "dateTime": 1664555598508, "trialdata": {"rt": 1085, "stimulus": "<p id='stroop-text' class='stroop-blue'>YELLOW</p>", "response": "b", "stimulus-type": "incongruent", "word": "yellow", "color": "blue", "correct_response": "b", "trial_id": "stroop-trial-1-incongruent-4", "trial_type": "html-keyboard-response", "trial_index": 118, "time_elapsed": 399095, "internal_node_id": "0.0-6.0-23.0"}}, {"uniqueid": "w60055161:a41176416", "current_trial": 119, "dateTime": 1664555599925, "trialdata": {"rt": 883, "stimulus": "<p id='stroop-text' class='stroop-yellow'>YELLOW</p>", "response": "y", "stimulus-type": "congruent", "word": "yellow", "color": "yellow", "correct_response": "y", "trial_id": "stroop-trial-1-congruent-7", "trial_type": "html-keyboard-response", "trial_index": 119, "time_elapsed": 400511, "internal_node_id": "0.0-6.0-24.0"}}, {"uniqueid": "w60055161:a41176416", "current_trial": 120, "dateTime": 1664555602055, "trialdata": {"rt": 1594, "stimulus": "<p id='stroop-text' class='stroop-red'>BLUE</p>", "response": "b", "stimulus-type": "incongruent", "word": "blue", "color": "red", "correct_response": "r", "trial_id": "stroop-trial-1-incongruent-28", "trial_type": "html-keyboard-response", "trial_index": 120, "time_elapsed": 402642, "internal_node_id": "0.0-6.0-25.0"}}, {"uniqueid": "w60055161:a41176416", "current_trial": 121, "dateTime": 1664555606370, "trialdata": {"rt": 3804, "stimulus": "<p id='stroop-text' class='stroop-green'>BLUE</p>", "response": "g", "stimulus-type": "incongruent", "word": "blue", "color": "green", "correct_response": "g", "trial_id": "stroop-trial-1-incongruent-9", "trial_type": "html-keyboard-response", "trial_index": 121, "time_elapsed": 406956, "internal_node_id": "0.0-6.0-26.0"}}, {"uniqueid": "w60055161:a41176416", "current_trial": 122, "dateTime": 1664555608050, "trialdata": {"rt": 1150, "stimulus": "<p id='stroop-text' class='stroop-red'>RED</p>", "response": "r", "stimulus-type": "congruent", "word": "red", "color": "red", "correct_response": "r", "trial_id": "stroop-trial-1-congruent-10", "trial_type": "html-keyboard-response", "trial_index": 122, "time_elapsed": 408637, "internal_node_id": "0.0-6.0-27.0"}}, {"uniqueid": "w60055161:a41176416", "current_trial": 123, "dateTime": 1664555611611, "trialdata": {"rt": 1176, "stimulus": "<p id='stroop-text' class='stroop-yellow'>BRIDGE</p>", "response": "y", "stimulus-type": "unrelated", "word": "BRIDGE", "color": "yellow", "correct_response": "y", "trial_id": "stroop-trial-1-unrelated-21", "trial_type": "html-keyboard-response", "trial_index": 123, "time_elapsed": 412196, "internal_node_id": "0.0-6.0-28.0"}}, {"uniqueid": "w60055161:a41176416", "current_trial": 124, "dateTime": 1664555612955, "trialdata": {"rt": 794, "stimulus": "<p id='stroop-text' class='stroop-yellow'>GREEN</p>", "response": "y", "stimulus-type": "incongruent", "word": "green", "color": "yellow", "correct_response": "y", "trial_id": "stroop-trial-1-incongruent-13", "trial_type": "html-keyboard-response", "trial_index": 124, "time_elapsed": 413542, "internal_node_id": "0.0-6.0-29.0"}}, {"uniqueid": "w60055161:a41176416", "current_trial": 125, "dateTime": 1664555615514, "trialdata": {"rt": 1814, "stimulus": "<p id='stroop-text' class='stroop-blue'>BLUE</p>", "response": "b", "stimulus-type": "congruent", "word": "blue", "color": "blue", "correct_response": "b", "trial_id": "stroop-trial-1-congruent-3", "trial_type": "html-keyboard-response", "trial_index": 125, "time_elapsed": 416100, "internal_node_id": "0.0-6.0-30.0"}}, {"uniqueid": "w60055161:a41176416", "current_trial": 126, "dateTime": 1664555616963, "trialdata": {"rt": 895, "stimulus": "<p id='stroop-text' class='stroop-yellow'>BLUE</p>", "response": "y", "stimulus-type": "incongruent", "word": "blue", "color": "yellow", "correct_response": "y", "trial_id": "stroop-trial-1-incongruent-15", "trial_type": "html-keyboard-response", "trial_index": 126, "time_elapsed": 417548, "internal_node_id": "0.0-6.0-31.0"}}, {"uniqueid": "w60055161:a41176416", "current_trial": 127, "dateTime": 1664555618223, "trialdata": {"rt": 731, "stimulus": "<p id='stroop-text' class='stroop-yellow'>BRIDGE</p>", "response": "y", "stimulus-type": "unrelated", "word": "BRIDGE", "color": "yellow", "correct_response": "y", "trial_id": "stroop-trial-1-unrelated-23", "trial_type": "html-keyboard-response", "trial_index": 127, "time_elapsed": 418808, "internal_node_id": "0.0-6.0-32.0"}}, {"uniqueid": "w60055161:a41176416", "current_trial": 128, "dateTime": 1664555619437, "trialdata": {"rt": 685, "stimulus": "<p id='stroop-text' class='stroop-red'>STONE</p>", "response": "r", "stimulus-type": "unrelated", "word": "STONE", "color": "red", "correct_response": "r", "trial_id": "stroop-trial-1-unrelated-17", "trial_type": "html-keyboard-response", "trial_index": 128, "time_elapsed": 420022, "internal_node_id": "0.0-6.0-33.0"}}, {"uniqueid": "w60055161:a41176416", "current_trial": 129, "dateTime": 1664555620984, "trialdata": {"rt": 1018, "stimulus": "<p id='stroop-text' class='stroop-red'>STONE</p>", "response": "r", "stimulus-type": "unrelated", "word": "STONE", "color": "red", "correct_response": "r", "trial_id": "stroop-trial-1-unrelated-19", "trial_type": "html-keyboard-response", "trial_index": 129, "time_elapsed": 421568, "internal_node_id": "0.0-6.0-34.0"}}, {"uniqueid": "w60055161:a41176416", "current_trial": 130, "dateTime": 1664555622137, "trialdata": {"rt": 613, "stimulus": "<p id='stroop-text' class='stroop-red'>RED</p>", "response": "r", "stimulus-type": "congruent", "word": "red", "color": "red", "correct_response": "r", "trial_id": "stroop-trial-1-congruent-4", "trial_type": "html-keyboard-response", "trial_index": 130, "time_elapsed": 422714, "internal_node_id": "0.0-6.0-35.0"}}, {"uniqueid": "w60055161:a41176416", "current_trial": 131, "dateTime": 1664555623964, "trialdata": {"rt": 1305, "stimulus": "<p id='stroop-text' class='stroop-green'>FORK</p>", "response": "g", "stimulus-type": "unrelated", "word": "FORK", "color": "green", "correct_response": "g", "trial_id": "stroop-trial-1-unrelated-22", "trial_type": "html-keyboard-response", "trial_index": 131, "time_elapsed": 424548, "internal_node_id": "0.0-6.0-36.0"}}, {"uniqueid": "w60055161:a41176416", "current_trial": 132, "dateTime": 1664555625835, "trialdata": {"rt": 1340, "stimulus": "<p id='stroop-text' class='stroop-green'>MONKEY</p>", "response": "g", "stimulus-type": "unrelated", "word": "MONKEY", "color": "green", "correct_response": "g", "trial_id": "stroop-trial-1-unrelated-26", "trial_type": "html-keyboard-response", "trial_index": 132, "time_elapsed": 426420, "internal_node_id": "0.0-6.0-37.0"}}, {"uniqueid": "w60055161:a41176416", "current_trial": 133, "dateTime": 1664555628122, "trialdata": {"rt": 1767, "stimulus": "<p id='stroop-text' class='stroop-blue'>BLUE</p>", "response": "b", "stimulus-type": "congruent", "word": "blue", "color": "blue", "correct_response": "b", "trial_id": "stroop-trial-1-congruent-11", "trial_type": "html-keyboard-response", "trial_index": 133, "time_elapsed": 428709, "internal_node_id": "0.0-6.0-38.0"}}, {"uniqueid": "w60055161:a41176416", "current_trial": 134, "dateTime": 1664555629477, "trialdata": {"rt": 820, "stimulus": "<p id='stroop-text' class='stroop-yellow'>YELLOW</p>", "response": "y", "stimulus-type": "congruent", "word": "yellow", "color": "yellow", "correct_response": "y", "trial_id": "stroop-trial-1-congruent-27", "trial_type": "html-keyboard-response", "trial_index": 134, "time_elapsed": 430064, "internal_node_id": "0.0-6.0-39.0"}}, {"uniqueid": "w60055161:a41176416", "current_trial": 135, "dateTime": 1664555632036, "trialdata": {"rt": 2030, "stimulus": "<p id='stroop-text' class='stroop-yellow'>YELLOW</p>", "response": "y", "stimulus-type": "congruent", "word": "yellow", "color": "yellow", "correct_response": "y", "trial_id": "stroop-trial-1-congruent-6", "trial_type": "html-keyboard-response", "trial_index": 135, "time_elapsed": 432623, "internal_node_id": "0.0-6.0-40.0"}}, {"uniqueid": "w60055161:a41176416", "current_trial": 136, "dateTime": 1664555634741, "trialdata": {"rt": 2179, "stimulus": "<p id='stroop-text' class='stroop-yellow'>DOG</p>", "response": "y", "stimulus-type": "unrelated", "word": "DOG", "color": "yellow", "correct_response": "y", "trial_id": "stroop-trial-1-unrelated-15", "trial_type": "html-keyboard-response", "trial_index": 136, "time_elapsed": 435327, "internal_node_id": "0.0-6.0-41.0"}}, {"uniqueid": "w60055161:a41176416", "current_trial": 137, "dateTime": 1664555636686, "trialdata": {"rt": 1420, "stimulus": "<p id='stroop-text' class='stroop-green'>BLUE</p>", "response": "g", "stimulus-type": "incongruent", "word": "blue", "color": "green", "correct_response": "g", "trial_id": "stroop-trial-1-incongruent-19", "trial_type": "html-keyboard-response", "trial_index": 137, "time_elapsed": 437272, "internal_node_id": "0.0-6.0-42.0"}}, {"uniqueid": "w60055161:a41176416", "current_trial": 138, "dateTime": 1664555638515, "trialdata": {"rt": 1211, "stimulus": "<p id='stroop-text' class='stroop-yellow'>BRIDGE</p>", "response": "y", "stimulus-type": "unrelated", "word": "BRIDGE", "color": "yellow", "correct_response": "y", "trial_id": "stroop-trial-1-unrelated-14", "trial_type": "html-keyboard-response", "trial_index": 138, "time_elapsed": 439102, "internal_node_id": "0.0-6.0-43.0"}}, {"uniqueid": "w60055161:a41176416", "current_trial": 139, "dateTime": 1664555641413, "trialdata": {"rt": 2373, "stimulus": "<p id='stroop-text' class='stroop-red'>GREEN</p>", "response": "r", "stimulus-type": "incongruent", "word": "green", "color": "red", "correct_response": "r", "trial_id": "stroop-trial-1-incongruent-11", "trial_type": "html-keyboard-response", "trial_index": 139, "time_elapsed": 442000, "internal_node_id": "0.0-6.0-44.0"}}, {"uniqueid": "w60055161:a41176416", "current_trial": 140, "dateTime": 1664555642868, "trialdata": {"rt": 911, "stimulus": "<p id='stroop-text' class='stroop-red'>SHIP</p>", "response": "r", "stimulus-type": "unrelated", "word": "SHIP", "color": "red", "correct_response": "r", "trial_id": "stroop-trial-1-unrelated-2", "trial_type": "html-keyboard-response", "trial_index": 140, "time_elapsed": 443455, "internal_node_id": "0.0-6.0-45.0"}}, {"uniqueid": "w60055161:a41176416", "current_trial": 141, "dateTime": 1664555643873, "trialdata": {"rt": 490, "stimulus": "<p id='stroop-text' class='stroop-red'>STONE</p>", "response": "r", "stimulus-type": "unrelated", "word": "STONE", "color": "red", "correct_response": "r", "trial_id": "stroop-trial-1-unrelated-24", "trial_type": "html-keyboard-response", "trial_index": 141, "time_elapsed": 444460, "internal_node_id": "0.0-6.0-46.0"}}, {"uniqueid": "w60055161:a41176416", "current_trial": 142, "dateTime": 1664555645939, "trialdata": {"rt": 1537, "stimulus": "<p id='stroop-text' class='stroop-green'>RED</p>", "response": "g", "stimulus-type": "incongruent", "word": "red", "color": "green", "correct_response": "g", "trial_id": "stroop-trial-1-incongruent-12", "trial_type": "html-keyboard-response", "trial_index": 142, "time_elapsed": 446525, "internal_node_id": "0.0-6.0-47.0"}}, {"uniqueid": "w60055161:a41176416", "current_trial": 143, "dateTime": 1664555648130, "trialdata": {"rt": 1666, "stimulus": "<p id='stroop-text' class='stroop-yellow'>RED</p>", "response": "y", "stimulus-type": "incongruent", "word": "red", "color": "yellow", "correct_response": "y", "trial_id": "stroop-trial-1-incongruent-1", "trial_type": "html-keyboard-response", "trial_index": 143, "time_elapsed": 448718, "internal_node_id": "0.0-6.0-48.0"}}, {"uniqueid": "w60055161:a41176416", "current_trial": 144, "dateTime": 1664555650502, "trialdata": {"rt": 1857, "stimulus": "<p id='stroop-text' class='stroop-green'>CHAIR</p>", "response": "g", "stimulus-type": "unrelated", "word": "CHAIR", "color": "green", "correct_response": "g", "trial_id": "stroop-trial-1-unrelated-5", "trial_type": "html-keyboard-response", "trial_index": 144, "time_elapsed": 451088, "internal_node_id": "0.0-6.0-49.0"}}, {"uniqueid": "w60055161:a41176416", "current_trial": 145, "dateTime": 1664555656915, "trialdata": {"rt": 5876, "stimulus": "<p id='stroop-text' class='stroop-blue'>YELLOW</p>", "response": "b", "stimulus-type": "incongruent", "word": "yellow", "color": "blue", "correct_response": "b", "trial_id": "stroop-trial-1-incongruent-29", "trial_type": "html-keyboard-response", "trial_index": 145, "time_elapsed": 457502, "internal_node_id": "0.0-6.0-50.0"}}, {"uniqueid": "w60055161:a41176416", "current_trial": 146, "dateTime": 1664555658413, "trialdata": {"rt": 966, "stimulus": "<p id='stroop-text' class='stroop-yellow'>YELLOW</p>", "response": "y", "stimulus-type": "congruent", "word": "yellow", "color": "yellow", "correct_response": "y", "trial_id": "stroop-trial-1-congruent-2", "trial_type": "html-keyboard-response", "trial_index": 146, "time_elapsed": 458999, "internal_node_id": "0.0-6.0-51.0"}}, {"uniqueid": "w60055161:a41176416", "current_trial": 147, "dateTime": 1664555661055, "trialdata": {"rt": 2126, "stimulus": "<p id='stroop-text' class='stroop-red'>YELLOW</p>", "response": "r", "stimulus-type": "incongruent", "word": "yellow", "color": "red", "correct_response": "r", "trial_id": "stroop-trial-1-incongruent-23", "trial_type": "html-keyboard-response", "trial_index": 147, "time_elapsed": 461642, "internal_node_id": "0.0-6.0-52.0"}}, {"uniqueid": "w60055161:a41176416", "current_trial": 148, "dateTime": 1664555665448, "trialdata": {"rt": 3878, "stimulus": "<p id='stroop-text' class='stroop-green'>BLUE</p>", "response": "g", "stimulus-type": "incongruent", "word": "blue", "color": "green", "correct_response": "g", "trial_id": "stroop-trial-1-incongruent-8", "trial_type": "html-keyboard-response", "trial_index": 148, "time_elapsed": 466033, "internal_node_id": "0.0-6.0-53.0"}}, {"uniqueid": "w60055161:a41176416", "current_trial": 149, "dateTime": 1664555666957, "trialdata": {"rt": 985, "stimulus": "<p id='stroop-text' class='stroop-yellow'>YELLOW</p>", "response": "y", "stimulus-type": "congruent", "word": "yellow", "color": "yellow", "correct_response": "y", "trial_id": "stroop-trial-1-congruent-16", "trial_type": "html-keyboard-response", "trial_index": 149, "time_elapsed": 467544, "internal_node_id": "0.0-6.0-54.0"}}, {"uniqueid": "w60055161:a41176416", "current_trial": 150, "dateTime": 1664555669711, "trialdata": {"rt": 2229, "stimulus": "<p id='stroop-text' class='stroop-green'>GREEN</p>", "response": "g", "stimulus-type": "congruent", "word": "green", "color": "green", "correct_response": "g", "trial_id": "stroop-trial-1-congruent-17", "trial_type": "html-keyboard-response", "trial_index": 150, "time_elapsed": 470295, "internal_node_id": "0.0-6.0-55.0"}}, {"uniqueid": "w60055161:a41176416", "current_trial": 151, "dateTime": 1664555671233, "trialdata": {"rt": 993, "stimulus": "<p id='stroop-text' class='stroop-green'>FORK</p>", "response": "g", "stimulus-type": "unrelated", "word": "FORK", "color": "green", "correct_response": "g", "trial_id": "stroop-trial-1-unrelated-30", "trial_type": "html-keyboard-response", "trial_index": 151, "time_elapsed": 471819, "internal_node_id": "0.0-6.0-56.0"}}, {"uniqueid": "w60055161:a41176416", "current_trial": 152, "dateTime": 1664555674178, "trialdata": {"rt": 2405, "stimulus": "<p id='stroop-text' class='stroop-green'>BLUE</p>", "response": "g", "stimulus-type": "incongruent", "word": "blue", "color": "green", "correct_response": "g", "trial_id": "stroop-trial-1-incongruent-3", "trial_type": "html-keyboard-response", "trial_index": 152, "time_elapsed": 474764, "internal_node_id": "0.0-6.0-57.0"}}, {"uniqueid": "w60055161:a41176416", "current_trial": 153, "dateTime": 1664555676616, "trialdata": {"rt": 1906, "stimulus": "<p id='stroop-text' class='stroop-red'>RED</p>", "response": "r", "stimulus-type": "congruent", "word": "red", "color": "red", "correct_response": "r", "trial_id": "stroop-trial-1-congruent-23", "trial_type": "html-keyboard-response", "trial_index": 153, "time_elapsed": 477203, "internal_node_id": "0.0-6.0-58.0"}}, {"uniqueid": "w60055161:a41176416", "current_trial": 154, "dateTime": 1664555678446, "trialdata": {"rt": 1319, "stimulus": "<p id='stroop-text' class='stroop-red'>GREEN</p>", "response": "r", "stimulus-type": "incongruent", "word": "green", "color": "red", "correct_response": "r", "trial_id": "stroop-trial-1-incongruent-20", "trial_type": "html-keyboard-response", "trial_index": 154, "time_elapsed": 479032, "internal_node_id": "0.0-6.0-59.0"}}, {"uniqueid": "w60055161:a41176416", "current_trial": 155, "dateTime": 1664555679912, "trialdata": {"rt": 941, "stimulus": "<p id='stroop-text' class='stroop-yellow'>BOAT</p>", "response": "y", "stimulus-type": "unrelated", "word": "BOAT", "color": "yellow", "correct_response": "y", "trial_id": "stroop-trial-1-unrelated-16", "trial_type": "html-keyboard-response", "trial_index": 155, "time_elapsed": 480499, "internal_node_id": "0.0-6.0-60.0"}}, {"uniqueid": "w60055161:a41176416", "current_trial": 156, "dateTime": 1664555687834, "trialdata": {"rt": 7410, "stimulus": "<p id='stroop-text' class='stroop-blue'>BOAT</p>", "response": "b", "stimulus-type": "unrelated", "word": "BOAT", "color": "blue", "correct_response": "b", "trial_id": "stroop-trial-1-unrelated-12", "trial_type": "html-keyboard-response", "trial_index": 156, "time_elapsed": 488422, "internal_node_id": "0.0-6.0-61.0"}}, {"uniqueid": "w60055161:a41176416", "current_trial": 157, "dateTime": 1664555705855, "trialdata": {"rt": 17510, "stimulus": "<p id='stroop-text' class='stroop-green'>GREEN</p>", "response": "g", "stimulus-type": "congruent", "word": "green", "color": "green", "correct_response": "g", "trial_id": "stroop-trial-1-congruent-29", "trial_type": "html-keyboard-response", "trial_index": 157, "time_elapsed": 506442, "internal_node_id": "0.0-6.0-62.0"}}, {"uniqueid": "w60055161:a41176416", "current_trial": 158, "dateTime": 1664555709517, "trialdata": {"rt": 3032, "stimulus": "<p id='stroop-text' class='stroop-blue'>YELLOW</p>", "response": "b", "stimulus-type": "incongruent", "word": "yellow", "color": "blue", "correct_response": "b", "trial_id": "stroop-trial-1-incongruent-16", "trial_type": "html-keyboard-response", "trial_index": 158, "time_elapsed": 509986, "internal_node_id": "0.0-6.0-63.0"}}, {"uniqueid": "w60055161:a41176416", "current_trial": 159, "dateTime": 1664555711462, "trialdata": {"rt": 1432, "stimulus": "<p id='stroop-text' class='stroop-red'>RED</p>", "response": "r", "stimulus-type": "congruent", "word": "red", "color": "red", "correct_response": "r", "trial_id": "stroop-trial-1-congruent-1", "trial_type": "html-keyboard-response", "trial_index": 159, "time_elapsed": 512049, "internal_node_id": "0.0-6.0-64.0"}}, {"uniqueid": "w60055161:a41176416", "current_trial": 160, "dateTime": 1664555721393, "trialdata": {"rt": 9421, "stimulus": "<p id='stroop-text' class='stroop-red'>GREEN</p>", "response": "r", "stimulus-type": "incongruent", "word": "green", "color": "red", "correct_response": "r", "trial_id": "stroop-trial-1-incongruent-22", "trial_type": "html-keyboard-response", "trial_index": 160, "time_elapsed": 521980, "internal_node_id": "0.0-6.0-65.0"}}, {"uniqueid": "w60055161:a41176416", "current_trial": 161, "dateTime": 1664555723043, "trialdata": {"rt": 1133, "stimulus": "<p id='stroop-text' class='stroop-yellow'>RED</p>", "response": "y", "stimulus-type": "incongruent", "word": "red", "color": "yellow", "correct_response": "y", "trial_id": "stroop-trial-1-incongruent-26", "trial_type": "html-keyboard-response", "trial_index": 161, "time_elapsed": 523630, "internal_node_id": "0.0-6.0-66.0"}}, {"uniqueid": "w60055161:a41176416", "current_trial": 162, "dateTime": 1664555725200, "trialdata": {"rt": 1645, "stimulus": "<p id='stroop-text' class='stroop-green'>BLUE</p>", "response": "g", "stimulus-type": "incongruent", "word": "blue", "color": "green", "correct_response": "g", "trial_id": "stroop-trial-1-incongruent-6", "trial_type": "html-keyboard-response", "trial_index": 162, "time_elapsed": 525787, "internal_node_id": "0.0-6.0-67.0"}}, {"uniqueid": "w60055161:a41176416", "current_trial": 163, "dateTime": 1664555727607, "trialdata": {"rt": 1886, "stimulus": "<p id='stroop-text' class='stroop-green'>GREEN</p>", "response": "g", "stimulus-type": "congruent", "word": "green", "color": "green", "correct_response": "g", "trial_id": "stroop-trial-1-congruent-24", "trial_type": "html-keyboard-response", "trial_index": 163, "time_elapsed": 528194, "internal_node_id": "0.0-6.0-68.0"}}, {"uniqueid": "w60055161:a41176416", "current_trial": 164, "dateTime": 1664555730548, "trialdata": {"rt": 2431, "stimulus": "<p id='stroop-text' class='stroop-red'>RED</p>", "response": "r", "stimulus-type": "congruent", "word": "red", "color": "red", "correct_response": "r", "trial_id": "stroop-trial-1-congruent-9", "trial_type": "html-keyboard-response", "trial_index": 164, "time_elapsed": 531134, "internal_node_id": "0.0-6.0-69.0"}}, {"uniqueid": "w60055161:a41176416", "current_trial": 165, "dateTime": 1664555731706, "trialdata": {"rt": 648, "stimulus": "<p id='stroop-text' class='stroop-red'>RED</p>", "response": "r", "stimulus-type": "congruent", "word": "red", "color": "red", "correct_response": "r", "trial_id": "stroop-trial-1-congruent-26", "trial_type": "html-keyboard-response", "trial_index": 165, "time_elapsed": 532293, "internal_node_id": "0.0-6.0-70.0"}}, {"uniqueid": "w60055161:a41176416", "current_trial": 166, "dateTime": 1664555733273, "trialdata": {"rt": 1059, "stimulus": "<p id='stroop-text' class='stroop-blue'>BLUE</p>", "response": "b", "stimulus-type": "congruent", "word": "blue", "color": "blue", "correct_response": "b", "trial_id": "stroop-trial-1-congruent-8", "trial_type": "html-keyboard-response", "trial_index": 166, "time_elapsed": 533861, "internal_node_id": "0.0-6.0-71.0"}}, {"uniqueid": "w60055161:a41176416", "current_trial": 167, "dateTime": 1664555737317, "trialdata": {"rt": 3533, "stimulus": "<p id='stroop-text' class='stroop-red'>BRAIN</p>", "response": "r", "stimulus-type": "unrelated", "word": "BRAIN", "color": "red", "correct_response": "r", "trial_id": "stroop-trial-1-unrelated-11", "trial_type": "html-keyboard-response", "trial_index": 167, "time_elapsed": 537904, "internal_node_id": "0.0-6.0-72.0"}}, {"uniqueid": "w60055161:a41176416", "current_trial": 168, "dateTime": 1664555738766, "trialdata": {"rt": 935, "stimulus": "<p id='stroop-text' class='stroop-blue'>DOG</p>", "response": "b", "stimulus-type": "unrelated", "word": "DOG", "color": "blue", "correct_response": "b", "trial_id": "stroop-trial-1-unrelated-27", "trial_type": "html-keyboard-response", "trial_index": 168, "time_elapsed": 539353, "internal_node_id": "0.0-6.0-73.0"}}, {"uniqueid": "w60055161:a41176416", "current_trial": 169, "dateTime": 1664555740120, "trialdata": {"rt": 842, "stimulus": "<p id='stroop-text' class='stroop-yellow'>WINDOW</p>", "response": "y", "stimulus-type": "unrelated", "word": "WINDOW", "color": "yellow", "correct_response": "y", "trial_id": "stroop-trial-1-unrelated-7", "trial_type": "html-keyboard-response", "trial_index": 169, "time_elapsed": 540708, "internal_node_id": "0.0-6.0-74.0"}}, {"uniqueid": "w60055161:a41176416", "current_trial": 170, "dateTime": 1664555742138, "trialdata": {"rt": 1507, "stimulus": "<p id='stroop-text' class='stroop-red'>RED</p>", "response": "r", "stimulus-type": "congruent", "word": "red", "color": "red", "correct_response": "r", "trial_id": "stroop-trial-1-congruent-22", "trial_type": "html-keyboard-response", "trial_index": 170, "time_elapsed": 542725, "internal_node_id": "0.0-6.0-75.0"}}, {"uniqueid": "w60055161:a41176416", "current_trial": 171, "dateTime": 1664555743582, "trialdata": {"rt": 935, "stimulus": "<p id='stroop-text' class='stroop-red'>RED</p>", "response": "r", "stimulus-type": "congruent", "word": "red", "color": "red", "correct_response": "r", "trial_id": "stroop-trial-1-congruent-5", "trial_type": "html-keyboard-response", "trial_index": 171, "time_elapsed": 544169, "internal_node_id": "0.0-6.0-76.0"}}, {"uniqueid": "w60055161:a41176416", "current_trial": 172, "dateTime": 1664555744942, "trialdata": {"rt": 843, "stimulus": "<p id='stroop-text' class='stroop-yellow'>YELLOW</p>", "response": "y", "stimulus-type": "congruent", "word": "yellow", "color": "yellow", "correct_response": "y", "trial_id": "stroop-trial-1-congruent-28", "trial_type": "html-keyboard-response", "trial_index": 172, "time_elapsed": 545529, "internal_node_id": "0.0-6.0-77.0"}}, {"uniqueid": "w60055161:a41176416", "current_trial": 173, "dateTime": 1664555747413, "trialdata": {"rt": 1957, "stimulus": "<p id='stroop-text' class='stroop-red'>YELLOW</p>", "response": "r", "stimulus-type": "incongruent", "word": "yellow", "color": "red", "correct_response": "r", "trial_id": "stroop-trial-1-incongruent-14", "trial_type": "html-keyboard-response", "trial_index": 173, "time_elapsed": 547999, "internal_node_id": "0.0-6.0-78.0"}}, {"uniqueid": "w60055161:a41176416", "current_trial": 174, "dateTime": 1664555750193, "trialdata": {"rt": 2247, "stimulus": "<p id='stroop-text' class='stroop-yellow'>YELLOW</p>", "response": "y", "stimulus-type": "congruent", "word": "yellow", "color": "yellow", "correct_response": "y", "trial_id": "stroop-trial-1-congruent-18", "trial_type": "html-keyboard-response", "trial_index": 174, "time_elapsed": 550781, "internal_node_id": "0.0-6.0-79.0"}}, {"uniqueid": "w60055161:a41176416", "current_trial": 175, "dateTime": 1664555751608, "trialdata": {"rt": 903, "stimulus": "<p id='stroop-text' class='stroop-yellow'>GREEN</p>", "response": "y", "stimulus-type": "incongruent", "word": "green", "color": "yellow", "correct_response": "y", "trial_id": "stroop-trial-1-incongruent-7", "trial_type": "html-keyboard-response", "trial_index": 175, "time_elapsed": 552196, "internal_node_id": "0.0-6.0-80.0"}}, {"uniqueid": "w60055161:a41176416", "current_trial": 176, "dateTime": 1664555752579, "trialdata": {"rt": 415, "stimulus": "<p id='stroop-text' class='stroop-yellow'>RED</p>", "response": "y", "stimulus-type": "incongruent", "word": "red", "color": "yellow", "correct_response": "y", "trial_id": "stroop-trial-1-incongruent-30", "trial_type": "html-keyboard-response", "trial_index": 176, "time_elapsed": 553166, "internal_node_id": "0.0-6.0-81.0"}}, {"uniqueid": "w60055161:a41176416", "current_trial": 177, "dateTime": 1664555753523, "trialdata": {"rt": 410, "stimulus": "<p id='stroop-text' class='stroop-yellow'>BOTTLE</p>", "response": "y", "stimulus-type": "unrelated", "word": "BOTTLE", "color": "yellow", "correct_response": "y", "trial_id": "stroop-trial-1-unrelated-13", "trial_type": "html-keyboard-response", "trial_index": 177, "time_elapsed": 554110, "internal_node_id": "0.0-6.0-82.0"}}, {"uniqueid": "w60055161:a41176416", "current_trial": 178, "dateTime": 1664555755227, "trialdata": {"rt": 1180, "stimulus": "<p id='stroop-text' class='stroop-blue'>BLUE</p>", "response": "b", "stimulus-type": "congruent", "word": "blue", "color": "blue", "correct_response": "b", "trial_id": "stroop-trial-1-congruent-25", "trial_type": "html-keyboard-response", "trial_index": 178, "time_elapsed": 555815, "internal_node_id": "0.0-6.0-83.0"}}, {"uniqueid": "w60055161:a41176416", "current_trial": 179, "dateTime": 1664555756408, "trialdata": {"rt": 669, "stimulus": "<p id='stroop-text' class='stroop-blue'>BLUE</p>", "response": "b", "stimulus-type": "congruent", "word": "blue", "color": "blue", "correct_response": "b", "trial_id": "stroop-trial-1-congruent-30", "trial_type": "html-keyboard-response", "trial_index": 179, "time_elapsed": 556995, "internal_node_id": "0.0-6.0-84.0"}}, {"uniqueid": "w60055161:a41176416", "current_trial": 180, "dateTime": 1664555758425, "trialdata": {"rt": 1480, "stimulus": "<p id='stroop-text' class='stroop-green'>BLUE</p>", "response": "g", "stimulus-type": "incongruent", "word": "blue", "color": "green", "correct_response": "g", "trial_id": "stroop-trial-1-incongruent-18", "trial_type": "html-keyboard-response", "trial_index": 180, "time_elapsed": 559011, "internal_node_id": "0.0-6.0-85.0"}}, {"uniqueid": "w60055161:a41176416", "current_trial": 181, "dateTime": 1664555759947, "trialdata": {"rt": 1012, "stimulus": "<p id='stroop-text' class='stroop-red'>BLUE</p>", "response": "r", "stimulus-type": "incongruent", "word": "blue", "color": "red", "correct_response": "r", "trial_id": "stroop-trial-1-incongruent-10", "trial_type": "html-keyboard-response", "trial_index": 181, "time_elapsed": 560534, "internal_node_id": "0.0-6.0-86.0"}}, {"uniqueid": "w60055161:a41176416", "current_trial": 182, "dateTime": 1664555762204, "trialdata": {"rt": 1746, "stimulus": "<p id='stroop-text' class='stroop-green'>YELLOW</p>", "response": "g", "stimulus-type": "incongruent", "word": "yellow", "color": "green", "correct_response": "g", "trial_id": "stroop-trial-1-incongruent-17", "trial_type": "html-keyboard-response", "trial_index": 182, "time_elapsed": 562791, "internal_node_id": "0.0-6.0-87.0"}}, {"uniqueid": "w60055161:a41176416", "current_trial": 183, "dateTime": 1664555765841, "trialdata": {"rt": 3125, "stimulus": "<p id='stroop-text' class='stroop-yellow'>SHIP</p>", "response": "y", "stimulus-type": "unrelated", "word": "SHIP", "color": "yellow", "correct_response": "y", "trial_id": "stroop-trial-1-unrelated-6", "trial_type": "html-keyboard-response", "trial_index": 183, "time_elapsed": 566428, "internal_node_id": "0.0-6.0-88.0"}}, {"uniqueid": "w60055161:a41176416", "current_trial": 184, "dateTime": 1664555766766, "trialdata": {"rt": 409, "stimulus": "<p id='stroop-text' class='stroop-yellow'>GREEN</p>", "response": "y", "stimulus-type": "incongruent", "word": "green", "color": "yellow", "correct_response": "y", "trial_id": "stroop-trial-1-incongruent-21", "trial_type": "html-keyboard-response", "trial_index": 184, "time_elapsed": 567353, "internal_node_id": "0.0-6.0-89.0"}}, {"uniqueid": "w60055161:a41176416", "current_trial": 185, "dateTime": 1664555770240, "trialdata": {"rt": 2598, "stimulus": "  <h1> End of block! </h1>\n\n  You have reached the end of the block 2/5. If you need a short break, feel free to take one now before moving on.\n\n  <br><br>\n  In the next block, you will complete another 90 rounds of this game.\n\n  <br><br>\n  <div style='text-align: center;'>Press <code>space</code> to begin.</div>\n  <br><br>\n<div style='text-align: center;'>(If the experiment doesn't continue, try clicking on the text and then pressing <code>space</code>.)</div>", "response": " ", "trial_id": "stroop_1_ready_3", "trial_type": "html-keyboard-response", "trial_index": 185, "time_elapsed": 570827, "internal_node_id": "0.0-7.0"}}, {"uniqueid": "w60055161:a41176416", "current_trial": 186, "dateTime": 1664555771664, "trialdata": {"rt": 1409, "stimulus": "<p id='stroop-text' class='stroop-red'>BRAIN</p>", "response": "r", "stimulus-type": "unrelated", "word": "BRAIN", "color": "red", "correct_response": "r", "trial_id": "stroop-trial-1-unrelated-18", "trial_type": "html-keyboard-response", "trial_index": 186, "time_elapsed": 572251, "internal_node_id": "0.0-8.0-0.0"}}, {"uniqueid": "w60055161:a41176416", "current_trial": 187, "dateTime": 1664555772687, "trialdata": {"rt": 507, "stimulus": "<p id='stroop-text' class='stroop-red'>FORK</p>", "response": "r", "stimulus-type": "unrelated", "word": "FORK", "color": "red", "correct_response": "r", "trial_id": "stroop-trial-1-unrelated-29", "trial_type": "html-keyboard-response", "trial_index": 187, "time_elapsed": 573273, "internal_node_id": "0.0-8.0-1.0"}}, {"uniqueid": "w60055161:a41176416", "current_trial": 188, "dateTime": 1664555773773, "trialdata": {"rt": 521, "stimulus": "<p id='stroop-text' class='stroop-red'>RED</p>", "response": "r", "stimulus-type": "congruent", "word": "red", "color": "red", "correct_response": "r", "trial_id": "stroop-trial-1-congruent-16", "trial_type": "html-keyboard-response", "trial_index": 188, "time_elapsed": 574316, "internal_node_id": "0.0-8.0-2.0"}}, {"uniqueid": "w60055161:a41176416", "current_trial": 189, "dateTime": 1664555775945, "trialdata": {"rt": 1661, "stimulus": "<p id='stroop-text' class='stroop-green'>SHIP</p>", "response": "g", "stimulus-type": "unrelated", "word": "SHIP", "color": "green", "correct_response": "g", "trial_id": "stroop-trial-1-unrelated-1", "trial_type": "html-keyboard-response", "trial_index": 189, "time_elapsed": 576532, "internal_node_id": "0.0-8.0-3.0"}}, {"uniqueid": "w60055161:a41176416", "current_trial": 190, "dateTime": 1664555777084, "trialdata": {"rt": 629, "stimulus": "<p id='stroop-text' class='stroop-green'>GREEN</p>", "response": "g", "stimulus-type": "congruent", "word": "green", "color": "green", "correct_response": "g", "trial_id": "stroop-trial-1-congruent-27", "trial_type": "html-keyboard-response", "trial_index": 190, "time_elapsed": 577672, "internal_node_id": "0.0-8.0-4.0"}}, {"uniqueid": "w60055161:a41176416", "current_trial": 191, "dateTime": 1664555778442, "trialdata": {"rt": 843, "stimulus": "<p id='stroop-text' class='stroop-red'>RED</p>", "response": "r", "stimulus-type": "congruent", "word": "red", "color": "red", "correct_response": "r", "trial_id": "stroop-trial-1-congruent-17", "trial_type": "html-keyboard-response", "trial_index": 191, "time_elapsed": 579028, "internal_node_id": "0.0-8.0-5.0"}}, {"uniqueid": "w60055161:a41176416", "current_trial": 192, "dateTime": 1664555780296, "trialdata": {"rt": 1338, "stimulus": "<p id='stroop-text' class='stroop-blue'>BRAIN</p>", "response": "b", "stimulus-type": "unrelated", "word": "BRAIN", "color": "blue", "correct_response": "b", "trial_id": "stroop-trial-1-unrelated-22", "trial_type": "html-keyboard-response", "trial_index": 192, "time_elapsed": 580884, "internal_node_id": "0.0-8.0-6.0"}}, {"uniqueid": "w60055161:a41176416", "current_trial": 193, "dateTime": 1664555781743, "trialdata": {"rt": 930, "stimulus": "<p id='stroop-text' class='stroop-yellow'>BLUE</p>", "response": "y", "stimulus-type": "incongruent", "word": "blue", "color": "yellow", "correct_response": "y", "trial_id": "stroop-trial-1-incongruent-6", "trial_type": "html-keyboard-response", "trial_index": 193, "time_elapsed": 582330, "internal_node_id": "0.0-8.0-7.0"}}, {"uniqueid": "w60055161:a41176416", "current_trial": 194, "dateTime": 1664555784101, "trialdata": {"rt": 1844, "stimulus": "<p id='stroop-text' class='stroop-green'>BLUE</p>", "response": "g", "stimulus-type": "incongruent", "word": "blue", "color": "green", "correct_response": "g", "trial_id": "stroop-trial-1-incongruent-29", "trial_type": "html-keyboard-response", "trial_index": 194, "time_elapsed": 584689, "internal_node_id": "0.0-8.0-8.0"}}, {"uniqueid": "w60055161:a41176416", "current_trial": 195, "dateTime": 1664555785585, "trialdata": {"rt": 960, "stimulus": "<p id='stroop-text' class='stroop-yellow'>MONKEY</p>", "response": "y", "stimulus-type": "unrelated", "word": "MONKEY", "color": "yellow", "correct_response": "y", "trial_id": "stroop-trial-1-unrelated-8", "trial_type": "html-keyboard-response", "trial_index": 195, "time_elapsed": 586172, "internal_node_id": "0.0-8.0-9.0"}}, {"uniqueid": "w60055161:a41176416", "current_trial": 196, "dateTime": 1664555787171, "trialdata": {"rt": 1065, "stimulus": "<p id='stroop-text' class='stroop-blue'>BLUE</p>", "response": "b", "stimulus-type": "congruent", "word": "blue", "color": "blue", "correct_response": "b", "trial_id": "stroop-trial-1-congruent-20", "trial_type": "html-keyboard-response", "trial_index": 196, "time_elapsed": 587758, "internal_node_id": "0.0-8.0-10.0"}}, {"uniqueid": "w60055161:a41176416", "current_trial": 197, "dateTime": 1664555788245, "trialdata": {"rt": 554, "stimulus": "<p id='stroop-text' class='stroop-blue'>BOTTLE</p>", "response": "b", "stimulus-type": "unrelated", "word": "BOTTLE", "color": "blue", "correct_response": "b", "trial_id": "stroop-trial-1-unrelated-4", "trial_type": "html-keyboard-response", "trial_index": 197, "time_elapsed": 588831, "internal_node_id": "0.0-8.0-11.0"}}, {"uniqueid": "w60055161:a41176416", "current_trial": 198, "dateTime": 1664555789657, "trialdata": {"rt": 878, "stimulus": "<p id='stroop-text' class='stroop-red'>GREEN</p>", "response": "r", "stimulus-type": "incongruent", "word": "green", "color": "red", "correct_response": "r", "trial_id": "stroop-trial-1-incongruent-23", "trial_type": "html-keyboard-response", "trial_index": 198, "time_elapsed": 590245, "internal_node_id": "0.0-8.0-12.0"}}, {"uniqueid": "w60055161:a41176416", "current_trial": 199, "dateTime": 1664555790655, "trialdata": {"rt": 483, "stimulus": "<p id='stroop-text' class='stroop-red'>RED</p>", "response": "r", "stimulus-type": "congruent", "word": "red", "color": "red", "correct_response": "r", "trial_id": "stroop-trial-1-congruent-11", "trial_type": "html-keyboard-response", "trial_index": 199, "time_elapsed": 591242, "internal_node_id": "0.0-8.0-13.0"}}, {"uniqueid": "w60055161:a41176416", "current_trial": 200, "dateTime": 1664555792894, "trialdata": {"rt": 1723, "stimulus": "<p id='stroop-text' class='stroop-blue'>BOTTLE</p>", "response": "b", "stimulus-type": "unrelated", "word": "BOTTLE", "color": "blue", "correct_response": "b", "trial_id": "stroop-trial-1-unrelated-6", "trial_type": "html-keyboard-response", "trial_index": 200, "time_elapsed": 593481, "internal_node_id": "0.0-8.0-14.0"}}, {"uniqueid": "w60055161:a41176416", "current_trial": 201, "dateTime": 1664555793839, "trialdata": {"rt": 421, "stimulus": "<p id='stroop-text' class='stroop-blue'>BLUE</p>", "response": "b", "stimulus-type": "congruent", "word": "blue", "color": "blue", "correct_response": "b", "trial_id": "stroop-trial-1-congruent-5", "trial_type": "html-keyboard-response", "trial_index": 201, "time_elapsed": 594426, "internal_node_id": "0.0-8.0-15.0"}}, {"uniqueid": "w60055161:a41176416", "current_trial": 202, "dateTime": 1664555795279, "trialdata": {"rt": 927, "stimulus": "<p id='stroop-text' class='stroop-red'>WINDOW</p>", "response": "r", "stimulus-type": "unrelated", "word": "WINDOW", "color": "red", "correct_response": "r", "trial_id": "stroop-trial-1-unrelated-25", "trial_type": "html-keyboard-response", "trial_index": 202, "time_elapsed": 595866, "internal_node_id": "0.0-8.0-16.0"}}, {"uniqueid": "w60055161:a41176416", "current_trial": 203, "dateTime": 1664555796949, "trialdata": {"rt": 1154, "stimulus": "<p id='stroop-text' class='stroop-red'>YELLOW</p>", "response": "r", "stimulus-type": "incongruent", "word": "yellow", "color": "red", "correct_response": "r", "trial_id": "stroop-trial-1-incongruent-22", "trial_type": "html-keyboard-response", "trial_index": 203, "time_elapsed": 597536, "internal_node_id": "0.0-8.0-17.0"}}, {"uniqueid": "w60055161:a41176416", "current_trial": 204, "dateTime": 1664555798396, "trialdata": {"rt": 922, "stimulus": "<p id='stroop-text' class='stroop-yellow'>YELLOW</p>", "response": "y", "stimulus-type": "congruent", "word": "yellow", "color": "yellow", "correct_response": "y", "trial_id": "stroop-trial-1-congruent-29", "trial_type": "html-keyboard-response", "trial_index": 204, "time_elapsed": 598983, "internal_node_id": "0.0-8.0-18.0"}}, {"uniqueid": "w60055161:a41176416", "current_trial": 205, "dateTime": 1664555799706, "trialdata": {"rt": 782, "stimulus": "<p id='stroop-text' class='stroop-blue'>SHIP</p>", "response": "b", "stimulus-type": "unrelated", "word": "SHIP", "color": "blue", "correct_response": "b", "trial_id": "stroop-trial-1-unrelated-9", "trial_type": "html-keyboard-response", "trial_index": 205, "time_elapsed": 600289, "internal_node_id": "0.0-8.0-19.0"}}, {"uniqueid": "w60055161:a41176416", "current_trial": 206, "dateTime": 1664555801463, "trialdata": {"rt": 1205, "stimulus": "<p id='stroop-text' class='stroop-yellow'>GREEN</p>", "response": "y", "stimulus-type": "incongruent", "word": "green", "color": "yellow", "correct_response": "y", "trial_id": "stroop-trial-1-incongruent-24", "trial_type": "html-keyboard-response", "trial_index": 206, "time_elapsed": 602050, "internal_node_id": "0.0-8.0-20.0"}}, {"uniqueid": "w60055161:a41176416", "current_trial": 207, "dateTime": 1664555803069, "trialdata": {"rt": 1078, "stimulus": "<p id='stroop-text' class='stroop-blue'>WINDOW</p>", "response": "b", "stimulus-type": "unrelated", "word": "WINDOW", "color": "blue", "correct_response": "b", "trial_id": "stroop-trial-1-unrelated-12", "trial_type": "html-keyboard-response", "trial_index": 207, "time_elapsed": 603653, "internal_node_id": "0.0-8.0-21.0"}}, {"uniqueid": "w60055161:a41176416", "current_trial": 208, "dateTime": 1664555804328, "trialdata": {"rt": 732, "stimulus": "<p id='stroop-text' class='stroop-yellow'>BLUE</p>", "response": "y", "stimulus-type": "incongruent", "word": "blue", "color": "yellow", "correct_response": "y", "trial_id": "stroop-trial-1-incongruent-5", "trial_type": "html-keyboard-response", "trial_index": 208, "time_elapsed": 604913, "internal_node_id": "0.0-8.0-22.0"}}, {"uniqueid": "w60055161:a41176416", "current_trial": 209, "dateTime": 1664555805497, "trialdata": {"rt": 618, "stimulus": "<p id='stroop-text' class='stroop-blue'>CHAIR</p>", "response": "b", "stimulus-type": "unrelated", "word": "CHAIR", "color": "blue", "correct_response": "b", "trial_id": "stroop-trial-1-unrelated-26", "trial_type": "html-keyboard-response", "trial_index": 209, "time_elapsed": 606082, "internal_node_id": "0.0-8.0-23.0"}}, {"uniqueid": "w60055161:a41176416", "current_trial": 210, "dateTime": 1664555807259, "trialdata": {"rt": 1241, "stimulus": "<p id='stroop-text' class='stroop-green'>GREEN</p>", "response": "g", "stimulus-type": "congruent", "word": "green", "color": "green", "correct_response": "g", "trial_id": "stroop-trial-1-congruent-30", "trial_type": "html-keyboard-response", "trial_index": 210, "time_elapsed": 607845, "internal_node_id": "0.0-8.0-24.0"}}, {"uniqueid": "w60055161:a41176416", "current_trial": 211, "dateTime": 1664555808394, "trialdata": {"rt": 600, "stimulus": "<p id='stroop-text' class='stroop-red'>BRAIN</p>", "response": "r", "stimulus-type": "unrelated", "word": "BRAIN", "color": "red", "correct_response": "r", "trial_id": "stroop-trial-1-unrelated-20", "trial_type": "html-keyboard-response", "trial_index": 211, "time_elapsed": 608979, "internal_node_id": "0.0-8.0-25.0"}}, {"uniqueid": "w60055161:a41176416", "current_trial": 212, "dateTime": 1664555809808, "trialdata": {"rt": 867, "stimulus": "<p id='stroop-text' class='stroop-yellow'>YELLOW</p>", "response": "y", "stimulus-type": "congruent", "word": "yellow", "color": "yellow", "correct_response": "y", "trial_id": "stroop-trial-1-congruent-9", "trial_type": "html-keyboard-response", "trial_index": 212, "time_elapsed": 610395, "internal_node_id": "0.0-8.0-26.0"}}, {"uniqueid": "w60055161:a41176416", "current_trial": 213, "dateTime": 1664555814074, "trialdata": {"rt": 3718, "stimulus": "<p id='stroop-text' class='stroop-blue'>RED</p>", "response": "b", "stimulus-type": "incongruent", "word": "red", "color": "blue", "correct_response": "b", "trial_id": "stroop-trial-1-incongruent-21", "trial_type": "html-keyboard-response", "trial_index": 213, "time_elapsed": 614662, "internal_node_id": "0.0-8.0-27.0"}}, {"uniqueid": "w60055161:a41176416", "current_trial": 214, "dateTime": 1664555815639, "trialdata": {"rt": 1049, "stimulus": "<p id='stroop-text' class='stroop-yellow'>DOG</p>", "response": "y", "stimulus-type": "unrelated", "word": "DOG", "color": "yellow", "correct_response": "y", "trial_id": "stroop-trial-1-unrelated-27", "trial_type": "html-keyboard-response", "trial_index": 214, "time_elapsed": 616224, "internal_node_id": "0.0-8.0-28.0"}}, {"uniqueid": "w60055161:a41176416", "current_trial": 215, "dateTime": 1664555816828, "trialdata": {"rt": 644, "stimulus": "<p id='stroop-text' class='stroop-blue'>BLUE</p>", "response": "r", "stimulus-type": "congruent", "word": "blue", "color": "blue", "correct_response": "b", "trial_id": "stroop-trial-1-congruent-18", "trial_type": "html-keyboard-response", "trial_index": 215, "time_elapsed": 617415, "internal_node_id": "0.0-8.0-29.0"}}, {"uniqueid": "w60055161:a41176416", "current_trial": 216, "dateTime": 1664555818644, "trialdata": {"rt": 1293, "stimulus": "<p id='stroop-text' class='stroop-yellow'>FORK</p>", "response": "y", "stimulus-type": "unrelated", "word": "FORK", "color": "yellow", "correct_response": "y", "trial_id": "stroop-trial-1-unrelated-14", "trial_type": "html-keyboard-response", "trial_index": 216, "time_elapsed": 619231, "internal_node_id": "0.0-8.0-30.0"}}, {"uniqueid": "w60055161:a41176416", "current_trial": 217, "dateTime": 1664555820364, "trialdata": {"rt": 1184, "stimulus": "<p id='stroop-text' class='stroop-blue'>BRIDGE</p>", "response": "b", "stimulus-type": "unrelated", "word": "BRIDGE", "color": "blue", "correct_response": "b", "trial_id": "stroop-trial-1-unrelated-11", "trial_type": "html-keyboard-response", "trial_index": 217, "time_elapsed": 620951, "internal_node_id": "0.0-8.0-31.0"}}, {"uniqueid": "w60055161:a41176416", "current_trial": 218, "dateTime": 1664555822324, "trialdata": {"rt": 1407, "stimulus": "<p id='stroop-text' class='stroop-green'>GREEN</p>", "response": "g", "stimulus-type": "congruent", "word": "green", "color": "green", "correct_response": "g", "trial_id": "stroop-trial-1-congruent-3", "trial_type": "html-keyboard-response", "trial_index": 218, "time_elapsed": 622879, "internal_node_id": "0.0-8.0-32.0"}}, {"uniqueid": "w60055161:a41176416", "current_trial": 219, "dateTime": 1664555824441, "trialdata": {"rt": 1601, "stimulus": "<p id='stroop-text' class='stroop-green'>RED</p>", "response": "g", "stimulus-type": "incongruent", "word": "red", "color": "green", "correct_response": "g", "trial_id": "stroop-trial-1-incongruent-1", "trial_type": "html-keyboard-response", "trial_index": 219, "time_elapsed": 625028, "internal_node_id": "0.0-8.0-33.0"}}, {"uniqueid": "w60055161:a41176416", "current_trial": 220, "dateTime": 1664555825498, "trialdata": {"rt": 538, "stimulus": "<p id='stroop-text' class='stroop-green'>GREEN</p>", "response": "g", "stimulus-type": "congruent", "word": "green", "color": "green", "correct_response": "g", "trial_id": "stroop-trial-1-congruent-12", "trial_type": "html-keyboard-response", "trial_index": 220, "time_elapsed": 626084, "internal_node_id": "0.0-8.0-34.0"}}, {"uniqueid": "w60055161:a41176416", "current_trial": 221, "dateTime": 1664555826789, "trialdata": {"rt": 762, "stimulus": "<p id='stroop-text' class='stroop-green'>FORK</p>", "response": "g", "stimulus-type": "unrelated", "word": "FORK", "color": "green", "correct_response": "g", "trial_id": "stroop-trial-1-unrelated-15", "trial_type": "html-keyboard-response", "trial_index": 221, "time_elapsed": 627376, "internal_node_id": "0.0-8.0-35.0"}}, {"uniqueid": "w60055161:a41176416", "current_trial": 222, "dateTime": 1664555828352, "trialdata": {"rt": 1047, "stimulus": "<p id='stroop-text' class='stroop-red'>RED</p>", "response": "r", "stimulus-type": "congruent", "word": "red", "color": "red", "correct_response": "r", "tria