{"condition": 1, "counterbalance": 0, "assignmentId": "a64373525", "workerId": "w80990997", "hitId": "h77550769", "currenttrial": 143, "bonus": 0, "data": [{"uniqueid": "w80990997:a64373525", "current_trial": 0, "dateTime": 1664463905672, "trialdata": {"success": true, "trial_type": "fullscreen", "trial_index": 0, "time_elapsed": 7650, "internal_node_id": "0.0-0.0"}}, {"uniqueid": "w80990997:a64373525", "current_trial": 1, "dateTime": 1664463938163, "trialdata": {"view_history": [{"page_index": 0, "viewing_time": 32485}], "rt": 32485, "trial_id": "exp_instructions_no_distractor", "trial_type": "instructions", "trial_index": 1, "time_elapsed": 40141, "internal_node_id": "0.0-1.0"}}, {"uniqueid": "w80990997:a64373525", "current_trial": 2, "dateTime": 1664463942669, "trialdata": {"success": true, "trial_type": "fullscreen", "trial_index": 2, "time_elapsed": 44647, "internal_node_id": "0.0-2.0-0.0"}}, {"uniqueid": "w80990997:a64373525", "current_trial": 3, "dateTime": 1664464107972, "trialdata": {"view_history": [{"page_index": 0, "viewing_time": 59996}, {"page_index": 1, "viewing_time": 1031}, {"page_index": 0, "viewing_time": 4056}, {"page_index": 1, "viewing_time": 40184}, {"page_index": 2, "viewing_time": 22912}, {"page_index": 3, "viewing_time": 9251}, {"page_index": 4, "viewing_time": 27869}], "rt": 165299, "trial_id": "mouselab_instructions_1", "trial_type": "instructions", "trial_index": 3, "time_elapsed": 209949, "internal_node_id": "0.0-2.0-1.0"}}, {"uniqueid": "w80990997:a64373525", "current_trial": 4, "dateTime": 1664464133723, "trialdata": {"revealed_states": [], "num_clicks_accrued": [0, 0, 0, 0, 0, 0, 0, 0, 0, 0, 0, 0, 0], "stateRewards": ["", -10, 10, -10, -10, 10, -10, -10, -10, 10, 10, 10, -10], "withholdReward": false, "trial_id": "practice_1", "block": "test", "trialIndex": 0, "score": 11.75, "costs": -0.25, "simulationMode": [null, null, null], "rewards": [10, 10, -10], "path": ["0", "0", "9", "10", "12"], "rt": [8653, 1072, 773], "actions": ["left", "left", "down"], "actionTimes": [16532, 18117, 19405], "queries": {"click": {"state": {"target": ["9"], "time": [10657]}, "edge": {"target": [], "time": []}}, "mouseover": {"state": {"target": ["8", "5", "5", "0", "5", "5", "9", "10"], "time": [9253, 9681, 9867, 10041, 10107, 10203, 10281, 13429]}, "edge": {"target": [], "time": []}}, "mouseout": {"state": {"target": ["4", "9", "0", "8", "5", "5", "0", "5", "5", "9", "9"], "time": [6710, 6749, 9041, 9350, 9722, 9899, 10080, 10164, 10245, 10831, 13059]}, "edge": {"target": [], "time": []}}}, "displayed_time": "19.91", "trialTime": 25260, "trial_type": "mouselab-mdp", "trial_index": 4, "time_elapsed": 235701, "internal_node_id": "0.0-2.0-2.0-0.0"}}, {"uniqueid": "w80990997:a64373525", "current_trial": 5, "dateTime": 1664464151091, "trialdata": {"revealed_states": [], "num_clicks_accrued": [0, 0, 0, 0, 0, 0, 0, 0, 0, 0, 0, 0, 0], "stateRewards": ["", 10, 10, -10, -10, -10, 10, -10, -10, -10, -10, 10, -10], "withholdReward": false, "trial_id": "practice_2", "block": "test", "trialIndex": 1, "score": 11.75, "costs": -0.25, "simulationMode": [null, null, null], "rewards": [10, 10, -10], "path": ["0", "0", "1", "2", "3"], "rt": [2837, 5646, 705], "actions": ["up", "up", "right"], "actionTimes": [5746, 11898, 13106], "queries": {"click": {"state": {"target": ["1"], "time": [4248]}, "edge": {"target": [], "time": []}}, "mouseover": {"state": {"target": ["0", "1", "5", "8"], "time": [3398, 3957, 4437, 4463]}, "edge": {"target": [], "time": []}}, "mouseout": {"state": {"target": ["10", "9", "0", "0", "1", "5", "8", "0", "4", "2", "3"], "time": [2196, 2250, 2542, 3424, 4424, 4450, 4477, 8718, 9960, 10040, 10573]}, "edge": {"target": [], "time": []}}}, "displayed_time": "13.61", "trialTime": 17297, "trial_type": "mouselab-mdp", "trial_index": 5, "time_elapsed": 253069, "internal_node_id": "0.0-2.0-2.0-1.0"}}, {"uniqueid": "w80990997:a64373525", "current_trial": 6, "dateTime": 1664464236719, "trialdata": {"view_history": [{"page_index": 0, "viewing_time": 46276}, {"page_index": 1, "viewing_time": 25832}, {"page_index": 2, "viewing_time": 13518}], "rt": 85626, "trial_id": "mouselab_instructions_2_scarce", "trial_type": "instructions", "trial_index": 6, "time_elapsed": 338697, "internal_node_id": "0.0-2.0-3.0"}}, {"uniqueid": "w80990997:a64373525", "current_trial": 7, "dateTime": 1664464286798, "trialdata": {"rt": 50075, "response": {"Q0": "$-48 to $48", "Q1": "The cost is always $0.25.", "Q2": "The better I perform the higher my bonus will be.", "Q3": "No, the amount of cash at each node of the web may be different each time.", "Q4": "The values of the nodes walked through from start to finish.", "Q5": "Yes."}, "question_order": [0, 1, 2, 3, 4, 5], "correct": {"Q0": "$-48 to $48", "Q1": "The cost is always $0.25.", "Q2": "The better I perform the higher my bonus will be.", "Q3": "No, the amount of cash at each node of the web may be different each time.", "Q4": "The values of the nodes walked through from start to finish.", "Q5": "No, the spider might forget to count the money on some rounds."}, "trial_id": "mouselab_quiz_scarce", "trial_type": "survey-multi-choice", "trial_index": 7, "time_elapsed": 388776, "internal_node_id": "0.0-2.0-4.0"}}, {"uniqueid": "w80990997:a64373525", "current_trial": 8, "dateTime": 1664464299613, "trialdata": {"success": true, "trial_type": "fullscreen", "trial_index": 8, "time_elapsed": 401591, "internal_node_id": "0.0-2.1-0.1"}}, {"uniqueid": "w80990997:a64373525", "current_trial": 9, "dateTime": 1664464382603, "trialdata": {"view_history": [{"page_index": 0, "viewing_time": 42547}, {"page_index": 1, "viewing_time": 9049}, {"page_index": 2, "viewing_time": 9048}, {"page_index": 3, "viewing_time": 527}, {"page_index": 2, "viewing_time": 14121}, {"page_index": 3, "viewing_time": 4671}, {"page_index": 4, "viewing_time": 3024}], "rt": 82987, "trial_id": "mouselab_instructions_1", "trial_type": "instructions", "trial_index": 9, "time_elapsed": 484581, "internal_node_id": "0.0-2.1-1.1"}}, {"uniqueid": "w80990997:a64373525", "current_trial": 10, "dateTime": 1664464403940, "trialdata": {"revealed_states": [], "num_clicks_accrued": [0, 0, 0, 0, 0, 0, 0, 0, 0, 0, 0, 0, 0], "stateRewards": ["", -10, 10, -10, -10, 10, -10, -10, -10, 10, 10, 10, -10], "withholdReward": false, "trial_id": "practice_1", "block": "test", "trialIndex": 2, "score": -8.75, "costs": -0.75, "simulationMode": [null, null, null], "rewards": [10, -10, -10], "path": ["0", "0", "5", "6", "8"], "rt": [7717, 363, 204], "actions": ["right", "right", "down"], "actionTimes": [10204, 11075, 11796], "queries": {"click": {"state": {"target": ["1", "5", "7"], "time": [4570, 6303, 8488]}, "edge": {"target": [], "time": []}}, "mouseover": {"state": {"target": ["9", "1", "12", "0", "5", "5", "8", "7", "8"], "time": [3811, 4351, 5456, 5536, 5589, 5835, 6857, 7483, 9338]}, "edge": {"target": [], "time": []}}, "mouseout": {"state": {"target": ["9", "0", "0", "9", "1", "12", "0", "5", "5", "8", "5", "7", "8", "8", "0", "1", "7", "5", "5", "8", "6"], "time": [1843, 1882, 3793, 3842, 4803, 5483, 5563, 5710, 6538, 7123, 7351, 8713, 9511, 15420, 16367, 16661, 17154, 17261, 17461, 18877, 20489]}, "edge": {"target": [], "time": []}}}, "displayed_time": "12.31", "trialTime": 21268, "trial_type": "mouselab-mdp", "trial_index": 10, "time_elapsed": 505918, "internal_node_id": "0.0-2.1-2.1-0.1"}}, {"uniqueid": "w80990997:a64373525", "current_trial": 11, "dateTime": 1664464420580, "trialdata": {"revealed_states": [], "num_clicks_accrued": [0, 0, 0, 0, 0, 0, 0, 0, 0, 0, 0, 0, 0], "stateRewards": ["", 10, 10, -10, -10, -10, 10, -10, -10, -10, -10, 10, -10], "withholdReward": false, "trial_id": "practice_2", "block": "test", "trialIndex": 3, "score": 11.25, "costs": -0.75, "simulationMode": [null, null, null], "rewards": [10, 10, -10], "path": ["0", "0", "1", "2", "3"], "rt": [10299, 1541, 287], "actions": ["up", "up", "right"], "actionTimes": [11605, 13660, 14460], "queries": {"click": {"state": {"target": ["9", "1", "4"], "time": [2299, 8025, 9934]}, "edge": {"target": [], "time": []}}, "mouseover": {"state": {"target": ["9", "8", "6", "5", "5", "5", "10", "11", "5", "5", "1", "5", "5", "4", "2", "3"], "time": [1996, 3115, 3381, 3474, 3983, 5119, 5768, 5889, 6302, 7077, 7743, 8264, 9011, 9183, 10744, 10801]}, "edge": {"target": [], "time": []}}, "mouseout": {"state": {"target": ["6", "5", "0", "9", "8", "6", "5", "5", "5", "9", "10", "11", "5", "5", "1", "5", "5", "1", "4", "2"], "time": [820, 1034, 1954, 2489, 3141, 3421, 3773, 4583, 5542, 5649, 5782, 6147, 6770, 7596, 8210, 8276, 9023, 9103, 10718, 10787]}, "edge": {"target": [], "time": []}}}, "displayed_time": "14.97", "trialTime": 16572, "trial_type": "mouselab-mdp", "trial_index": 11, "time_elapsed": 522557, "internal_node_id": "0.0-2.1-2.1-1.1"}}, {"uniqueid": "w80990997:a64373525", "current_trial": 12, "dateTime": 1664464487302, "trialdata": {"view_history": [{"page_index": 0, "viewing_time": 46121}, {"page_index": 1, "viewing_time": 18385}, {"page_index": 2, "viewing_time": 2213}], "rt": 66719, "trial_id": "mouselab_instructions_2_scarce", "trial_type": "instructions", "trial_index": 12, "time_elapsed": 589279, "internal_node_id": "0.0-2.1-3.1"}}, {"uniqueid": "w80990997:a64373525", "current_trial": 13, "dateTime": 1664464548553, "trialdata": {"rt": 61247, "response": {"Q0": "$-48 to $48", "Q1": "The cost is always $0.25.", "Q2": "The better I perform the higher my bonus will be.", "Q3": "No, the amount of cash at each node of the web may be different each time.", "Q4": "The values of the nodes walked through from start to finish.", "Q5": "No, the spider might forget to count the money on some rounds."}, "question_order": [0, 1, 2, 3, 4, 5], "correct": {"Q0": "$-48 to $48", "Q1": "The cost is always $0.25.", "Q2": "The better I perform the higher my bonus will be.", "Q3": "No, the amount of cash at each node of the web may be different each time.", "Q4": "The values of the nodes walked through from start to finish.", "Q5": "No, the spider might forget to count the money on some rounds."}, "trial_id": "mouselab_quiz_scarce", "trial_type": "survey-multi-choice", "trial_index": 13, "time_elapsed": 650531, "internal_node_id": "0.0-2.1-4.1"}}, {"uniqueid": "w80990997:a64373525", "current_trial": 14, "dateTime": 1664464560476, "trialdata": {"rt": 11918, "stimulus": "\n<h1> Get ready to start the game! </h1>\n\nThank you for reading the instructions. Get ready start with the first of 4 block(s) of this game.\n<br><br>\nIn this first block, you will complete 30 rounds of this game before moving on.\n<br><br>\nRemember, the more money the spider gets, the bigger your bonus will be!\n<br><br>\n<div style='text-align: center;'>Press <code>space</code> to begin.</div>\n\n<br><br>\n(If, at any point, the <code>space</code> key does not take you to the next page, click once on the text and try again.)", "response": " ", "trial_id": "mdp_ready_1", "trial_type": "html-keyboard-response", "trial_index": 14, "time_elapsed": 662454, "internal_node_id": "0.0-4.0-0.0"}}, {"uniqueid": "w80990997:a64373525", "current_trial": 15, "dateTime": 1664464587028, "trialdata": {"revealed_states": [], "num_clicks_accrued": [0, 0, 0, 0, 0, 0, 0, 0, 0, 0, 0, 0, 0], "stateRewards": ["", -4, 8, -24, 48, 2, -8, 24, 48, 2, -8, -24, -48], "withholdReward": true, "trial_id": "mdp_493778446445", "block": "test1", "trialIndex": 4, "score": 21.75, "costs": -1.25, "simulationMode": [null, null, null], "rewards": [2, -8, 24], "path": ["0", "0", "5", "6", "7"], "rt": [19384, 300, 408], "actions": ["right", "right", "up"], "actionTimes": [21678, 22494, 23415], "queries": {"click": {"state": {"target": ["5", "9", "12", "11", "7"], "time": [3180, 8457, 10594, 14753, 16683]}, "edge": {"target": [], "time": []}}, "mouseover": {"state": {"target": ["8", "5", "8", "0", "9", "9", "12", "12", "11", "8", "6", "7"], "time": [2813, 3042, 3332, 6586, 6840, 7147, 10046, 10335, 12522, 15630, 15670, 16061]}, "edge": {"target": [], "time": []}}, "mouseout": {"state": {"target": ["0", "8", "5", "8", "0", "9", "9", "12", "12", "12", "11", "8", "6", "7"], "time": [2746, 2879, 3319, 3359, 6640, 6894, 8640, 10188, 10735, 12340, 14989, 15657, 15684, 16857]}, "edge": {"target": [], "time": []}}}, "displayed_time": "23.93", "trialTime": 26470, "trial_type": "mouselab-mdp", "trial_index": 15, "time_elapsed": 689005, "internal_node_id": "0.0-4.0-1.0-0.0"}}, {"uniqueid": "w80990997:a64373525", "current_trial": 16, "dateTime": 1664464607733, "trialdata": {"revealed_states": [], "num_clicks_accrued": [0, 0, 0, 0, 0, 0, 0, 0, 0, 0, 0, 0, 0], "stateRewards": ["", 4, -8, -48, -24, 2, -8, -48, 48, -4, 8, 48, -48], "withholdReward": false, "trial_id": "mdp_605757196263", "block": "test1", "trialIndex": 5, "score": 45.5, "costs": -1.5, "simulationMode": [null, null, null], "rewards": [2, -8, 48], "path": ["0", "0", "5", "6", "8"], "rt": [13342, 933, 341], "actions": ["right", "right", "down"], "actionTimes": [15309, 16749, 17597], "queries": {"click": {"state": {"target": ["1", "4", "3", "9", "5", "8"], "time": [3193, 4951, 6604, 9322, 12458, 13960]}, "edge": {"target": [], "time": []}}, "mouseover": {"state": {"target": ["0", "1", "5", "8", "0", "4", "5", "5", "3", "7", "9", "0", "5", "6", "5", "8", "8"], "time": [2793, 3011, 3357, 3399, 4264, 4518, 5171, 5412, 5492, 6759, 7919, 11378, 11395, 11467, 11747, 12654, 13309]}, "edge": {"target": [], "time": []}}, "mouseout": {"state": {"target": ["5", "0", "0", "1", "5", "8", "0", "4", "5", "5", "3", "7", "9", "9", "9", "0", "5", "6", "5", "8", "8"], "time": [1131, 2282, 2850, 3330, 3370, 3411, 4291, 5131, 5184, 5438, 6745, 6772, 9467, 10827, 11347, 11395, 11441, 11712, 12641, 12667, 14121]}, "edge": {"target": [], "time": []}}}, "displayed_time": "18.11", "trialTime": 20630, "trial_type": "mouselab-mdp", "trial_index": 16, "time_elapsed": 709711, "internal_node_id": "0.0-4.0-1.0-1.0"}}, {"uniqueid": "w80990997:a64373525", "current_trial": 17, "dateTime": 1664464634918, "trialdata": {"revealed_states": [], "num_clicks_accrued": [0, 0, 0, 0, 0, 0, 0, 0, 0, 0, 0, 0, 0], "stateRewards": ["", -4, 4, -24, 24, -2, -4, 48, 24, 2, 8, -48, 24], "withholdReward": true, "trial_id": "mdp_150340189492", "block": "test1", "trialIndex": 6, "score": 38.25, "costs": -0.75, "simulationMode": [null, null, null], "rewards": [2, 8, 24], "path": ["0", "0", "9", "10", "12"], "rt": [20977, 257, 92], "actions": ["left", "left", "down"], "actionTimes": [23448, 24216, 24824], "queries": {"click": {"state": {"target": ["9", "11", "12"], "time": [4155, 11642, 15338]}, "edge": {"target": [], "time": []}}, "mouseover": {"state": {"target": ["0", "1", "9", "11", "12", "0", "5", "0", "12", "10", "1", "5", "5", "8", "5"], "time": [2776, 3205, 3630, 7911, 12300, 12849, 13275, 14701, 15178, 19250, 19719, 21578, 21985, 22331, 22708]}, "edge": {"target": [], "time": []}}, "mouseout": {"state": {"target": ["0", "0", "1", "9", "11", "9", "12", "0", "5", "0", "12", "10", "1", "5", "5", "8"], "time": [2242, 2790, 3376, 4377, 11806, 11834, 12753, 12889, 14688, 14714, 15501, 19610, 19849, 21591, 22090, 22638]}, "edge": {"target": [], "time": []}}}, "displayed_time": "25.33", "trialTime": 27105, "trial_type": "mouselab-mdp", "trial_index": 17, "time_elapsed": 736895, "internal_node_id": "0.0-4.0-1.0-2.0"}}, {"uniqueid": "w80990997:a64373525", "current_trial": 18, "dateTime": 1664464657220, "trialdata": {"revealed_states": [], "num_clicks_accrued": [0, 0, 0, 0, 0, 0, 0, 0, 0, 0, 0, 0, 0], "stateRewards": ["", -2, 8, 48, -48, 4, -8, 24, 24, 4, 4, -48, -24], "withholdReward": true, "trial_id": "mdp_746937869927", "block": "test1", "trialIndex": 7, "score": 23.25, "costs": -1.75, "simulationMode": [null, null, null], "rewards": [4, -8, 24], "path": ["0", "0", "5", "6", "7"], "rt": [14807, 268, 216], "actions": ["right", "right", "up"], "actionTimes": [16250, 17033, 17755], "queries": {"click": {"state": {"target": ["1", "5", "7", "8", "6", "12", "11"], "time": [2690, 4406, 5542, 7524, 10925, 14430, 15042]}, "edge": {"target": [], "time": []}}, "mouseover": {"state": {"target": ["1", "5", "8", "8", "5", "6", "7", "8", "6", "12", "10", "11"], "time": [2159, 2866, 2919, 3480, 3746, 5254, 5334, 7295, 10619, 14046, 14806, 14865]}, "edge": {"target": [], "time": []}}, "mouseout": {"state": {"target": ["5", "0", "1", "5", "8", "8", "5", "6", "7", "8", "6", "12", "10", "11", "5", "6"], "time": [772, 1272, 2840, 2893, 2947, 3521, 4589, 5308, 5733, 7683, 11177, 14793, 14855, 15274, 15351, 15364]}, "edge": {"target": [], "time": []}}}, "displayed_time": "18.26", "trialTime": 22235, "trial_type": "mouselab-mdp", "trial_index": 18, "time_elapsed": 759198, "internal_node_id": "0.0-4.0-1.0-3.0"}}, {"uniqueid": "w80990997:a64373525", "current_trial": 19, "dateTime": 1664464674667, "trialdata": {"revealed_states": [], "num_clicks_accrued": [0, 0, 0, 0, 0, 0, 0, 0, 0, 0, 0, 0, 0], "stateRewards": ["", -2, -4, -24, -48, -2, 8, -48, 24, 4, -4, -24, -24], "withholdReward": false, "trial_id": "mdp_915304165774", "block": "test1", "trialIndex": 8, "score": 33.5, "costs": -1.5, "simulationMode": [null, null, null], "rewards": [-2, 8, 24], "path": ["0", "0", "5", "6", "8"], "rt": [12118, 109, 199], "actions": ["right", "right", "down"], "actionTimes": [13510, 14134, 14837], "queries": {"click": {"state": {"target": ["3", "8", "11", "12", "4", "7"], "time": [5958, 6940, 8068, 8640, 9623, 10180]}, "edge": {"target": [], "time": []}}, "mouseover": {"state": {"target": ["12", "12", "10", "9", "1", "1", "10", "11", "2", "3", "7", "8", "10", "11", "10", "12", "9", "4", "4", "7", "6", "5", "6"], "time": [1845, 1925, 1966, 1979, 2032, 2165, 2246, 2633, 2913, 3569, 6206, 6673, 7714, 7874, 8221, 8487, 8954, 9061, 9448, 9902, 11569, 11809, 12131]}, "edge": {"target": [], "time": []}}, "mouseout": {"state": {"target": ["8", "0", "12", "12", "10", "9", "1", "1", "10", "11", "2", "3", "7", "8", "10", "11", "10", "12", "9", "4", "4", "7", "6", "5", "6"], "time": [898, 1805, 1872, 1938, 1978, 1992, 2059, 2192, 2259, 2834, 2993, 6194, 6236, 7118, 7808, 8207, 8235, 8834, 8981, 9194, 9800, 10329, 11769, 12105, 12184]}, "edge": {"target": [], "time": []}}}, "displayed_time": "15.35", "trialTime": 17373, "trial_type": "mouselab-mdp", "trial_index": 19, "time_elapsed": 776645, "internal_node_id": "0.0-4.0-1.0-4.0"}}, {"uniqueid": "w80990997:a64373525", "current_trial": 20, "dateTime": 1664464685404, "trialdata": {"revealed_states": [], "num_clicks_accrued": [0, 0, 0, 0, 0, 0, 0, 0, 0, 0, 0, 0, 0], "stateRewards": ["", 2, 8, 24, 24, 2, -8, -24, -48, 2, 8, -48, 48], "withholdReward": false, "trial_id": "mdp_745175888812", "block": "test1", "trialIndex": 9, "score": 62.75, "costs": -0.25, "simulationMode": [null, null, null], "rewards": [2, 8, 48], "path": ["0", "0", "9", "10", "12"], "rt": [2258, 122, 79], "actions": ["left", "left", "down"], "actionTimes": [3672, 4313, 4895], "queries": {"click": {"state": {"target": ["12"], "time": [2314]}, "edge": {"target": [], "time": []}}, "mouseover": {"state": {"target": ["0", "12"], "time": [1662, 2150]}, "edge": {"target": [], "time": []}}, "mouseout": {"state": {"target": ["6", "9", "10", "10", "9", "0", "12"], "time": [841, 882, 894, 1109, 1148, 1678, 2442]}, "edge": {"target": [], "time": []}}}, "displayed_time": "9.46", "trialTime": 10673, "trial_type": "mouselab-mdp", "trial_index": 20, "time_elapsed": 787382, "internal_node_id": "0.0-4.0-1.0-5.0"}}, {"uniqueid": "w80990997:a64373525", "current_trial": 21, "dateTime": 1664464698524, "trialdata": {"revealed_states": [], "num_clicks_accrued": [0, 0, 0, 0, 0, 0, 0, 0, 0, 0, 0, 0, 0], "stateRewards": ["", -2, 4, -24, -48, -4, 8, -24, 48, 4, 4, -48, 24], "withholdReward": false, "trial_id": "mdp_341117665701", "block": "test1", "trialIndex": 10, "score": 55, "costs": -2, "simulationMode": [null, null, null], "rewards": [-4, 8, 48], "path": ["0", "0", "5", "6", "8"], "rt": [8753, 212, 115], "actions": ["right", "right", "down"], "actionTimes": [10269, 10991, 11613], "queries": {"click": {"state": {"target": ["11", "12", "3", "4", "8", "7", "5", "6"], "time": [2204, 3131, 4267, 5516, 6322, 6852, 8787, 9157]}, "edge": {"target": [], "time": []}}, "mouseover": {"state": {"target": ["9", "11", "9", "12", "5", "3", "3", "5", "1", "4", "1", "5", "8", "6", "7", "6", "5", "6"], "time": [1879, 2080, 2372, 2815, 3801, 3881, 4147, 4668, 4734, 4949, 5707, 5764, 6121, 6508, 6601, 7828, 8095, 8977]}, "edge": {"target": [], "time": []}}, "mouseout": {"state": {"target": ["9", "11", "9", "12", "5", "3", "3", "5", "1", "4", "1", "5", "8", "6", "7", "6", "5", "6"], "time": [1893, 2359, 2386, 3280, 3813, 3894, 4427, 4698, 4746, 5695, 5735, 5801, 6495, 6561, 7014, 8028, 8922, 9296]}, "edge": {"target": [], "time": []}}}, "displayed_time": "12.12", "trialTime": 13053, "trial_type": "mouselab-mdp", "trial_index": 21, "time_elapsed": 800502, "internal_node_id": "0.0-4.0-1.0-6.0"}}, {"uniqueid": "w80990997:a64373525", "current_trial": 22, "dateTime": 1664464709788, "trialdata": {"revealed_states": [], "num_clicks_accrued": [0, 0, 0, 0, 0, 0, 0, 0, 0, 0, 0, 0, 0], "stateRewards": ["", 2, 8, 48, -24, -4, 4, 48, 24, -2, 8, 24, 24], "withholdReward": false, "trial_id": "mdp_123436106791", "block": "test1", "trialIndex": 11, "score": 52, "costs": -1, "simulationMode": [null, null, null], "rewards": [-4, 4, 48], "path": ["0", "0", "5", "6", "7"], "rt": [5672, 212, 98], "actions": ["right", "right", "up"], "actionTimes": [7482, 8204, 8810], "queries": {"click": {"state": {"target": ["11", "8", "12", "7"], "time": [2499, 3596, 5176, 5788]}, "edge": {"target": [], "time": []}}, "mouseover": {"state": {"target": ["9", "10", "11", "9", "6", "6", "8", "6", "7", "1", "9", "12", "7", "6", "4"], "time": [2151, 2201, 2321, 2669, 2922, 3309, 3402, 4055, 4122, 4562, 4643, 5015, 5576, 5963, 6337]}, "edge": {"target": [], "time": []}}, "mouseout": {"state": {"target": ["0", "0", "9", "10", "11", "9", "6", "6", "8", "6", "7", "1", "9", "12", "7", "6", "4"], "time": [1268, 2123, 2175, 2228, 2646, 2695, 2989, 3362, 3735, 4095, 4230, 4593, 4713, 5309, 5949, 5991, 6591]}, "edge": {"target": [], "time": []}}}, "displayed_time": "10.88", "trialTime": 11193, "trial_type": "mouselab-mdp", "trial_index": 22, "time_elapsed": 811766, "internal_node_id": "0.0-4.0-1.0-7.0"}}, {"uniqueid": "w80990997:a64373525", "current_trial": 23, "dateTime": 1664464727212, "trialdata": {"revealed_states": [], "num_clicks_accrued": [0, 0, 0, 0, 0, 0, 0, 0, 0, 0, 0, 0, 0], "stateRewards": ["", 2, 4, -48, -24, -4, 4, -24, 24, -2, -8, -24, 24], "withholdReward": false, "trial_id": "mdp_640720803523", "block": "test1", "trialIndex": 12, "score": 27, "costs": -2, "simulationMode": [null, null, null], "rewards": [-4, 4, 24], "path": ["0", "0", "5", "6", "8"], "rt": [9541, 78, 6], "actions": ["right", "right", "down"], "actionTimes": [14766, 15349, 15865], "queries": {"click": {"state": {"target": ["12", "11", "3", "4", "7", "8", "6", "10"], "time": [7254, 7912, 8592, 9229, 10012, 10606, 12876, 13557]}, "edge": {"target": [], "time": []}}, "mouseover": {"state": {"target": ["0", "9", "9", "10", "12", "10", "11", "1", "3", "2", "4", "1", "7", "7", "6", "8", "8", "6", "5", "6", "10"], "time": [5616, 5708, 6548, 6948, 7082, 7522, 7574, 8217, 8483, 8775, 8856, 9402, 9428, 9856, 10183, 10242, 10429, 11962, 12283, 12723, 13390]}, "edge": {"target": [], "time": []}}, "mouseout": {"state": {"target": ["4", "0", "0", "0", "9", "9", "10", "12", "10", "11", "1", "3", "2", "4", "1", "7", "7", "6", "8", "8", "8", "6", "5", "6", "10", "8"], "time": [4600, 4707, 4999, 5629, 6360, 6920, 7041, 7509, 7551, 8135, 8241, 8735, 8828, 9375, 9415, 9442, 10166, 10215, 10309, 10741, 11843, 12256, 12684, 13097, 13697, 13804]}, "edge": {"target": [], "time": []}}}, "displayed_time": "16.38", "trialTime": 17357, "trial_type": "mouselab-mdp", "trial_index": 23, "time_elapsed": 829190, "internal_node_id": "0.0-4.0-1.0-8.0"}}, {"uniqueid": "w80990997:a64373525", "current_trial": 24, "dateTime": 1664464739996, "trialdata": {"revealed_states": [], "num_clicks_accrued": [0, 0, 0, 0, 0, 0, 0, 0, 0, 0, 0, 0, 0], "stateRewards": ["", 2, 8, 48, 24, 2, 8, 48, 48, -2, -4, -24, -48], "withholdReward": true, "trial_id": "mdp_717636349175", "block": "test1", "trialIndex": 13, "score": 62.25, "costs": -0.75, "simulationMode": [null, null, null], "rewards": [2, 8, 48], "path": ["0", "0", "1", "2", "3"], "rt": [6063, 35, 48], "actions": ["up", "up", "right"], "actionTimes": [9744, 10295, 10855], "queries": {"click": {"state": {"target": ["11", "3", "2"], "time": [4843, 6027, 8778]}, "edge": {"target": [], "time": []}}, "mouseover": {"state": {"target": ["0", "9", "10", "11", "12", "0", "3", "3", "7", "8", "7", "2", "1", "2", "5"], "time": [4443, 4484, 4644, 4702, 5151, 5551, 5657, 5911, 6205, 6684, 6861, 7071, 7337, 7552, 9073]}, "edge": {"target": [], "time": []}}, "mouseout": {"state": {"target": ["6", "0", "9", "10", "11", "12", "0", "3", "3", "7", "8", "7", "2", "1", "2"], "time": [2874, 4456, 4497, 4671, 5100, 5177, 5563, 5738, 6177, 6217, 6698, 6965, 7325, 7485, 8979]}, "edge": {"target": [], "time": []}}}, "displayed_time": "11.86", "trialTime": 12711, "trial_type": "mouselab-mdp", "trial_index": 24, "time_elapsed": 841973, "internal_node_id": "0.0-4.0-1.0-9.0"}}, {"uniqueid": "w80990997:a64373525", "current_trial": 25, "dateTime": 1664464756212, "trialdata": {"revealed_states": [], "num_clicks_accrued": [0, 0, 0, 0, 0, 0, 0, 0, 0, 0, 0, 0, 0], "stateRewards": ["", -2, 8, 48, 48, 2, 4, -48, 24, -4, -8, 48, 24], "withholdReward": true, "trial_id": "mdp_572910394648", "block": "test1", "trialIndex": 14, "score": 58.25, "costs": -0.75, "simulationMode": [null, null, null], "rewards": [-2, 8, 48], "path": ["0", "0", "1", "2", "3"], "rt": [7519, 39, 547], "actions": ["up", "up", "right"], "actionTimes": [10042, 10594, 11650], "queries": {"click": {"state": {"target": ["3", "2", "1"], "time": [3445, 8088, 9288]}, "edge": {"target": [], "time": []}}, "mouseover": {"state": {"target": ["7", "3", "7", "6", "8", "5", "1", "2", "2", "1"], "time": [3099, 3272, 3613, 3630, 4677, 4753, 4878, 5286, 7861, 8371]}, "edge": {"target": [], "time": []}}, "mouseout": {"state": {"target": ["5", "0", "7", "3", "7", "6", "8", "5", "1", "2", "2", "1"], "time": [1525, 2953, 3126, 3579, 3629, 3642, 4695, 4806, 4901, 5353, 8337, 9476]}, "edge": {"target": [], "time": []}}}, "displayed_time": "12.16", "trialTime": 16138, "trial_type": "mouselab-mdp", "trial_index": 25, "time_elapsed": 858190, "internal_node_id": "0.0-4.0-1.0-10.0"}}, {"uniqueid": "w80990997:a64373525", "current_trial": 26, "dateTime": 1664464773427, "trialdata": {"revealed_states": [], "num_clicks_accrued": [0, 0, 0, 0, 0, 0, 0, 0, 0, 0, 0, 0, 0], "stateRewards": ["", 2, -4, 24, 24, 4, -4, -24, 24, -4, -4, 48, 48], "withholdReward": true, "trial_id": "mdp_566306223773", "block": "test1", "trialIndex": 15, "score": 43.5, "costs": -1.5, "simulationMode": [null, null, null], "rewards": [-4, -4, 48], "path": ["0", "0", "9", "10", "12"], "rt": [12770, 165, 140], "actions": ["left", "left", "down"], "actionTimes": [14594, 15266, 15922], "queries": {"click": {"state": {"target": ["8", "7", "12", "10", "3", "4"], "time": [4837, 7169, 7905, 9280, 12201, 12860]}, "edge": {"target": [], "time": []}}, "mouseover": {"state": {"target": ["8", "8", "7", "10", "11", "1", "7", "6", "12", "10", "11", "9", "10", "9", "2", "3", "4", "1"], "time": [4097, 4472, 5617, 6164, 6568, 6658, 6998, 7324, 7632, 8327, 8434, 9005, 9165, 9512, 10246, 10539, 12803, 13127]}, "edge": {"target": [], "time": []}}, "mouseout": {"state": {"target": ["7", "5", "0", "8", "8", "7", "10", "11", "1", "7", "6", "8", "12", "10", "11", "9", "10", "9", "2", "3", "4", "1"], "time": [1309, 1513, 2550, 4163, 4990, 6028, 6196, 6617, 6689, 7312, 7352, 7391, 8299, 8393, 8472, 9018, 9472, 9725, 10352, 12380, 13047, 13167]}, "edge": {"target": [], "time": []}}}, "displayed_time": "16.43", "trialTime": 17145, "trial_type": "mouselab-mdp", "trial_index": 26, "time_elapsed": 875405, "internal_node_id": "0.0-4.0-1.0-11.0"}}, {"uniqueid": "w80990997:a64373525", "current_trial": 27, "dateTime": 1664464786229, "trialdata": {"revealed_states": [], "num_clicks_accrued": [0, 0, 0, 0, 0, 0, 0, 0, 0, 0, 0, 0, 0], "stateRewards": ["", -2, -4, -48, -48, -2, -8, 48, -48, 4, -8, -48, 24], "withholdReward": true, "trial_id": "mdp_468495641521", "block": "test1", "trialIndex": 16, "score": 41.25, "costs": -1.75, "simulationMode": [null, null, null], "rewards": [-2, -8, 48], "path": ["0", "0", "5", "6", "7"], "rt": [7854, 83, 22], "actions": ["right", "right", "up"], "actionTimes": [9782, 10382, 10917], "queries": {"click": {"state": {"target": ["8", "7", "6", "3", "4", "11", "12"], "time": [3301, 4114, 5335, 6690, 7254, 8151, 8525]}, "edge": {"target": [], "time": []}}, "mouseover": {"state": {"target": ["5", "5", "6", "8", "7", "6", "6", "5", "5", "1", "2", "3", "1", "4", "9", "10", "11", "10", "12"], "time": [2238, 2543, 2917, 3077, 3985, 4251, 5121, 5479, 5812, 6305, 6351, 6586, 6892, 7172, 7773, 7866, 7986, 8280, 8389]}, "edge": {"target": [], "time": []}}, "mouseout": {"state": {"target": ["0", "5", "5", "6", "8", "7", "6", "8", "6", "5", "5", "1", "2", "3", "1", "4", "9", "10", "11", "10", "12"], "time": [2211, 2438, 2824, 2986, 3470, 4238, 4278, 4318, 5465, 5492, 6266, 6335, 6412, 6826, 6919, 7400, 7840, 7907, 8266, 8323, 8667]}, "edge": {"target": [], "time": []}}}, "displayed_time": "11.43", "trialTime": 12734, "trial_type": "mouselab-mdp", "trial_index": 27, "time_elapsed": 888206, "internal_node_id": "0.0-4.0-1.0-12.0"}}, {"uniqueid": "w80990997:a64373525", "current_trial": 28, "dateTime": 1664464802956, "trialdata": {"revealed_states": [], "num_clicks_accrued": [0, 0, 0, 0, 0, 0, 0, 0, 0, 0, 0, 0, 0], "stateRewards": ["", 4, -8, -24, 48, -4, 8, -24, -48, -4, -4, 24, 48], "withholdReward": true, "trial_id": "mdp_282352776624", "block": "test1", "trialIndex": 17, "score": 43.25, "costs": -1.75, "simulationMode": [null, null, null], "rewards": [-4, -4, 48], "path": ["0", "0", "9", "10", "12"], "rt": [12809, 77, 6], "actions": ["left", "left", "down"], "actionTimes": [14217, 14800, 15316], "queries": {"click": {"state": {"target": ["3", "8", "12", "10", "4", "2", "7"], "time": [3373, 4518, 5217, 6682, 9841, 10920, 12771]}, "edge": {"target": [], "time": []}}, "mouseover": {"state": {"target": ["5", "7", "6", "5", "3", "7", "8", "1", "1", "8", "12", "10", "11", "9", "10", "9", "5", "1", "2", "4", "7", "7", "2", "7", "6", "7", "6", "6", "5", "0", "9"], "time": [1931, 1971, 2397, 2504, 2677, 3517, 3798, 3879, 4131, 4251, 5051, 5599, 5692, 6119, 6372, 6813, 7439, 7479, 7587, 7733, 10081, 10334, 10800, 11388, 12547, 12698, 12922, 13241, 13353, 13372, 13415]}, "edge": {"target": [], "time": []}}, "mouseout": {"state": {"target": ["6", "5", "0", "5", "7", "6", "5", "3", "7", "8", "1", "1", "8", "12", "12", "10", "11", "9", "10", "9", "8", "5", "1", "2", "4", "7", "7", "2", "7", "6", "7", "6", "6", "5", "0", "9"], "time": [917, 957, 1718, 1957, 1984, 2439, 2570, 3504, 3531, 3811, 3933, 4145, 4651, 5372, 5572, 5652, 5882, 6176, 6787, 6843, 7385, 7466, 7532, 7615, 9986, 10121, 10534, 11098, 11628, 12628, 12881, 12935, 13322, 13371, 13388, 13458]}, "edge": {"target": [], "time": []}}}, "displayed_time": "15.83", "trialTime": 16656, "trial_type": "mouselab-mdp", "trial_index": 28, "time_elapsed": 904933, "internal_node_id": "0.0-4.0-1.0-13.0"}}, {"uniqueid": "w80990997:a64373525", "current_trial": 29, "dateTime": 1664464817772, "trialdata": {"revealed_states": [], "num_clicks_accrued": [0, 0, 0, 0, 0, 0, 0, 0, 0, 0, 0, 0, 0], "stateRewards": ["", 2, -4, 48, -24, 4, -8, -24, 48, -2, -4, 24, -48], "withholdReward": true, "trial_id": "mdp_357328205509", "block": "test1", "trialIndex": 18, "score": 49.75, "costs": -1.25, "simulationMode": [null, null, null], "rewards": [2, -4, 48], "path": ["0", "0", "1", "2", "3"], "rt": [10802, 101, 375], "actions": ["up", "up", "right"], "actionTimes": [12246, 12853, 13741], "queries": {"click": {"state": {"target": ["11", "3", "2", "8", "6"], "time": [2748, 4191, 5384, 8906, 9744]}, "edge": {"target": [], "time": []}}, "mouseover": {"state": {"target": ["0", "11", "0", "8", "8", "5", "3", "3", "7", "6", "6", "2", "7", "8", "6", "12"], "time": [1774, 2208, 2961, 3003, 3228, 3298, 3428, 4029, 4349, 4362, 4814, 5100, 5535, 8537, 9617, 10751]}, "edge": {"target": [], "time": []}}, "mouseout": {"state": {"target": ["1", "1", "0", "11", "0", "8", "8", "5", "3", "3", "7", "6", "6", "2", "7", "8", "8", "6", "8", "12", "6"], "time": [867, 1014, 1801, 2921, 2974, 3014, 3254, 3317, 3895, 4322, 4361, 4375, 4828, 5495, 5548, 9150, 9378, 9871, 10435, 11459, 11551]}, "edge": {"target": [], "time": []}}}, "displayed_time": "14.25", "trialTime": 14749, "trial_type": "mouselab-mdp", "trial_index": 29, "time_elapsed": 919750, "internal_node_id": "0.0-4.0-1.0-14.0"}}, {"uniqueid": "w80990997:a64373525", "current_trial": 30, "dateTime": 1664464828044, "trialdata": {"revealed_states": [], "num_clicks_accrued": [0, 0, 0, 0, 0, 0, 0, 0, 0, 0, 0, 0, 0], "stateRewards": ["", -2, -4, 48, -24, 2, -4, -24, -48, 2, 8, -48, -24], "withholdReward": true, "trial_id": "mdp_238243948191", "block": "test1", "trialIndex": 19, "score": 46.25, "costs": -0.75, "simulationMode": [null, null, null], "rewards": [-2, -4, 48], "path": ["0", "0", "1", "2", "3"], "rt": [6170, 148, 77], "actions": ["up", "up", "right"], "actionTimes": [7392, 8057, 8639], "queries": {"click": {"state": {"target": ["11", "3", "2"], "time": [2740, 4908, 6004]}, "edge": {"target": [], "time": []}}, "mouseover": {"state": {"target": ["3", "2", "11", "11", "9", "9", "2", "3", "3", "7", "6", "2"], "time": [1879, 2113, 2226, 2613, 2878, 3466, 3987, 4047, 4800, 5071, 5507, 5894]}, "edge": {"target": [], "time": []}}, "mouseout": {"state": {"target": ["7", "0", "3", "2", "11", "11", "9", "9", "2", "3", "3", "7", "6", "2", "3"], "time": [920, 1519, 2096, 2132, 2266, 2866, 2908, 3498, 4031, 4080, 5027, 5089, 5546, 6121, 6162]}, "edge": {"target": [], "time": []}}}, "displayed_time": "9.31", "trialTime": 10200, "trial_type": "mouselab-mdp", "trial_index": 30, "time_elapsed": 930022, "internal_node_id": "0.0-4.0-1.0-15.0"}}, {"uniqueid": "w80990997:a64373525", "current_trial": 31, "dateTime": 1664464838348, "trialdata": {"revealed_states": [], "num_clicks_accrued": [0, 0, 0, 0, 0, 0, 0, 0, 0, 0, 0, 0, 0], "stateRewards": ["", -4, -4, -24, 24, -4, 4, -24, 48, -2, 4, 48, -48], "withholdReward": true, "trial_id": "mdp_774757609669", "block": "test1", "trialIndex": 20, "score": 52, "costs": -1, "simulationMode": [null, null, null], "rewards": [-4, 4, 48], "path": ["0", "0", "5", "6", "8"], "rt": [4987, 29, 408], "actions": ["right", "right", "down"], "actionTimes": [6638, 7174, 8087], "queries": {"click": {"state": {"target": ["12", "3", "8", "6"], "time": [2833, 4064, 4652, 5578]}, "edge": {"target": [], "time": []}}, "mouseover": {"state": {"target": ["9", "12", "10", "11", "2", "3", "6", "8", "6", "7", "6"], "time": [2396, 2609, 3467, 3502, 3676, 3961, 4396, 4449, 4934, 5081, 5344]}, "edge": {"target": [], "time": []}}, "mouseout": {"state": {"target": ["7", "5", "0", "9", "12", "10", "11", "2", "3", "6", "8", "6", "7", "6", "8", "6"], "time": [1021, 1129, 2037, 2436, 3115, 3486, 3569, 3863, 4290, 4410, 4903, 4983, 5292, 5756, 5810, 6064]}, "edge": {"target": [], "time": []}}}, "displayed_time": "9.70", "trialTime": 10231, "trial_type": "mouselab-mdp", "trial_index": 31, "time_elapsed": 940326, "internal_node_id": "0.0-4.0-1.0-16.0"}}, {"uniqueid": "w80990997:a64373525", "current_trial": 32, "dateTime": 1664464850180, "trialdata": {"revealed_states": [], "num_clicks_accrued": [0, 0, 0, 0, 0, 0, 0, 0, 0, 0, 0, 0, 0], "stateRewards": ["", -4, 4, -24, 48, -2, 8, -48, 24, 2, 4, 48, -48], "withholdReward": true, "trial_id": "mdp_366632183904", "block": "test1", "trialIndex": 21, "score": 52.25, "costs": -0.75, "simulationMode": [null, null, null], "rewards": [-4, 4, 48], "path": ["0", "0", "1", "2", "4"], "rt": [4765, 780, 183], "actions": ["up", "up", "left"], "actionTimes": [6918, 8204, 8902], "queries": {"click": {"state": {"target": ["12", "4", "2"], "time": [3621, 4766, 5949]}, "edge": {"target": [], "time": []}}, "mouseover": {"state": {"target": ["0", "10", "12", "4", "4", "4", "2", "7"], "time": [2928, 3049, 3467, 3939, 4419, 4676, 5796, 6104]}, "edge": {"target": [], "time": []}}, "mouseout": {"state": {"target": ["6", "5", "9", "0", "5", "0", "10", "12", "4", "4", "4", "2", "7"], "time": [1034, 1060, 1303, 1327, 1543, 2969, 3435, 3838, 3957, 4503, 4934, 6064, 6130]}, "edge": {"target": [], "time": []}}}, "displayed_time": "11.21", "trialTime": 11764, "trial_type": "mouselab-mdp", "trial_index": 32, "time_elapsed": 952158, "internal_node_id": "0.0-4.0-1.0-17.0"}}, {"uniqueid": "w80990997:a64373525", "current_trial": 33, "dateTime": 1664464865557, "trialdata": {"revealed_states": [], "num_clicks_accrued": [0, 0, 0, 0, 0, 0, 0, 0, 0, 0, 0, 0, 0], "stateRewards": ["", -2, -8, -48, 24, 2, -4, -48, 48, 2, 4, 24, -24], "withholdReward": true, "trial_id": "mdp_849341543762", "block": "test1", "trialIndex": 22, "score": 49.25, "costs": -1.75, "simulationMode": [null, null, null], "rewards": [2, -4, 48], "path": ["0", "0", "5", "6", "8"], "rt": [11016, 152, 86], "actions": ["right", "right", "down"], "actionTimes": [12738, 13394, 13993], "queries": {"click": {"state": {"target": ["12", "4", "3", "8", "6", "11", "7"], "time": [5601, 6441, 7045, 7885, 9054, 9916, 10901]}, "edge": {"target": [], "time": []}}, "mouseover": {"state": {"target": ["8", "8", "0", "9", "12", "5", "1", "2", "4", "3", "8", "6", "7", "6", "9", "11", "9", "0", "5", "7"], "time": [1959, 2197, 2276, 2343, 2546, 6039, 6079, 6105, 6291, 6870, 7760, 8305, 8412, 8906, 9545, 9760, 10080, 10106, 10147, 10602]}, "edge": {"target": [], "time": []}}, "mouseout": {"state": {"target": ["5", "0", "0", "8", "8", "0", "9", "12", "5", "1", "2", "4", "3", "8", "6", "7", "6", "9", "11", "9", "0", "5", "6", "7"], "time": [1302, 1329, 1904, 1972, 2210, 2317, 2383, 5799, 6051, 6091, 6131, 6622, 7159, 8039, 8333, 8573, 9199, 9559, 10053, 10093, 10133, 10172, 10253, 11070]}, "edge": {"target": [], "time": []}}}, "displayed_time": "14.51", "trialTime": 15298, "trial_type": "mouselab-mdp", "trial_index": 33, "time_elapsed": 967534, "internal_node_id": "0.0-4.0-1.0-18.0"}}, {"uniqueid": "w80990997:a64373525", "current_trial": 34, "dateTime": 1664464888300, "trialdata": {"revealed_states": [], "num_clicks_accrued": [0, 0, 0, 0, 0, 0, 0, 0, 0, 0, 0, 0, 0], "stateRewards": ["", 2, -4, -24, -24, -2, -8, -48, 24, -4, -8, 24, 24], "withholdReward": true, "trial_id": "mdp_521351546461", "block": "test1", "trialIndex": 23, "score": 14.5, "costs": -2.5, "simulationMode": [null, null, null], "rewards": [-4, -8, 24], "path": ["0", "0", "9", "10", "12"], "rt": [13753, 1544, 353], "actions": ["left", "left", "down"], "actionTimes": [18325, 20382, 21246], "queries": {"click": {"state": {"target": ["12", "3", "8", "7", "4", "11", "6", "10", "1", "2"], "time": [5579, 6574, 7477, 8191, 8827, 9458, 12518, 13090, 15241, 15569]}, "edge": {"target": [], "time": []}}, "mouseover": {"state": {"target": ["12", "5", "3", "7", "8", "8", "7", "1", "4", "11", "0", "9", "10", "0", "5", "6", "10", "5", "1", "1", "2"], "time": [5406, 6233, 6419, 6765, 7006, 7273, 7966, 8420, 8620, 9315, 9660, 10875, 11006, 12008, 12034, 12061, 12941, 14372, 14782, 15062, 15475]}, "edge": {"target": [], "time": []}}, "mouseout": {"state": {"target": ["10", "11", "0", "0", "12", "5", "3", "7", "8", "8", "7", "1", "4", "11", "0", "8", "8", "9", "10", "11", "0", "5", "6", "10", "8", "5", "1", "1", "2", "6"], "time": [1337, 1378, 2550, 5151, 5887, 6259, 6739, 6794, 7032, 7646, 8366, 8460, 9007, 9593, 9673, 9766, 10794, 10946, 11487, 11674, 12021, 12048, 12674, 13221, 14315, 14649, 14808, 15409, 15703, 15842]}, "edge": {"target": [], "time": []}}}, "displayed_time": "21.76", "trialTime": 22670, "trial_type": "mouselab-mdp", "trial_index": 34, "time_elapsed": 990278, "internal_node_id": "0.0-4.0-1.0-19.0"}}, {"uniqueid": "w80990997:a64373525", "current_trial": 35, "dateTime": 1664464898989, "trialdata": {"revealed_states": [], "num_clicks_accrued": [0, 0, 0, 0, 0, 0, 0, 0, 0, 0, 0, 0, 0], "stateRewards": ["", 4, 4, 48, -48, 4, 4, -48, 24, 2, 8, 24, -48], "withholdReward": true, "trial_id": "mdp_291674656283", "block": "test1", "trialIndex": 24, "score": 60.5, "costs": -0.5, "simulationMode": [null, null, null], "rewards": [4, 4, 48], "path": ["0", "0", "1", "2", "3"], "rt": [4191, 147, 144], "actions": ["up", "up", "right"], "actionTimes": [5386, 6050, 6698], "queries": {"click": {"state": {"target": ["3", "2"], "time": [2061, 3023]}, "edge": {"target": [], "time": []}}, "mouseover": {"state": {"target": ["1", "3", "7", "6", "6", "5", "1", "2", "5", "8"], "time": [1646, 1899, 2259, 2311, 2646, 2674, 2739, 2886, 3326, 3433]}, "edge": {"target": [], "time": []}}, "mouseout": {"state": {"target": ["6", "5", "0", "1", "3", "7", "6", "6", "5", "1", "2", "5", "8"], "time": [686, 725, 1126, 1779, 2232, 2291, 2610, 2659, 2700, 2766, 3180, 3370, 3446]}, "edge": {"target": [], "time": []}}}, "displayed_time": "9.27", "trialTime": 10618, "trial_type": "mouselab-mdp", "trial_index": 35, "time_elapsed": 1000966, "internal_node_id": "0.0-4.0-1.0-20.0"}}, {"uniqueid": "w80990997:a64373525", "current_trial": 36, "dateTime": 1664464912715, "trialdata": {"revealed_states": [], "num_clicks_accrued": [0, 0, 0, 0, 0, 0, 0, 0, 0, 0, 0, 0, 0], "stateRewards": ["", 4, 4, -24, -48, 2, 4, 24, -48, 2, 4, 24, 24], "withholdReward": false, "trial_id": "mdp_223558518218", "block": "test1", "trialIndex": 25, "score": 33, "costs": -2, "simulationMode": [null, null, null], "rewards": [2, 4, 24], "path": ["0", "0", "9", "10", "11"], "rt": [8082, 223, 785], "actions": ["left", "left", "up"], "actionTimes": [9912, 10641, 11935], "queries": {"click": {"state": {"target": ["11", "8", "3", "4", "12", "7", "10", "6"], "time": [2594, 3667, 4803, 5409, 6035, 6921, 8138, 8727]}, "edge": {"target": [], "time": []}}, "mouseover": {"state": {"target": ["9", "11", "9", "0", "8", "6", "3", "3", "3", "7", "6", "1", "4", "9", "12", "5", "7", "6", "10", "9", "6"], "time": [2256, 2494, 2774, 2802, 3404, 4069, 4175, 4390, 4669, 5016, 5082, 5175, 5256, 5656, 5735, 6496, 6576, 7097, 7778, 8324, 8511]}, "edge": {"target": [], "time": []}}, "mouseout": {"state": {"target": ["6", "0", "9", "11", "9", "0", "8", "6", "3", "3", "3", "7", "6", "1", "4", "9", "12", "5", "7", "6", "12", "10", "9", "6"], "time": [1135, 2229, 2307, 2748, 2788, 2814, 3829, 4081, 4188, 4481, 4963, 5028, 5109, 5189, 5562, 5696, 6430, 6523, 7070, 7123, 7683, 8296, 8351, 8870]}, "edge": {"target": [], "time": []}}}, "displayed_time": "12.45", "trialTime": 13656, "trial_type": "mouselab-mdp", "trial_index": 36, "time_elapsed": 1014693, "internal_node_id": "0.0-4.0-1.0-21.0"}}, {"uniqueid": "w80990997:a64373525", "current_trial": 37, "dateTime": 1664464923659, "trialdata": {"revealed_states": [], "num_clicks_accrued": [0, 0, 0, 0, 0, 0, 0, 0, 0, 0, 0, 0, 0], "stateRewards": ["", -4, 4, -24, 48, 2, 4, -48, 24, 4, -8, -24, 24], "withholdReward": true, "trial_id": "mdp_740130150937", "block": "test1", "trialIndex": 26, "score": 51.5, "costs": -1.5, "simulationMode": [null, null, null], "rewards": [-4, 4, 48], "path": ["0", "0", "1", "2", "4"], "rt": [6719, 72, 58], "actions": ["up", "up", "left"], "actionTimes": [8090, 8665, 9241], "queries": {"click": {"state": {"target": ["3", "8", "12", "11", "4", "2"], "time": [2631, 3372, 4155, 5446, 5943, 6974]}, "edge": {"target": [], "time": []}}, "mouseover": {"state": {"target": ["3", "6", "8", "12", "11", "4", "2", "7", "2", "7"], "time": [2499, 2965, 3023, 4005, 4624, 5699, 6088, 6193, 6767, 7314]}, "edge": {"target": [], "time": []}}, "mouseout": {"state": {"target": ["6", "5", "0", "3", "6", "8", "12", "11", "4", "2", "7", "2"], "time": [951, 1125, 2205, 2778, 2992, 3525, 4445, 5648, 6075, 6113, 6647, 7113]}, "edge": {"target": [], "time": []}}}, "displayed_time": "10.45", "trialTime": 10865, "trial_type": "mouselab-mdp", "trial_index": 37, "time_elapsed": 1025637, "internal_node_id": "0.0-4.0-1.0-22.0"}}, {"uniqueid": "w80990997:a64373525", "current_trial": 38, "dateTime": 1664464934708, "trialdata": {"revealed_states": [], "num_clicks_accrued": [0, 0, 0, 0, 0, 0, 0, 0, 0, 0, 0, 0, 0], "stateRewards": ["", -2, 8, 48, 48, 4, -8, -48, 48, 2, -4, -48, 48], "withholdReward": true, "trial_id": "mdp_132958048709", "block": "test1", "trialIndex": 27, "score": 58.5, "costs": -0.5, "simulationMode": [null, null, null], "rewards": [-2, 8, 48], "path": ["0", "0", "1", "2", "4"], "rt": [2628, 19, 135], "actions": ["up", "up", "left"], "actionTimes": [4069, 4605, 5254], "queries": {"click": {"state": {"target": ["4", "2"], "time": [2199, 3319]}, "edge": {"target": [], "time": []}}, "mouseover": {"state": {"target": ["3", "2", "4", "2", "3", "2", "7"], "time": [1761, 1836, 2104, 2384, 2454, 3198, 3504]}, "edge": {"target": [], "time": []}}, "mouseout": {"state": {"target": ["7", "5", "3", "2", "4", "2", "3", "2", "7"], "time": [731, 876, 1782, 1905, 2331, 2410, 3130, 3438, 3517]}, "edge": {"target": [], "time": []}}}, "displayed_time": "10.53", "trialTime": 10982, "trial_type": "mouselab-mdp", "trial_index": 38, "time_elapsed": 1036686, "internal_node_id": "0.0-4.0-1.0-23.0"}}, {"uniqueid": "w80990997:a64373525", "current_trial": 39, "dateTime": 1664464953668, "trialdata": {"revealed_states": [], "num_clicks_accrued": [0, 0, 0, 0, 0, 0, 0, 0, 0, 0, 0, 0, 0], "stateRewards": ["", 2, -8, -24, 48, -4, -8, 24, -48, 4, -8, -24, -24], "withholdReward": true, "trial_id": "mdp_928911266656", "block": "test1", "trialIndex": 28, "score": 45.25, "costs": -1.75, "simulationMode": [null, null, null], "rewards": [2, -8, 48], "path": ["0", "0", "1", "2", "4"], "rt": [14118, 152, 85], "actions": ["up", "up", "left"], "actionTimes": [15766, 16422, 17022], "queries": {"click": {"state": {"target": ["11", "8", "3", "4", "2", "7", "12"], "time": [2603, 3634, 4365, 5598, 6848, 7862, 8510]}, "edge": {"target": [], "time": []}}, "mouseover": {"state": {"target": ["9", "10", "11", "9", "0", "6", "8", "3", "7", "1", "4", "1", "0", "1", "2", "7", "7", "6", "5", "12", "5", "6", "6", "6", "6"], "time": [2015, 2185, 2480, 2839, 2884, 3108, 3479, 4254, 5120, 5227, 5479, 5760, 5906, 6373, 6682, 7107, 7574, 8121, 8148, 8321, 8695, 8721, 12030, 13137, 13538]}, "edge": {"target": [], "time": []}}, "mouseout": {"state": {"target": ["7", "1", "0", "9", "10", "11", "9", "0", "6", "8", "3", "7", "1", "4", "1", "0", "1", "2", "7", "7", "6", "5", "12", "5", "6", "6", "4", "7", "6", "6"], "time": [1225, 1412, 1731, 2131, 2332, 2772, 2852, 2901, 3426, 3772, 4493, 5160, 5306, 5733, 5826, 5934, 6401, 7001, 7227, 8081, 8134, 8187, 8614, 8708, 8734, 12283, 12501, 12602, 13297, 14683]}, "edge": {"target": [], "time": []}}}, "displayed_time": "17.52", "trialTime": 18886, "trial_type": "mouselab-mdp", "trial_index": 39, "time_elapsed": 1055646, "internal_node_id": "0.0-4.0-1.0-24.0"}}, {"uniqueid": "w80990997:a64373525", "current_trial": 40, "dateTime": 1664464978702, "trialdata": {"revealed_states": [], "num_clicks_accrued": [0, 0, 0, 0, 0, 0, 0, 0, 0, 0, 0, 0, 0], "stateRewards": ["", 2, 4, 24, 48, -2, 8, 24, -24, -4, -4, 48, 48], "withholdReward": true, "trial_id": "mdp_753439303214", "block": "test1", "trialIndex": 29, "score": 57.25, "costs": -1.75, "simulationMode": [null, null, null], "rewards": [2, 4, 48], "path": ["0", "0", "1", "2", "4"], "rt": [13168, 172, 174], "actions": ["up", "up", "left"], "actionTimes": [14747, 15435, 16116], "queries": {"click": {"state": {"target": ["3", "12", "10", "8", "7", "4", "2"], "time": [2643, 3664, 5086, 6184, 10589, 12822, 13631]}, "edge": {"target": [], "time": []}}, "mouseover": {"state": {"target": ["3", "5", "9", "12", "8", "0", "9", "10", "9", "0", "6", "6", "8", "6", "7", "6", "7", "6", "1", "4", "4", "2", "7", "6", "6", "7", "5", "1", "4", "9", "4", "1", "6", "2"], "time": [2376, 2936, 3277, 3485, 4297, 4406, 4462, 4950, 5257, 5289, 5564, 5791, 5938, 6405, 6538, 6777, 7192, 8792, 8886, 8939, 9113, 9165, 9272, 9872, 10090, 10246, 11179, 11327, 11593, 12047, 12620, 12968, 13047, 13461]}, "edge": {"target": [], "time": []}}, "mouseout": {"state": {"target": ["6", "5", "0", "3", "5", "9", "12", "8", "0", "9", "10", "9", "0", "6", "6", "8", "6", "7", "6", "7", "6", "1", "4", "4", "2", "7", "6", "6", "7", "5", "1", "4", "9", "4", "1", "6", "2"], "time": [1229, 1404, 2004, 2817, 2980, 3296, 3777, 4326, 4431, 4495, 5231, 5287, 5301, 5631, 5884, 6364, 6471, 6724, 7156, 8712, 8819, 8917, 9005, 9142, 9221, 9312, 9939, 10179, 10766, 11221, 11447, 11861, 12340, 12926, 12981, 13234, 13767]}, "edge": {"target": [], "time": []}}}, "displayed_time": "16.62", "trialTime": 24955, "trial_type": "mouselab-mdp", "trial_index": 40, "time_elapsed": 1080679, "internal_node_id": "0.0-4.0-1.0-25.0"}}, {"uniqueid": "w80990997:a64373525", "current_trial": 41, "dateTime": 1664465009188, "trialdata": {"revealed_states": [], "num_clicks_accrued": [0, 0, 0, 0, 0, 0, 0, 0, 0, 0, 0, 0, 0], "stateRewards": ["", 4, -4, 48, -48, 2, 8, -48, 24, -2, -4, -24, 48], "withholdReward": false, "trial_id": "mdp_937564992306", "block": "test1", "trialIndex": 30, "score": 50.5, "costs": -2.5, "simulationMode": [null, null, null], "rewards": [4, -4, 48], "path": ["0", "0", "1", "2", "3"], "rt": [20272, 1176, 1311], "actions": ["up", "up", "right"], "actionTimes": [21934, 23614, 25430], "queries": {"click": {"state": {"target": ["8", "4", "7", "3", "2", "11", "12", "10", "1", "9"], "time": [6866, 8332, 9686, 10338, 11418, 12812, 13230, 14608, 20089, 20477]}, "edge": {"target": [], "time": []}}, "mouseover": {"state": {"target": ["8", "8", "0", "1", "1", "9", "9", "0", "8", "6", "2", "4", "0", "9", "10", "11", "1", "7", "6", "5", "3", "5", "10", "2", "6", "10", "11", "11", "10", "12", "0", "9", "10", "10", "10", "6", "1", "9", "1", "9", "0"], "time": [2309, 2658, 2963, 3017, 3392, 3563, 4150, 4470, 5318, 7325, 7512, 8204, 8711, 8792, 8885, 8965, 9259, 9472, 9859, 10072, 10206, 10539, 10993, 11152, 11663, 12086, 12220, 12660, 12971, 13086, 13887, 13914, 13932, 14046, 14435, 15835, 18842, 19543, 19769, 20316, 20662]}, "edge": {"target": [], "time": []}}, "mouseout": {"state": {"target": ["7", "0", "8", "8", "0", "1", "1", "9", "9", "0", "8", "6", "2", "4", "0", "9", "10", "11", "1", "7", "6", "5", "3", "5", "10", "2", "6", "8", "10", "11", "11", "10", "12", "0", "9", "10", "10", "10", "6", "1", "9", "1", "9", "0"], "time": [1350, 2003, 2323, 2831, 2975, 3029, 3482, 3630, 4445, 4483, 7032, 7355, 7712, 8565, 8725, 8845, 8912, 9205, 9286, 9832, 9898, 10101, 10486, 10565, 11006, 11579, 11686, 11827, 12153, 12460, 12940, 13020, 13397, 13900, 13931, 13967, 14060, 14727, 15861, 19476, 19717, 20276, 20641, 20676]}, "edge": {"target": [], "time": []}}}, "displayed_time": "25.93", "trialTime": 30406, "trial_type": "mouselab-mdp", "trial_index": 41, "time_elapsed": 1111166, "internal_node_id": "0.0-4.0-1.0-26.0"}}, {"uniqueid": "w80990997:a64373525", "current_trial": 42, "dateTime": 1664465020540, "trialdata": {"revealed_states": [], "num_clicks_accrued": [0, 0, 0, 0, 0, 0, 0, 0, 0, 0, 0, 0, 0], "stateRewards": ["", 2, 8, 48, -48, -2, -4, -24, 24, 4, -4, 48, -48], "withholdReward": true, "trial_id": "mdp_105734044587", "block": "test1", "trialIndex": 31, "score": 62.25, "costs": -0.75, "simulationMode": [null, null, null], "rewards": [2, 8, 48], "path": ["0", "0", "1", "2", "3"], "rt": [5133, 400, 29], "actions": ["up", "up", "right"], "actionTimes": [6514, 7426, 7962], "queries": {"click": {"state": {"target": ["3", "2", "1"], "time": [3474, 4707, 5618]}, "edge": {"target": [], "time": []}}, "mouseover": {"state": {"target": ["3", "6", "1", "2", "5", "5", "1", "7"], "time": [3318, 3704, 3957, 4159, 4878, 5132, 5491, 5824]}, "edge": {"target": [], "time": []}}, "mouseout": {"state": {"target": ["6", "5", "0", "3", "6", "1", "2", "5", "5", "1", "7"], "time": [947, 982, 2879, 3624, 3865, 4037, 4829, 4918, 5173, 5745, 5854]}, "edge": {"target": [], "time": []}}}, "displayed_time": "10.47", "trialTime": 11273, "trial_type": "mouselab-mdp", "trial_index": 42, "time_elapsed": 1122518, "internal_node_id": "0.0-4.0-1.0-27.0"}}, {"uniqueid": "w80990997:a64373525", "current_trial": 43, "dateTime": 1664465030820, "trialdata": {"revealed_states": [], "num_clicks_accrued": [0, 0, 0, 0, 0, 0, 0, 0, 0, 0, 0, 0, 0], "stateRewards": ["", 4, 4, 48, -24, -4, -8, 24, -24, 2, -8, -24, 24], "withholdReward": true, "trial_id": "mdp_933201675789", "block": "test1", "trialIndex": 32, "score": 60.5, "costs": -0.5, "simulationMode": [null, null, null], "rewards": [4, 4, 48], "path": ["0", "0", "1", "2", "3"], "rt": [3396, 38, 92], "actions": ["up", "up", "right"], "actionTimes": [4947, 5492, 6091], "queries": {"click": {"state": {"target": ["3", "2"], "time": [2335, 3220]}, "edge": {"target": [], "time": []}}, "mouseover": {"state": {"target": ["3", "7", "5", "1", "2", "7"], "time": [2079, 2504, 2826, 2904, 3065, 3391]}, "edge": {"target": [], "time": []}}, "mouseout": {"state": {"target": ["7", "3", "7", "5", "1", "2", "7"], "time": [1211, 2478, 2518, 2856, 2985, 3345, 3406]}, "edge": {"target": [], "time": []}}}, "displayed_time": "9.63", "trialTime": 10203, "trial_type": "mouselab-mdp", "trial_index": 43, "time_elapsed": 1132798, "internal_node_id": "0.0-4.0-1.0-28.0"}}, {"uniqueid": "w80990997:a64373525", "current_trial": 44, "dateTime": 1664465042436, "trialdata": {"revealed_states": [], "num_clicks_accrued": [0, 0, 0, 0, 0, 0, 0, 0, 0, 0, 0, 0, 0], "stateRewards": ["", 4, 8, -48, 24, -2, 8, -48, -48, -4, 4, 48, -48], "withholdReward": true, "trial_id": "mdp_693807815190", "block": "test1", "trialIndex": 33, "score": 52.5, "costs": -0.5, "simulationMode": [null, null, null], "rewards": [-4, 4, 48], "path": ["0", "0", "9", "10", "11"], "rt": [5616, 207, 86], "actions": ["left", "left", "up"], "actionTimes": [7829, 8541, 9140], "queries": {"click": {"state": {"target": ["11", "10"], "time": [4399, 5828]}, "edge": {"target": [], "time": []}}, "mouseover": {"state": {"target": ["0", "8", "8", "5", "1", "3", "11", "11", "9", "10", "8", "8", "8"], "time": [2360, 2424, 2627, 2665, 2731, 3030, 3985, 4280, 4571, 5052, 6199, 6667, 6922]}, "edge": {"target": [], "time": []}}, "mouseout": {"state": {"target": ["7", "1", "9", "0", "8", "8", "5", "1", "3", "11", "11", "9", "10", "8", "8", "8"], "time": [1477, 1517, 1743, 2384, 2438, 2641, 2677, 2784, 3892, 4012, 4561, 4599, 5977, 6231, 6693, 6935]}, "edge": {"target": [], "time": []}}}, "displayed_time": "11.29", "trialTime": 11548, "trial_type": "mouselab-mdp", "trial_index": 44, "time_elapsed": 1144414, "internal_node_id": "0.0-4.0-1.0-29.0"}}, {"uniqueid": "w80990997:a64373525", "current_trial": 45, "dateTime": 1664465051924, "trialdata": {"rt": 9485, "stimulus": "<h1> End of block! </h1>\n\nYou have reached the end of the block 1/4. If you need a short break, feel free to take one now before moving on.\n\n<br><br>\nIn the next block, you will complete another 30 rounds of this game.\n\n<br><br>\n<div style='text-align: center;'>Press <code>space</code> to begin.</div>\n<br><br>\n<div style='text-align: center;'>(If the experiment doesn't continue, try clicking on the text and then pressing <code>space</code>.)</div>", "response": " ", "trial_id": "mdp_ready_2", "trial_type": "html-keyboard-response", "trial_index": 45, "time_elapsed": 1153902, "internal_node_id": "0.0-4.0-2.0"}}, {"uniqueid": "w80990997:a64373525", "current_trial": 46, "dateTime": 1664465067453, "trialdata": {"revealed_states": [], "num_clicks_accrued": [0, 0, 0, 0, 0, 0, 0, 0, 0, 0, 0, 0, 0], "stateRewards": ["", 4, 4, -24, -48, -4, 4, -48, 24, 4, -8, -48, 48], "withholdReward": true, "trial_id": "mdp_566768794366", "block": "test2", "trialIndex": 34, "score": 47.25, "costs": -1.75, "simulationMode": [null, null, null], "rewards": [4, -8, 48], "path": ["0", "0", "9", "10", "12"], "rt": [10481, 509, 47], "actions": ["left", "left", "down"], "actionTimes": [12324, 13341, 13891], "queries": {"click": {"state": {"target": ["3", "12", "10", "8", "7", "4", "11"], "time": [2526, 4347, 5314, 7205, 8035, 8980, 10986]}, "edge": {"target": [], "time": []}}, "mouseover": {"state": {"target": ["3", "7", "6", "12", "9", "10", "9", "0", "5", "8", "7", "1", "4", "11", "5"], "time": [2320, 2801, 3147, 3468, 4921, 4948, 5485, 5504, 5529, 6148, 7601, 8605, 8829, 9535, 11261]}, "edge": {"target": [], "time": []}}, "mouseout": {"state": {"target": ["6", "5", "9", "0", "3", "7", "6", "12", "9", "10", "9", "0", "5", "8", "7", "1", "4", "11", "5"], "time": [1119, 1159, 1439, 2187, 2747, 2990, 3217, 4601, 4934, 5454, 5503, 5515, 5547, 7469, 8336, 8709, 9162, 11190, 11279]}, "edge": {"target": [], "time": []}}}, "displayed_time": "14.40", "trialTime": 15452, "trial_type": "mouselab-mdp", "trial_index": 46, "time_elapsed": 1169431, "internal_node_id": "0.0-4.0-3.0-0.0"}}, {"uniqueid": "w80990997:a64373525", "current_trial": 47, "dateTime": 1664465077437, "trialdata": {"revealed_states": [], "num_clicks_accrued": [0, 0, 0, 0, 0, 0, 0, 0, 0, 0, 0, 0, 0], "stateRewards": ["", 2, -4, -24, 24, 2, 8, 48, 48, 2, -8, 48, -24], "withholdReward": false, "trial_id": "mdp_330392242530", "block": "test2", "trialIndex": 35, "score": 62.5, "costs": -0.5, "simulationMode": [null, null, null], "rewards": [2, 8, 48], "path": ["0", "0", "5", "6", "8"], "rt": [3431, 31, 12], "actions": ["right", "right", "down"], "actionTimes": [5016, 5560, 6089], "queries": {"click": {"state": {"target": ["8", "6"], "time": [2864, 3951]}, "edge": {"target": [], "time": []}}, "mouseover": {"state": {"target": ["1", "1", "6", "8", "6", "6"], "time": [2074, 2386, 2610, 2663, 3449, 3782]}, "edge": {"target": [], "time": []}}, "mouseout": {"state": {"target": ["4", "0", "1", "1", "6", "8", "6", "6"], "time": [1168, 2009, 2154, 2422, 2622, 3395, 3461, 4089]}, "edge": {"target": [], "time": []}}}, "displayed_time": "9.65", "trialTime": 9905, "trial_type": "mouselab-mdp", "trial_index": 47, "time_elapsed": 1179414, "internal_node_id": "0.0-4.0-3.0-1.0"}}, {"uniqueid": "w80990997:a64373525", "current_trial": 48, "dateTime": 1664465090236, "trialdata": {"revealed_states": [], "num_clicks_accrued": [0, 0, 0, 0, 0, 0, 0, 0, 0, 0, 0, 0, 0], "stateRewards": ["", 4, 8, 48, -48, -4, 8, -24, -24, -4, 8, 48, 48], "withholdReward": true, "trial_id": "mdp_377640328420", "block": "test2", "trialIndex": 36, "score": 56, "costs": -1, "simulationMode": [null, null, null], "rewards": [-4, 8, 48], "path": ["0", "0", "9", "10", "11"], "rt": [5462, 30, 60], "actions": ["left", "left", "up"], "actionTimes": [8563, 9098, 9673], "queries": {"click": {"state": {"target": ["8", "4", "11", "10"], "time": [4368, 5921, 6758, 7691]}, "edge": {"target": [], "time": []}}, "mouseover": {"state": {"target": ["0", "8", "8", "5", "2", "4", "1", "0", "9", "11", "12", "9", "10", "9", "0", "5", "6"], "time": [3357, 3597, 4238, 4949, 5092, 5136, 6105, 6385, 6412, 6625, 7185, 7430, 7586, 7826, 7854, 7880, 7907]}, "edge": {"target": [], "time": []}}, "mouseout": {"state": {"target": ["5", "9", "0", "0", "8", "8", "8", "5", "2", "4", "1", "0", "9", "11", "12", "9", "10", "9", "0", "5", "6"], "time": [2424, 2770, 2956, 3371, 3797, 4491, 4881, 4971, 5104, 6083, 6121, 6398, 6438, 6892, 7361, 7520, 7806, 7853, 7866, 7893, 7932]}, "edge": {"target": [], "time": []}}}, "displayed_time": "12.18", "trialTime": 12729, "trial_type": "mouselab-mdp", "trial_index": 48, "time_elapsed": 1192213, "internal_node_id": "0.0-4.0-3.0-2.0"}}, {"uniqueid": "w80990997:a64373525", "current_trial": 49, "dateTime": 1664465108644, "trialdata": {"revealed_states": [], "num_clicks_accrued": [0, 0, 0, 0, 0, 0, 0, 0, 0, 0, 0, 0, 0], "stateRewards": ["", 4, -4, 48, 24, 2, 4, 24, -24, 2, 4, 24, 48], "withholdReward": true, "trial_id": "mdp_736351885282", "block": "test2", "trialIndex": 37, "score": 57.25, "costs": -1.75, "simulationMode": [null, null, null], "rewards": [2, 4, 48], "path": ["0", "0", "9", "10", "12"], "rt": [13198, 234, 14], "actions": ["left", "left", "down"], "actionTimes": [15291, 16035, 16562], "queries": {"click": {"state": {"target": ["3", "2", "8", "11", "7", "12", "10"], "time": [3589, 4723, 6375, 9228, 11772, 12440, 13625]}, "edge": {"target": [], "time": []}}, "mouseover": {"state": {"target": ["2", "3", "7", "6", "5", "1", "2", "6", "8", "7", "0", "9", "12", "7", "1", "11", "0", "5", "7", "5", "12", "9", "4", "10"], "time": [2969, 3075, 3808, 3848, 4092, 4209, 4342, 4943, 5023, 6877, 7276, 7316, 7584, 8559, 8678, 8918, 10518, 10558, 10705, 11998, 12319, 12812, 12935, 13319]}, "edge": {"target": [], "time": []}}, "mouseout": {"state": {"target": ["6", "5", "0", "0", "2", "3", "7", "6", "5", "1", "2", "6", "8", "7", "0", "9", "12", "7", "1", "11", "0", "5", "7", "5", "12", "9", "4", "10"], "time": [1117, 1208, 1381, 2547, 3022, 3756, 3822, 4077, 4142, 4276, 4863, 4970, 6543, 7210, 7304, 7343, 8398, 8624, 8691, 9478, 10531, 10585, 11958, 12011, 12588, 12825, 12948, 13772]}, "edge": {"target": [], "time": []}}}, "displayed_time": "17.07", "trialTime": 18330, "trial_type": "mouselab-mdp", "trial_index": 49, "time_elapsed": 1210621, "internal_node_id": "0.0-4.0-3.0-3.0"}}, {"uniqueid": "w80990997:a64373525", "current_trial": 50, "dateTime": 1664465127478, "trialdata": {"revealed_states": [], "num_clicks_accrued": [0, 0, 0, 0, 0, 0, 0, 0, 0, 0, 0, 0, 0], "stateRewards": ["", -4, 8, 24, 24, -2, 8, -48, 48, 4, -8, 48, -48], "withholdReward": true, "trial_id": "mdp_295249220524", "block": "test2", "trialIndex": 38, "score": 58.25, "costs": -0.75, "simulationMode": [null, null, null], "rewards": [-2, 8, 48], "path": ["0", "0", "5", "6", "8"], "rt": [4741, 378, 381], "actions": ["right", "right", "down"], "actionTimes": [11236, 12124, 13020], "queries": {"click": {"state": {"target": ["3", "8", "6"], "time": [7954, 8817, 9726]}, "edge": {"target": [], "time": []}}, "mouseover": {"state": {"target": ["7", "3", "6", "8", "5", "6"], "time": [7664, 7877, 8157, 8626, 9509, 9529]}, "edge": {"target": [], "time": []}}, "mouseout": {"state": {"target": ["8", "5", "7", "3", "6", "8", "5", "6"], "time": [5558, 5716, 7784, 8094, 8197, 8970, 9526, 9869]}, "edge": {"target": [], "time": []}}}, "displayed_time": "15.59", "trialTime": 18757, "trial_type": "mouselab-mdp", "trial_index": 50, "time_elapsed": 1229455, "internal_node_id": "0.0-4.0-3.0-4.0"}}, {"uniqueid": "w80990997:a64373525", "current_trial": 51, "dateTime": 1664465137621, "trialdata": {"revealed_states": [], "num_clicks_accrued": [0, 0, 0, 0, 0, 0, 0, 0, 0, 0, 0, 0, 0], "stateRewards": ["", 4, 8, 48, 48, 4, 4, -24, -48, 4, 8, -48, -48], "withholdReward": false, "trial_id": "mdp_984548726931", "block": "test2", "trialIndex": 39, "score": 64.25, "costs": -0.75, "simulationMode": [null, null, null], "rewards": [4, 8, 48], "path": ["0", "0", "1", "2", "3"], "rt": [4252, 68, 23], "actions": ["up", "up", "right"], "actionTimes": [5958, 6542, 7069], "queries": {"click": {"state": {"target": ["8", "3", "2"], "time": [2855, 3997, 5046]}, "edge": {"target": [], "time": []}}, "mouseover": {"state": {"target": ["8", "5", "7", "3", "5", "9", "2", "7"], "time": [2244, 3311, 3525, 3871, 4178, 4423, 4872, 5246]}, "edge": {"target": [], "time": []}}, "mouseout": {"state": {"target": ["6", "5", "0", "8", "5", "7", "3", "5", "9", "2", "7"], "time": [899, 924, 2191, 3018, 3338, 3818, 4125, 4205, 4580, 5205, 5273]}, "edge": {"target": [], "time": []}}}, "displayed_time": "9.77", "trialTime": 10062, "trial_type": "mouselab-mdp", "trial_index": 51, "time_elapsed": 1239599, "internal_node_id": "0.0-4.0-3.0-5.0"}}, {"uniqueid": "w80990997:a64373525", "current_trial": 52, "dateTime": 1664465159693, "trialdata": {"revealed_states": [], "num_clicks_accrued": [0, 0, 0, 0, 0, 0, 0, 0, 0, 0, 0, 0, 0], "stateRewards": ["", 2, -4, 48, -48, -4, -8, -48, 24, -4, 4, 48, 48], "withholdReward": false, "trial_id": "mdp_544803968425", "block": "test2", "trialIndex": 40, "score": 52.5, "costs": -0.5, "simulationMode": [null, null, null], "rewards": [-4, 4, 48], "path": ["0", "0", "9", "10", "11"], "rt": [6072, 126, 85], "actions": ["left", "left", "up"], "actionTimes": [15267, 15908, 16506], "queries": {"click": {"state": {"target": ["11", "10"], "time": [10255, 11106]}, "edge": {"target": [], "time": []}}, "mouseover": {"state": {"target": ["11", "10", "10", "6", "7", "6", "8"], "time": [10126, 10699, 10970, 11953, 11993, 12447, 12473]}, "edge": {"target": [], "time": []}}, "mouseout": {"state": {"target": ["7", "9", "10", "3", "6", "5", "0", "11", "10", "10", "6", "7", "6", "8"], "time": [1256, 1482, 1588, 1642, 4068, 8926, 9766, 10672, 10739, 11247, 11980, 12047, 12459, 12500]}, "edge": {"target": [], "time": []}}}, "displayed_time": "17.25", "trialTime": 21995, "trial_type": "mouselab-mdp", "trial_index": 52, "time_elapsed": 1261670, "internal_node_id": "0.0-4.0-3.0-6.0"}}, {"uniqueid": "w80990997:a64373525", "current_trial": 53, "dateTime": 1664465177813, "trialdata": {"revealed_states": [], "num_clicks_accrued": [0, 0, 0, 0, 0, 0, 0, 0, 0, 0, 0, 0, 0], "stateRewards": ["", -4, -4, -24, 48, -4, -8, -24, 48, 2, 4, 48, 48], "withholdReward": true, "trial_id": "mdp_810954007398", "block": "test2", "trialIndex": 41, "score": 57.5, "costs": -1.5, "simulationMode": [null, null, null], "rewards": [2, 4, 48], "path": ["0", "0", "9", "10", "11"], "rt": [11551, 113, 108], "actions": ["left", "left", "up"], "actionTimes": [14494, 15119, 15742], "queries": {"click": {"state": {"target": ["3", "8", "6", "10", "2", "11"], "time": [6443, 7033, 8172, 11145, 11852, 12998]}, "edge": {"target": [], "time": []}}, "mouseover": {"state": {"target": ["0", "5", "8", "7", "3", "7", "3", "6", "8", "0", "5", "6", "6", "12", "10", "10", "9", "2", "1", "4", "11", "12"], "time": [3081, 3148, 3201, 3589, 3974, 5055, 5401, 6736, 6803, 7670, 7684, 7710, 8126, 8937, 9308, 9725, 11564, 11711, 12057, 12272, 12795, 13219]}, "edge": {"target": [], "time": []}}, "mouseout": {"state": {"target": ["0", "0", "5", "8", "7", "3", "7", "3", "6", "8", "0", "5", "6", "6", "12", "10", "10", "9", "2", "1", "4", "10", "11", "10", "12", "10", "11"], "time": [2774, 3121, 3161, 3228, 3615, 4978, 5376, 6670, 6779, 7243, 7683, 7696, 7737, 8363, 9289, 9470, 11418, 11592, 12032, 12071, 12485, 12698, 13152, 13192, 13673, 13711, 13832]}, "edge": {"target": [], "time": []}}}, "displayed_time": "16.25", "trialTime": 18038, "trial_type": "mouselab-mdp", "trial_index": 53, "time_elapsed": 1279791, "internal_node_id": "0.0-4.0-3.0-7.0"}}, {"uniqueid": "w80990997:a64373525", "current_trial": 54, "dateTime": 1664465189877, "trialdata": {"revealed_states": [], "num_clicks_accrued": [0, 0, 0, 0, 0, 0, 0, 0, 0, 0, 0, 0, 0], "stateRewards": ["", 2, -4, -48, 24, 4, 4, 48, -48, -2, -4, -24, -48], "withholdReward": false, "trial_id": "mdp_858916930936", "block": "test2", "trialIndex": 42, "score": 59.25, "costs": -1.75, "simulationMode": [null, null, null], "rewards": [4, 4, 48], "path": ["0", "0", "5", "6", "7"], "rt": [7450, 72, 357], "actions": ["right", "right", "up"], "actionTimes": [8766, 9349, 10222], "queries": {"click": {"state": {"target": ["3", "4", "11", "12", "8", "7", "6"], "time": [2084, 3710, 4267, 4758, 5378, 6184, 7652]}, "edge": {"target": [], "time": []}}, "mouseover": {"state": {"target": ["3", "8", "5", "1", "4", "11", "4", "11", "10", "12", "8", "7", "6", "6"], "time": [1849, 2298, 2581, 2648, 2917, 3115, 3608, 4155, 4516, 4585, 5236, 6049, 6976, 7584]}, "edge": {"target": [], "time": []}}, "mouseout": {"state": {"target": ["11", "3", "8", "5", "1", "4", "11", "4", "11", "10", "12", "8", "7", "6", "6"], "time": [821, 2207, 2314, 2594, 2728, 3038, 3517, 3848, 4436, 4556, 4889, 5555, 6304, 7239, 7783]}, "edge": {"target": [], "time": []}}}, "displayed_time": "10.73", "trialTime": 11982, "trial_type": "mouselab-mdp", "trial_index": 54, "time_elapsed": 1291854, "internal_node_id": "0.0-4.0-3.0-8.0"}}, {"uniqueid": "w80990997:a64373525", "current_trial": 55, "dateTime": 1664465203612, "trialdata": {"revealed_states": [], "num_clicks_accrued": [0, 0, 0, 0, 0, 0, 0, 0, 0, 0, 0, 0, 0], "stateRewards": ["", -4, -8, -48, 24, -4, -4, -24, -48, 2, -8, -24, -48], "withholdReward": true, "trial_id": "mdp_628181832088", "block": "test2", "trialIndex": 43, "score": 15.5, "costs": -1.5, "simulationMode": [null, null, null], "rewards": [-4, -8, 24], "path": ["0", "0", "1", "2", "4"], "rt": [7017, 6, 17], "actions": ["up", "up", "left"], "actionTimes": [11028, 11544, 12075], "queries": {"click": {"state": {"target": ["7", "4", "11", "12", "8", "3"], "time": [4837, 5839, 6668, 7078, 7794, 8425]}, "edge": {"target": [], "time": []}}, "mouseover": {"state": {"target": ["0", "5", "6", "7", "8", "4", "0", "9", "11", "10", "12", "8", "6", "3", "2"], "time": [4227, 4268, 4574, 4657, 5535, 5627, 6041, 6268, 6455, 6828, 6910, 7576, 8020, 8295, 10136]}, "edge": {"target": [], "time": []}}, "mouseout": {"state": {"target": ["8", "0", "0", "5", "6", "7", "8", "4", "0", "9", "11", "10", "12", "8", "6", "7", "3", "7", "7"], "time": [3013, 3093, 4240, 4294, 4614, 5069, 5547, 5974, 6055, 6281, 6815, 6869, 7310, 7975, 8043, 8082, 8642, 8682, 9990]}, "edge": {"target": [], "time": []}}}, "displayed_time": "13.09", "trialTime": 13651, "trial_type": "mouselab-mdp", "trial_index": 55, "time_elapsed": 1305589, "internal_node_id": "0.0-4.0-3.0-9.0"}}, {"uniqueid": "w80990997:a64373525", "current_trial": 56, "dateTime": 1664465218309, "trialdata": {"revealed_states": [], "num_clicks_accrued": [0, 0, 0, 0, 0, 0, 0, 0, 0, 0, 0, 0, 0], "stateRewards": ["", 2, -8, 24, 24, 4, -4, -24, -48, 4, 8, 24, 24], "withholdReward": true, "trial_id": "mdp_249803813713", "block": "test2", "trialIndex": 44, "score": 39, "costs": -2, "simulationMode": [null, null, null], "rewards": [4, 8, 24], "path": ["0", "0", "9", "10", "11"], "rt": [9279, 597, 131], "actions": ["left", "left", "up"], "actionTimes": [10942, 12054, 12694], "queries": {"click": {"state": {"target": ["7", "11", "12", "8", "3", "4", "2", "10"], "time": [3066, 4526, 5372, 6168, 7271, 7854, 9302, 9909]}, "edge": {"target": [], "time": []}}, "mouseover": {"state": {"target": ["0", "5", "7", "6", "0", "11", "9", "12", "8", "0", "1", "2", "3", "4", "9", "2", "10", "9"], "time": [1948, 2172, 2879, 3210, 3773, 4226, 4773, 5256, 6027, 6550, 6588, 6748, 7040, 7762, 8842, 9030, 9802, 10061]}, "edge": {"target": [], "time": []}}, "mouseout": {"state": {"target": ["2", "0", "0", "5", "7", "6", "0", "11", "9", "12", "8", "0", "1", "2", "3", "4", "9", "2", "10", "9"], "time": [1231, 1603, 2146, 2186, 3193, 3223, 3800, 4707, 4787, 5562, 6345, 6565, 6654, 6828, 7468, 8047, 8882, 9455, 10029, 10083]}, "edge": {"target": [], "time": []}}}, "displayed_time": "13.20", "trialTime": 14622, "trial_type": "mouselab-mdp", "trial_index": 56, "time_elapsed": 1320286, "internal_node_id": "0.0-4.0-3.0-10.0"}}, {"uniqueid": "w80990997:a64373525", "current_trial": 57, "dateTime": 1664465229653, "trialdata": {"revealed_states": [], "num_clicks_accrued": [0, 0, 0, 0, 0, 0, 0, 0, 0, 0, 0, 0, 0], "stateRewards": ["", -2, 4, 24, 48, 2, 4, -48, -48, 2, 8, 48, -48], "withholdReward": true, "trial_id": "mdp_409609775558", "block": "test2", "trialIndex": 45, "score": 62.25, "costs": -0.75, "simulationMode": [null, null, null], "rewards": [2, 8, 48], "path": ["0", "0", "9", "10", "11"], "rt": [3687, 221, 54], "actions": ["left", "left", "up"], "actionTimes": [5390, 6119, 6687], "queries": {"click": {"state": {"target": ["3", "11", "10"], "time": [2230, 3571, 4419]}, "edge": {"target": [], "time": []}}, "mouseover": {"state": {"target": ["3", "5", "0", "9", "11", "11", "10", "12", "10"], "time": [2190, 2456, 2645, 2710, 3114, 3470, 3754, 4140, 4324]}, "edge": {"target": [], "time": []}}, "mouseout": {"state": {"target": ["0", "3", "5", "0", "9", "11", "11", "10", "12", "10"], "time": [1965, 2389, 2499, 2658, 2736, 3150, 3728, 3777, 4244, 4550]}, "edge": {"target": [], "time": []}}}, "displayed_time": "10.84", "trialTime": 11271, "trial_type": "mouselab-mdp", "trial_index": 57, "time_elapsed": 1331630, "internal_node_id": "0.0-4.0-3.0-11.0"}}, {"uniqueid": "w80990997:a64373525", "current_trial": 58, "dateTime": 1664465242341, "trialdata": {"revealed_states": [], "num_clicks_accrued": [0, 0, 0, 0, 0, 0, 0, 0, 0, 0, 0, 0, 0], "stateRewards": ["", -4, 8, -48, -48, -2, -8, -24, -48, 2, -4, -48, 24], "withholdReward": true, "trial_id": "mdp_743906784415", "block": "test2", "trialIndex": 46, "score": 25.5, "costs": -1.5, "simulationMode": [null, null, null], "rewards": [2, -4, 24], "path": ["0", "0", "9", "10", "12"], "rt": [8169, 38, 19], "actions": ["left", "left", "down"], "actionTimes": [10284, 10834, 11362], "queries": {"click": {"state": {"target": ["3", "11", "8", "12", "7", "4"], "time": [2973, 4162, 4985, 6913, 7689, 8469]}, "edge": {"target": [], "time": []}}, "mouseover": {"state": {"target": ["5", "3", "6", "8", "12", "10", "11", "10", "8", "12", "12", "5", "7", "7", "1", "4", "6"], "time": [2580, 2809, 3180, 3238, 3755, 3833, 4010, 4328, 4797, 6381, 6729, 7154, 7266, 7582, 7902, 8157, 8649]}, "edge": {"target": [], "time": []}}, "mouseout": {"state": {"target": ["5", "1", "0", "5", "3", "6", "8", "12", "10", "11", "10", "8", "12", "12", "5", "7", "7", "1", "4", "6"], "time": [1352, 1408, 2408, 2621, 3126, 3207, 3326, 3780, 3900, 4314, 4354, 5128, 6408, 7048, 7169, 7342, 7848, 7942, 8597, 8661]}, "edge": {"target": [], "time": []}}}, "displayed_time": "11.88", "trialTime": 12610, "trial_type": "mouselab-mdp", "trial_index": 58, "time_elapsed": 1344318, "internal_node_id": "0.0-4.0-3.0-12.0"}}, {"uniqueid": "w80990997:a64373525", "current_trial": 59, "dateTime": 1664465253557, "trialdata": {"revealed_states": [], "num_clicks_accrued": [0, 0, 0, 0, 0, 0, 0, 0, 0, 0, 0, 0, 0], "stateRewards": ["", 4, 4, 24, -48, 2, -8, -24, -48, 4, 8, 48, 48], "withholdReward": true, "trial_id": "mdp_592471239511", "block": "test2", "trialIndex": 47, "score": 64, "costs": -1, "simulationMode": [null, null, null], "rewards": [4, 8, 48], "path": ["0", "0", "9", "10", "11"], "rt": [4654, 69, 64], "actions": ["left", "left", "up"], "actionTimes": [6418, 6993, 7561], "queries": {"click": {"state": {"target": ["3", "8", "11", "10"], "time": [2725, 3443, 4595, 5541]}, "edge": {"target": [], "time": []}}, "mouseover": {"state": {"target": ["9", "2", "3", "6", "8", "8", "12", "10", "11", "9", "12", "10", "9", "5", "7"], "time": [2082, 2376, 2535, 2922, 2936, 3283, 3899, 4283, 4430, 4750, 5057, 5297, 5683, 5754, 5830]}, "edge": {"target": [], "time": []}}, "mouseout": {"state": {"target": ["5", "9", "2", "3", "6", "8", "8", "12", "10", "11", "9", "12", "10", "9", "5", "7"], "time": [1322, 2109, 2495, 2869, 2935, 2963, 3589, 4244, 4351, 4723, 4763, 5204, 5670, 5715, 5777, 5844]}, "edge": {"target": [], "time": []}}}, "displayed_time": "10.83", "trialTime": 11139, "trial_type": "mouselab-mdp", "trial_index": 59, "time_elapsed": 1355535, "internal_node_id": "0.0-4.0-3.0-13.0"}}, {"uniqueid": "w80990997:a64373525", "current_trial": 60, "dateTime": 1664465264868, "trialdata": {"revealed_states": [], "num_clicks_accrued": [0, 0, 0, 0, 0, 0, 0, 0, 0, 0, 0, 0, 0], "stateRewards": ["", 4, 8, -48, -48, 2, 4, -24, -48, 2, 8, 48, -48], "withholdReward": true, "trial_id": "mdp_902172716465", "block": "test2", "trialIndex": 48, "score": 62, "costs": -1, "simulationMode": [null, null, null], "rewards": [2, 8, 48], "path": ["0", "0", "9", "10", "11"], "rt": [4548, 150, 124], "actions": ["left", "left", "up"], "actionTimes": [6193, 6849, 7490], "queries": {"click": {"state": {"target": ["3", "8", "11", "10"], "time": [2877, 3661, 4711, 5450]}, "edge": {"target": [], "time": []}}, "mouseover": {"state": {"target": ["0", "2", "2", "3", "7", "6", "8", "12", "10", "11", "10", "12", "10", "9", "0", "5"], "time": [1925, 2163, 2429, 2671, 3062, 3150, 3256, 4083, 4217, 4524, 4884, 4950, 5284, 5591, 5605, 5639]}, "edge": {"target": [], "time": []}}, "mouseout": {"state": {"target": ["6", "5", "0", "0", "2", "2", "3", "7", "6", "8", "12", "10", "11", "10", "12", "10", "9", "0", "5"], "time": [1229, 1243, 1522, 1940, 2283, 2589, 3034, 3097, 3207, 3817, 4125, 4324, 4871, 4911, 5244, 5564, 5604, 5637, 5667]}, "edge": {"target": [], "time": []}}}, "displayed_time": "10.73", "trialTime": 11233, "trial_type": "mouselab-mdp", "trial_index": 60, "time_elapsed": 1366846, "internal_node_id": "0.0-4.0-3.0-14.0"}}, {"uniqueid": "w80990997:a64373525", "current_trial": 61, "dateTime": 1664465276613, "trialdata": {"revealed_states": [], "num_clicks_accrued": [0, 0, 0, 0, 0, 0, 0, 0, 0, 0, 0, 0, 0], "stateRewards": ["", 2, -4, 48, -48, 2, 4, -24, 24, -4, -8, 24, -48], "withholdReward": true, "trial_id": "mdp_238810765895", "block": "test2", "trialIndex": 49, "score": 49.25, "costs": -1.75, "simulationMode": [null, null, null], "rewards": [2, -4, 48], "path": ["0", "0", "1", "2", "3"], "rt": [7159, 70, 135], "actions": ["up", "up", "right"], "actionTimes": [8640, 9224, 9874], "queries": {"click": {"state": {"target": ["3", "2", "8", "7", "11", "12", "4"], "time": [2450, 3635, 4616, 5385, 6369, 7012, 7542]}, "edge": {"target": [], "time": []}}, "mouseover": {"state": {"target": ["4", "2", "3", "7", "8", "2", "7", "8", "6", "7", "5", "0", "9", "10", "11", "11", "12", "4"], "time": [2028, 2285, 2334, 2655, 3054, 3508, 3789, 4426, 4815, 4991, 5589, 5629, 5656, 5749, 5842, 6164, 6790, 7376]}, "edge": {"target": [], "time": []}}, "mouseout": {"state": {"target": ["6", "5", "0", "4", "2", "3", "7", "8", "2", "7", "8", "6", "7", "5", "0", "9", "10", "11", "11", "12", "4", "2", "7"], "time": [1241, 1306, 1828, 2254, 2307, 2628, 2668, 3121, 3735, 3816, 4776, 4868, 5567, 5603, 5643, 5709, 5802, 5922, 6565, 7137, 7656, 7683, 7750]}, "edge": {"target": [], "time": []}}}, "displayed_time": "10.38", "trialTime": 11665, "trial_type": "mouselab-mdp", "trial_index": 61, "time_elapsed": 1378591, "internal_node_id": "0.0-4.0-3.0-15.0"}}, {"uniqueid": "w80990997:a64373525", "current_trial": 62, "dateTime": 1664465289828, "trialdata": {"revealed_states": [], "num_clicks_accrued": [0, 0, 0, 0, 0, 0, 0, 0, 0, 0, 0, 0, 0], "stateRewards": ["", 2, -8, -24, 48, 4, -8, -24, -24, 2, 8, -24, 24], "withholdReward": false, "trial_id": "mdp_480787552818", "block": "test2", "trialIndex": 50, "score": 45.5, "costs": -1.5, "simulationMode": [null, null, null], "rewards": [2, -8, 48], "path": ["0", "0", "1", "2", "4"], "rt": [6687, 91, 42], "actions": ["up", "up", "left"], "actionTimes": [9932, 10540, 11092], "queries": {"click": {"state": {"target": ["3", "8", "11", "12", "7", "4"], "time": [3971, 4599, 5451, 6528, 7808, 8355]}, "edge": {"target": [], "time": []}}, "mouseover": {"state": {"target": ["4", "2", "3", "6", "8", "8", "12", "10", "11", "10", "12", "12", "12", "5", "6", "7", "7", "7", "1", "4", "5", "2"], "time": [3631, 3765, 3812, 4138, 4175, 4512, 5058, 5139, 5246, 5657, 5680, 5981, 6394, 6780, 6823, 6966, 7356, 7700, 7993, 8180, 8940, 9127]}, "edge": {"target": [], "time": []}}, "mouseout": {"state": {"target": ["7", "5", "0", "0", "4", "2", "3", "6", "8", "8", "12", "10", "11", "10", "12", "12", "12", "5", "6", "7", "7", "7", "1", "4", "8", "5", "2"], "time": [1924, 1991, 2497, 3566, 3752, 3799, 4112, 4171, 4194, 4755, 5101, 5205, 5624, 5679, 5752, 6072, 6686, 6793, 6844, 6996, 7386, 7940, 8006, 8473, 8594, 8977, 9235]}, "edge": {"target": [], "time": []}}}, "displayed_time": "12.31", "trialTime": 13132, "trial_type": "mouselab-mdp", "trial_index": 62, "time_elapsed": 1391806, "internal_node_id": "0.0-4.0-3.0-16.0"}}, {"uniqueid": "w80990997:a64373525", "current_trial": 63, "dateTime": 1664465304412, "trialdata": {"revealed_states": [], "num_clicks_accrued": [0, 0, 0, 0, 0, 0, 0, 0, 0, 0, 0, 0, 0], "stateRewards": ["", 4, -8, 24, 48, 2, -4, 48, 48, 4, -8, 48, 48], "withholdReward": true, "trial_id": "mdp_962498334245", "block": "test2", "trialIndex": 51, "score": 49.75, "costs": -1.25, "simulationMode": [null, null, null], "rewards": [2, -4, 48], "path": ["0", "0", "5", "6", "8"], "rt": [10231, 67, 597], "actions": ["right", "right", "down"], "actionTimes": [11560, 12133, 13238], "queries": {"click": {"state": {"target": ["3", "8", "6", "10", "2"], "time": [2659, 3263, 4189, 6020, 10515]}, "edge": {"target": [], "time": []}}, "mouseover": {"state": {"target": ["8", "5", "3", "8", "8", "12", "10", "9", "0", "5", "6", "10", "10", "2", "2", "4", "4", "2"], "time": [1773, 1799, 2102, 2876, 3142, 3635, 3827, 3876, 3943, 3957, 3996, 5036, 5864, 6864, 9092, 9451, 9852, 9936]}, "edge": {"target": [], "time": []}}, "mouseout": {"state": {"target": ["7", "6", "8", "0", "8", "5", "3", "8", "8", "12", "10", "9", "0", "5", "6", "10", "10", "2", "3", "2", "4", "4", "2", "3"], "time": [848, 862, 968, 1488, 1797, 1822, 2796, 2902, 3409, 3795, 3848, 3916, 3956, 3983, 4329, 5651, 6188, 8585, 9078, 9425, 9479, 9891, 10665, 10678]}, "edge": {"target": [], "time": []}}}, "displayed_time": "13.75", "trialTime": 14502, "trial_type": "mouselab-mdp", "trial_index": 63, "time_elapsed": 1406390, "internal_node_id": "0.0-4.0-3.0-17.0"}}, {"uniqueid": "w80990997:a64373525", "current_trial": 64, "dateTime": 1664465319708, "trialdata": {"revealed_states": [], "num_clicks_accrued": [0, 0, 0, 0, 0, 0, 0, 0, 0, 0, 0, 0, 0], "stateRewards": ["", -4, -8, 24, -48, 2, 4, -48, -48, 2, -8, 24, 48], "withholdReward": true, "trial_id": "mdp_111262146724", "block": "test2", "trialIndex": 52, "score": 45, "costs": -2, "simulationMode": [null, null, null], "rewards": [2, -8, 48], "path": ["0", "0", "9", "10", "12"], "rt": [10978, 55, 71], "actions": ["left", "left", "down"], "actionTimes": [13073, 13641, 14217], "queries": {"click": {"state": {"target": ["8", "4", "11", "12", "10", "2", "6", "7"], "time": [3112, 4045, 4861, 5557, 6811, 10004, 10453, 12078]}, "edge": {"target": [], "time": []}}, "mouseover": {"state": {"target": ["0", "8", "9", "4", "10", "11", "12", "9", "7", "7", "9", "10", "7", "3", "2", "6", "7"], "time": [2355, 2968, 3620, 3781, 4541, 4676, 5343, 5714, 5903, 6142, 6235, 6595, 9410, 9570, 9823, 10223, 11944]}, "edge": {"target": [], "time": []}}, "mouseout": {"state": {"target": ["0", "0", "8", "9", "4", "10", "11", "12", "9", "7", "7", "9", "10", "7", "3", "2", "6", "7"], "time": [1767, 2393, 3261, 3662, 4181, 4580, 5008, 5701, 5746, 5914, 6168, 6262, 6955, 9423, 9623, 10130, 10583, 12197]}, "edge": {"target": [], "time": []}}}, "displayed_time": "14.73", "trialTime": 15216, "trial_type": "mouselab-mdp", "trial_index": 64, "time_elapsed": 1421685, "internal_node_id": "0.0-4.0-3.0-18.0"}}, {"uniqueid": "w80990997:a64373525", "current_trial": 65, "dateTime": 1664465330669, "trialdata": {"revealed_states": [], "num_clicks_accrued": [0, 0, 0, 0, 0, 0, 0, 0, 0, 0, 0, 0, 0], "stateRewards": ["", 2, 4, 48, -48, 2, 4, 24, -24, 2, -4, -24, -48], "withholdReward": true, "trial_id": "mdp_706591889062", "block": "test2", "trialIndex": 53, "score": 58.5, "costs": -0.5, "simulationMode": [null, null, null], "rewards": [2, 4, 48], "path": ["0", "0", "1", "2", "3"], "rt": [5630, 70, 6], "actions": ["up", "up", "right"], "actionTimes": [7165, 7740, 8263], "queries": {"click": {"state": {"target": ["3", "2"], "time": [2494, 4022]}, "edge": {"target": [], "time": []}}, "mouseover": {"state": {"target": ["5", "6", "1", "3", "7", "8", "2", "6", "6"], "time": [1746, 1813, 1977, 2186, 2655, 3066, 3911, 4201, 4894]}, "edge": {"target": [], "time": []}}, "mouseout": {"state": {"target": ["3", "2", "1", "5", "6", "1", "3", "7", "8", "3", "2", "6", "6"], "time": [1186, 1212, 1306, 1759, 1880, 2139, 2613, 2668, 3119, 3777, 4133, 4214, 6566]}, "edge": {"target": [], "time": []}}}, "displayed_time": "10.61", "trialTime": 10884, "trial_type": "mouselab-mdp", "trial_index": 65, "time_elapsed": 1432646, "internal_node_id": "0.0-4.0-3.0-19.0"}}, {"uniqueid": "w80990997:a64373525", "current_trial": 66, "dateTime": 1664465341925, "trialdata": {"revealed_states": [], "num_clicks_accrued": [0, 0, 0, 0, 0, 0, 0, 0, 0, 0, 0, 0, 0], "stateRewards": ["", 2, 4, 48, 48, 4, -8, 24, -48, -4, -8, -24, -48], "withholdReward": true, "trial_id": "mdp_343818007251", "block": "test2", "trialIndex": 54, "score": 58, "costs": -1, "simulationMode": [null, null, null], "rewards": [2, 4, 48], "path": ["0", "0", "1", "2", "4"], "rt": [5453, 28, 176], "actions": ["up", "up", "left"], "actionTimes": [7285, 7829, 8510], "queries": {"click": {"state": {"target": ["7", "12", "4", "2"], "time": [2650, 3890, 4615, 5863]}, "edge": {"target": [], "time": []}}, "mouseover": {"state": {"target": ["5", "7", "7", "12", "12", "4", "1", "1", "2", "1", "5", "6"], "time": [2103, 2210, 2450, 3348, 3814, 4424, 4792, 5654, 5718, 6052, 6106, 6775]}, "edge": {"target": [], "time": []}}, "mouseout": {"state": {"target": ["6", "5", "0", "0", "5", "7", "7", "12", "12", "4", "1", "1", "2", "1", "5", "6"], "time": [1143, 1197, 1329, 2077, 2117, 2224, 2784, 3438, 4077, 4776, 4812, 5666, 6039, 6065, 6158, 6796]}, "edge": {"target": [], "time": []}}}, "displayed_time": "10.91", "trialTime": 11173, "trial_type": "mouselab-mdp", "trial_index": 66, "time_elapsed": 1443903, "internal_node_id": "0.0-4.0-3.0-20.0"}}, {"uniqueid": "w80990997:a64373525", "current_trial": 67, "dateTime": 1664465354229, "trialdata": {"revealed_states": [], "num_clicks_accrued": [0, 0, 0, 0, 0, 0, 0, 0, 0, 0, 0, 0, 0], "stateRewards": ["", -2, 4, -24, -24, -2, 4, 48, 24, -4, -8, 24, -48], "withholdReward": true, "trial_id": "mdp_191839460481", "block": "test2", "trialIndex": 55, "score": 53.5, "costs": -1.5, "simulationMode": [null, null, null], "rewards": [-2, 4, 48], "path": ["0", "0", "5", "6", "7"], "rt": [8311, 128, 71], "actions": ["right", "right", "up"], "actionTimes": [9876, 10515, 11099], "queries": {"click": {"state": {"target": ["3", "8", "12", "4", "7", "6"], "time": [2936, 3634, 4482, 5663, 7026, 9039]}, "edge": {"target": [], "time": []}}, "mouseover": {"state": {"target": ["3", "7", "8", "12", "9", "11", "4", "11", "11", "1", "1", "7", "5", "9", "1", "6"], "time": [2207, 3130, 3557, 4359, 4904, 5091, 5415, 6051, 6292, 6385, 6612, 6945, 7292, 7385, 7612, 8905]}, "edge": {"target": [], "time": []}}, "mouseout": {"state": {"target": ["6", "5", "0", "3", "7", "8", "12", "9", "11", "4", "11", "11", "1", "1", "7", "5", "9", "1", "7", "6", "8"], "time": [943, 1223, 1917, 3104, 3157, 3784, 4656, 4989, 5240, 5856, 6132, 6305, 6492, 6638, 7266, 7319, 7545, 7638, 7706, 9193, 9226]}, "edge": {"target": [], "time": []}}}, "displayed_time": "11.61", "trialTime": 12219, "trial_type": "mouselab-mdp", "trial_index": 67, "time_elapsed": 1456207, "internal_node_id": "0.0-4.0-3.0-21.0"}}, {"uniqueid": "w80990997:a64373525", "current_trial": 68, "dateTime": 1664465366853, "trialdata": {"revealed_states": [], "num_clicks_accrued": [0, 0, 0, 0, 0, 0, 0, 0, 0, 0, 0, 0, 0], "stateRewards": ["", -2, -4, 48, -24, 2, -4, -24, -48, 2, 8, -48, -24], "withholdReward": true, "trial_id": "mdp_238243948191", "block": "test2", "trialIndex": 56, "score": 45.5, "costs": -1.5, "simulationMode": [null, null, null], "rewards": [-2, -4, 48], "path": ["0", "0", "1", "2", "3"], "rt": [8585, 94, 6], "actions": ["up", "up", "right"], "actionTimes": [9964, 10563, 11075], "queries": {"click": {"state": {"target": ["3", "2", "10", "12", "11", "6"], "time": [2687, 3796, 4657, 5505, 6236, 8156]}, "edge": {"target": [], "time": []}}, "mouseover": {"state": {"target": ["9", "1", "2", "3", "6", "8", "5", "1", "2", "5", "10", "8", "12", "11", "9", "8", "6", "6"], "time": [1812, 1864, 1998, 2200, 2841, 3186, 3279, 3509, 3653, 3986, 4493, 4907, 5333, 6094, 6452, 7574, 7734, 7801]}, "edge": {"target": [], "time": []}}, "mouseout": {"state": {"target": ["8", "0", "9", "1", "2", "3", "6", "8", "5", "1", "2", "5", "10", "8", "12", "10", "11", "9", "8", "6", "6"], "time": [1105, 1653, 1843, 1891, 2027, 2799, 2853, 3226, 3319, 3586, 3933, 3999, 4786, 5081, 5640, 6026, 6432, 6468, 7667, 7747, 8295]}, "edge": {"target": [], "time": []}}}, "displayed_time": "11.59", "trialTime": 12548, "trial_type": "mouselab-mdp", "trial_index": 68, "time_elapsed": 1468831, "internal_node_id": "0.0-4.0-3.0-22.0"}}, {"uniqueid": "w80990997:a64373525", "current_trial": 69, "dateTime": 1664465381101, "trialdata": {"revealed_states": [], "num_clicks_accrued": [0, 0, 0, 0, 0, 0, 0, 0, 0, 0, 0, 0, 0], "stateRewards": ["", -4, 8, -24, -48, 2, 8, -48, -24, -2, -4, 48, -48], "withholdReward": true, "trial_id": "mdp_599927291428", "block": "test2", "trialIndex": 57, "score": 45.25, "costs": -1.75, "simulationMode": [null, null, null], "rewards": [-2, -4, 48], "path": ["0", "0", "9", "10", "11"], "rt": [9801, 418, 157], "actions": ["left", "left", "up"], "actionTimes": [11315, 12242, 12914], "queries": {"click": {"state": {"target": ["3", "8", "12", "11", "10", "2", "4"], "time": [3016, 3869, 4789, 5420, 8040, 9089, 10163]}, "edge": {"target": [], "time": []}}, "mouseover": {"state": {"target": ["0", "1", "3", "2", "2", "3", "7", "8", "12", "10", "11", "1", "7", "9", "10", "10", "1", "1", "10", "9", "7", "2", "6", "4", "1", "5", "6"], "time": [1846, 2059, 2166, 2352, 2712, 2916, 3219, 3833, 4619, 5167, 5220, 5608, 5688, 6380, 6394, 6677, 7101, 7463, 7768, 8221, 8648, 8901, 9421, 9968, 10315, 10355, 10369]}, "edge": {"target": [], "time": []}}, "mouseout": {"state": {"target": ["6", "5", "0", "0", "1", "3", "2", "2", "3", "7", "8", "12", "10", "11", "1", "7", "9", "10", "10", "1", "1", "10", "9", "8", "7", "3", "2", "6", "4", "1", "5", "6"], "time": [1165, 1191, 1405, 2005, 2072, 2312, 2432, 2793, 3192, 3232, 4048, 4926, 5180, 5539, 5620, 6314, 6394, 6434, 7047, 7128, 7479, 8208, 8234, 8274, 8661, 8888, 9222, 9542, 10275, 10329, 10369, 10395]}, "edge": {"target": [], "time": []}}}, "displayed_time": "13.42", "trialTime": 14170, "trial_type": "mouselab-mdp", "trial_index": 69, "time_elapsed": 1483078, "internal_node_id": "0.0-4.0-3.0-23.0"}}, {"uniqueid": "w80990997:a64373525", "current_trial": 70, "dateTime": 1664465393669, "trialdata": {"revealed_states": [], "num_clicks_accrued": [0, 0, 0, 0, 0, 0, 0, 0, 0, 0, 0, 0, 0], "stateRewards": ["", -2, -4, -48, -48, 4, -4, 48, 24, 4, 4, 48, 48], "withholdReward": true, "trial_id": "mdp_950960813932", "block": "test2", "trialIndex": 58, "score": 60, "costs": -1, "simulationMode": [null, null, null], "rewards": [4, 4, 48], "path": ["0", "0", "9", "10", "11"], "rt": [7210, 547, 78], "actions": ["left", "left", "up"], "actionTimes": [9850, 10906, 11489], "queries": {"click": {"state": {"target": ["3", "8", "11", "10"], "time": [3969, 5105, 7798, 8715]}, "edge": {"target": [], "time": []}}, "mouseover": {"state": {"target": ["0", "2", "3", "3", "7", "8", "12", "10", "11", "9", "10"], "time": [3181, 3301, 3539, 3795, 4101, 4994, 7211, 7569, 7613, 7989, 8623]}, "edge": {"target": [], "time": []}}, "mouseout": {"state": {"target": ["9", "0", "0", "2", "3", "3", "7", "8", "12", "10", "11", "9", "10"], "time": [1807, 3075, 3194, 3519, 3568, 4074, 4114, 5262, 7542, 7598, 7956, 8005, 8884]}, "edge": {"target": [], "time": []}}}, "displayed_time": "12.00", "trialTime": 12482, "trial_type": "mouselab-mdp", "trial_index": 70, "time_elapsed": 1495647, "internal_node_id": "0.0-4.0-3.0-24.0"}}, {"uniqueid": "w80990997:a64373525", "current_trial": 71, "dateTime": 1664465408766, "trialdata": {"revealed_states": [], "num_clicks_accrued": [0, 0, 0, 0, 0, 0, 0, 0, 0, 0, 0, 0, 0], "stateRewards": ["", 4, 8, -24, 48, 4, -8, -48, 48, -4, 8, -24, -48], "withholdReward": false, "trial_id": "mdp_376126356841", "block": "test2", "trialIndex": 59, "score": 63, "costs": -2, "simulationMode": [null, null, null], "rewards": [4, 8, 48], "path": ["0", "0", "1", "2", "4"], "rt": [10219, 255, 63], "actions": ["up", "up", "left"], "actionTimes": [12189, 12950, 13517], "queries": {"click": {"state": {"target": ["3", "8", "6", "12", "10", "11", "2", "4"], "time": [3068, 3843, 4858, 6083, 7607, 8397, 10192, 11133]}, "edge": {"target": [], "time": []}}, "mouseover": {"state": {"target": ["3", "7", "8", "9", "9", "0", "5", "6", "12", "9", "11", "11", "9", "10", "9", "5", "11", "7", "2", "2", "2", "2", "1", "4", "7"], "time": [2862, 3275, 3756, 4382, 4493, 4528, 4543, 4730, 5930, 6530, 6650, 6920, 7197, 7452, 7810, 7959, 8170, 8864, 9160, 9384, 9655, 10011, 10635, 10944, 11289]}, "edge": {"target": [], "time": []}}, "mouseout": {"state": {"target": ["0", "3", "7", "8", "9", "9", "0", "5", "6", "12", "9", "11", "11", "9", "10", "9", "5", "11", "6", "7", "2", "2", "2", "2", "6", "1", "4", "2", "7"], "time": [1860, 3249, 3288, 4062, 4409, 4505, 4542, 4569, 4956, 6263, 6570, 6761, 6963, 7330, 7797, 7824, 8050, 8558, 8637, 8896, 9225, 9424, 9687, 10332, 10615, 10691, 11239, 11272, 11304]}, "edge": {"target": [], "time": []}}}, "displayed_time": "14.03", "trialTime": 15013, "trial_type": "mouselab-mdp", "trial_index": 71, "time_elapsed": 1510743, "internal_node_id": "0.0-4.0-3.0-25.0"}}, {"uniqueid": "w80990997:a64373525", "current_trial": 72, "dateTime": 1664465420205, "trialdata": {"revealed_states": [], "num_clicks_accrued": [0, 0, 0, 0, 0, 0, 0, 0, 0, 0, 0, 0, 0], "stateRewards": ["", -2, -8, -24, -24, 4, -4, -48, 48, 2, 8, 48, -48], "withholdReward": true, "trial_id": "mdp_498095124548", "block": "test2", "trialIndex": 60, "score": 61.75, "costs": -1.25, "simulationMode": [null, null, null], "rewards": [2, 8, 48], "path": ["0", "0", "9", "10", "11"], "rt": [6352, 140, 87], "actions": ["left", "left", "up"], "actionTimes": [7972, 8621, 9220], "queries": {"click": {"state": {"target": ["3", "8", "6", "10", "11"], "time": [3214, 4190, 5204, 5915, 6592]}, "edge": {"target": [], "time": []}}, "mouseover": {"state": {"target": ["3", "7", "8", "12", "10", "9", "0", "5", "6", "12", "10", "11", "9", "4"], "time": [3104, 3383, 4051, 4559, 4652, 4798, 4825, 4852, 5105, 5611, 5731, 6452, 7213, 7466]}, "edge": {"target": [], "time": []}}, "mouseout": {"state": {"target": ["6", "5", "0", "3", "7", "8", "12", "10", "9", "0", "5", "6", "12", "10", "11", "9", "10", "11"], "time": [1090, 1103, 2024, 3371, 3398, 4362, 4611, 4771, 4811, 4840, 4958, 5398, 5639, 6065, 6718, 7225, 7292, 7360]}, "edge": {"target": [], "time": []}}}, "displayed_time": "10.69", "trialTime": 11356, "trial_type": "mouselab-mdp", "trial_index": 72, "time_elapsed": 1522182, "internal_node_id": "0.0-4.0-3.0-26.0"}}, {"uniqueid": "w80990997:a64373525", "current_trial": 73, "dateTime": 1664465442982, "trialdata": {"revealed_states": [], "num_clicks_accrued": [0, 0, 0, 0, 0, 0, 0, 0, 0, 0, 0, 0, 0], "stateRewards": ["", -2, 8, 24, -48, -4, -8, -24, -48, -4, 8, -24, 48], "withholdReward": false, "trial_id": "mdp_464339499860", "block": "test2", "trialIndex": 61, "score": 56, "costs": -1, "simulationMode": [null, null, null], "rewards": [-4, 8, 48], "path": ["0", "0", "9", "10", "12"], "rt": [19182, 101, 96], "actions": ["left", "left", "down"], "actionTimes": [20745, 21361, 21970], "queries": {"click": {"state": {"target": ["3", "11", "12", "10"], "time": [2181, 18032, 18750, 19562]}, "edge": {"target": [], "time": []}}, "mouseover": {"state": {"target": ["3", "7", "8", "6", "11", "9", "12", "10"], "time": [2065, 2359, 2973, 6734, 17697, 18338, 18525, 19405]}, "edge": {"target": [], "time": []}}, "mouseout": {"state": {"target": ["4", "4", "1", "3", "7", "8", "6", "11", "9", "12", "10"], "time": [784, 1011, 1250, 2319, 2385, 6613, 16777, 18272, 18391, 19126, 20032]}, "edge": {"target": [], "time": []}}}, "displayed_time": "22.47", "trialTime": 22690, "trial_type": "mouselab-mdp", "trial_index": 73, "time_elapsed": 1544959, "internal_node_id": "0.0-4.0-3.0-27.0"}}, {"uniqueid": "w80990997:a64373525", "current_trial": 74, "dateTime": 1664465463605, "trialdata": {"revealed_states": [], "num_clicks_accrued": [0, 0, 0, 0, 0, 0, 0, 0, 0, 0, 0, 0, 0], "stateRewards": ["", 2, 4, -48, 48, -4, 8, -48, -24, -4, -4, 48, 48], "withholdReward": true, "trial_id": "mdp_613582696541", "block": "test2", "trialIndex": 62, "score": 57, "costs": -2, "simulationMode": [null, null, null], "rewards": [2, 4, 48], "path": ["0", "0", "1", "2", "4"], "rt": [15170, 318, 323], "actions": ["up", "up", "left"], "actionTimes": [17867, 18690, 19523], "queries": {"click": {"state": {"target": ["7", "12", "10", "2", "6", "8", "3", "4"], "time": [3909, 5225, 6118, 7492, 8458, 9355, 16003, 16847]}, "edge": {"target": [], "time": []}}, "mouseover": {"state": {"target": ["6", "7", "6", "8", "8", "5", "9", "12", "9", "4", "10", "9", "2", "4", "2", "6", "5", "8", "5", "3", "4"], "time": [3406, 3739, 4273, 4313, 4499, 4620, 4727, 5087, 5446, 5793, 5888, 6289, 6687, 6929, 7300, 8330, 8795, 9101, 9822, 14424, 16745]}, "edge": {"target": [], "time": []}}, "mouseout": {"state": {"target": ["10", "6", "0", "6", "7", "6", "8", "8", "5", "9", "12", "9", "4", "10", "9", "7", "7", "2", "4", "2", "6", "5", "8", "5", "3", "4"], "time": [431, 1951, 3019, 3419, 4247, 4300, 4353, 4540, 4660, 4753, 5393, 5473, 5821, 6273, 6313, 6420, 6595, 6740, 7194, 7701, 8728, 8808, 9582, 9862, 16278, 17025]}, "edge": {"target": [], "time": []}}}, "displayed_time": "20.04", "trialTime": 20538, "trial_type": "mouselab-mdp", "trial_index": 74, "time_elapsed": 1565583, "internal_node_id": "0.0-4.0-3.0-28.0"}}, {"uniqueid": "w80990997:a64373525", "current_trial": 75, "dateTime": 1664465490356, "trialdata": {"revealed_states": [], "num_clicks_accrued": [0, 0, 0, 0, 0, 0, 0, 0, 0, 0, 0, 0, 0], "stateRewards": ["", -4, 4, -24, 48, -2, 8, -48, 24, 2, 4, 48, -48], "withholdReward": false, "trial_id": "mdp_366632183904", "block": "test2", "trialIndex": 63, "score": 57.25, "costs": -1.75, "simulationMode": [null, null, null], "rewards": [2, 4, 48], "path": ["0", "0", "9", "10", "11"], "rt": [21671, 86, 687], "actions": ["left", "left", "up"], "actionTimes": [23348, 23939, 25139], "queries": {"click": {"state": {"target": ["7", "12", "11", "10", "6", "8", "2"], "time": [7468, 8299, 8974, 9905, 11416, 12374, 19605]}, "edge": {"target": [], "time": []}}, "mouseover": {"state": {"target": ["9", "2", "2", "4", "2", "3", "3", "2", "4", "4", "2", "3", "7", "6", "8", "12", "9", "11", "2", "1", "10", "9", "0", "5", "6", "1", "8", "0", "2", "5", "1", "2", "4", "2", "3", "3", "2", "3", "2", "3", "5", "0", "9", "9", "5", "5", "4", "4", "4"], "time": [2511, 2818, 3111, 4965, 5161, 5179, 5459, 5900, 6419, 6619, 6646, 6674, 7219, 7673, 7739, 7992, 8607, 8846, 9211, 9540, 9733, 10060, 10087, 10114, 11155, 11661, 12155, 12796, 13821, 15130, 15195, 15529, 16489, 16517, 16543, 16759, 16810, 17903, 18731, 19810, 20771, 20798, 20825, 21017, 21077, 21171, 21265, 21425, 21771]}, "edge": {"target": [], "time": []}}, "mouseout": {"state": {"target": ["2", "1", "0", "9", "2", "2", "4", "2", "3", "3", "2", "4", "4", "2", "3", "7", "6", "8", "12", "9", "11", "2", "1", "10", "9", "0", "5", "6", "1", "8", "0", "7", "2", "11", "5", "1", "2", "11", "12", "10", "11", "4", "2", "3", "3", "2", "3", "2", "3", "6", "5", "0", "9", "10", "9", "5", "5", "4", "4", "4"], "time": [1216, 1456, 1938, 2537, 2884, 4939, 5158, 5178, 5205, 5486, 6392, 6446, 6633, 6659, 6699, 7646, 7714, 7793, 8476, 8675, 9073, 9501, 9606, 10034, 10074, 10101, 10128, 11541, 11741, 12528, 12807, 12928, 14635, 14728, 15156, 15235, 15863, 15956, 16370, 16422, 16463, 16502, 16543, 16569, 16785, 17010, 18628, 19797, 19837, 20758, 20784, 20811, 20852, 20985, 21037, 21117, 21184, 21278, 21465, 22332]}, "edge": {"target": [], "time": []}}}, "displayed_time": "25.65", "trialTime": 26667, "trial_type": "mouselab-mdp", "trial_index": 75, "time_elapsed": 1592334, "internal_node_id": "0.0-4.0-3.0-29.0"}}, {"uniqueid": "w80990997:a64373525", "current_trial": 76, "dateTime": 1664465493805, "trialdata": {"rt": 3446, "stimulus": "<h1> End of block! </h1>\n\nYou have reached the end of the block 2/4. If you need a short break, feel free to take one now before moving on.\n\n<br><br>\nIn the next block, you will complete another 30 rou