{"condition": 0, "counterbalance": 0, "assignmentId": "a93033344", "workerId": "w43995418", "hitId": "h50830714", "currenttrial": 959, "bonus": 0, "data": [{"uniqueid": "w43995418:a93033344", "current_trial": 0, "dateTime": 1664473120879, "trialdata": {"success": true, "trial_type": "fullscreen", "trial_index": 0, "time_elapsed": 11184, "internal_node_id": "0.0-0.0"}}, {"uniqueid": "w43995418:a93033344", "current_trial": 1, "dateTime": 1664473154901, "trialdata": {"view_history": [{"page_index": 0, "viewing_time": 34015}], "rt": 34016, "trial_id": "exp_instructions_distractor", "trial_type": "instructions", "trial_index": 1, "time_elapsed": 45208, "internal_node_id": "0.0-1.0"}}, {"uniqueid": "w43995418:a93033344", "current_trial": 2, "dateTime": 1664473204788, "trialdata": {"view_history": [{"page_index": 0, "viewing_time": 49884}], "rt": 49885, "trial_id": "color_game_instructions", "trial_type": "instructions", "trial_index": 2, "time_elapsed": 95095, "internal_node_id": "0.0-2.0"}}, {"uniqueid": "w43995418:a93033344", "current_trial": 3, "dateTime": 1664473219576, "trialdata": {"rt": 14784, "stimulus": "<h1> Get ready to start the game! </h1>\n\nThank you for reading the instructions. Get ready start with the first of 5 block(s) of this game.\n<br><br>\nIn this first block, you will complete 90 rounds of this game before moving on.\n<br><br>\nRemember, the better you perform, the bigger your bonus will be!\n<br><br>\n<div style='text-align: center;'>Press <code>space</code> to begin.</div>", "response": " ", "trial_id": "stroop_1_ready_1", "trial_type": "html-keyboard-response", "trial_index": 3, "time_elapsed": 109883, "internal_node_id": "0.0-3.0"}}, {"uniqueid": "w43995418:a93033344", "current_trial": 4, "dateTime": 1664473220590, "trialdata": {"rt": 1006, "stimulus": "<p id='stroop-text' class='stroop-blue'>BRAIN</p>", "response": "b", "stimulus-type": "unrelated", "word": "BRAIN", "color": "blue", "correct_response": "b", "trial_id": "stroop-trial-1-unrelated-5", "trial_type": "html-keyboard-response", "trial_index": 4, "time_elapsed": 110896, "internal_node_id": "0.0-4.0-0.0"}}, {"uniqueid": "w43995418:a93033344", "current_trial": 5, "dateTime": 1664473222306, "trialdata": {"rt": 1210, "stimulus": "<p id='stroop-text' class='stroop-green'>GREEN</p>", "response": "g", "stimulus-type": "congruent", "word": "green", "color": "green", "correct_response": "g", "trial_id": "stroop-trial-1-congruent-22", "trial_type": "html-keyboard-response", "trial_index": 5, "time_elapsed": 112612, "internal_node_id": "0.0-4.0-1.0"}}, {"uniqueid": "w43995418:a93033344", "current_trial": 6, "dateTime": 1664473224237, "trialdata": {"rt": 1425, "stimulus": "<p id='stroop-text' class='stroop-yellow'>BLUE</p>", "response": "y", "stimulus-type": "incongruent", "word": "blue", "color": "yellow", "correct_response": "y", "trial_id": "stroop-trial-1-incongruent-11", "trial_type": "html-keyboard-response", "trial_index": 6, "time_elapsed": 114543, "internal_node_id": "0.0-4.0-2.0"}}, {"uniqueid": "w43995418:a93033344", "current_trial": 7, "dateTime": 1664473225735, "trialdata": {"rt": 993, "stimulus": "<p id='stroop-text' class='stroop-green'>GREEN</p>", "response": "g", "stimulus-type": "congruent", "word": "green", "color": "green", "correct_response": "g", "trial_id": "stroop-trial-1-congruent-17", "trial_type": "html-keyboard-response", "trial_index": 7, "time_elapsed": 116041, "internal_node_id": "0.0-4.0-3.0"}}, {"uniqueid": "w43995418:a93033344", "current_trial": 8, "dateTime": 1664473226888, "trialdata": {"rt": 647, "stimulus": "<p id='stroop-text' class='stroop-blue'>RED</p>", "response": "b", "stimulus-type": "incongruent", "word": "red", "color": "blue", "correct_response": "b", "trial_id": "stroop-trial-1-incongruent-28", "trial_type": "html-keyboard-response", "trial_index": 8, "time_elapsed": 117194, "internal_node_id": "0.0-4.0-4.0"}}, {"uniqueid": "w43995418:a93033344", "current_trial": 9, "dateTime": 1664473228043, "trialdata": {"rt": 649, "stimulus": "<p id='stroop-text' class='stroop-blue'>BLUE</p>", "response": "b", "stimulus-type": "congruent", "word": "blue", "color": "blue", "correct_response": "b", "trial_id": "stroop-trial-1-congruent-24", "trial_type": "html-keyboard-response", "trial_index": 9, "time_elapsed": 118349, "internal_node_id": "0.0-4.0-5.0"}}, {"uniqueid": "w43995418:a93033344", "current_trial": 10, "dateTime": 1664473229331, "trialdata": {"rt": 784, "stimulus": "<p id='stroop-text' class='stroop-yellow'>BRAIN</p>", "response": "y", "stimulus-type": "unrelated", "word": "BRAIN", "color": "yellow", "correct_response": "y", "trial_id": "stroop-trial-1-unrelated-13", "trial_type": "html-keyboard-response", "trial_index": 10, "time_elapsed": 119638, "internal_node_id": "0.0-4.0-6.0"}}, {"uniqueid": "w43995418:a93033344", "current_trial": 11, "dateTime": 1664473230556, "trialdata": {"rt": 721, "stimulus": "<p id='stroop-text' class='stroop-red'>RED</p>", "response": "r", "stimulus-type": "congruent", "word": "red", "color": "red", "correct_response": "r", "trial_id": "stroop-trial-1-congruent-6", "trial_type": "html-keyboard-response", "trial_index": 11, "time_elapsed": 120862, "internal_node_id": "0.0-4.0-7.0"}}, {"uniqueid": "w43995418:a93033344", "current_trial": 12, "dateTime": 1664473231996, "trialdata": {"rt": 935, "stimulus": "<p id='stroop-text' class='stroop-blue'>YELLOW</p>", "response": "b", "stimulus-type": "incongruent", "word": "yellow", "color": "blue", "correct_response": "b", "trial_id": "stroop-trial-1-incongruent-15", "trial_type": "html-keyboard-response", "trial_index": 12, "time_elapsed": 122302, "internal_node_id": "0.0-4.0-8.0"}}, {"uniqueid": "w43995418:a93033344", "current_trial": 13, "dateTime": 1664473233382, "trialdata": {"rt": 880, "stimulus": "<p id='stroop-text' class='stroop-red'>BOTTLE</p>", "response": "r", "stimulus-type": "unrelated", "word": "BOTTLE", "color": "red", "correct_response": "r", "trial_id": "stroop-trial-1-unrelated-8", "trial_type": "html-keyboard-response", "trial_index": 13, "time_elapsed": 123688, "internal_node_id": "0.0-4.0-9.0"}}, {"uniqueid": "w43995418:a93033344", "current_trial": 14, "dateTime": 1664473234582, "trialdata": {"rt": 694, "stimulus": "<p id='stroop-text' class='stroop-yellow'>YELLOW</p>", "response": "y", "stimulus-type": "congruent", "word": "yellow", "color": "yellow", "correct_response": "y", "trial_id": "stroop-trial-1-congruent-14", "trial_type": "html-keyboard-response", "trial_index": 14, "time_elapsed": 124888, "internal_node_id": "0.0-4.0-10.0"}}, {"uniqueid": "w43995418:a93033344", "current_trial": 15, "dateTime": 1664473235703, "trialdata": {"rt": 617, "stimulus": "<p id='stroop-text' class='stroop-red'>GREEN</p>", "response": "r", "stimulus-type": "incongruent", "word": "green", "color": "red", "correct_response": "r", "trial_id": "stroop-trial-1-incongruent-19", "trial_type": "html-keyboard-response", "trial_index": 15, "time_elapsed": 126010, "internal_node_id": "0.0-4.0-11.0"}}, {"uniqueid": "w43995418:a93033344", "current_trial": 16, "dateTime": 1664473237060, "trialdata": {"rt": 854, "stimulus": "<p id='stroop-text' class='stroop-green'>BLUE</p>", "response": "g", "stimulus-type": "incongruent", "word": "blue", "color": "green", "correct_response": "g", "trial_id": "stroop-trial-1-incongruent-10", "trial_type": "html-keyboard-response", "trial_index": 16, "time_elapsed": 127367, "internal_node_id": "0.0-4.0-12.0"}}, {"uniqueid": "w43995418:a93033344", "current_trial": 17, "dateTime": 1664473238304, "trialdata": {"rt": 739, "stimulus": "<p id='stroop-text' class='stroop-red'>YELLOW</p>", "response": "r", "stimulus-type": "incongruent", "word": "yellow", "color": "red", "correct_response": "r", "trial_id": "stroop-trial-1-incongruent-26", "trial_type": "html-keyboard-response", "trial_index": 17, "time_elapsed": 128610, "internal_node_id": "0.0-4.0-13.0"}}, {"uniqueid": "w43995418:a93033344", "current_trial": 18, "dateTime": 1664473239676, "trialdata": {"rt": 867, "stimulus": "<p id='stroop-text' class='stroop-green'>BOTTLE</p>", "response": "r", "stimulus-type": "unrelated", "word": "BOTTLE", "color": "green", "correct_response": "g", "trial_id": "stroop-trial-1-unrelated-9", "trial_type": "html-keyboard-response", "trial_index": 18, "time_elapsed": 129982, "internal_node_id": "0.0-4.0-14.0"}}, {"uniqueid": "w43995418:a93033344", "current_trial": 19, "dateTime": 1664473241694, "trialdata": {"rt": 1512, "stimulus": "<p id='stroop-text' class='stroop-blue'>FORK</p>", "response": "b", "stimulus-type": "unrelated", "word": "FORK", "color": "blue", "correct_response": "b", "trial_id": "stroop-trial-1-unrelated-28", "trial_type": "html-keyboard-response", "trial_index": 19, "time_elapsed": 132000, "internal_node_id": "0.0-4.0-15.0"}}, {"uniqueid": "w43995418:a93033344", "current_trial": 20, "dateTime": 1664473243018, "trialdata": {"rt": 819, "stimulus": "<p id='stroop-text' class='stroop-red'>RED</p>", "response": "r", "stimulus-type": "congruent", "word": "red", "color": "red", "correct_response": "r", "trial_id": "stroop-trial-1-congruent-5", "trial_type": "html-keyboard-response", "trial_index": 20, "time_elapsed": 133324, "internal_node_id": "0.0-4.0-16.0"}}, {"uniqueid": "w43995418:a93033344", "current_trial": 21, "dateTime": 1664473244550, "trialdata": {"rt": 1027, "stimulus": "<p id='stroop-text' class='stroop-blue'>BLUE</p>", "response": "b", "stimulus-type": "congruent", "word": "blue", "color": "blue", "correct_response": "b", "trial_id": "stroop-trial-1-congruent-10", "trial_type": "html-keyboard-response", "trial_index": 21, "time_elapsed": 134857, "internal_node_id": "0.0-4.0-17.0"}}, {"uniqueid": "w43995418:a93033344", "current_trial": 22, "dateTime": 1664473245652, "trialdata": {"rt": 597, "stimulus": "<p id='stroop-text' class='stroop-blue'>RED</p>", "response": "b", "stimulus-type": "incongruent", "word": "red", "color": "blue", "correct_response": "b", "trial_id": "stroop-trial-1-incongruent-29", "trial_type": "html-keyboard-response", "trial_index": 22, "time_elapsed": 135958, "internal_node_id": "0.0-4.0-18.0"}}, {"uniqueid": "w43995418:a93033344", "current_trial": 23, "dateTime": 1664473246940, "trialdata": {"rt": 784, "stimulus": "<p id='stroop-text' class='stroop-yellow'>MONKEY</p>", "response": "y", "stimulus-type": "unrelated", "word": "MONKEY", "color": "yellow", "correct_response": "y", "trial_id": "stroop-trial-1-unrelated-24", "trial_type": "html-keyboard-response", "trial_index": 23, "time_elapsed": 137247, "internal_node_id": "0.0-4.0-19.0"}}, {"uniqueid": "w43995418:a93033344", "current_trial": 24, "dateTime": 1664473248097, "trialdata": {"rt": 652, "stimulus": "<p id='stroop-text' class='stroop-red'>MONKEY</p>", "response": "r", "stimulus-type": "unrelated", "word": "MONKEY", "color": "red", "correct_response": "r", "trial_id": "stroop-trial-1-unrelated-26", "trial_type": "html-keyboard-response", "trial_index": 24, "time_elapsed": 138403, "internal_node_id": "0.0-4.0-20.0"}}, {"uniqueid": "w43995418:a93033344", "current_trial": 25, "dateTime": 1664473249902, "trialdata": {"rt": 1300, "stimulus": "<p id='stroop-text' class='stroop-red'>BLUE</p>", "response": "r", "stimulus-type": "incongruent", "word": "blue", "color": "red", "correct_response": "r", "trial_id": "stroop-trial-1-incongruent-13", "trial_type": "html-keyboard-response", "trial_index": 25, "time_elapsed": 140209, "internal_node_id": "0.0-4.0-21.0"}}, {"uniqueid": "w43995418:a93033344", "current_trial": 26, "dateTime": 1664473251810, "trialdata": {"rt": 1403, "stimulus": "<p id='stroop-text' class='stroop-green'>BLUE</p>", "response": "g", "stimulus-type": "incongruent", "word": "blue", "color": "green", "correct_response": "g", "trial_id": "stroop-trial-1-incongruent-9", "trial_type": "html-keyboard-response", "trial_index": 26, "time_elapsed": 142116, "internal_node_id": "0.0-4.0-22.0"}}, {"uniqueid": "w43995418:a93033344", "current_trial": 27, "dateTime": 1664473253121, "trialdata": {"rt": 807, "stimulus": "<p id='stroop-text' class='stroop-green'>CHAIR</p>", "response": "g", "stimulus-type": "unrelated", "word": "CHAIR", "color": "green", "correct_response": "g", "trial_id": "stroop-trial-1-unrelated-17", "trial_type": "html-keyboard-response", "trial_index": 27, "time_elapsed": 143428, "internal_node_id": "0.0-4.0-23.0"}}, {"uniqueid": "w43995418:a93033344", "current_trial": 28, "dateTime": 1664473254717, "trialdata": {"rt": 1090, "stimulus": "<p id='stroop-text' class='stroop-blue'>BOAT</p>", "response": "b", "stimulus-type": "unrelated", "word": "BOAT", "color": "blue", "correct_response": "b", "trial_id": "stroop-trial-1-unrelated-15", "trial_type": "html-keyboard-response", "trial_index": 28, "time_elapsed": 145023, "internal_node_id": "0.0-4.0-24.0"}}, {"uniqueid": "w43995418:a93033344", "current_trial": 29, "dateTime": 1664473255788, "trialdata": {"rt": 567, "stimulus": "<p id='stroop-text' class='stroop-blue'>BLUE</p>", "response": "b", "stimulus-type": "congruent", "word": "blue", "color": "blue", "correct_response": "b", "trial_id": "stroop-trial-1-congruent-25", "trial_type": "html-keyboard-response", "trial_index": 29, "time_elapsed": 146095, "internal_node_id": "0.0-4.0-25.0"}}, {"uniqueid": "w43995418:a93033344", "current_trial": 30, "dateTime": 1664473257182, "trialdata": {"rt": 887, "stimulus": "<p id='stroop-text' class='stroop-red'>RED</p>", "response": "r", "stimulus-type": "congruent", "word": "red", "color": "red", "correct_response": "r", "trial_id": "stroop-trial-1-congruent-26", "trial_type": "html-keyboard-response", "trial_index": 30, "time_elapsed": 147489, "internal_node_id": "0.0-4.0-26.0"}}, {"uniqueid": "w43995418:a93033344", "current_trial": 31, "dateTime": 1664473258283, "trialdata": {"rt": 595, "stimulus": "<p id='stroop-text' class='stroop-red'>BOTTLE</p>", "response": "r", "stimulus-type": "unrelated", "word": "BOTTLE", "color": "red", "correct_response": "r", "trial_id": "stroop-trial-1-unrelated-7", "trial_type": "html-keyboard-response", "trial_index": 31, "time_elapsed": 148589, "internal_node_id": "0.0-4.0-27.0"}}, {"uniqueid": "w43995418:a93033344", "current_trial": 32, "dateTime": 1664473259367, "trialdata": {"rt": 579, "stimulus": "<p id='stroop-text' class='stroop-blue'>BLUE</p>", "response": "b", "stimulus-type": "congruent", "word": "blue", "color": "blue", "correct_response": "b", "trial_id": "stroop-trial-1-congruent-21", "trial_type": "html-keyboard-response", "trial_index": 32, "time_elapsed": 149673, "internal_node_id": "0.0-4.0-28.0"}}, {"uniqueid": "w43995418:a93033344", "current_trial": 33, "dateTime": 1664473260383, "trialdata": {"rt": 510, "stimulus": "<p id='stroop-text' class='stroop-green'>RED</p>", "response": "g", "stimulus-type": "incongruent", "word": "red", "color": "green", "correct_response": "g", "trial_id": "stroop-trial-1-incongruent-8", "trial_type": "html-keyboard-response", "trial_index": 33, "time_elapsed": 150689, "internal_node_id": "0.0-4.0-29.0"}}, {"uniqueid": "w43995418:a93033344", "current_trial": 34, "dateTime": 1664473261807, "trialdata": {"rt": 919, "stimulus": "<p id='stroop-text' class='stroop-yellow'>BLUE</p>", "response": "y", "stimulus-type": "incongruent", "word": "blue", "color": "yellow", "correct_response": "y", "trial_id": "stroop-trial-1-incongruent-22", "trial_type": "html-keyboard-response", "trial_index": 34, "time_elapsed": 152114, "internal_node_id": "0.0-4.0-30.0"}}, {"uniqueid": "w43995418:a93033344", "current_trial": 35, "dateTime": 1664473262976, "trialdata": {"rt": 664, "stimulus": "<p id='stroop-text' class='stroop-yellow'>GREEN</p>", "response": "y", "stimulus-type": "incongruent", "word": "green", "color": "yellow", "correct_response": "y", "trial_id": "stroop-trial-1-incongruent-16", "trial_type": "html-keyboard-response", "trial_index": 35, "time_elapsed": 153282, "internal_node_id": "0.0-4.0-31.0"}}, {"uniqueid": "w43995418:a93033344", "current_trial": 36, "dateTime": 1664473264892, "trialdata": {"rt": 1412, "stimulus": "<p id='stroop-text' class='stroop-red'>RED</p>", "response": "r", "stimulus-type": "congruent", "word": "red", "color": "red", "correct_response": "r", "trial_id": "stroop-trial-1-congruent-27", "trial_type": "html-keyboard-response", "trial_index": 36, "time_elapsed": 155198, "internal_node_id": "0.0-4.0-32.0"}}, {"uniqueid": "w43995418:a93033344", "current_trial": 37, "dateTime": 1664473266337, "trialdata": {"rt": 940, "stimulus": "<p id='stroop-text' class='stroop-blue'>BLUE</p>", "response": "b", "stimulus-type": "congruent", "word": "blue", "color": "blue", "correct_response": "b", "trial_id": "stroop-trial-1-congruent-16", "trial_type": "html-keyboard-response", "trial_index": 37, "time_elapsed": 156644, "internal_node_id": "0.0-4.0-33.0"}}, {"uniqueid": "w43995418:a93033344", "current_trial": 38, "dateTime": 1664473267577, "trialdata": {"rt": 728, "stimulus": "<p id='stroop-text' class='stroop-blue'>BLUE</p>", "response": "b", "stimulus-type": "congruent", "word": "blue", "color": "blue", "correct_response": "b", "trial_id": "stroop-trial-1-congruent-11", "trial_type": "html-keyboard-response", "trial_index": 38, "time_elapsed": 157883, "internal_node_id": "0.0-4.0-34.0"}}, {"uniqueid": "w43995418:a93033344", "current_trial": 39, "dateTime": 1664473269573, "trialdata": {"rt": 1490, "stimulus": "<p id='stroop-text' class='stroop-red'>BLUE</p>", "response": "r", "stimulus-type": "incongruent", "word": "blue", "color": "red", "correct_response": "r", "trial_id": "stroop-trial-1-incongruent-17", "trial_type": "html-keyboard-response", "trial_index": 39, "time_elapsed": 159879, "internal_node_id": "0.0-4.0-35.0"}}, {"uniqueid": "w43995418:a93033344", "current_trial": 40, "dateTime": 1664473270589, "trialdata": {"rt": 510, "stimulus": "<p id='stroop-text' class='stroop-red'>DOG</p>", "response": "r", "stimulus-type": "unrelated", "word": "DOG", "color": "red", "correct_response": "r", "trial_id": "stroop-trial-1-unrelated-12", "trial_type": "html-keyboard-response", "trial_index": 40, "time_elapsed": 160895, "internal_node_id": "0.0-4.0-36.0"}}, {"uniqueid": "w43995418:a93033344", "current_trial": 41, "dateTime": 1664473271685, "trialdata": {"rt": 591, "stimulus": "<p id='stroop-text' class='stroop-red'>RED</p>", "response": "r", "stimulus-type": "congruent", "word": "red", "color": "red", "correct_response": "r", "trial_id": "stroop-trial-1-congruent-3", "trial_type": "html-keyboard-response", "trial_index": 41, "time_elapsed": 161992, "internal_node_id": "0.0-4.0-37.0"}}, {"uniqueid": "w43995418:a93033344", "current_trial": 42, "dateTime": 1664473272860, "trialdata": {"rt": 669, "stimulus": "<p id='stroop-text' class='stroop-blue'>YELLOW</p>", "response": "b", "stimulus-type": "incongruent", "word": "yellow", "color": "blue", "correct_response": "b", "trial_id": "stroop-trial-1-incongruent-5", "trial_type": "html-keyboard-response", "trial_index": 42, "time_elapsed": 163166, "internal_node_id": "0.0-4.0-38.0"}}, {"uniqueid": "w43995418:a93033344", "current_trial": 43, "dateTime": 1664473274079, "trialdata": {"rt": 714, "stimulus": "<p id='stroop-text' class='stroop-blue'>YELLOW</p>", "response": "b", "stimulus-type": "incongruent", "word": "yellow", "color": "blue", "correct_response": "b", "trial_id": "stroop-trial-1-incongruent-6", "trial_type": "html-keyboard-response", "trial_index": 43, "time_elapsed": 164385, "internal_node_id": "0.0-4.0-39.0"}}, {"uniqueid": "w43995418:a93033344", "current_trial": 44, "dateTime": 1664473275070, "trialdata": {"rt": 485, "stimulus": "<p id='stroop-text' class='stroop-red'>BRIDGE</p>", "response": "r", "stimulus-type": "unrelated", "word": "BRIDGE", "color": "red", "correct_response": "r", "trial_id": "stroop-trial-1-unrelated-14", "trial_type": "html-keyboard-response", "trial_index": 44, "time_elapsed": 165376, "internal_node_id": "0.0-4.0-40.0"}}, {"uniqueid": "w43995418:a93033344", "current_trial": 45, "dateTime": 1664473276464, "trialdata": {"rt": 889, "stimulus": "<p id='stroop-text' class='stroop-green'>BOAT</p>", "response": "b", "stimulus-type": "unrelated", "word": "BOAT", "color": "green", "correct_response": "g", "trial_id": "stroop-trial-1-unrelated-10", "trial_type": "html-keyboard-response", "trial_index": 45, "time_elapsed": 166771, "internal_node_id": "0.0-4.0-41.0"}}, {"uniqueid": "w43995418:a93033344", "current_trial": 46, "dateTime": 1664473278253, "trialdata": {"rt": 1283, "stimulus": "<p id='stroop-text' class='stroop-blue'>BLUE</p>", "response": "b", "stimulus-type": "congruent", "word": "blue", "color": "blue", "correct_response": "b", "trial_id": "stroop-trial-1-congruent-30", "trial_type": "html-keyboard-response", "trial_index": 46, "time_elapsed": 168560, "internal_node_id": "0.0-4.0-42.0"}}, {"uniqueid": "w43995418:a93033344", "current_trial": 47, "dateTime": 1664473279334, "trialdata": {"rt": 576, "stimulus": "<p id='stroop-text' class='stroop-blue'>SHIP</p>", "response": "b", "stimulus-type": "unrelated", "word": "SHIP", "color": "blue", "correct_response": "b", "trial_id": "stroop-trial-1-unrelated-19", "trial_type": "html-keyboard-response", "trial_index": 47, "time_elapsed": 169640, "internal_node_id": "0.0-4.0-43.0"}}, {"uniqueid": "w43995418:a93033344", "current_trial": 48, "dateTime": 1664473280869, "trialdata": {"rt": 1031, "stimulus": "<p id='stroop-text' class='stroop-red'>STONE</p>", "response": "r", "stimulus-type": "unrelated", "word": "STONE", "color": "red", "correct_response": "r", "trial_id": "stroop-trial-1-unrelated-11", "trial_type": "html-keyboard-response", "trial_index": 48, "time_elapsed": 171176, "internal_node_id": "0.0-4.0-44.0"}}, {"uniqueid": "w43995418:a93033344", "current_trial": 49, "dateTime": 1664473281985, "trialdata": {"rt": 612, "stimulus": "<p id='stroop-text' class='stroop-blue'>BOAT</p>", "response": "b", "stimulus-type": "unrelated", "word": "BOAT", "color": "blue", "correct_response": "b", "trial_id": "stroop-trial-1-unrelated-22", "trial_type": "html-keyboard-response", "trial_index": 49, "time_elapsed": 172292, "internal_node_id": "0.0-4.0-45.0"}}, {"uniqueid": "w43995418:a93033344", "current_trial": 50, "dateTime": 1664473283725, "trialdata": {"rt": 1235, "stimulus": "<p id='stroop-text' class='stroop-green'>MONKEY</p>", "response": "g", "stimulus-type": "unrelated", "word": "MONKEY", "color": "green", "correct_response": "g", "trial_id": "stroop-trial-1-unrelated-29", "trial_type": "html-keyboard-response", "trial_index": 50, "time_elapsed": 174031, "internal_node_id": "0.0-4.0-46.0"}}, {"uniqueid": "w43995418:a93033344", "current_trial": 51, "dateTime": 1664473285532, "trialdata": {"rt": 1302, "stimulus": "<p id='stroop-text' class='stroop-red'>RED</p>", "response": "r", "stimulus-type": "congruent", "word": "red", "color": "red", "correct_response": "r", "trial_id": "stroop-trial-1-congruent-29", "trial_type": "html-keyboard-response", "trial_index": 51, "time_elapsed": 175839, "internal_node_id": "0.0-4.0-47.0"}}, {"uniqueid": "w43995418:a93033344", "current_trial": 52, "dateTime": 1664473286927, "trialdata": {"rt": 888, "stimulus": "<p id='stroop-text' class='stroop-green'>GREEN</p>", "response": "g", "stimulus-type": "congruent", "word": "green", "color": "green", "correct_response": "g", "trial_id": "stroop-trial-1-congruent-28", "trial_type": "html-keyboard-response", "trial_index": 52, "time_elapsed": 177233, "internal_node_id": "0.0-4.0-48.0"}}, {"uniqueid": "w43995418:a93033344", "current_trial": 53, "dateTime": 1664473288079, "trialdata": {"rt": 647, "stimulus": "<p id='stroop-text' class='stroop-green'>BRAIN</p>", "response": "g", "stimulus-type": "unrelated", "word": "BRAIN", "color": "green", "correct_response": "g", "trial_id": "stroop-trial-1-unrelated-3", "trial_type": "html-keyboard-response", "trial_index": 53, "time_elapsed": 178386, "internal_node_id": "0.0-4.0-49.0"}}, {"uniqueid": "w43995418:a93033344", "current_trial": 54, "dateTime": 1664473289183, "trialdata": {"rt": 599, "stimulus": "<p id='stroop-text' class='stroop-green'>GREEN</p>", "response": "g", "stimulus-type": "congruent", "word": "green", "color": "green", "correct_response": "g", "trial_id": "stroop-trial-1-congruent-15", "trial_type": "html-keyboard-response", "trial_index": 54, "time_elapsed": 179490, "internal_node_id": "0.0-4.0-50.0"}}, {"uniqueid": "w43995418:a93033344", "current_trial": 55, "dateTime": 1664473290679, "trialdata": {"rt": 989, "stimulus": "<p id='stroop-text' class='stroop-yellow'>YELLOW</p>", "response": "y", "stimulus-type": "congruent", "word": "yellow", "color": "yellow", "correct_response": "y", "trial_id": "stroop-trial-1-congruent-20", "trial_type": "html-keyboard-response", "trial_index": 55, "time_elapsed": 180985, "internal_node_id": "0.0-4.0-51.0"}}, {"uniqueid": "w43995418:a93033344", "current_trial": 56, "dateTime": 1664473292916, "trialdata": {"rt": 1731, "stimulus": "<p id='stroop-text' class='stroop-blue'>MONKEY</p>", "response": "b", "stimulus-type": "unrelated", "word": "MONKEY", "color": "blue", "correct_response": "b", "trial_id": "stroop-trial-1-unrelated-27", "trial_type": "html-keyboard-response", "trial_index": 56, "time_elapsed": 183222, "internal_node_id": "0.0-4.0-52.0"}}, {"uniqueid": "w43995418:a93033344", "current_trial": 57, "dateTime": 1664473294978, "trialdata": {"rt": 1558, "stimulus": "<p id='stroop-text' class='stroop-yellow'>GREEN</p>", "response": "y", "stimulus-type": "incongruent", "word": "green", "color": "yellow", "correct_response": "y", "trial_id": "stroop-trial-1-incongruent-30", "trial_type": "html-keyboard-response", "trial_index": 57, "time_elapsed": 185285, "internal_node_id": "0.0-4.0-53.0"}}, {"uniqueid": "w43995418:a93033344", "current_trial": 58, "dateTime": 1664473296083, "trialdata": {"rt": 600, "stimulus": "<p id='stroop-text' class='stroop-green'>GREEN</p>", "response": "g", "stimulus-type": "congruent", "word": "green", "color": "green", "correct_response": "g", "trial_id": "stroop-trial-1-congruent-23", "trial_type": "html-keyboard-response", "trial_index": 58, "time_elapsed": 186389, "internal_node_id": "0.0-4.0-54.0"}}, {"uniqueid": "w43995418:a93033344", "current_trial": 59, "dateTime": 1664473297287, "trialdata": {"rt": 698, "stimulus": "<p id='stroop-text' class='stroop-blue'>STONE</p>", "response": "b", "stimulus-type": "unrelated", "word": "STONE", "color": "blue", "correct_response": "b", "trial_id": "stroop-trial-1-unrelated-20", "trial_type": "html-keyboard-response", "trial_index": 59, "time_elapsed": 187593, "internal_node_id": "0.0-4.0-55.0"}}, {"uniqueid": "w43995418:a93033344", "current_trial": 60, "dateTime": 1664473299196, "trialdata": {"rt": 1403, "stimulus": "<p id='stroop-text' class='stroop-green'>YELLOW</p>", "response": "g", "stimulus-type": "incongruent", "word": "yellow", "color": "green", "correct_response": "g", "trial_id": "stroop-trial-1-incongruent-18", "trial_type": "html-keyboard-response", "trial_index": 60, "time_elapsed": 189502, "internal_node_id": "0.0-4.0-56.0"}}, {"uniqueid": "w43995418:a93033344", "current_trial": 61, "dateTime": 1664473300435, "trialdata": {"rt": 734, "stimulus": "<p id='stroop-text' class='stroop-red'>GREEN</p>", "response": "r", "stimulus-type": "incongruent", "word": "green", "color": "red", "correct_response": "r", "trial_id": "stroop-trial-1-incongruent-20", "trial_type": "html-keyboard-response", "trial_index": 61, "time_elapsed": 190741, "internal_node_id": "0.0-4.0-57.0"}}, {"uniqueid": "w43995418:a93033344", "current_trial": 62, "dateTime": 1664473302156, "trialdata": {"rt": 1215, "stimulus": "<p id='stroop-text' class='stroop-green'>GREEN</p>", "response": "g", "stimulus-type": "congruent", "word": "green", "color": "green", "correct_response": "g", "trial_id": "stroop-trial-1-congruent-9", "trial_type": "html-keyboard-response", "trial_index": 62, "time_elapsed": 192463, "internal_node_id": "0.0-4.0-58.0"}}, {"uniqueid": "w43995418:a93033344", "current_trial": 63, "dateTime": 1664473303132, "trialdata": {"rt": 470, "stimulus": "<p id='stroop-text' class='stroop-blue'>BRAIN</p>", "response": "b", "stimulus-type": "unrelated", "word": "BRAIN", "color": "blue", "correct_response": "b", "trial_id": "stroop-trial-1-unrelated-21", "trial_type": "html-keyboard-response", "trial_index": 63, "time_elapsed": 193438, "internal_node_id": "0.0-4.0-59.0"}}, {"uniqueid": "w43995418:a93033344", "current_trial": 64, "dateTime": 1664473304085, "trialdata": {"rt": 449, "stimulus": "<p id='stroop-text' class='stroop-blue'>YELLOW</p>", "response": "b", "stimulus-type": "incongruent", "word": "yellow", "color": "blue", "correct_response": "b", "trial_id": "stroop-trial-1-incongruent-12", "trial_type": "html-keyboard-response", "trial_index": 64, "time_elapsed": 194391, "internal_node_id": "0.0-4.0-60.0"}}, {"uniqueid": "w43995418:a93033344", "current_trial": 65, "dateTime": 1664473304978, "trialdata": {"rt": 387, "stimulus": "<p id='stroop-text' class='stroop-red'>GREEN</p>", "response": "r", "stimulus-type": "incongruent", "word": "green", "color": "red", "correct_response": "r", "trial_id": "stroop-trial-1-incongruent-23", "trial_type": "html-keyboard-response", "trial_index": 65, "time_elapsed": 195284, "internal_node_id": "0.0-4.0-61.0"}}, {"uniqueid": "w43995418:a93033344", "current_trial": 66, "dateTime": 1664473306168, "trialdata": {"rt": 685, "stimulus": "<p id='stroop-text' class='stroop-yellow'>CHAIR</p>", "response": "y", "stimulus-type": "unrelated", "word": "CHAIR", "color": "yellow", "correct_response": "y", "trial_id": "stroop-trial-1-unrelated-23", "trial_type": "html-keyboard-response", "trial_index": 66, "time_elapsed": 196474, "internal_node_id": "0.0-4.0-62.0"}}, {"uniqueid": "w43995418:a93033344", "current_trial": 67, "dateTime": 1664473307510, "trialdata": {"rt": 835, "stimulus": "<p id='stroop-text' class='stroop-green'>CHAIR</p>", "response": "g", "stimulus-type": "unrelated", "word": "CHAIR", "color": "green", "correct_response": "g", "trial_id": "stroop-trial-1-unrelated-16", "trial_type": "html-keyboard-response", "trial_index": 67, "time_elapsed": 197816, "internal_node_id": "0.0-4.0-63.0"}}, {"uniqueid": "w43995418:a93033344", "current_trial": 68, "dateTime": 1664473309076, "trialdata": {"rt": 1061, "stimulus": "<p id='stroop-text' class='stroop-red'>RED</p>", "response": "r", "stimulus-type": "congruent", "word": "red", "color": "red", "correct_response": "r", "trial_id": "stroop-trial-1-congruent-13", "trial_type": "html-keyboard-response", "trial_index": 68, "time_elapsed": 199382, "internal_node_id": "0.0-4.0-64.0"}}, {"uniqueid": "w43995418:a93033344", "current_trial": 69, "dateTime": 1664473310160, "trialdata": {"rt": 579, "stimulus": "<p id='stroop-text' class='stroop-yellow'>YELLOW</p>", "response": "y", "stimulus-type": "congruent", "word": "yellow", "color": "yellow", "correct_response": "y", "trial_id": "stroop-trial-1-congruent-18", "trial_type": "html-keyboard-response", "trial_index": 69, "time_elapsed": 200466, "internal_node_id": "0.0-4.0-65.0"}}, {"uniqueid": "w43995418:a93033344", "current_trial": 70, "dateTime": 1664473311606, "trialdata": {"rt": 939, "stimulus": "<p id='stroop-text' class='stroop-green'>GREEN</p>", "response": "g", "stimulus-type": "congruent", "word": "green", "color": "green", "correct_response": "g", "trial_id": "stroop-trial-1-congruent-12", "trial_type": "html-keyboard-response", "trial_index": 70, "time_elapsed": 201912, "internal_node_id": "0.0-4.0-66.0"}}, {"uniqueid": "w43995418:a93033344", "current_trial": 71, "dateTime": 1664473313791, "trialdata": {"rt": 1680, "stimulus": "<p id='stroop-text' class='stroop-blue'>WINDOW</p>", "response": "b", "stimulus-type": "unrelated", "word": "WINDOW", "color": "blue", "correct_response": "b", "trial_id": "stroop-trial-1-unrelated-25", "trial_type": "html-keyboard-response", "trial_index": 71, "time_elapsed": 204097, "internal_node_id": "0.0-4.0-67.0"}}, {"uniqueid": "w43995418:a93033344", "current_trial": 72, "dateTime": 1664473315148, "trialdata": {"rt": 851, "stimulus": "<p id='stroop-text' class='stroop-red'>YELLOW</p>", "response": "r", "stimulus-type": "incongruent", "word": "yellow", "color": "red", "correct_response": "r", "trial_id": "stroop-trial-1-incongruent-3", "trial_type": "html-keyboard-response", "trial_index": 72, "time_elapsed": 205454, "internal_node_id": "0.0-4.0-68.0"}}, {"uniqueid": "w43995418:a93033344", "current_trial": 73, "dateTime": 1664473316951, "trialdata": {"rt": 1299, "stimulus": "<p id='stroop-text' class='stroop-green'>RED</p>", "response": "g", "stimulus-type": "incongruent", "word": "red", "color": "green", "correct_response": "g", "trial_id": "stroop-trial-1-incongruent-21", "trial_type": "html-keyboard-response", "trial_index": 73, "time_elapsed": 207258, "internal_node_id": "0.0-4.0-69.0"}}, {"uniqueid": "w43995418:a93033344", "current_trial": 74, "dateTime": 1664473318042, "trialdata": {"rt": 587, "stimulus": "<p id='stroop-text' class='stroop-blue'>BRIDGE</p>", "response": "b", "stimulus-type": "unrelated", "word": "BRIDGE", "color": "blue", "correct_response": "b", "trial_id": "stroop-trial-1-unrelated-4", "trial_type": "html-keyboard-response", "trial_index": 74, "time_elapsed": 208348, "internal_node_id": "0.0-4.0-70.0"}}, {"uniqueid": "w43995418:a93033344", "current_trial": 75, "dateTime": 1664473319177, "trialdata": {"rt": 630, "stimulus": "<p id='stroop-text' class='stroop-red'>RED</p>", "response": "r", "stimulus-type": "congruent", "word": "red", "color": "red", "correct_response": "r", "trial_id": "stroop-trial-1-congruent-19", "trial_type": "html-keyboard-response", "trial_index": 75, "time_elapsed": 209484, "internal_node_id": "0.0-4.0-71.0"}}, {"uniqueid": "w43995418:a93033344", "current_trial": 76, "dateTime": 1664473320258, "trialdata": {"rt": 575, "stimulus": "<p id='stroop-text' class='stroop-red'>RED</p>", "response": "r", "stimulus-type": "congruent", "word": "red", "color": "red", "correct_response": "r", "trial_id": "stroop-trial-1-congruent-4", "trial_type": "html-keyboard-response", "trial_index": 76, "time_elapsed": 210564, "internal_node_id": "0.0-4.0-72.0"}}, {"uniqueid": "w43995418:a93033344", "current_trial": 77, "dateTime": 1664473321467, "trialdata": {"rt": 701, "stimulus": "<p id='stroop-text' class='stroop-yellow'>YELLOW</p>", "response": "y", "stimulus-type": "congruent", "word": "yellow", "color": "yellow", "correct_response": "y", "trial_id": "stroop-trial-1-congruent-7", "trial_type": "html-keyboard-response", "trial_index": 77, "time_elapsed": 211773, "internal_node_id": "0.0-4.0-73.0"}}, {"uniqueid": "w43995418:a93033344", "current_trial": 78, "dateTime": 1664473322619, "trialdata": {"rt": 646, "stimulus": "<p id='stroop-text' class='stroop-red'>BOAT</p>", "response": "y", "stimulus-type": "unrelated", "word": "BOAT", "color": "red", "correct_response": "r", "trial_id": "stroop-trial-1-unrelated-18", "trial_type": "html-keyboard-response", "trial_index": 78, "time_elapsed": 212926, "internal_node_id": "0.0-4.0-74.0"}}, {"uniqueid": "w43995418:a93033344", "current_trial": 79, "dateTime": 1664473324354, "trialdata": {"rt": 1228, "stimulus": "<p id='stroop-text' class='stroop-blue'>GREEN</p>", "response": "b", "stimulus-type": "incongruent", "word": "green", "color": "blue", "correct_response": "b", "trial_id": "stroop-trial-1-incongruent-2", "trial_type": "html-keyboard-response", "trial_index": 79, "time_elapsed": 214660, "internal_node_id": "0.0-4.0-75.0"}}, {"uniqueid": "w43995418:a93033344", "current_trial": 80, "dateTime": 1664473325872, "trialdata": {"rt": 1011, "stimulus": "<p id='stroop-text' class='stroop-red'>RED</p>", "response": "r", "stimulus-type": "congruent", "word": "red", "color": "red", "correct_response": "r", "trial_id": "stroop-trial-1-congruent-8", "trial_type": "html-keyboard-response", "trial_index": 80, "time_elapsed": 216178, "internal_node_id": "0.0-4.0-76.0"}}, {"uniqueid": "w43995418:a93033344", "current_trial": 81, "dateTime": 1664473327318, "trialdata": {"rt": 941, "stimulus": "<p id='stroop-text' class='stroop-blue'>BLUE</p>", "response": "b", "stimulus-type": "congruent", "word": "blue", "color": "blue", "correct_response": "b", "trial_id": "stroop-trial-1-congruent-2", "trial_type": "html-keyboard-response", "trial_index": 81, "time_elapsed": 217624, "internal_node_id": "0.0-4.0-77.0"}}, {"uniqueid": "w43995418:a93033344", "current_trial": 82, "dateTime": 1664473328569, "trialdata": {"rt": 744, "stimulus": "<p id='stroop-text' class='stroop-yellow'>RED</p>", "response": "y", "stimulus-type": "incongruent", "word": "red", "color": "yellow", "correct_response": "y", "trial_id": "stroop-trial-1-incongruent-7", "trial_type": "html-keyboard-response", "trial_index": 82, "time_elapsed": 218875, "internal_node_id": "0.0-4.0-78.0"}}, {"uniqueid": "w43995418:a93033344", "current_trial": 83, "dateTime": 1664473329843, "trialdata": {"rt": 768, "stimulus": "<p id='stroop-text' class='stroop-blue'>RED</p>", "response": "b", "stimulus-type": "incongruent", "word": "red", "color": "blue", "correct_response": "b", "trial_id": "stroop-trial-1-incongruent-24", "trial_type": "html-keyboard-response", "trial_index": 83, "time_elapsed": 220149, "internal_node_id": "0.0-4.0-79.0"}}, {"uniqueid": "w43995418:a93033344", "current_trial": 84, "dateTime": 1664473330794, "trialdata": {"rt": 446, "stimulus": "<p id='stroop-text' class='stroop-blue'>RED</p>", "response": "b", "stimulus-type": "incongruent", "word": "red", "color": "blue", "correct_response": "b", "trial_id": "stroop-trial-1-incongruent-25", "trial_type": "html-keyboard-response", "trial_index": 84, "time_elapsed": 221100, "internal_node_id": "0.0-4.0-80.0"}}, {"uniqueid": "w43995418:a93033344", "current_trial": 85, "dateTime": 1664473332119, "trialdata": {"rt": 818, "stimulus": "<p id='stroop-text' class='stroop-green'>BOTTLE</p>", "response": "g", "stimulus-type": "unrelated", "word": "BOTTLE", "color": "green", "correct_response": "g", "trial_id": "stroop-trial-1-unrelated-2", "trial_type": "html-keyboard-response", "trial_index": 85, "time_elapsed": 222426, "internal_node_id": "0.0-4.0-81.0"}}, {"uniqueid": "w43995418:a93033344", "current_trial": 86, "dateTime": 1664473333441, "trialdata": {"rt": 816, "stimulus": "<p id='stroop-text' class='stroop-red'>WINDOW</p>", "response": "r", "stimulus-type": "unrelated", "word": "WINDOW", "color": "red", "correct_response": "r", "trial_id": "stroop-trial-1-unrelated-6", "trial_type": "html-keyboard-response", "trial_index": 86, "time_elapsed": 223747, "internal_node_id": "0.0-4.0-82.0"}}, {"uniqueid": "w43995418:a93033344", "current_trial": 87, "dateTime": 1664473334409, "trialdata": {"rt": 463, "stimulus": "<p id='stroop-text' class='stroop-red'>SHIP</p>", "response": "r", "stimulus-type": "unrelated", "word": "SHIP", "color": "red", "correct_response": "r", "trial_id": "stroop-trial-1-unrelated-30", "trial_type": "html-keyboard-response", "trial_index": 87, "time_elapsed": 224715, "internal_node_id": "0.0-4.0-83.0"}}, {"uniqueid": "w43995418:a93033344", "current_trial": 88, "dateTime": 1664473335506, "trialdata": {"rt": 589, "stimulus": "<p id='stroop-text' class='stroop-red'>WINDOW</p>", "response": "r", "stimulus-type": "unrelated", "word": "WINDOW", "color": "red", "correct_response": "r", "trial_id": "stroop-trial-1-unrelated-1", "trial_type": "html-keyboard-response", "trial_index": 88, "time_elapsed": 225813, "internal_node_id": "0.0-4.0-84.0"}}, {"uniqueid": "w43995418:a93033344", "current_trial": 89, "dateTime": 1664473336872, "trialdata": {"rt": 861, "stimulus": "<p id='stroop-text' class='stroop-green'>GREEN</p>", "response": "g", "stimulus-type": "congruent", "word": "green", "color": "green", "correct_response": "g", "trial_id": "stroop-trial-1-congruent-1", "trial_type": "html-keyboard-response", "trial_index": 89, "time_elapsed": 227178, "internal_node_id": "0.0-4.0-85.0"}}, {"uniqueid": "w43995418:a93033344", "current_trial": 90, "dateTime": 1664473337984, "trialdata": {"rt": 608, "stimulus": "<p id='stroop-text' class='stroop-red'>BLUE</p>", "response": "r", "stimulus-type": "incongruent", "word": "blue", "color": "red", "correct_response": "r", "trial_id": "stroop-trial-1-incongruent-27", "trial_type": "html-keyboard-response", "trial_index": 90, "time_elapsed": 228291, "internal_node_id": "0.0-4.0-86.0"}}, {"uniqueid": "w43995418:a93033344", "current_trial": 91, "dateTime": 1664473339074, "trialdata": {"rt": 584, "stimulus": "<p id='stroop-text' class='stroop-green'>BLUE</p>", "response": "r", "stimulus-type": "incongruent", "word": "blue", "color": "green", "correct_response": "g", "trial_id": "stroop-trial-1-incongruent-14", "trial_type": "html-keyboard-response", "trial_index": 91, "time_elapsed": 229380, "internal_node_id": "0.0-4.0-87.0"}}, {"uniqueid": "w43995418:a93033344", "current_trial": 92, "dateTime": 1664473340227, "trialdata": {"rt": 645, "stimulus": "<p id='stroop-text' class='stroop-green'>YELLOW</p>", "response": "g", "stimulus-type": "incongruent", "word": "yellow", "color": "green", "correct_response": "g", "trial_id": "stroop-trial-1-incongruent-1", "trial_type": "html-keyboard-response", "trial_index": 92, "time_elapsed": 230533, "internal_node_id": "0.0-4.0-88.0"}}, {"uniqueid": "w43995418:a93033344", "current_trial": 93, "dateTime": 1664473341167, "trialdata": {"rt": 435, "stimulus": "<p id='stroop-text' class='stroop-green'>YELLOW</p>", "response": "g", "stimulus-type": "incongruent", "word": "yellow", "color": "green", "correct_response": "g", "trial_id": "stroop-trial-1-incongruent-4", "trial_type": "html-keyboard-response", "trial_index": 93, "time_elapsed": 231474, "internal_node_id": "0.0-4.0-89.0"}}, {"uniqueid": "w43995418:a93033344", "current_trial": 94, "dateTime": 1664473355752, "trialdata": {"rt": 14077, "stimulus": "  <h1> End of block! </h1>\n\n  You have reached the end of the block 1/5. If you need a short break, feel free to take one now before moving on.\n\n  <br><br>\n  In the next block, you will complete another 90 rounds of this game.\n\n  <br><br>\n  <div style='text-align: center;'>Press <code>space</code> to begin.</div>\n  <br><br>\n<div style='text-align: center;'>(If the experiment doesn't continue, try clicking on the text and then pressing <code>space</code>.)</div>", "response": " ", "trial_id": "stroop_1_ready_2", "trial_type": "html-keyboard-response", "trial_index": 94, "time_elapsed": 246058, "internal_node_id": "0.0-5.0"}}, {"uniqueid": "w43995418:a93033344", "current_trial": 95, "dateTime": 1664473356797, "trialdata": {"rt": 1042, "stimulus": "<p id='stroop-text' class='stroop-blue'>YELLOW</p>", "response": "b", "stimulus-type": "incongruent", "word": "yellow", "color": "blue", "correct_response": "b", "trial_id": "stroop-trial-1-incongruent-4", "trial_type": "html-keyboard-response", "trial_index": 95, "time_elapsed": 247104, "internal_node_id": "0.0-6.0-0.0"}}, {"uniqueid": "w43995418:a93033344", "current_trial": 96, "dateTime": 1664473358567, "trialdata": {"rt": 1260, "stimulus": "<p id='stroop-text' class='stroop-yellow'>RED</p>", "response": "y", "stimulus-type": "incongruent", "word": "red", "color": "yellow", "correct_response": "y", "trial_id": "stroop-trial-1-incongruent-6", "trial_type": "html-keyboard-response", "trial_index": 96, "time_elapsed": 248874, "internal_node_id": "0.0-6.0-1.0"}}, {"uniqueid": "w43995418:a93033344", "current_trial": 97, "dateTime": 1664473359760, "trialdata": {"rt": 683, "stimulus": "<p id='stroop-text' class='stroop-yellow'>CHAIR</p>", "response": "y", "stimulus-type": "unrelated", "word": "CHAIR", "color": "yellow", "correct_response": "y", "trial_id": "stroop-trial-1-unrelated-12", "trial_type": "html-keyboard-response", "trial_index": 97, "time_elapsed": 250067, "internal_node_id": "0.0-6.0-2.0"}}, {"uniqueid": "w43995418:a93033344", "current_trial": 98, "dateTime": 1664473361136, "trialdata": {"rt": 870, "stimulus": "<p id='stroop-text' class='stroop-green'>GREEN</p>", "response": "g", "stimulus-type": "congruent", "word": "green", "color": "green", "correct_response": "g", "trial_id": "stroop-trial-1-congruent-28", "trial_type": "html-keyboard-response", "trial_index": 98, "time_elapsed": 251442, "internal_node_id": "0.0-6.0-3.0"}}, {"uniqueid": "w43995418:a93033344", "current_trial": 99, "dateTime": 1664473362701, "trialdata": {"rt": 1060, "stimulus": "<p id='stroop-text' class='stroop-red'>BOAT</p>", "response": "r", "stimulus-type": "unrelated", "word": "BOAT", "color": "red", "correct_response": "r", "trial_id": "stroop-trial-1-unrelated-24", "trial_type": "html-keyboard-response", "trial_index": 99, "time_elapsed": 253007, "internal_node_id": "0.0-6.0-4.0"}}, {"uniqueid": "w43995418:a93033344", "current_trial": 100, "dateTime": 1664473363889, "trialdata": {"rt": 681, "stimulus": "<p id='stroop-text' class='stroop-blue'>BLUE</p>", "response": "b", "stimulus-type": "congruent", "word": "blue", "color": "blue", "correct_response": "b", "trial_id": "stroop-trial-1-congruent-17", "trial_type": "html-keyboard-response", "trial_index": 100, "time_elapsed": 254195, "internal_node_id": "0.0-6.0-5.0"}}, {"uniqueid": "w43995418:a93033344", "current_trial": 101, "dateTime": 1664473365111, "trialdata": {"rt": 716, "stimulus": "<p id='stroop-text' class='stroop-red'>GREEN</p>", "response": "r", "stimulus-type": "incongruent", "word": "green", "color": "red", "correct_response": "r", "trial_id": "stroop-trial-1-incongruent-1", "trial_type": "html-keyboard-response", "trial_index": 101, "time_elapsed": 255417, "internal_node_id": "0.0-6.0-6.0"}}, {"uniqueid": "w43995418:a93033344", "current_trial": 102, "dateTime": 1664473366780, "trialdata": {"rt": 1164, "stimulus": "<p id='stroop-text' class='stroop-red'>RED</p>", "response": "r", "stimulus-type": "congruent", "word": "red", "color": "red", "correct_response": "r", "trial_id": "stroop-trial-1-congruent-14", "trial_type": "html-keyboard-response", "trial_index": 102, "time_elapsed": 257087, "internal_node_id": "0.0-6.0-7.0"}}, {"uniqueid": "w43995418:a93033344", "current_trial": 103, "dateTime": 1664473368397, "trialdata": {"rt": 1110, "stimulus": "<p id='stroop-text' class='stroop-blue'>BLUE</p>", "response": "b", "stimulus-type": "congruent", "word": "blue", "color": "blue", "correct_response": "b", "trial_id": "stroop-trial-1-congruent-7", "trial_type": "html-keyboard-response", "trial_index": 103, "time_elapsed": 258704, "internal_node_id": "0.0-6.0-8.0"}}, {"uniqueid": "w43995418:a93033344", "current_trial": 104, "dateTime": 1664473369465, "trialdata": {"rt": 561, "stimulus": "<p id='stroop-text' class='stroop-blue'>BLUE</p>", "response": "b", "stimulus-type": "congruent", "word": "blue", "color": "blue", "correct_response": "b", "trial_id": "stroop-trial-1-congruent-25", "trial_type": "html-keyboard-response", "trial_index": 104, "time_elapsed": 259771, "internal_node_id": "0.0-6.0-9.0"}}, {"uniqueid": "w43995418:a93033344", "current_trial": 105, "dateTime": 1664473371629, "trialdata": {"rt": 1657, "stimulus": "<p id='stroop-text' class='stroop-yellow'>RED</p>", "response": "y", "stimulus-type": "incongruent", "word": "red", "color": "yellow", "correct_response": "y", "trial_id": "stroop-trial-1-incongruent-30", "trial_type": "html-keyboard-response", "trial_index": 105, "time_elapsed": 261935, "internal_node_id": "0.0-6.0-10.0"}}, {"uniqueid": "w43995418:a93033344", "current_trial": 106, "dateTime": 1664473372786, "trialdata": {"rt": 644, "stimulus": "<p id='stroop-text' class='stroop-blue'>BLUE</p>", "response": "b", "stimulus-type": "congruent", "word": "blue", "color": "blue", "correct_response": "b", "trial_id": "stroop-trial-1-congruent-15", "trial_type": "html-keyboard-response", "trial_index": 106, "time_elapsed": 263092, "internal_node_id": "0.0-6.0-11.0"}}, {"uniqueid": "w43995418:a93033344", "current_trial": 107, "dateTime": 1664473373870, "trialdata": {"rt": 579, "stimulus": "<p id='stroop-text' class='stroop-blue'>STONE</p>", "response": "b", "stimulus-type": "unrelated", "word": "STONE", "color": "blue", "correct_response": "b", "trial_id": "stroop-trial-1-unrelated-30", "trial_type": "html-keyboard-response", "trial_index": 107, "time_elapsed": 264176, "internal_node_id": "0.0-6.0-12.0"}}, {"uniqueid": "w43995418:a93033344", "current_trial": 108, "dateTime": 1664473375156, "trialdata": {"rt": 780, "stimulus": "<p id='stroop-text' class='stroop-red'>BOAT</p>", "response": "r", "stimulus-type": "unrelated", "word": "BOAT", "color": "red", "correct_response": "r", "trial_id": "stroop-trial-1-unrelated-10", "trial_type": "html-keyboard-response", "trial_index": 108, "time_elapsed": 265462, "internal_node_id": "0.0-6.0-13.0"}}, {"uniqueid": "w43995418:a93033344", "current_trial": 109, "dateTime": 1664473376241, "trialdata": {"rt": 578, "stimulus": "<p id='stroop-text' class='stroop-green'>GREEN</p>", "response": "g", "stimulus-type": "congruent", "word": "green", "color": "green", "correct_response": "g", "trial_id": "stroop-trial-1-congruent-2", "trial_type": "html-keyboard-response", "trial_index": 109, "time_elapsed": 266547, "internal_node_id": "0.0-6.0-14.0"}}, {"uniqueid": "w43995418:a93033344", "current_trial": 110, "dateTime": 1664473377290, "trialdata": {"rt": 545, "stimulus": "<p id='stroop-text' class='stroop-blue'>SHIP</p>", "response": "r", "stimulus-type": "unrelated", "word": "SHIP", "color": "blue", "correct_response": "b", "trial_id": "stroop-trial-1-unrelated-16", "trial_type": "html-keyboard-response", "trial_index": 110, "time_elapsed": 267596, "internal_node_id": "0.0-6.0-15.0"}}, {"uniqueid": "w43995418:a93033344", "current_trial": 111, "dateTime": 1664473378974, "trialdata": {"rt": 1174, "stimulus": "<p id='stroop-text' class='stroop-yellow'>YELLOW</p>", "response": "y", "stimulus-type": "congruent", "word": "yellow", "color": "yellow", "correct_response": "y", "trial_id": "stroop-trial-1-congruent-12", "trial_type": "html-keyboard-response", "trial_index": 111, "time_elapsed": 269280, "internal_node_id": "0.0-6.0-16.0"}}, {"uniqueid": "w43995418:a93033344", "current_trial": 112, "dateTime": 1664473380731, "trialdata": {"rt": 1253, "stimulus": "<p id='stroop-text' class='stroop-red'>BRAIN</p>", "response": "r", "stimulus-type": "unrelated", "word": "BRAIN", "color": "red", "correct_response": "r", "trial_id": "stroop-trial-1-unrelated-28", "trial_type": "html-keyboard-response", "trial_index": 112, "time_elapsed": 271037, "internal_node_id": "0.0-6.0-17.0"}}, {"uniqueid": "w43995418:a93033344", "current_trial": 113, "dateTime": 1664473382370, "trialdata": {"rt": 1129, "stimulus": "<p id='stroop-text' class='stroop-yellow'>BLUE</p>", "response": "y", "stimulus-type": "incongruent", "word": "blue", "color": "yellow", "correct_response": "y", "trial_id": "stroop-trial-1-incongruent-27", "trial_type": "html-keyboard-response", "trial_index": 113, "time_elapsed": 272676, "internal_node_id": "0.0-6.0-18.0"}}, {"uniqueid": "w43995418:a93033344", "current_trial": 114, "dateTime": 1664473383609, "trialdata": {"rt": 734, "stimulus": "<p id='stroop-text' class='stroop-yellow'>BOAT</p>", "response": "y", "stimulus-type": "unrelated", "word": "BOAT", "color": "yellow", "correct_response": "y", "trial_id": "stroop-trial-1-unrelated-4", "trial_type": "html-keyboard-response", "trial_index": 114, "time_elapsed": 273915, "internal_node_id": "0.0-6.0-19.0"}}, {"uniqueid": "w43995418:a93033344", "current_trial": 115, "dateTime": 1664473385032, "trialdata": {"rt": 914, "stimulus": "<p id='stroop-text' class='stroop-blue'>BOAT</p>", "response": "b", "stimulus-type": "unrelated", "word": "BOAT", "color": "blue", "correct_response": "b", "trial_id": "stroop-trial-1-unrelated-5", "trial_type": "html-keyboard-response", "trial_index": 115, "time_elapsed": 275338, "internal_node_id": "0.0-6.0-20.0"}}, {"uniqueid": "w43995418:a93033344", "current_trial": 116, "dateTime": 1664473386465, "trialdata": {"rt": 926, "stimulus": "<p id='stroop-text' class='stroop-yellow'>STONE</p>", "response": "y", "stimulus-type": "unrelated", "word": "STONE", "color": "yellow", "correct_response": "y", "trial_id": "stroop-trial-1-unrelated-19", "trial_type": "html-keyboard-response", "trial_index": 116, "time_elapsed": 276771, "internal_node_id": "0.0-6.0-21.0"}}, {"uniqueid": "w43995418:a93033344", "current_trial": 117, "dateTime": 1664473388547, "trialdata": {"rt": 1576, "stimulus": "<p id='stroop-text' class='stroop-blue'>BLUE</p>", "response": "b", "stimulus-type": "congruent", "word": "blue", "color": "blue", "correct_response": "b", "trial_id": "stroop-trial-1-congruent-1", "trial_type": "html-keyboard-response", "trial_index": 117, "time_elapsed": 278853, "internal_node_id": "0.0-6.0-22.0"}}, {"uniqueid": "w43995418:a93033344", "current_trial": 118, "dateTime": 1664473389837, "trialdata": {"rt": 785, "stimulus": "<p id='stroop-text' class='stroop-yellow'>YELLOW</p>", "response": "y", "stimulus-type": "congruent", "word": "yellow", "color": "yellow", "correct_response": "y", "trial_id": "stroop-trial-1-congruent-30", "trial_type": "html-keyboard-response", "trial_index": 118, "time_elapsed": 280144, "internal_node_id": "0.0-6.0-23.0"}}, {"uniqueid": "w43995418:a93033344", "current_trial": 119, "dateTime": 1664473391024, "trialdata": {"rt": 681, "stimulus": "<p id='stroop-text' class='stroop-green'>STONE</p>", "response": "g", "stimulus-type": "unrelated", "word": "STONE", "color": "green", "correct_response": "g", "trial_id": "stroop-trial-1-unrelated-21", "trial_type": "html-keyboard-response", "trial_index": 119, "time_elapsed": 281331, "internal_node_id": "0.0-6.0-24.0"}}, {"uniqueid": "w43995418:a93033344", "current_trial": 120, "dateTime": 1664473392363, "trialdata": {"rt": 834, "stimulus": "<p id='stroop-text' class='stroop-red'>YELLOW</p>", "response": "r", "stimulus-type": "incongruent", "word": "yellow", "color": "red", "correct_response": "r", "trial_id": "stroop-trial-1-incongruent-21", "trial_type": "html-keyboard-response", "trial_index": 120, "time_elapsed": 282670, "internal_node_id": "0.0-6.0-25.0"}}, {"uniqueid": "w43995418:a93033344", "current_trial": 121, "dateTime": 1664473393706, "trialdata": {"rt": 837, "stimulus": "<p id='stroop-text' class='stroop-green'>GREEN</p>", "response": "g", "stimulus-type": "congruent", "word": "green", "color": "green", "correct_response": "g", "trial_id": "stroop-trial-1-congruent-13", "trial_type": "html-keyboard-response", "trial_index": 121, "time_elapsed": 284012, "internal_node_id": "0.0-6.0-26.0"}}, {"uniqueid": "w43995418:a93033344", "current_trial": 122, "dateTime": 1664473394714, "trialdata": {"rt": 501, "stimulus": "<p id='stroop-text' class='stroop-green'>RED</p>", "response": "g", "stimulus-type": "incongruent", "word": "red", "color": "green", "correct_response": "g", "trial_id": "stroop-trial-1-incongruent-15", "trial_type": "html-keyboard-response", "trial_index": 122, "time_elapsed": 285020, "internal_node_id": "0.0-6.0-27.0"}}, {"uniqueid": "w43995418:a93033344", "current_trial": 123, "dateTime": 1664473395713, "trialdata": {"rt": 492, "stimulus": "<p id='stroop-text' class='stroop-green'>FORK</p>", "response": "g", "stimulus-type": "unrelated", "word": "FORK", "color": "green", "correct_response": "g", "trial_id": "stroop-trial-1-unrelated-26", "trial_type": "html-keyboard-response", "trial_index": 123, "time_elapsed": 286019, "internal_node_id": "0.0-6.0-28.0"}}, {"uniqueid": "w43995418:a93033344", "current_trial": 124, "dateTime": 1664473396983, "trialdata": {"rt": 761, "stimulus": "<p id='stroop-text' class='stroop-yellow'>BLUE</p>", "response": "y", "stimulus-type": "incongruent", "word": "blue", "color": "yellow", "correct_response": "y", "trial_id": "stroop-trial-1-incongruent-13", "trial_type": "html-keyboard-response", "trial_index": 124, "time_elapsed": 287290, "internal_node_id": "0.0-6.0-29.0"}}, {"uniqueid": "w43995418:a93033344", "current_trial": 125, "dateTime": 1664473398173, "trialdata": {"rt": 685, "stimulus": "<p id='stroop-text' class='stroop-red'>RED</p>", "response": "r", "stimulus-type": "congruent", "word": "red", "color": "red", "correct_response": "r", "trial_id": "stroop-trial-1-congruent-16", "trial_type": "html-keyboard-response", "trial_index": 125, "time_elapsed": 288479, "internal_node_id": "0.0-6.0-30.0"}}, {"uniqueid": "w43995418:a93033344", "current_trial": 126, "dateTime": 1664473399206, "trialdata": {"rt": 525, "stimulus": "<p id='stroop-text' class='stroop-red'>BRAIN</p>", "response": "r", "stimulus-type": "unrelated", "word": "BRAIN", "color": "red", "correct_response": "r", "trial_id": "stroop-trial-1-unrelated-14", "trial_type": "html-keyboard-response", "trial_index": 126, "time_elapsed": 289512, "internal_node_id": "0.0-6.0-31.0"}}, {"uniqueid": "w43995418:a93033344", "current_trial": 127, "dateTime": 1664473400427, "trialdata": {"rt": 715, "stimulus": "<p id='stroop-text' class='stroop-blue'>RED</p>", "response": "b", "stimulus-type": "incongruent", "word": "red", "color": "blue", "correct_response": "b", "trial_id": "stroop-trial-1-incongruent-20", "trial_type": "html-keyboard-response", "trial_index": 127, "time_elapsed": 290734, "internal_node_id": "0.0-6.0-32.0"}}, {"uniqueid": "w43995418:a93033344", "current_trial": 128, "dateTime": 1664473401524, "trialdata": {"rt": 591, "stimulus": "<p id='stroop-text' class='stroop-green'>GREEN</p>", "response": "g", "stimulus-type": "congruent", "word": "green", "color": "green", "correct_response": "g", "trial_id": "stroop-trial-1-congruent-27", "trial_type": "html-keyboard-response", "trial_index": 128, "time_elapsed": 291831, "internal_node_id": "0.0-6.0-33.0"}}, {"uniqueid": "w43995418:a93033344", "current_trial": 129, "dateTime": 1664473402848, "trialdata": {"rt": 818, "stimulus": "<p id='stroop-text' class='stroop-yellow'>BLUE</p>", "response": "y", "stimulus-type": "incongruent", "word": "blue", "color": "yellow", "correct_response": "y", "trial_id": "stroop-trial-1-incongruent-11", "trial_type": "html-keyboard-response", "trial_index": 129, "time_elapsed": 293155, "internal_node_id": "0.0-6.0-34.0"}}, {"uniqueid": "w43995418:a93033344", "current_trial": 130, "dateTime": 1664473404195, "trialdata": {"rt": 830, "stimulus": "<p id='stroop-text' class='stroop-red'>STONE</p>", "response": "r", "stimulus-type": "unrelated", "word": "STONE", "color": "red", "correct_response": "r", "trial_id": "stroop-trial-1-unrelated-22", "trial_type": "html-keyboard-response", "trial_index": 130, "time_elapsed": 294501, "internal_node_id": "0.0-6.0-35.0"}}, {"uniqueid": "w43995418:a93033344", "current_trial": 131, "dateTime": 1664473405210, "trialdata": {"rt": 505, "stimulus": "<p id='stroop-text' class='stroop-red'>CHAIR</p>", "response": "r", "stimulus-type": "unrelated", "word": "CHAIR", "color": "red", "correct_response": "r", "trial_id": "stroop-trial-1-unrelated-20", "trial_type": "html-keyboard-response", "trial_index": 131, "time_elapsed": 295516, "internal_node_id": "0.0-6.0-36.0"}}, {"uniqueid": "w43995418:a93033344", "current_trial": 132, "dateTime": 1664473406549, "trialdata": {"rt": 833, "stimulus": "<p id='stroop-text' class='stroop-green'>BLUE</p>", "response": "g", "stimulus-type": "incongruent", "word": "blue", "color": "green", "correct_response": "g", "trial_id": "stroop-trial-1-incongruent-3", "trial_type": "html-keyboard-response", "trial_index": 132, "time_elapsed": 296855, "internal_node_id": "0.0-6.0-37.0"}}, {"uniqueid": "w43995418:a93033344", "current_trial": 133, "dateTime": 1664473407705, "trialdata": {"rt": 650, "stimulus": "<p id='stroop-text' class='stroop-green'>RED</p>", "response": "g", "stimulus-type": "incongruent", "word": "red", "color": "green", "correct_response": "g", "trial_id": "stroop-trial-1-incongruent-26", "trial_type": "html-keyboard-response", "trial_index": 133, "time_elapsed": 298012, "internal_node_id": "0.0-6.0-38.0"}}, {"uniqueid": "w43995418:a93033344", "current_trial": 134, "dateTime": 1664473408807, "trialdata": {"rt": 596, "stimulus": "<p id='stroop-text' class='stroop-blue'>BLUE</p>", "response": "b", "stimulus-type": "congruent", "word": "blue", "color": "blue", "correct_response": "b", "trial_id": "stroop-trial-1-congruent-10", "trial_type": "html-keyboard-response", "trial_index": 134, "time_elapsed": 299114, "internal_node_id": "0.0-6.0-39.0"}}, {"uniqueid": "w43995418:a93033344", "current_trial": 135, "dateTime": 1664473409875, "trialdata": {"rt": 561, "stimulus": "<p id='stroop-text' class='stroop-blue'>FORK</p>", "response": "b", "stimulus-type": "unrelated", "word": "FORK", "color": "blue", "correct_response": "b", "trial_id": "stroop-trial-1-unrelated-9", "trial_type": "html-keyboard-response", "trial_index": 135, "time_elapsed": 300181, "internal_node_id": "0.0-6.0-40.0"}}, {"uniqueid": "w43995418:a93033344", "current_trial": 136, "dateTime": 1664473410804, "trialdata": {"rt": 423, "stimulus": "<p id='stroop-text' class='stroop-yellow'>GREEN</p>", "response": "y", "stimulus-type": "incongruent", "word": "green", "color": "yellow", "correct_response": "y", "trial_id": "stroop-trial-1-incongruent-25", "trial_type": "html-keyboard-response", "trial_index": 136, "time_elapsed": 301110, "internal_node_id": "0.0-6.0-41.0"}}, {"uniqueid": "w43995418:a93033344", "current_trial": 137, "dateTime": 1664473412004, "trialdata": {"rt": 690, "stimulus": "<p id='stroop-text' class='stroop-red'>GREEN</p>", "response": "r", "stimulus-type": "incongruent", "word": "green", "color": "red", "correct_response": "r", "trial_id": "stroop-trial-1-incongruent-5", "trial_type": "html-keyboard-response", "trial_index": 137, "time_elapsed": 302311, "internal_node_id": "0.0-6.0-42.0"}}, {"uniqueid": "w43995418:a93033344", "current_trial": 138, "dateTime": 1664473412952, "trialdata": {"rt": 439, "stimulus": "<p id='stroop-text' class='stroop-green'>GREEN</p>", "response": "g", "stimulus-type": "congruent", "word": "green", "color": "green", "correct_response": "g", "trial_id": "stroop-trial-1-congruent-6", "trial_type": "html-keyboard-response", "trial_index": 138, "time_elapsed": 303259, "internal_node_id": "0.0-6.0-43.0"}}, {"uniqueid": "w43995418:a93033344", "current_trial": 139, "dateTime": 1664473414160, "trialdata": {"rt": 703, "stimulus": "<p id='stroop-text' class='stroop-yellow'>CHAIR</p>", "response": "y", "stimulus-type": "unrelated", "word": "CHAIR", "color": "yellow", "correct_response": "y", "trial_id": "stroop-trial-1-unrelated-17", "trial_type": "html-keyboard-response", "trial_index": 139, "time_elapsed": 304466, "internal_node_id": "0.0-6.0-44.0"}}, {"uniqueid": "w43995418:a93033344", "current_trial": 140, "dateTime": 1664473415760, "trialdata": {"rt": 1093, "stimulus": "<p id='stroop-text' class='stroop-blue'>BLUE</p>", "response": "b", "stimulus-type": "congruent", "word": "blue", "color": "blue", "correct_response": "b", "trial_id": "stroop-trial-1-congruent-23", "trial_type": "html-keyboard-response", "trial_index": 140, "time_elapsed": 306066, "internal_node_id": "0.0-6.0-45.0"}}, {"uniqueid": "w43995418:a93033344", "current_trial": 141, "dateTime": 1664473416909, "trialdata": {"rt": 644, "stimulus": "<p id='stroop-text' class='stroop-green'>GREEN</p>", "response": "g", "stimulus-type": "congruent", "word": "green", "color": "green", "correct_response": "g", "trial_id": "stroop-trial-1-congruent-26", "trial_type": "html-keyboard-response", "trial_index": 141, "time_elapsed": 307215, "internal_node_id": "0.0-6.0-46.0"}}, {"uniqueid": "w43995418:a93033344", "current_trial": 142, "dateTime": 1664473418049, "trialdata": {"rt": 633, "stimulus": "<p id='stroop-text' class='stroop-yellow'>BLUE</p>", "response": "y", "stimulus-type": "incongruent", "word": "blue", "color": "yellow", "correct_response": "y", "trial_id": "stroop-trial-1-incongruent-10", "trial_type": "html-keyboard-response", "trial_index": 142, "time_elapsed": 308355, "internal_node_id": "0.0-6.0-47.0"}}, {"uniqueid": "w43995418:a93033344", "current_trial": 143, "dateTime": 1664473419616, "trialdata": {"rt": 1061, "stimulus": "<p id='stroop-text' class='stroop-red'>GREEN</p>", "response": "r", "stimulus-type": "incongruent", "word": "green", "color": "red", "correct_response": "r", "trial_id": "stroop-trial-1-incongruent-7", "trial_type": "html-keyboard-response", "trial_index": 143, "time_elapsed": 309921, "internal_node_id": "0.0-6.0-48.0"}}, {"uniqueid": "w43995418:a93033344", "current_trial": 144, "dateTime": 1664473421112, "trialdata": {"rt": 989, "stimulus": "<p id='stroop-text' class='stroop-yellow'>BOAT</p>", "response": "y", "stimulus-type": "unrelated", "word": "BOAT", "color": "yellow", "correct_response": "y", "trial_id": "stroop-trial-1-unrelated-11", "trial_type": "html-keyboard-response", "trial_index": 144, "time_elapsed": 311418, "internal_node_id": "0.0-6.0-49.0"}}, {"uniqueid": "w43995418:a93033344", "current_trial": 145, "dateTime": 1664473422210, "trialdata": {"rt": 589, "stimulus": "<p id='stroop-text' class='stroop-yellow'>YELLOW</p>", "response": "y", "stimulus-type": "congruent", "word": "yellow", "color": "yellow", "correct_response": "y", "trial_id": "stroop-trial-1-congruent-29", "trial_type": "html-keyboard-response", "trial_index": 145, "time_elapsed": 312517, "internal_node_id": "0.0-6.0-50.0"}}, {"uniqueid": "w43995418:a93033344", "current_trial": 146, "dateTime": 1664473423774, "trialdata": {"rt": 1059, "stimulus": "<p id='stroop-text' class='stroop-red'>BLUE</p>", "response": "r", "stimulus-type": "incongruent", "word": "blue", "color": "red", "correct_response": "r", "trial_id": "stroop-trial-1-incongruent-23", "trial_type": "html-keyboard-response", "trial_index": 146, "time_elapsed": 314081, "internal_node_id": "0.0-6.0-51.0"}}, {"uniqueid": "w43995418:a93033344", "current_trial": 147, "dateTime": 1664473425069, "trialdata": {"rt": 788, "stimulus": "<p id='stroop-text' class='stroop-red'>BRAIN</p>", "response": "r", "stimulus-type": "unrelated", "word": "BRAIN", "color": "red", "correct_response": "r", "trial_id": "stroop-trial-1-unrelated-18", "trial_type": "html-keyboard-response", "trial_index": 147, "time_elapsed": 315375, "internal_node_id": "0.0-6.0-52.0"}}, {"uniqueid": "w43995418:a93033344", "current_trial": 148, "dateTime": 1664473426579, "trialdata": {"rt": 1003, "stimulus": "<p id='stroop-text' class='stroop-blue'>RED</p>", "response": "b", "stimulus-type": "incongruent", "word": "red", "color": "blue", "correct_response": "b", "trial_id": "stroop-trial-1-incongruent-28", "trial_type": "html-keyboard-response", "trial_index": 148, "time_elapsed": 316886, "internal_node_id": "0.0-6.0-53.0"}}, {"uniqueid": "w43995418:a93033344", "current_trial": 149, "dateTime": 1664473427822, "trialdata": {"rt": 738, "stimulus": "<p id='stroop-text' class='stroop-yellow'>YELLOW</p>", "response": "y", "stimulus-type": "congruent", "word": "yellow", "color": "yellow", "correct_response": "y", "trial_id": "stroop-trial-1-congruent-8", "trial_type": "html-keyboard-response", "trial_index": 149, "time_elapsed": 318128, "internal_node_id": "0.0-6.0-54.0"}}, {"uniqueid": "w43995418:a93033344", "current_trial": 150, "dateTime": 1664473429233, "trialdata": {"rt": 905, "stimulus": "<p id='stroop-text' class='stroop-red'>RED</p>", "response": "r", "stimulus-type": "congruent", "word": "red", "color": "red", "correct_response": "r", "trial_id": "stroop-trial-1-congruent-24", "trial_type": "html-keyboard-response", "trial_index": 150, "time_elapsed": 319540, "internal_node_id": "0.0-6.0-55.0"}}, {"uniqueid": "w43995418:a93033344", "current_trial": 151, "dateTime": 1664473430609, "trialdata": {"rt": 870, "stimulus": "<p id='stroop-text' class='stroop-yellow'>BRIDGE</p>", "response": "y", "stimulus-type": "unrelated", "word": "BRIDGE", "color": "yellow", "correct_response": "y", "trial_id": "stroop-trial-1-unrelated-2", "trial_type": "html-keyboard-response", "trial_index": 151, "time_elapsed": 320916, "internal_node_id": "0.0-6.0-56.0"}}, {"uniqueid": "w43995418:a93033344", "current_trial": 152, "dateTime": 1664473431946, "trialdata": {"rt": 833, "stimulus": "<p id='stroop-text' class='stroop-blue'>DOG</p>", "response": "b", "stimulus-type": "unrelated", "word": "DOG", "color": "blue", "correct_response": "b", "trial_id": "stroop-trial-1-unrelated-8", "trial_type": "html-keyboard-response", "trial_index": 152, "time_elapsed": 322253, "internal_node_id": "0.0-6.0-57.0"}}, {"uniqueid": "w43995418:a93033344", "current_trial": 153, "dateTime": 1664473433072, "trialdata": {"rt": 622, "stimulus": "<p id='stroop-text' class='stroop-yellow'>BLUE</p>", "response": "y", "stimulus-type": "incongruent", "word": "blue", "color": "yellow", "correct_response": "y", "trial_id": "stroop-trial-1-incongruent-16", "trial_type": "html-keyboard-response", "trial_index": 153, "time_elapsed": 323378, "internal_node_id": "0.0-6.0-58.0"}}, {"uniqueid": "w43995418:a93033344", "current_trial": 154, "dateTime": 1664473434100, "trialdata": {"rt": 523, "stimulus": "<p id='stroop-text' class='stroop-green'>GREEN</p>", "response": "g", "stimulus-type": "congruent", "word": "green", "color": "green", "correct_response": "g", "trial_id": "stroop-trial-1-congruent-3", "trial_type": "html-keyboard-response", "trial_index": 154, "time_elapsed": 324406, "internal_node_id": "0.0-6.0-59.0"}}, {"uniqueid": "w43995418:a93033344", "current_trial": 155, "dateTime": 1664473435498, "trialdata": {"rt": 888, "stimulus": "<p id='stroop-text' class='stroop-yellow'>BOAT</p>", "response": "y", "stimulus-type": "unrelated", "word": "BOAT", "color": "yellow", "correct_response": "y", "trial_id": "stroop-trial-1-unrelated-15", "trial_type": "html-keyboard-response", "trial_index": 155, "time_elapsed": 325804, "internal_node_id": "0.0-6.0-60.0"}}, {"uniqueid": "w43995418:a93033344", "current_trial": 156, "dateTime": 1664473436874, "trialdata": {"rt": 867, "stimulus": "<p id='stroop-text' class='stroop-green'>RED</p>", "response": "g", "stimulus-type": "incongruent", "word": "red", "color": "green", "correct_response": "g", "trial_id": "stroop-trial-1-incongruent-18", "trial_type": "html-keyboard-response", "trial_index": 156, "time_elapsed": 327180, "internal_node_id": "0.0-6.0-61.0"}}, {"uniqueid": "w43995418:a93033344", "current_trial": 157, "dateTime": 1664473437989, "trialdata": {"rt": 611, "stimulus": "<p id='stroop-text' class='stroop-green'>GREEN</p>", "response": "g", "stimulus-type": "congruent", "word": "green", "color": "green", "correct_response": "g", "trial_id": "stroop-trial-1-congruent-4", "trial_type": "html-keyboard-response", "trial_index": 157, "time_elapsed": 328295, "internal_node_id": "0.0-6.0-62.0"}}, {"uniqueid": "w43995418:a93033344", "current_trial": 158, "dateTime": 1664473439417, "trialdata": {"rt": 921, "stimulus": "<p id='stroop-text' class='stroop-red'>RED</p>", "response": "r", "stimulus-type": "congruent", "word": "red", "color": "red", "correct_response": "r", "trial_id": "stroop-trial-1-congruent-20", "trial_type": "html-keyboard-response", "trial_index": 158, "time_elapsed": 329723, "internal_node_id": "0.0-6.0-63.0"}}, {"uniqueid": "w43995418:a93033344", "current_trial": 159, "dateTime": 1664473440746, "trialdata": {"rt": 822, "stimulus": "<p id='stroop-text' class='stroop-blue'>BOAT</p>", "response": "b", "stimulus-type": "unrelated", "word": "BOAT", "color": "blue", "correct_response": "b", "trial_id": "stroop-trial-1-unrelated-27", "trial_type": "html-keyboard-response", "trial_index": 159, "time_elapsed": 331052, "internal_node_id": "0.0-6.0-64.0"}}, {"uniqueid": "w43995418:a93033344", "current_trial": 160, "dateTime": 1664473442171, "trialdata": {"rt": 918, "stimulus": "<p id='stroop-text' class='stroop-yellow'>GREEN</p>", "response": "y", "stimulus-type": "incongruent", "word": "green", "color": "yellow", "correct_response": "y", "trial_id": "stroop-trial-1-incongruent-24", "trial_type": "html-keyboard-response", "trial_index": 160, "time_elapsed": 332477, "internal_node_id": "0.0-6.0-65.0"}}, {"uniqueid": "w43995418:a93033344", "current_trial": 161, "dateTime": 1664473443568, "trialdata": {"rt": 892, "stimulus": "<p id='stroop-text' class='stroop-blue'>YELLOW</p>", "response": "b", "stimulus-type": "incongruent", "word": "yellow", "color": "blue", "correct_response": "b", "trial_id": "stroop-trial-1-incongruent-9", "trial_type": "html-keyboard-response", "trial_index": 161, "time_elapsed": 333875, "internal_node_id": "0.0-6.0-66.0"}}, {"uniqueid": "w43995418:a93033344", "current_trial": 162, "dateTime": 1664473444647, "trialdata": {"rt": 564, "stimulus": "<p id='stroop-text' class='stroop-yellow'>YELLOW</p>", "response": "y", "stimulus-type": "congruent", "word": "yellow", "color": "yellow", "correct_response": "y", "trial_id": "stroop-trial-1-congruent-18", "trial_type": "html-keyboard-response", "trial_index": 162, "time_elapsed": 334954, "internal_node_id": "0.0-6.0-67.0"}}, {"uniqueid": "w43995418:a93033344", "current_trial": 163, "dateTime": 1664473446214, "trialdata": {"rt": 1060, "stimulus": "<p id='stroop-text' class='stroop-green'>SHIP</p>", "response": "g", "stimulus-type": "unrelated", "word": "SHIP", "color": "green", "correct_response": "g", "trial_id": "stroop-trial-1-unrelated-1", "trial_type": "html-keyboard-response", "trial_index": 163, "time_elapsed": 336520, "internal_node_id": "0.0-6.0-68.0"}}, {"uniqueid": "w43995418:a93033344", "current_trial": 164, "dateTime": 1664473447303, "trialdata": {"rt": 581, "stimulus": "<p id='stroop-text' class='stroop-green'>RED</p>", "response": "g", "stimulus-type": "incongruent", "word": "red", "color": "green", "correct_response": "g", "trial_id": "stroop-trial-1-incongruent-12", "trial_type": "html-keyboard-response", "trial_index": 164, "time_elapsed": 337610, "internal_node_id": "0.0-6.0-69.0"}}, {"uniqueid": "w43995418:a93033344", "current_trial": 165, "dateTime": 1664473448284, "trialdata": {"rt": 474, "stimulus": "<p id='stroop-text' class='stroop-red'>GREEN</p>", "response": "r", "stimulus-type": "incongruent", "word": "green", "color": "red", "correct_response": "r", "trial_id": "stroop-trial-1-incongruent-2", "trial_type": "html-keyboard-response", "trial_index": 165, "time_elapsed": 338590, "internal_node_id": "0.0-6.0-70.0"}}, {"uniqueid": "w43995418:a93033344", "current_trial": 166, "dateTime": 1664473449552, "trialdata": {"rt": 761, "stimulus": "<p id='stroop-text' class='stroop-yellow'>YELLOW</p>", "response": "y", "stimulus-type": "congruent", "word": "yellow", "color": "yellow", "correct_response": "y", "trial_id": "stroop-trial-1-congruent-9", "trial_type": "html-keyboard-response", "trial_index": 166, "time_elapsed": 339858, "internal_node_id": "0.0-6.0-71.0"}}, {"uniqueid": "w43995418:a93033344", "current_trial": 167, "dateTime": 1664473450795, "trialdata": {"rt": 734, "stimulus": "<p id='stroop-text' class='stroop-red'>DOG</p>", "response": "b", "stimulus-type": "unrelated", "word": "DOG", "color": "red", "correct_response": "r", "trial_id": "stroop-trial-1-unrelated-13", "trial_type": "html-keyboard-response", "trial_index": 167, "time_elapsed": 341101, "internal_node_id": "0.0-6.0-72.0"}}, {"uniqueid": "w43995418:a93033344", "current_trial": 168, "dateTime": 1664473452207, "trialdata": {"rt": 906, "stimulus": "<p id='stroop-text' class='stroop-yellow'>FORK</p>", "response": "y", "stimulus-type": "unrelated", "word": "FORK", "color": "yellow", "correct_response": "y", "trial_id": "stroop-trial-1-unrelated-23", "trial_type": "html-keyboard-response", "trial_index": 168, "time_elapsed": 342514, "internal_node_id": "0.0-6.0-73.0"}}, {"uniqueid": "w43995418:a93033344", "current_trial": 169, "dateTime": 1664473453979, "trialdata": {"rt": 1265, "stimulus": "<p id='stroop-text' class='stroop-blue'>DOG</p>", "response": "b", "stimulus-type": "unrelated", "word": "DOG", "color": "blue", "correct_response": "b", "trial_id": "stroop-trial-1-unrelated-3", "trial_type": "html-keyboard-response", "trial_index": 169, "time_elapsed": 344285, "internal_node_id": "0.0-6.0-74.0"}}, {"uniqueid": "w43995418:a93033344", "current_trial": 170, "dateTime": 1664473455303, "trialdata": {"rt": 818, "stimulus": "<p id='stroop-text' class='stroop-yellow'>FORK</p>", "response": "y", "stimulus-type": "unrelated", "word": "FORK", "color": "yellow", "correct_response": "y", "trial_id": "stroop-trial-1-unrelated-7", "trial_type": "html-keyboard-response", "trial_index": 170, "time_elapsed": 345610, "internal_node_id": "0.0-6.0-75.0"}}, {"uniqueid": "w43995418:a93033344", "current_trial": 171, "dateTime": 1664473456302, "trialdata": {"rt": 492, "stimulus": "<p id='stroop-text' class='stroop-yellow'>BLUE</p>", "response": "y", "stimulus-type": "incongruent", "word": "blue", "color": "yellow", "correct_response": "y", "trial_id": "stroop-trial-1-incongruent-19", "trial_type": "html-keyboard-response", "trial_index": 171, "time_elapsed": 346608, "internal_node_id": "0.0-6.0-76.0"}}, {"uniqueid": "w43995418:a93033344", "current_trial": 172, "dateTime": 1664473457777, "trialdata": {"rt": 969, "stimulus": "<p id='stroop-text' class='stroop-blue'>BLUE</p>", "response": "b", "stimulus-type": "congruent", "word": "blue", "color": "blue", "correct_response": "b", "trial_id": "stroop-trial-1-congruent-22", "trial_type": "html-keyboard-response", "trial_index": 172, "time_elapsed": 348084, "internal_node_id": "0.0-6.0-77.0"}}, {"uniqueid": "w43995418:a93033344", "current_trial": 173, "dateTime": 1664473459825, "trialdata": {"rt": 1542, "stimulus": "<p id='stroop-text' class='stroop-yellow'>BRAIN</p>", "response": "y", "stimulus-type": "unrelated", "word": "BRAIN", "color": "yellow", "correct_response": "y", "trial_id": "stroop-trial-1-unrelated-25", "trial_type": "html-keyboard-response", "trial_index": 173, "time_elapsed": 350131, "internal_node_id": "0.0-6.0-78.0"}}, {"uniqueid": "w43995418:a93033344", "current_trial": 174, "dateTime": 1664473460994, "trialdata": {"rt": 663, "stimulus": "<p id='stroop-text' class='stroop-blue'>BLUE</p>", "response": "b", "stimulus-type": "congruent", "word": "blue", "color": "blue", "correct_response": "b", "trial_id": "stroop-trial-1-congruent-11", "trial_type": "html-keyboard-response", "trial_index": 174, "time_elapsed": 351300, "internal_node_id": "0.0-6.0-79.0"}}, {"uniqueid": "w43995418:a93033344", "current_trial": 175, "dateTime": 1664473462353, "trialdata": {"rt": 853, "stimulus": "<p id='stroop-text' class='stroop-yellow'>YELLOW</p>", "response": "y", "stimulus-type": "congruent", "word": "yellow", "color": "yellow", "correct_response": "y", "trial_id": "stroop-trial-1-congruent-19", "trial_type": "html-keyboard-response", "trial_index": 175, "time_elapsed": 352659, "internal_node_id": "0.0-6.0-80.0"}}, {"uniqueid": "w43995418:a93033344", "current_trial": 176, "dateTime": 1664473463405, "trialdata": {"rt": 545, "stimulus": "<p id='stroop-text' class='stroop-yellow'>RED</p>", "response": "y", "stimulus-type": "incongruent", "word": "red", "color": "yellow", "correct_response": "y", "trial_id": "stroop-trial-1-incongruent-29", "trial_type": "html-keyboard-response", "trial_index": 176, "time_elapsed": 353712, "internal_node_id": "0.0-6.0-81.0"}}, {"uniqueid": "w43995418:a93033344", "current_trial": 177, "dateTime": 1664473464575, "trialdata": {"rt": 664, "stimulus": "<p id='stroop-text' class='stroop-red'>BLUE</p>", "response": "r", "stimulus-type": "incongruent", "word": "blue", "color": "red", "correct_response": "r", "trial_id": "stroop-trial-1-incongruent-22", "trial_type": "html-keyboard-response", "trial_index": 177, "time_elapsed": 354882, "internal_node_id": "0.0-6.0-82.0"}}, {"uniqueid": "w43995418:a93033344", "current_trial": 178, "dateTime": 1664473465832, "trialdata": {"rt": 750, "stimulus": "<p id='stroop-text' class='stroop-green'>GREEN</p>", "response": "g", "stimulus-type": "congruent", "word": "green", "color": "green", "correct_response": "g", "trial_id": "stroop-trial-1-congruent-5", "trial_type": "html-keyboard-response", "trial_index": 178, "time_elapsed": 356138, "internal_node_id": "0.0-6.0-83.0"}}, {"uniqueid": "w43995418:a93033344", "current_trial": 179, "dateTime": 1664473467020, "trialdata": {"rt": 681, "stimulus": "<p id='stroop-text' class='stroop-yellow'>CHAIR</p>", "response": "y", "stimulus-type": "unrelated", "word": "CHAIR", "color": "yellow", "correct_response": "y", "trial_id": "stroop-trial-1-unrelated-29", "trial_type": "html-keyboard-response", "trial_index": 179, "time_elapsed": 357326, "internal_node_id": "0.0-6.0-84.0"}}, {"uniqueid": "w43995418:a93033344", "current_trial": 180, "dateTime": 1664473468340, "trialdata": {"rt": 815, "stimulus": "<p id='stroop-text' class='stroop-blue'>YELLOW</p>", "response": "b", "stimulus-type": "incongruent", "word": "yellow", "color": "blue", "correct_response": "b", "trial_id": "stroop-trial-1-incongruent-17", "trial_type": "html-keyboard-response", "trial_index": 180, "time_elapsed": 358647, "internal_node_id": "0.0-6.0-85.0"}}, {"uniqueid": "w43995418:a93033344", "current_trial": 181, "dateTime": 1664473469497, "trialdata": {"rt": 651, "stimulus": "<p id='stroop-text' class='stroop-green'>GREEN</p>", "response": "g", "stimulus-type": "congruent", "word": "green", "color": "green", "correct_response": "g", "trial_id": "stroop-trial-1-congruent-21", "trial_type": "html-keyboard-response", "trial_index": 181, "time_elapsed": 359804, "internal_node_id": "0.0-6.0-86.0"}}, {"uniqueid": "w43995418:a93033344", "current_trial": 182, "dateTime": 1664473470769, "trialdata": {"rt": 762, "stimulus": "<p id='stroop-text' class='stroop-blue'>GREEN</p>", "response": "b", "stimulus-type": "incongruent", "word": "green", "color": "blue", "correct_response": "b", "trial_id": "stroop-trial-1-incongruent-8", "trial_type": "html-keyboard-response", "trial_index": 182, "time_elapsed": 361076, "internal_node_id": "0.0-6.0-87.0"}}, {"uniqueid": "w43995418:a93033344", "current_trial": 183, "dateTime": 1664473472075, "trialdata": {"rt": 801, "stimulus": "<p id='stroop-text' class='stroop-blue'>SHIP</p>", "response": "b", "stimulus-type": "unrelated", "word": "SHIP", "color": "blue", "correct_response": "b", "trial_id": "stroop-trial-1-unrelated-6", "trial_type": "html-keyboard-response", "trial_index": 183, "time_elapsed": 362382, "internal_node_id": "0.0-6.0-88.0"}}, {"uniqueid": "w43995418:a93033344", "current_trial": 184, "dateTime": 1664473473633, "trialdata": {"rt": 1052, "stimulus": "<p id='stroop-text' class='stroop-green'>RED</p>", "response": "g", "stimulus-type": "incongruent", "word": "red", "color": "green", "correct_response": "g", "trial_id": "stroop-trial-1-incongruent-14", "trial_type": "html-keyboard-response", "trial_index": 184, "time_elapsed": 363940, "internal_node_id": "0.0-6.0-89.0"}}, {"uniqueid": "w43995418:a93033344", "current_trial": 185, "dateTime": 1664473476077, "trialdata": {"rt": 1935, "stimulus": "  <h1> End of block! </h1>\n\n  You have reached the end of the block 2/5. If you need a short break, feel free to take one now before moving on.\n\n  <br><br>\n  In the next block, you will complete another 90 rounds of this game.\n\n  <br><br>\n  <div style='text-align: center;'>Press <code>space</code> to begin.</div>\n  <br><br>\n<div style='text-align: center;'>(If the experiment doesn't continue, try clicking on the text and then pressing <code>space</code>.)</div>", "response": " ", "trial_id": "stroop_1_ready_3", "trial_type": "html-keyboard-response", "trial_index": 185, "time_elapsed": 366383, "internal_node_id": "0.0-7.0"}}, {"uniqueid": "w43995418:a93033344", "current_trial": 186, "dateTime": 1664473476869, "trialdata": {"rt": 787, "stimulus": "<p id='stroop-text' class='stroop-blue'>STONE</p>", "response": "b", "stimulus-type": "unrelated", "word": "STONE", "color": "blue", "correct_response": "b", "trial_id": "stroop-trial-1-unrelated-29", "trial_type": "html-keyboard-response", "trial_index": 186, "time_elapsed": 367175, "internal_node_id": "0.0-8.0-0.0"}}, {"uniqueid": "w43995418:a93033344", "current_trial": 187, "dateTime": 1664473478172, "trialdata": {"rt": 796, "stimulus": "<p id='stroop-text' class='stroop-red'>SHIP</p>", "response": "r", "stimulus-type": "unrelated", "word": "SHIP", "color": "red", "correct_response": "r", "trial_id": "stroop-trial-1-unrelated-28", "trial_type": "html-keyboard-response", "trial_index": 187, "time_elapsed": 368478, "internal_node_id": "0.0-8.0-1.0"}}, {"uniqueid": "w43995418:a93033344", "current_trial": 188, "dateTime": 1664473479256, "trialdata": {"rt": 578, "stimulus": "<p id='stroop-text' class='stroop-green'>GREEN</p>", "response": "g", "stimulus-type": "congruent", "word": "green", "color": "green", "correct_response": "g", "trial_id": "stroop-trial-1-congruent-30", "trial_type": "html-keyboard-response", "trial_index": 188, "time_elapsed": 369562, "internal_node_id": "0.0-8.0-2.0"}}, {"uniqueid": "w43995418:a93033344", "current_trial": 189, "dateTime": 1664473480637, "trialdata": {"rt": 873, "stimulus": "<p id='stroop-text' class='stroop-blue'>SHIP</p>", "response": "b", "stimulus-type": "unrelated", "word": "SHIP", "color": "blue", "correct_response": "b", "trial_id": "stroop-trial-1-unrelated-14", "trial_type": "html-keyboard-response", "trial_index": 189, "time_elapsed": 370943, "internal_node_id": "0.0-8.0-3.0"}}, {"uniqueid": "w43995418:a93033344", "current_trial": 190, "dateTime": 1664473481635, "trialdata": {"rt": 493, "stimulus": "<p id='stroop-text' class='stroop-blue'>BRIDGE</p>", "response": "b", "stimulus-type": "unrelated", "word": "BRIDGE", "color": "blue", "correct_response": "b", "trial_id": "stroop-trial-1-unrelated-11", "trial_type": "html-keyboard-response", "trial_index": 190, "time_elapsed": 371941, "internal_node_id": "0.0-8.0-4.0"}}, {"uniqueid": "w43995418:a93033344", "current_trial": 191, "dateTime": 1664473482818, "trialdata": {"rt": 676, "stimulus": "<p id='stroop-text' class='stroop-green'>YELLOW</p>", "response": "g", "stimulus-type": "incongruent", "word": "yellow", "color": "green", "correct_response": "g", "trial_id": "stroop-trial-1-incongruent-30", "trial_type": "html-keyboard-response", "trial_index": 191, "time_elapsed": 373125, "internal_node_id": "0.0-8.0-5.0"}}, {"uniqueid": "w43995418:a93033344", "current_trial": 192, "dateTime": 1664473484212, "trialdata": {"rt": 882, "stimulus": "<p id='stroop-text' class='stroop-red'>STONE</p>", "response": "r", "stimulus-type": "unrelated", "word": "STONE", "color": "red", "correct_response": "r", "trial_id": "stroop-trial-1-unrelated-21", "trial_type": "html-keyboard-response", "trial_index": 192, "time_elapsed": 374518, "internal_node_id": "0.0-8.0-6.0"}}, {"uniqueid": "w43995418:a93033344", "current_trial": 193, "dateTime": 1664473485657, "trialdata": {"rt": 939, "stimulus": "<p id='stroop-text' class='stroop-green'>GREEN</p>", "response": "g", "stimulus-type": "congruent", "word": "green", "color": "green", "correct_response": "g", "trial_id": "stroop-trial-1-congruent-19", "trial_type": "html-keyboard-response", "trial_index": 193, "time_elapsed": 375963, "internal_node_id": "0.0-8.0-7.0"}}, {"uniqueid": "w43995418:a93033344", "current_trial": 194, "dateTime": 1664473486745, "trialdata": {"rt": 580, "stimulus": "<p id='stroop-text' class='stroop-yellow'>YELLOW</p>", "response": "y", "stimulus-type": "congruent", "word": "yellow", "color": "yellow", "correct_response": "y", "trial_id": "stroop-trial-1-congruent-17", "trial_type": "html-keyboard-response", "trial_index": 194, "time_elapsed": 377051, "internal_node_id": "0.0-8.0-8.0"}}, {"uniqueid": "w43995418:a93033344", "current_trial": 195, "dateTime": 1664473487963, "trialdata": {"rt": 712, "stimulus": "<p id='stroop-text' class='stroop-green'>RED</p>", "response": "g", "stimulus-type": "incongruent", "word": "red", "color": "green", "correct_response": "g", "trial_id": "stroop-trial-1-incongruent-21", "trial_type": "html-keyboard-response", "trial_index": 195, "time_elapsed": 378269, "internal_node_id": "0.0-8.0-9.0"}}, {"uniqueid": "w43995418:a93033344", "current_trial": 196, "dateTime": 1664473488943, "trialdata": {"rt": 472, "stimulus": "<p id='stroop-text' class='stroop-green'>GREEN</p>", "response": "g", "stimulus-type": "congruent", "word": "green", "color": "green", "correct_response": "g", "trial_id": "stroop-trial-1-congruent-2", "trial_type": "html-keyboard-response", "trial_index": 196, "time_elapsed": 379250, "internal_node_id": "0.0-8.0-10.0"}}, {"uniqueid": "w43995418:a93033344", "current_trial": 197, "dateTime": 1664473490135, "trialdata": {"rt": 688, "stimulus": "<p id='stroop-text' class='stroop-blue'>FORK</p>", "response": "b", "stimulus-type": "unrelated", "word": "FORK", "color": "blue", "correct_response": "b", "trial_id": "stroop-trial-1-unrelated-20", "trial_type": "html-keyboard-response", "trial_index": 197, "time_elapsed": 380441, "internal_node_id": "0.0-8.0-11.0"}}, {"uniqueid": "w43995418:a93033344", "current_trial": 198, "dateTime": 1664473491323, "trialdata": {"rt": 681, "stimulus": "<p id='stroop-text' class='stroop-red'>YELLOW</p>", "response": "r", "stimulus-type": "incongruent", "word": "yellow", "color": "red", "correct_response": "r", "trial_id": "stroop-trial-1-incongruent-25", "trial_type": "html-keyboard-response", "trial_index": 198, "time_elapsed": 381629, "internal_node_id": "0.0-8.0-12.0"}}, {"uniqueid": "w43995418:a93033344", "current_trial": 199, "dateTime": 1664473492510, "trialdata": {"rt": 680, "stimulus": "<p id='stroop-text' class='stroop-blue'>BLUE</p>", "response": "b", "stimulus-type": "congruent", "word": "blue", "color": "blue", "correct_response": "b", "trial_id": "stroop-trial-1-congruent-5", "trial_type": "html-keyboard-response", "trial_index": 199, "time_elapsed": 382816, "internal_node_id": "0.0-8.0-13.0"}}, {"uniqueid": "w43995418:a93033344", "current_trial": 200, "dateTime": 1664473493526, "trialdata": {"rt": 510, "stimulus": "<p id='stroop-text' class='stroop-green'>BLUE</p>", "response": "g", "stimulus-type": "incongruent", "word": "blue", "color": "green", "correct_response": "g", "trial_id": "stroop-trial-1-incongruent-17", "trial_type": "html-keyboard-response", "trial_index": 200, "time_elapsed": 383832, "internal_node_id": "0.0-8.0-14.0"}}, {"uniqueid": "w43995418:a93033344", "current_trial": 201, "dateTime": 1664473494676, "trialdata": {"rt": 643, "stimulus": "<p id='stroop-text' class='stroop-blue'>YELLOW</p>", "response": "b", "stimulus-type": "incongruent", "word": "yellow", "color": "blue", "correct_response": "b", "trial_id": "stroop-trial-1-incongruent-7", "trial_type": "html-keyboard-response", "trial_index": 201, "time_elapsed": 384982, "internal_node_id": "0.0-8.0-15.0"}}, {"uniqueid": "w43995418:a93033344", "current_trial": 202, "dateTime": 1664473495935, "trialdata": {"rt": 752, "stimulus": "<p id='stroop-text' class='stroop-green'>GREEN</p>", "response": "g", "stimulus-type": "congruent", "word": "green", "color": "green", "correct_response": "g", "trial_id": "stroop-trial-1-congruent-11", "trial_type": "html-keyboard-response", "trial_index": 202, "time_elapsed": 386241, "internal_node_id": "0.0-8.0-16.0"}}, {"uniqueid": "w43995418:a93033344", "current_trial": 203, "dateTime": 1664473497858, "trialdata": {"rt": 1417, "stimulus": "<p id='stroop-text' class='stroop-blue'>MONKEY</p>", "response": "b", "stimulus-type": "unrelated", "word": "MONKEY", "color": "blue", "correct_response": "b", "trial_id": "stroop-trial-1-unrelated-22", "trial_type": "html-keyboard-response", "trial_index": 203, "time_elapsed": 388165, "internal_node_id": "0.0-8.0-17.0"}}, {"uniqueid": "w43995418:a93033344", "current_trial": 204, "dateTime": 1664473499324, "trialdata": {"rt": 960, "stimulus": "<p id='stroop-text' class='stroop-yellow'>FORK</p>", "response": "y", "stimulus-type": "unrelated", "word": "FORK", "color": "yellow", "correct_response": "y", "trial_id": "stroop-trial-1-unrelated-10", "trial_type": "html-keyboard-response", "trial_index": 204, "time_elapsed": 389631, "internal_node_id": "0.0-8.0-18.0"}}, {"uniqueid": "w43995418:a93033344", "current_trial": 205, "dateTime": 1664473500370, "trialdata": {"rt": 538, "stimulus": "<p id='stroop-text' class='stroop-yellow'>WINDOW</p>", "response": "y", "stimulus-type": "unrelated", "word": "WINDOW", "color": "yellow", "correct_response": "y", "trial_id": "stroop-trial-1-unrelated-18", "trial_type": "html-keyboard-response", "trial_index": 205, "time_elapsed": 390676, "internal_node_id": "0.0-8.0-19.0"}}, {"uniqueid": "w43995418:a93033344", "current_trial": 206, "dateTime": 1664473501697, "trialdata": {"rt": 821, "stimulus": "<p id='stroop-text' class='stroop-blue'>CHAIR</p>", "response": "b", "stimulus-type": "unrelated", "word": "CHAIR", "color": "blue", "correct_response": "b", "trial_id": "stroop-trial-1-unrelated-23", "trial_type": "html-keyboard-response", "trial_index": 206, "time_elapsed": 392004, "internal_node_id": "0.0-8.0-20.0"}}, {"uniqueid": "w43995418:a93033344", "current_trial": 207, "dateTime": 1664473502800, "trialdata": {"rt": 596, "stimulus": "<p id='stroop-text' class='stroop-yellow'>WINDOW</p>", "response": "y", "stimulus-type": "unrelated", "word": "WINDOW", "color": "yellow", "correct_response": "y", "trial_id": "stroop-trial-1-unrelated-15", "trial_type": "html-keyboard-response", "trial_index": 207, "time_elapsed": 393106, "internal_node_id": "0.0-8.0-21.0"}}, {"uniqueid": "w43995418:a93033344", "current_trial": 208, "dateTime": 1664473504069, "trialdata": {"rt": 762, "stimulus": "<p id='stroop-text' class='stroop-green'>BRIDGE</p>", "response": "b", "stimulus-type": "unrelated", "word": "BRIDGE", "color": "green", "correct_response": "g", "trial_id": "stroop-trial-1-unrelated-4", "trial_type": "html-keyboard-response", "trial_index": 208, "time_elapsed": 394375, "internal_node_id": "0.0-8.0-22.0"}}, {"uniqueid": "w43995418:a93033344", "current_trial": 209, "dateTime": 1664473505600, "trialdata": {"rt": 1022, "stimulus": "<p id='stroop-text' class='stroop-red'>GREEN</p>", "response": "r", "stimulus-type": "incongruent", "word": "green", "color": "red", "correct_response": "r", "trial_id": "stroop-trial-1-incongruent-28", "trial_type": "html-keyboard-response", "trial_index": 209, "time_elapsed": 395906, "internal_node_id": "0.0-8.0-23.0"}}, {"uniqueid": "w43995418:a93033344", "current_trial": 210, "dateTime": 1664473506705, "trialdata": {"rt": 600, "stimulus": "<p id='stroop-text' class='stroop-red'>RED</p>", "response": "r", "stimulus-type": "congruent", "word": "red", "color": "red", "correct_response": "r", "trial_id": "stroop-trial-1-congruent-10", "trial_type": "html-keyboard-response", "trial_index": 210, "time_elapsed": 397012, "internal_node_id": "0.0-8.0-24.0"}}, {"uniqueid": "w43995418:a93033344", "current_trial": 211, "dateTime": 1664473507875, "trialdata": {"rt": 663, "stimulus": "<p id='stroop-text' class='stroop-yellow'>BLUE</p>", "response": "y", "stimulus-type": "incongruent", "word": "blue", "color": "yellow", "correct_response": "y", "trial_id": "stroop-trial-1-incongruent-9", "trial_type": "html-keyboard-response", "trial_index": 211, "time_elapsed": 398182, "internal_node_id": "0.0-8.0-25.0"}}, {"uniqueid": "w43995418:a93033344", "current_trial": 212, "dateTime": 1664473508874, "trialdata": {"rt": 493, "stimulus": "<p id='stroop-text' class='stroop-yellow'>BLUE</p>", "response": "y", "stimulus-type": "incongruent", "word": "blue", "color": "yellow", "correct_response": "y", "trial_id": "stroop-trial-1-incongruent-1", "trial_type": "html-keyboard-response", "trial_index": 212, "time_elapsed": 399180, "internal_node_id": "0.0-8.0-26.0"}}, {"uniqueid": "w43995418:a93033344", "current_trial": 213, "dateTime": 1664473510008, "trialdata": {"rt": 628, "stimulus": "<p id='stroop-text' class='stroop-green'>BLUE</p>", "response": "g", "stimulus-type": "incongruent", "word": "blue", "color": "green", "correct_response": "g", "trial_id": "stroop-trial-1-incongruent-11", "trial_type": "html-keyboard-response", "trial_index": 213, "time_elapsed": 400315, "internal_node_id": "0.0-8.0-27.0"}}, {"uniqueid": "w43995418:a93033344", "current_trial": 214, "dateTime": 1664473511095, "trialdata": {"rt": 581, "stimulus": "<p id='stroop-text' class='stroop-red'>RED</p>", "response": "r", "stimulus-type": "congruent", "word": "red", "color": "red", "correct_response": "r", "trial_id": "stroop-trial-1-congruent-8", "trial_type": "html-keyboard-response", "trial_index": 214, "time_elapsed": 401401, "internal_node_id": "0.0-8.0-28.0"}}, {"uniqueid": "w43995418:a93033344", "current_trial": 215, "dateTime": 1664473512278, "trialdata": {"rt": 677, "stimulus": "<p id='stroop-text' class='stroop-blue'>BOTTLE</p>", "response": "b", "stimulus-type": "unrelated", "word": "BOTTLE", "color": "blue", "correct_response": "b", "trial_id": "stroop-trial-1-unrelated-17", "trial_type": "html-keyboard-response", "trial_index": 215, "time_elapsed": 402585, "internal_node_id": "0.0-8.0-29.0"}}, {"uniqueid": "w43995418:a93033344", "current_trial": 216, "dateTime": 1664473513655, "trialdata": {"rt": 870, "stimulus": "<p id='stroop-text' class='stroop-yellow'>YELLOW</p>", "response": "y", "stimulus-type": "congruent", "word": "yellow", "color": "yellow", "correct_response": "y", "trial_id": "stroop-trial-1-congruent-6", "trial_type": "html-keyboard-response", "trial_index": 216, "time_elapsed": 403962, "internal_node_id": "0.0-8.0-30.0"}}, {"uniqueid": "w43995418:a93033344", "current_trial": 217, "dateTime": 1664473515041, "trialdata": {"rt": 878, "stimulus": "<p id='stroop-text' class='stroop-green'>YELLOW</p>", "response": "g", "stimulus-type": "incongruent", "word": "yellow", "color": "green", "correct_response": "g", "trial_id": "stroop-trial-1-incongruent-16", "trial_type": "html-keyboard-response", "trial_index": 217, "time_elapsed": 405347, "internal_node_id": "0.0-8.0-31.0"}}, {"uniqueid": "w43995418:a93033344", "current_trial": 218, "dateTime": 1664473516229, "trialdata": {"rt": 681, "stimulus": "<p id='stroop-text' class='stroop-blue'>BRAIN</p>", "response": "r", "stimulus-type": "unrelated", "word": "BRAIN", "color": "blue", "correct_response": "b", "trial_id": "stroop-trial-1-unrelated-6", "trial_type": "html-keyboard-response", "trial_index": 218, "time_elapsed": 406535, "internal_node_id": "0.0-8.0-32.0"}}, {"uniqueid": "w43995418:a93033344", "current_trial": 219, "dateTime": 1664473517566, "trialdata": {"rt": 830, "stimulus": "<p id='stroop-text' class='stroop-red'>BOAT</p>", "response": "g", "stimulus-type": "unrelated", "word": "BOAT", "color": "red", "correct_response": "r", "trial_id": "stroop-trial-1-unrelated-24", "trial_type": "html-keyboard-response", "trial_index": 219, "time_elapsed": 407872, "internal_node_id": "0.0-8.0-33.0"}}, {"uniqueid": "w43995418:a93033344", "current_trial": 220, "dateTime": 1664473518759, "trialdata": {"rt": 686, "stimulus": "<p id='stroop-text' class='stroop-yellow'>YELLOW</p>", "response": "y", "stimulus-type": "congruent", "word": "yellow", "color": "yellow", "correct_response": "y", "trial_id": "stroop-trial-1-congruent-13", "trial_type": "html-keyboard-response", "trial_index": 220, "time_elapsed": 409065, "internal_node_id": "0.0-8.0-34.0"}}, {"uniqueid": "w43995418:a93033344", "current_trial": 221, "dateTime": 1664473519757, "trialdata": {"rt": 490, "stimulus": "<p id='stroop-text' class='stroop-yellow'>YELLOW</p>", "response": "y", "stimulus-type": "congruent", "word": "yellow", "color": "yellow", "correct_response": "y", "trial_id": "stroop-trial-1-congruent-7", "trial_type": "html-keyboard-response", "trial_index": 221, "time_elapsed": 410063, "internal_node_id": "0.0-8.0-35.0"}}, {"uniqueid": "w43995418:a93033344", "current_trial": 222, "dateTime": 1664473520875, "trialdata": {"rt": 612, "stimulus": "<p id='stroop-text' class='stroop-red'>RED</p>", "response": "r", "stimulus-type": "congruent", "word": "red", "color": "red", "correct_response": "r", "trial_id": "stroop-trial-1-congruent-26", "trial_type": "html-keyboard-response", "trial_index": 222, "time_elapsed": 41118