{"condition": 1, "counterbalance": 0, "assignmentId": "a32950982", "workerId": "w32248408", "hitId": "h70905620", "currenttrial": 137, "bonus": 0, "data": [{"uniqueid": "w32248408:a32950982", "current_trial": 0, "dateTime": 1664375539630, "trialdata": {"success": true, "trial_type": "fullscreen", "trial_index": 0, "time_elapsed": 20109, "internal_node_id": "0.0-0.0"}}, {"uniqueid": "w32248408:a32950982", "current_trial": 1, "dateTime": 1664375561847, "trialdata": {"view_history": [{"page_index": 0, "viewing_time": 22192}], "rt": 22193, "trial_id": "exp_instructions_no_distractor", "trial_type": "instructions", "trial_index": 1, "time_elapsed": 42329, "internal_node_id": "0.0-1.0"}}, {"uniqueid": "w32248408:a32950982", "current_trial": 2, "dateTime": 1664375565824, "trialdata": {"success": true, "trial_type": "fullscreen", "trial_index": 2, "time_elapsed": 46307, "internal_node_id": "0.0-2.0-0.0"}}, {"uniqueid": "w32248408:a32950982", "current_trial": 3, "dateTime": 1664375712190, "trialdata": {"view_history": [{"page_index": 0, "viewing_time": 57893}, {"page_index": 1, "viewing_time": 40448}, {"page_index": 2, "viewing_time": 12760}, {"page_index": 3, "viewing_time": 12488}, {"page_index": 4, "viewing_time": 22776}], "rt": 146365, "trial_id": "mouselab_instructions_1", "trial_type": "instructions", "trial_index": 3, "time_elapsed": 192673, "internal_node_id": "0.0-2.0-1.0"}}, {"uniqueid": "w32248408:a32950982", "current_trial": 4, "dateTime": 1664375781608, "trialdata": {"revealed_states": [], "num_clicks_accrued": [0, 0, 0, 0, 0, 0, 0, 0, 0, 0, 0, 0, 0], "stateRewards": ["", -10, -10, -10, 10, 10, -10, 10, 10, -10, -10, 10, -10], "withholdReward": false, "trial_id": "practice_1", "block": "test", "trialIndex": 0, "score": 9, "costs": -3, "simulationMode": [null, null, null], "rewards": [10, -10, 10], "path": ["0", "0", "5", "6", "8"], "rt": [46832, 1507, 526], "actions": ["right", "right", "down"], "actionTimes": [51909, 53899, 54936], "queries": {"click": {"state": {"target": ["1", "9", "5", "6", "8", "7", "12", "10", "11", "4", "2", "3"], "time": [24279, 26554, 27954, 31033, 32000, 35358, 36954, 37468, 38106, 38781, 39539, 40259]}, "edge": {"target": [], "time": []}}, "mouseover": {"state": {"target": ["1", "9", "5", "6", "8", "7", "12", "10", "11", "4", "4", "2", "3"], "time": [19570, 26130, 27575, 28459, 31492, 34889, 36659, 37273, 37707, 38317, 38569, 39252, 40070]}, "edge": {"target": [], "time": []}}, "mouseout": {"state": {"target": ["9", "12", "6", "5", "0", "1", "9", "5", "6", "8", "7", "6", "12", "10", "11", "4", "4", "2", "3", "6", "8"], "time": [352, 465, 4033, 4230, 18730, 25850, 27061, 28409, 31341, 32410, 35724, 36074, 37138, 37674, 38251, 38368, 39085, 39818, 40465, 40582, 40653]}, "edge": {"target": [], "time": []}}}, "displayed_time": "55.46", "trialTime": 69143, "trial_type": "mouselab-mdp", "trial_index": 4, "time_elapsed": 262090, "internal_node_id": "0.0-2.0-2.0-0.0"}}, {"uniqueid": "w32248408:a32950982", "current_trial": 5, "dateTime": 1664375810754, "trialdata": {"revealed_states": [], "num_clicks_accrued": [0, 0, 0, 0, 0, 0, 0, 0, 0, 0, 0, 0, 0], "stateRewards": ["", -10, 10, 10, -10, -10, 10, 10, 10, -10, -10, -10, -10], "withholdReward": false, "trial_id": "practice_2", "block": "test", "trialIndex": 1, "score": 10.5, "costs": -1.5, "simulationMode": [null, null, null], "rewards": [-10, 10, 10], "path": ["0", "0", "5", "6", "8"], "rt": [21143, 403, 121], "actions": ["right", "right", "down"], "actionTimes": [23964, 24876, 25511], "queries": {"click": {"state": {"target": ["9", "5", "1", "6", "8", "7"], "time": [7457, 9794, 11131, 13660, 14516, 20321]}, "edge": {"target": [], "time": []}}, "mouseover": {"state": {"target": ["9", "0", "5", "1", "6", "8", "7"], "time": [6210, 8906, 9213, 10410, 13404, 14252, 19545]}, "edge": {"target": [], "time": []}}, "mouseout": {"state": {"target": ["9", "0", "5", "1", "5", "6", "8", "8", "6", "7"], "time": [8839, 8921, 10123, 11453, 13082, 14053, 14750, 17029, 17299, 20526]}, "edge": {"target": [], "time": []}}}, "displayed_time": "26.02", "trialTime": 29058, "trial_type": "mouselab-mdp", "trial_index": 5, "time_elapsed": 291237, "internal_node_id": "0.0-2.0-2.0-1.0"}}, {"uniqueid": "w32248408:a32950982", "current_trial": 6, "dateTime": 1664375905727, "trialdata": {"view_history": [{"page_index": 0, "viewing_time": 60769}, {"page_index": 1, "viewing_time": 23927}, {"page_index": 2, "viewing_time": 10265}], "rt": 94961, "trial_id": "mouselab_instructions_2_scarce", "trial_type": "instructions", "trial_index": 6, "time_elapsed": 386210, "internal_node_id": "0.0-2.0-3.0"}}, {"uniqueid": "w32248408:a32950982", "current_trial": 7, "dateTime": 1664375952895, "trialdata": {"rt": 47164, "response": {"Q0": "$-48 to $48", "Q1": "The cost is always $0.25.", "Q2": "The better I perform the higher my bonus will be.", "Q3": "No, the amount of cash at each node of the web may be different each time.", "Q4": "The values of the nodes walked through from start to finish.", "Q5": "No, the spider might forget to count the money on some rounds."}, "question_order": [0, 1, 2, 3, 4, 5], "correct": {"Q0": "$-48 to $48", "Q1": "The cost is always $0.25.", "Q2": "The better I perform the higher my bonus will be.", "Q3": "No, the amount of cash at each node of the web may be different each time.", "Q4": "The values of the nodes walked through from start to finish.", "Q5": "No, the spider might forget to count the money on some rounds."}, "trial_id": "mouselab_quiz_scarce", "trial_type": "survey-multi-choice", "trial_index": 7, "time_elapsed": 433378, "internal_node_id": "0.0-2.0-4.0"}}, {"uniqueid": "w32248408:a32950982", "current_trial": 8, "dateTime": 1664375982773, "trialdata": {"rt": 29869, "stimulus": "\n<h1> Get ready to start the game! </h1>\n\nThank you for reading the instructions. Get ready start with the first of 4 block(s) of this game.\n<br><br>\nIn this first block, you will complete 30 rounds of this game before moving on.\n<br><br>\nRemember, the more money the spider gets, the bigger your bonus will be!\n<br><br>\n<div style='text-align: center;'>Press <code>space</code> to begin.</div>\n\n<br><br>\n(If, at any point, the <code>space</code> key does not take you to the next page, click once on the text and try again.)", "response": " ", "trial_id": "mdp_ready_1", "trial_type": "html-keyboard-response", "trial_index": 8, "time_elapsed": 463256, "internal_node_id": "0.0-4.0-0.0"}}, {"uniqueid": "w32248408:a32950982", "current_trial": 9, "dateTime": 1664376037838, "trialdata": {"revealed_states": [], "num_clicks_accrued": [0, 0, 0, 0, 0, 0, 0, 0, 0, 0, 0, 0, 0], "stateRewards": ["", -2, -4, -24, -48, -2, 8, -48, 24, 4, -4, -24, -24], "withholdReward": true, "trial_id": "mdp_915304165774", "block": "test1", "trialIndex": 2, "score": 32, "costs": -3, "simulationMode": [null, null, null], "rewards": [-2, 8, 24], "path": ["0", "0", "5", "6", "8"], "rt": [31544, 515, 266], "actions": ["right", "right", "down"], "actionTimes": [37436, 38470, 39253], "queries": {"click": {"state": {"target": ["9", "1", "5", "10", "12", "11", "6", "7", "8", "2", "4", "3"], "time": [9750, 11490, 12555, 14858, 15945, 18323, 22852, 24020, 25378, 32700, 33468, 34505]}, "edge": {"target": [], "time": []}}, "mouseover": {"state": {"target": ["0", "9", "1", "5", "0", "10", "12", "11", "6", "6", "7", "8", "2", "4", "3"], "time": [6416, 8166, 11047, 12332, 13659, 14123, 15695, 16372, 21569, 22567, 23758, 24686, 32479, 33227, 34009]}, "edge": {"target": [], "time": []}}, "mouseout": {"state": {"target": ["11", "4", "1", "0", "9", "1", "5", "0", "9", "10", "12", "10", "11", "10", "12", "5", "6", "6", "7", "6", "8", "8", "5", "2", "4", "2", "3", "5"], "time": [4433, 4934, 5348, 7815, 10846, 11830, 12762, 13774, 13946, 15476, 16191, 16308, 18636, 18986, 19362, 21556, 21638, 23639, 24187, 24237, 25620, 26181, 26885, 32961, 33691, 33893, 34691, 36159]}, "edge": {"target": [], "time": []}}}, "displayed_time": "39.77", "trialTime": 54999, "trial_type": "mouselab-mdp", "trial_index": 9, "time_elapsed": 518320, "internal_node_id": "0.0-4.0-1.0-0.0"}}, {"uniqueid": "w32248408:a32950982", "current_trial": 10, "dateTime": 1664376083047, "trialdata": {"revealed_states": [], "num_clicks_accrued": [0, 0, 0, 0, 0, 0, 0, 0, 0, 0, 0, 0, 0], "stateRewards": ["", -2, -4, -24, 48, -4, 8, 48, 48, 2, 8, -48, -24], "withholdReward": true, "trial_id": "mdp_136376573354", "block": "test1", "trialIndex": 3, "score": 54.25, "costs": -2.75, "simulationMode": [null, null, null], "rewards": [-4, 8, 48], "path": ["0", "0", "5", "6", "7"], "rt": [33830, 499, 1502], "actions": ["right", "right", "up"], "actionTimes": [36150, 37157, 39177], "queries": {"click": {"state": {"target": ["9", "10", "11", "12", "5", "1", "2", "3", "4", "7", "6"], "time": [4549, 9063, 10527, 12597, 14246, 17523, 19470, 21571, 22966, 25971, 28624]}, "edge": {"target": [], "time": []}}, "mouseover": {"state": {"target": ["9", "10", "11", "12", "5", "6", "1", "7", "3", "2", "3", "4", "4", "7", "6", "8", "8"], "time": [3203, 6983, 9865, 11396, 13742, 14658, 17301, 18689, 18755, 19058, 21037, 22037, 22573, 25132, 27084, 29080, 33463]}, "edge": {"target": [], "time": []}}, "mouseout": {"state": {"target": ["5", "9", "10", "11", "10", "12", "5", "6", "1", "5", "7", "3", "2", "3", "2", "4", "4", "7", "6", "8", "6"], "time": [1606, 6650, 9712, 10714, 11229, 12978, 14463, 16974, 17758, 18225, 18721, 18791, 19910, 21804, 21987, 22300, 23172, 26149, 28934, 30372, 33326]}, "edge": {"target": [], "time": []}}}, "displayed_time": "39.69", "trialTime": 45139, "trial_type": "mouselab-mdp", "trial_index": 10, "time_elapsed": 563530, "internal_node_id": "0.0-4.0-1.0-1.0"}}, {"uniqueid": "w32248408:a32950982", "current_trial": 11, "dateTime": 1664376116391, "trialdata": {"revealed_states": [], "num_clicks_accrued": [0, 0, 0, 0, 0, 0, 0, 0, 0, 0, 0, 0, 0], "stateRewards": ["", -4, -8, 48, -48, 2, -4, 48, -24, 2, -8, -48, -48], "withholdReward": true, "trial_id": "mdp_624553692913", "block": "test1", "trialIndex": 4, "score": 50.25, "costs": -0.75, "simulationMode": [null, null, null], "rewards": [2, -4, 48], "path": ["0", "0", "5", "6", "7"], "rt": [23117, 209, 304], "actions": ["right", "right", "up"], "actionTimes": [25817, 26519, 27329], "queries": {"click": {"state": {"target": ["5", "7", "6"], "time": [6153, 10477, 12339]}, "edge": {"target": [], "time": []}}, "mouseover": {"state": {"target": ["0", "5", "6", "7", "6", "8"], "time": [3178, 5763, 7074, 8041, 10759, 12605]}, "edge": {"target": [], "time": []}}, "mouseout": {"state": {"target": ["8", "5", "0", "5", "5", "6", "7", "6", "8"], "time": [1398, 1697, 3200, 6411, 7025, 7795, 10693, 12538, 12671]}, "edge": {"target": [], "time": []}}}, "displayed_time": "27.84", "trialTime": 33264, "trial_type": "mouselab-mdp", "trial_index": 11, "time_elapsed": 596874, "internal_node_id": "0.0-4.0-1.0-2.0"}}, {"uniqueid": "w32248408:a32950982", "current_trial": 12, "dateTime": 1664376179800, "trialdata": {"revealed_states": [], "num_clicks_accrued": [0, 0, 0, 0, 0, 0, 0, 0, 0, 0, 0, 0, 0], "stateRewards": ["", -4, -8, -48, 24, -4, -4, -24, -48, 2, -8, -24, -48], "withholdReward": true, "trial_id": "mdp_628181832088", "block": "test1", "trialIndex": 5, "score": 14.25, "costs": -2.75, "simulationMode": [null, null, null], "rewards": [-4, -8, 24], "path": ["0", "0", "1", "2", "4"], "rt": [52331, 416, 601], "actions": ["up", "up", "left"], "actionTimes": [54641, 55567, 56684], "queries": {"click": {"state": {"target": ["5", "7", "8", "4", "3", "11", "12", "2", "10", "1", "9"], "time": [5813, 10718, 16453, 22419, 23887, 26178, 27099, 35340, 37656, 42227, 46099]}, "edge": {"target": [], "time": []}}, "mouseover": {"state": {"target": ["5", "6", "7", "6", "8", "12", "4", "4", "2", "3", "1", "11", "11", "10", "12", "9", "1", "2", "1", "9", "10", "9", "9", "1", "0", "9", "0", "6", "6"], "time": [5559, 6862, 9211, 11288, 11655, 19845, 21010, 21331, 23045, 23260, 24845, 25590, 26011, 26493, 26774, 28077, 34749, 35115, 35581, 36681, 37167, 38029, 40714, 41965, 42831, 43155, 46626, 48242, 51823]}, "edge": {"target": [], "time": []}}, "mouseout": {"state": {"target": ["5", "5", "6", "7", "6", "8", "12", "4", "4", "2", "3", "1", "11", "11", "10", "12", "12", "9", "1", "2", "1", "9", "10", "9", "10", "11", "10", "9", "1", "0", "9", "0", "5", "6", "6"], "time": [1544, 6511, 9145, 10957, 11455, 17346, 20864, 21059, 22796, 23143, 24080, 24907, 25710, 26443, 26672, 27362, 27942, 34666, 34783, 35531, 36532, 36715, 37968, 39631, 39753, 40213, 40535, 40966, 42414, 42996, 46576, 46722, 47671, 48459, 52156]}, "edge": {"target": [], "time": []}}}, "displayed_time": "57.20", "trialTime": 63332, "trial_type": "mouselab-mdp", "trial_index": 12, "time_elapsed": 660283, "internal_node_id": "0.0-4.0-1.0-3.0"}}, {"uniqueid": "w32248408:a32950982", "current_trial": 13, "dateTime": 1664376205800, "trialdata": {"revealed_states": [], "num_clicks_accrued": [0, 0, 0, 0, 0, 0, 0, 0, 0, 0, 0, 0, 0], "stateRewards": ["", 4, -8, 24, 48, -2, -4, -48, 24, 2, 4, -48, -24], "withholdReward": false, "trial_id": "mdp_749974461966", "block": "test1", "trialIndex": 6, "score": 47.75, "costs": -1.25, "simulationMode": [null, null, null], "rewards": [4, -8, 48], "path": ["0", "0", "1", "2", "4"], "rt": [18201, 332, 182], "actions": ["up", "up", "left"], "actionTimes": [20239, 21085, 21783], "queries": {"click": {"state": {"target": ["7", "8", "4", "1", "2"], "time": [6310, 9154, 12261, 17653, 18595]}, "edge": {"target": [], "time": []}}, "mouseover": {"state": {"target": ["7", "6", "8", "8", "5", "1", "4", "3", "1", "2", "5", "6"], "time": [5597, 6564, 7484, 8824, 10962, 11043, 11317, 13327, 16824, 18092, 19202, 19268]}, "edge": {"target": [], "time": []}}, "mouseout": {"state": {"target": ["0", "7", "6", "8", "8", "8", "5", "1", "4", "3", "1", "2", "1", "5"], "time": [5480, 6550, 7401, 8546, 9432, 10731, 11008, 11092, 12493, 16606, 17988, 18821, 18886, 19219]}, "edge": {"target": [], "time": []}}}, "displayed_time": "22.30", "trialTime": 25923, "trial_type": "mouselab-mdp", "trial_index": 13, "time_elapsed": 686283, "internal_node_id": "0.0-4.0-1.0-4.0"}}, {"uniqueid": "w32248408:a32950982", "current_trial": 14, "dateTime": 1664376228384, "trialdata": {"revealed_states": [], "num_clicks_accrued": [0, 0, 0, 0, 0, 0, 0, 0, 0, 0, 0, 0, 0], "stateRewards": ["", -4, 8, 48, -48, 2, -4, 24, -24, -2, 4, -24, -24], "withholdReward": true, "trial_id": "mdp_804988042722", "block": "test1", "trialIndex": 7, "score": 56, "costs": -1, "simulationMode": [null, null, null], "rewards": [-4, 8, 48], "path": ["0", "0", "1", "2", "3"], "rt": [9159, 251, 348], "actions": ["up", "up", "right"], "actionTimes": [12322, 13086, 13957], "queries": {"click": {"state": {"target": ["4", "3", "2", "1"], "time": [5070, 6393, 9633, 10650]}, "edge": {"target": [], "time": []}}, "mouseover": {"state": {"target": ["1", "4", "4", "2", "3", "7", "2", "1", "7"], "time": [3812, 4476, 4808, 5511, 5861, 7060, 8043, 10052, 11451]}, "edge": {"target": [], "time": []}}, "mouseout": {"state": {"target": ["6", "9", "1", "4", "4", "2", "3", "7", "2", "1", "7", "5"], "time": [1347, 2661, 3913, 4508, 5366, 5540, 6660, 7642, 9853, 10967, 17329, 17485]}, "edge": {"target": [], "time": []}}}, "displayed_time": "14.47", "trialTime": 22503, "trial_type": "mouselab-mdp", "trial_index": 14, "time_elapsed": 708866, "internal_node_id": "0.0-4.0-1.0-5.0"}}, {"uniqueid": "w32248408:a32950982", "current_trial": 15, "dateTime": 1664376252380, "trialdata": {"revealed_states": [], "num_clicks_accrued": [0, 0, 0, 0, 0, 0, 0, 0, 0, 0, 0, 0, 0], "stateRewards": ["", -4, 4, -24, 24, 2, 4, -24, 48, -4, 8, -48, 48], "withholdReward": true, "trial_id": "mdp_422109108860", "block": "test1", "trialIndex": 8, "score": 58, "costs": -1, "simulationMode": [null, null, null], "rewards": [2, 4, 48], "path": ["0", "0", "5", "6", "8"], "rt": [12410, 2341, 904], "actions": ["right", "right", "down"], "actionTimes": [14106, 16939, 18350], "queries": {"click": {"state": {"target": ["7", "8", "5", "6"], "time": [4016, 5299, 8176, 9517]}, "edge": {"target": [], "time": []}}, "mouseover": {"state": {"target": ["5", "6", "7", "6", "8", "5", "6"], "time": [2824, 3289, 3509, 4573, 4888, 7205, 8741]}, "edge": {"target": [], "time": []}}, "mouseout": {"state": {"target": ["0", "5", "6", "7", "6", "8", "5", "6"], "time": [1259, 3040, 3323, 4459, 4755, 6190, 8600, 9785]}, "edge": {"target": [], "time": []}}}, "displayed_time": "18.86", "trialTime": 23917, "trial_type": "mouselab-mdp", "trial_index": 15, "time_elapsed": 732863, "internal_node_id": "0.0-4.0-1.0-6.0"}}, {"uniqueid": "w32248408:a32950982", "current_trial": 16, "dateTime": 1664376282278, "trialdata": {"revealed_states": [], "num_clicks_accrued": [0, 0, 0, 0, 0, 0, 0, 0, 0, 0, 0, 0, 0], "stateRewards": ["", -2, -4, -48, -48, 4, 8, 24, -48, 4, -8, 24, 24], "withholdReward": true, "trial_id": "mdp_749799219195", "block": "test1", "trialIndex": 9, "score": 38.75, "costs": -2.25, "simulationMode": [null, null, null], "rewards": [4, 8, 24], "path": ["0", "0", "5", "6", "7"], "rt": [22259, 251, 54], "actions": ["right", "right", "up"], "actionTimes": [24106, 24847, 25422], "queries": {"click": {"state": {"target": ["8", "7", "3", "4", "11", "12", "10", "6", "5"], "time": [3769, 4813, 6136, 7410, 8569, 10007, 13512, 15929, 17258]}, "edge": {"target": [], "time": []}}, "mouseover": {"state": {"target": ["5", "6", "8", "6", "7", "3", "4", "9", "10", "11", "10", "12", "10", "6", "5", "0", "5", "6", "6", "5"], "time": [2898, 2994, 3260, 4393, 4596, 5762, 6713, 7840, 8106, 8343, 8777, 8909, 13136, 14457, 14993, 15361, 15401, 15433, 15735, 16802]}, "edge": {"target": [], "time": []}}, "mouseout": {"state": {"target": ["3", "1", "5", "6", "8", "6", "7", "3", "4", "9", "10", "11", "10", "12", "10", "6", "5", "0", "5", "6", "6", "5", "8"], "time": [998, 1515, 2960, 3115, 4314, 4443, 5563, 6324, 7590, 7940, 8176, 8743, 8823, 10389, 13768, 14920, 15105, 15386, 15417, 15483, 16551, 17532, 28295]}, "edge": {"target": [], "time": []}}}, "displayed_time": "25.94", "trialTime": 29823, "trial_type": "mouselab-mdp", "trial_index": 16, "time_elapsed": 762761, "internal_node_id": "0.0-4.0-1.0-7.0"}}, {"uniqueid": "w32248408:a32950982", "current_trial": 17, "dateTime": 1664376307936, "trialdata": {"revealed_states": [], "num_clicks_accrued": [0, 0, 0, 0, 0, 0, 0, 0, 0, 0, 0, 0, 0], "stateRewards": ["", 2, 4, -24, -48, 4, -4, 24, 48, -4, -4, -24, 48], "withholdReward": true, "trial_id": "mdp_181958792175", "block": "test1", "trialIndex": 10, "score": 51.25, "costs": -1.75, "simulationMode": [null, null, null], "rewards": [4, -4, 48], "path": ["0", "0", "5", "6", "8"], "rt": [18437, 119, 175], "actions": ["right", "right", "down"], "actionTimes": [19956, 20586, 21274], "queries": {"click": {"state": {"target": ["11", "12", "8", "6", "5", "10", "9"], "time": [3638, 4549, 5949, 10102, 12704, 16392, 17262]}, "edge": {"target": [], "time": []}}, "mouseover": {"state": {"target": ["11", "10", "12", "12", "8", "6", "7", "6", "5", "0", "9", "10", "9", "0", "5", "10", "9"], "time": [3496, 3928, 3978, 4327, 5447, 7194, 8559, 9912, 11010, 11146, 11176, 11224, 12124, 12239, 12455, 15654, 16985]}, "edge": {"target": [], "time": []}}, "mouseout": {"state": {"target": ["0", "0", "11", "10", "12", "12", "8", "6", "7", "6", "5", "0", "9", "10", "9", "0", "5", "10", "9"], "time": [952, 2430, 3878, 3961, 4012, 4727, 7112, 7397, 9839, 10458, 11111, 11158, 11191, 12110, 12176, 12392, 12922, 16718, 17467]}, "edge": {"target": [], "time": []}}}, "displayed_time": "21.78", "trialTime": 25573, "trial_type": "mouselab-mdp", "trial_index": 17, "time_elapsed": 788418, "internal_node_id": "0.0-4.0-1.0-8.0"}}, {"uniqueid": "w32248408:a32950982", "current_trial": 18, "dateTime": 1664376323848, "trialdata": {"revealed_states": [], "num_clicks_accrued": [0, 0, 0, 0, 0, 0, 0, 0, 0, 0, 0, 0, 0], "stateRewards": ["", -4, 8, 24, 24, -2, 8, -48, 48, 4, -8, 48, -48], "withholdReward": false, "trial_id": "mdp_295249220524", "block": "test1", "trialIndex": 11, "score": 57.5, "costs": -1.5, "simulationMode": [null, null, null], "rewards": [-2, 8, 48], "path": ["0", "0", "5", "6", "8"], "rt": [8570, 346, 338], "actions": ["right", "right", "down"], "actionTimes": [10270, 11135, 11992], "queries": {"click": {"state": {"target": ["4", "3", "7", "8", "6", "5"], "time": [2751, 3783, 5326, 6373, 8003, 8870]}, "edge": {"target": [], "time": []}}, "mouseover": {"state": {"target": ["4", "3", "3", "7", "6", "8", "6", "5"], "time": [2499, 3210, 3573, 4395, 5657, 5857, 7741, 8439]}, "edge": {"target": [], "time": []}}, "mouseout": {"state": {"target": ["0", "4", "3", "3", "7", "6", "8", "8", "6", "5"], "time": [2154, 3062, 3509, 4062, 5558, 5761, 6759, 7374, 8304, 9237]}, "edge": {"target": [], "time": []}}}, "displayed_time": "12.50", "trialTime": 15854, "trial_type": "mouselab-mdp", "trial_index": 18, "time_elapsed": 804331, "internal_node_id": "0.0-4.0-1.0-9.0"}}, {"uniqueid": "w32248408:a32950982", "current_trial": 19, "dateTime": 1664376355705, "trialdata": {"revealed_states": [], "num_clicks_accrued": [0, 0, 0, 0, 0, 0, 0, 0, 0, 0, 0, 0, 0], "stateRewards": ["", -4, -4, 24, 48, 4, -4, -24, 24, -4, -4, 24, 24], "withholdReward": false, "trial_id": "mdp_357725458160", "block": "test1", "trialIndex": 12, "score": 42.25, "costs": -2.75, "simulationMode": [null, null, null], "rewards": [-4, -4, 48], "path": ["0", "0", "1", "2", "4"], "rt": [26037, 243, 254], "actions": ["up", "up", "left"], "actionTimes": [27900, 28652, 29411], "queries": {"click": {"state": {"target": ["4", "2", "1", "11", "12", "7", "8", "9", "10", "5", "6"], "time": [3284, 5316, 6221, 8957, 10166, 14004, 14836, 17504, 18325, 23797, 24469]}, "edge": {"target": [], "time": []}}, "mouseover": {"state": {"target": ["4", "2", "1", "11", "12", "0", "7", "6", "8", "0", "9", "10", "0", "5", "6", "5", "6"], "time": [2960, 4993, 5590, 8572, 9455, 10538, 11922, 14251, 14434, 16684, 17285, 17971, 18734, 18813, 23360, 23593, 24077]}, "edge": {"target": [], "time": []}}, "mouseout": {"state": {"target": ["1", "4", "2", "1", "1", "11", "12", "0", "7", "6", "8", "8", "0", "9", "10", "9", "0", "5", "8", "6", "5", "6", "8"], "time": [1197, 3493, 5509, 6406, 7507, 9174, 10393, 10586, 14201, 14318, 15049, 16502, 16832, 17748, 18519, 18696, 18782, 18900, 19332, 23464, 23994, 24663, 24794]}, "edge": {"target": [], "time": []}}}, "displayed_time": "29.92", "trialTime": 31774, "trial_type": "mouselab-mdp", "trial_index": 19, "time_elapsed": 836188, "internal_node_id": "0.0-4.0-1.0-10.0"}}, {"uniqueid": "w32248408:a32950982", "current_trial": 20, "dateTime": 1664376368903, "trialdata": {"revealed_states": [], "num_clicks_accrued": [0, 0, 0, 0, 0, 0, 0, 0, 0, 0, 0, 0, 0], "stateRewards": ["", 2, 4, 24, 48, -2, 8, 24, -24, -4, -4, 48, 48], "withholdReward": true, "trial_id": "mdp_753439303214", "block": "test1", "trialIndex": 13, "score": 58.25, "costs": -0.75, "simulationMode": [null, null, null], "rewards": [2, 4, 48], "path": ["0", "0", "1", "2", "4"], "rt": [4391, 260, 17], "actions": ["up", "up", "left"], "actionTimes": [5877, 6654, 7178], "queries": {"click": {"state": {"target": ["4", "1", "2"], "time": [2593, 3839, 4687]}, "edge": {"target": [], "time": []}}, "mouseover": {"state": {"target": ["4", "2", "2", "1", "2"], "time": [2315, 2963, 3200, 3546, 4279]}, "edge": {"target": [], "time": []}}, "mouseout": {"state": {"target": ["0", "4", "2", "2", "1", "2"], "time": [2018, 2895, 3099, 3247, 4197, 4962]}, "edge": {"target": [], "time": []}}}, "displayed_time": "9.49", "trialTime": 13135, "trial_type": "mouselab-mdp", "trial_index": 20, "time_elapsed": 849385, "internal_node_id": "0.0-4.0-1.0-11.0"}}, {"uniqueid": "w32248408:a32950982", "current_trial": 21, "dateTime": 1664376396714, "trialdata": {"revealed_states": [], "num_clicks_accrued": [0, 0, 0, 0, 0, 0, 0, 0, 0, 0, 0, 0, 0], "stateRewards": ["", -4, -4, -24, -24, -2, 4, 48, -24, -2, -4, -24, 48], "withholdReward": true, "trial_id": "mdp_855903341564", "block": "test1", "trialIndex": 14, "score": 52.75, "costs": -2.25, "simulationMode": [null, null, null], "rewards": [-2, 4, 48], "path": ["0", "0", "5", "6", "7"], "rt": [20708, 173, 202], "actions": ["right", "right", "up"], "actionTimes": [22707, 23387, 24098], "queries": {"click": {"state": {"target": ["4", "3", "11", "7", "5", "6", "12", "10", "9"], "time": [3202, 4288, 5714, 7085, 8913, 10798, 14287, 16504, 19671]}, "edge": {"target": [], "time": []}}, "mouseover": {"state": {"target": ["1", "4", "3", "7", "9", "11", "10", "12", "7", "6", "8", "6", "5", "6", "8", "6", "8", "12", "10", "9"], "time": [2671, 2929, 3944, 4511, 5126, 5529, 5913, 6074, 6731, 7292, 7423, 7943, 8358, 9472, 10154, 10541, 11056, 14036, 16283, 17002]}, "edge": {"target": [], "time": []}}, "mouseout": {"state": {"target": ["0", "1", "4", "3", "7", "9", "11", "10", "12", "7", "6", "8", "6", "5", "6", "8", "6", "8", "12", "10", "9"], "time": [1652, 2681, 3432, 4445, 4543, 5292, 5880, 5926, 6125, 7276, 7362, 7842, 8290, 9408, 10122, 10472, 10989, 13372, 14506, 16836, 20196]}, "edge": {"target": [], "time": []}}}, "displayed_time": "24.62", "trialTime": 27722, "trial_type": "mouselab-mdp", "trial_index": 21, "time_elapsed": 877197, "internal_node_id": "0.0-4.0-1.0-12.0"}}, {"uniqueid": "w32248408:a32950982", "current_trial": 22, "dateTime": 1664376418592, "trialdata": {"revealed_states": [], "num_clicks_accrued": [0, 0, 0, 0, 0, 0, 0, 0, 0, 0, 0, 0, 0], "stateRewards": ["", 4, -4, 48, 24, 2, 4, 24, -24, 2, 4, 24, 48], "withholdReward": true, "trial_id": "mdp_736351885282", "block": "test1", "trialIndex": 15, "score": 51.75, "costs": -1.25, "simulationMode": [null, null, null], "rewards": [4, -4, 48], "path": ["0", "0", "1", "2", "3"], "rt": [16129, 132, 144], "actions": ["up", "up", "right"], "actionTimes": [17874, 18518, 19179], "queries": {"click": {"state": {"target": ["7", "8", "3", "2", "1"], "time": [5136, 9315, 10770, 14289, 15809]}, "edge": {"target": [], "time": []}}, "mouseover": {"state": {"target": ["1", "1", "7", "6", "8", "5", "1", "2", "3", "1", "2", "1", "5", "6"], "time": [3468, 4613, 4816, 5467, 5665, 9992, 10159, 10295, 10426, 11432, 13792, 14892, 16336, 16403]}, "edge": {"target": [], "time": []}}, "mouseout": {"state": {"target": ["0", "1", "1", "7", "6", "8", "5", "1", "2", "3", "1", "2", "1", "5"], "time": [3382, 3843, 4665, 5428, 5512, 9945, 10025, 10176, 10325, 10991, 12709, 14572, 16138, 16370]}, "edge": {"target": [], "time": []}}}, "displayed_time": "19.68", "trialTime": 21809, "trial_type": "mouselab-mdp", "trial_index": 22, "time_elapsed": 899075, "internal_node_id": "0.0-4.0-1.0-13.0"}}, {"uniqueid": "w32248408:a32950982", "current_trial": 23, "dateTime": 1664376432832, "trialdata": {"revealed_states": [], "num_clicks_accrued": [0, 0, 0, 0, 0, 0, 0, 0, 0, 0, 0, 0, 0], "stateRewards": ["", 4, 4, 48, -48, -2, -8, -48, -24, 2, 4, -24, -48], "withholdReward": true, "trial_id": "mdp_239929662917", "block": "test1", "trialIndex": 16, "score": 60, "costs": -1, "simulationMode": [null, null, null], "rewards": [4, 4, 48], "path": ["0", "0", "1", "2", "3"], "rt": [6836, 200, 129], "actions": ["up", "up", "right"], "actionTimes": [8585, 9299, 9944], "queries": {"click": {"state": {"target": ["4", "3", "1", "2"], "time": [3683, 4809, 6649, 7373]}, "edge": {"target": [], "time": []}}, "mouseover": {"state": {"target": ["4", "3", "1", "2"], "time": [2650, 4451, 6270, 7017]}, "edge": {"target": [], "time": []}}, "mouseout": {"state": {"target": ["6", "5", "0", "4", "3", "1", "2", "1", "0", "9"], "time": [956, 1220, 2323, 3867, 4970, 6950, 7632, 11313, 11361, 12245]}, "edge": {"target": [], "time": []}}}, "displayed_time": "10.75", "trialTime": 14153, "trial_type": "mouselab-mdp", "trial_index": 23, "time_elapsed": 913315, "internal_node_id": "0.0-4.0-1.0-14.0"}}, {"uniqueid": "w32248408:a32950982", "current_trial": 24, "dateTime": 1664376453325, "trialdata": {"revealed_states": [], "num_clicks_accrued": [0, 0, 0, 0, 0, 0, 0, 0, 0, 0, 0, 0, 0], "stateRewards": ["", 2, -4, 24, 24, 4, -4, -24, 24, -4, -4, 48, 48], "withholdReward": true, "trial_id": "mdp_566306223773", "block": "test1", "trialIndex": 17, "score": 43, "costs": -2, "simulationMode": [null, null, null], "rewards": [-4, -4, 48], "path": ["0", "0", "9", "10", "12"], "rt": [13875, 74, 323], "actions": ["left", "left", "down"], "actionTimes": [15467, 16048, 16895], "queries": {"click": {"state": {"target": ["4", "3", "7", "8", "11", "10", "9", "12"], "time": [2872, 3874, 5225, 5992, 7314, 9397, 10084, 12297]}, "edge": {"target": [], "time": []}}, "mouseover": {"state": {"target": ["1", "4", "4", "2", "3", "3", "7", "6", "8", "9", "10", "11", "11", "10", "12", "10", "9", "12"], "time": [2218, 2384, 2650, 3132, 3183, 3689, 4465, 5498, 5713, 6434, 6463, 6782, 7052, 7596, 7911, 9124, 9660, 11325]}, "edge": {"target": [], "time": []}}, "mouseout": {"state": {"target": ["0", "1", "4", "4", "2", "3", "3", "7", "6", "8", "9", "10", "11", "11", "10", "12", "10", "9", "12"], "time": [2172, 2268, 2433, 3065, 3166, 3240, 4164, 5449, 5632, 6201, 6448, 6480, 6812, 7547, 7745, 9017, 9630, 10344, 13408]}, "edge": {"target": [], "time": []}}}, "displayed_time": "17.41", "trialTime": 20406, "trial_type": "mouselab-mdp", "trial_index": 24, "time_elapsed": 933808, "internal_node_id": "0.0-4.0-1.0-15.0"}}, {"uniqueid": "w32248408:a32950982", "current_trial": 25, "dateTime": 1664376491825, "trialdata": {"revealed_states": [], "num_clicks_accrued": [0, 0, 0, 0, 0, 0, 0, 0, 0, 0, 0, 0, 0], "stateRewards": ["", 4, -8, -48, -24, 2, -8, -48, 48, -4, 8, 48, -48], "withholdReward": false, "trial_id": "mdp_605757196263", "block": "test1", "trialIndex": 18, "score": 54.75, "costs": -2.25, "simulationMode": [null, null, null], "rewards": [-4, 8, 48], "path": ["0", "0", "9", "10", "11"], "rt": [33630, 102, 114], "actions": ["left", "left", "up"], "actionTimes": [34982, 35602, 36232], "queries": {"click": {"state": {"target": ["4", "3", "11", "7", "8", "9", "10", "6", "5"], "time": [2713, 3721, 5231, 20345, 21407, 23985, 25053, 26392, 27087]}, "edge": {"target": [], "time": []}}, "mouseover": {"state": {"target": ["1", "4", "2", "3", "7", "11", "10", "12", "10", "10", "9", "10", "10", "9", "10", "10", "9", "7", "6", "8", "9", "10", "5", "6", "5"], "time": [1878, 2178, 2976, 3059, 4092, 4926, 5493, 5861, 7223, 12104, 12168, 14521, 15776, 16019, 16387, 18232, 18833, 19284, 20897, 21097, 23196, 24592, 25527, 26058, 26807]}, "edge": {"target": [], "time": []}}, "mouseout": {"state": {"target": ["0", "1", "4", "2", "3", "7", "11", "10", "12", "10", "10", "9", "10", "10", "9", "10", "11", "10", "9", "7", "6", "8", "8", "9", "10", "9", "5", "6", "5", "5", "6", "8"], "time": [849, 1911, 2927, 3010, 3943, 4615, 5459, 5744, 7141, 11791, 12119, 14433, 14836, 15885, 16269, 17032, 18025, 18797, 18864, 20747, 20995, 21648, 22793, 24559, 25241, 25308, 25708, 26640, 27390, 29476, 37381, 37449]}, "edge": {"target": [], "time": []}}}, "displayed_time": "36.75", "trialTime": 38417, "trial_type": "mouselab-mdp", "trial_index": 25, "time_elapsed": 972308, "internal_node_id": "0.0-4.0-1.0-16.0"}}, {"uniqueid": "w32248408:a32950982", "current_trial": 26, "dateTime": 1664376519172, "trialdata": {"revealed_states": [], "num_clicks_accrued": [0, 0, 0, 0, 0, 0, 0, 0, 0, 0, 0, 0, 0], "stateRewards": ["", -2, 4, -48, -48, 4, 4, 48, -48, 2, 8, 24, 48], "withholdReward": false, "trial_id": "mdp_686771069745", "block": "test1", "trialIndex": 19, "score": 59, "costs": -2, "simulationMode": [null, null, null], "rewards": [4, 4, 48], "path": ["0", "0", "5", "6", "7"], "rt": [16940, 80, 269], "actions": ["right", "right", "up"], "actionTimes": [18494, 19092, 19865], "queries": {"click": {"state": {"target": ["11", "4", "3", "7", "8", "12", "5", "6"], "time": [3806, 5000, 6167, 7098, 8008, 11800, 15184, 16057]}, "edge": {"target": [], "time": []}}, "mouseover": {"state": {"target": ["11", "4", "2", "3", "7", "7", "6", "8", "12", "5", "6"], "time": [2863, 4608, 5376, 5610, 6592, 6871, 7324, 7554, 10601, 14849, 15748]}, "edge": {"target": [], "time": []}}, "mouseout": {"state": {"target": ["0", "11", "4", "2", "3", "7", "7", "6", "8", "8", "12", "5", "6", "8"], "time": [2125, 4062, 5306, 5440, 6409, 6688, 7288, 7456, 8291, 10202, 12051, 15381, 16235, 16798]}, "edge": {"target": [], "time": []}}}, "displayed_time": "20.38", "trialTime": 27261, "trial_type": "mouselab-mdp", "trial_index": 26, "time_elapsed": 999655, "internal_node_id": "0.0-4.0-1.0-17.0"}}, {"uniqueid": "w32248408:a32950982", "current_trial": 27, "dateTime": 1664376542025, "trialdata": {"revealed_states": [], "num_clicks_accrued": [0, 0, 0, 0, 0, 0, 0, 0, 0, 0, 0, 0, 0], "stateRewards": ["", 2, 4, 48, -48, 2, 4, 24, -24, 2, -4, -24, -48], "withholdReward": true, "trial_id": "mdp_706591889062", "block": "test1", "trialIndex": 20, "score": 57.5, "costs": -1.5, "simulationMode": [null, null, null], "rewards": [2, 4, 48], "path": ["0", "0", "1", "2", "3"], "rt": [14582, 125, 313], "actions": ["up", "up", "right"], "actionTimes": [16991, 17635, 18456], "queries": {"click": {"state": {"target": ["7", "12", "11", "8", "4", "3"], "time": [4040, 6370, 7319, 9453, 10687, 11522]}, "edge": {"target": [], "time": []}}, "mouseover": {"state": {"target": ["7", "6", "8", "12", "12", "10", "11", "2", "4", "1", "5", "8", "2", "4", "2", "3", "1"], "time": [3605, 5122, 5288, 5869, 6189, 6934, 7017, 8069, 8483, 8751, 8872, 9201, 9916, 10367, 10997, 11231, 14423]}, "edge": {"target": [], "time": []}}, "mouseout": {"state": {"target": ["0", "7", "6", "8", "12", "12", "10", "11", "2", "4", "1", "5", "8", "2", "4", "2", "3", "1", "0"], "time": [3070, 4420, 5185, 5805, 6018, 6917, 6967, 7533, 8333, 8666, 8766, 8937, 9832, 9949, 10932, 11068, 11749, 21273, 21342]}, "edge": {"target": [], "time": []}}}, "displayed_time": "18.99", "trialTime": 22783, "trial_type": "mouselab-mdp", "trial_index": 27, "time_elapsed": 1022508, "internal_node_id": "0.0-4.0-1.0-18.0"}}, {"uniqueid": "w32248408:a32950982", "current_trial": 28, "dateTime": 1664376563637, "trialdata": {"revealed_states": [], "num_clicks_accrued": [0, 0, 0, 0, 0, 0, 0, 0, 0, 0, 0, 0, 0], "stateRewards": ["", -4, 4, 24, 24, 4, -8, 48, -48, -2, -8, 24, 24], "withholdReward": true, "trial_id": "mdp_395264223239", "block": "test1", "trialIndex": 21, "score": 47.5, "costs": -1.5, "simulationMode": [null, null, null], "rewards": [4, -8, 48], "path": ["0", "0", "5", "6", "7"], "rt": [14258, 172, 210], "actions": ["right", "right", "up"], "actionTimes": [16646, 17331, 18051], "queries": {"click": {"state": {"target": ["4", "3", "7", "8", "11", "12"], "time": [5451, 6504, 7697, 12714, 13783, 14579]}, "edge": {"target": [], "time": []}}, "mouseover": {"state": {"target": ["4", "2", "3", "7", "6", "6", "5", "5", "9", "8", "10", "11", "10", "12"], "time": [3685, 5865, 6083, 7349, 7966, 8451, 8829, 11677, 11895, 12426, 13195, 13579, 14126, 14315]}, "edge": {"target": [], "time": []}}, "mouseout": {"state": {"target": ["0", "4", "2", "3", "7", "6", "6", "5", "5", "9", "8", "10", "11", "10", "12"], "time": [2905, 5832, 5898, 6718, 7917, 8097, 8763, 10262, 11710, 11963, 12977, 13226, 14077, 14192, 14925]}, "edge": {"target": [], "time": []}}}, "displayed_time": "18.56", "trialTime": 21528, "trial_type": "mouselab-mdp", "trial_index": 28, "time_elapsed": 1044120, "internal_node_id": "0.0-4.0-1.0-19.0"}}, {"uniqueid": "w32248408:a32950982", "current_trial": 29, "dateTime": 1664376580992, "trialdata": {"revealed_states": [], "num_clicks_accrued": [0, 0, 0, 0, 0, 0, 0, 0, 0, 0, 0, 0, 0], "stateRewards": ["", 2, 4, 48, -48, 2, -4, 48, 24, -2, -8, -24, 48], "withholdReward": false, "trial_id": "mdp_962424406744", "block": "test1", "trialIndex": 22, "score": 57.75, "costs": -1.25, "simulationMode": [null, null, null], "rewards": [2, 4, 48], "path": ["0", "0", "1", "2", "3"], "rt": [10268, 275, 245], "actions": ["up", "up", "right"], "actionTimes": [11826, 12614, 13377], "queries": {"click": {"state": {"target": ["4", "3", "7", "1", "2"], "time": [2680, 4283, 6727, 9583, 10400]}, "edge": {"target": [], "time": []}}, "mouseover": {"state": {"target": ["4", "2", "3", "7", "6", "5", "1", "2"], "time": [2343, 2921, 3307, 6470, 7021, 7786, 8487, 9971]}, "edge": {"target": [], "time": []}}, "mouseout": {"state": {"target": ["0", "0", "4", "2", "3", "7", "6", "5", "1", "2"], "time": [1193, 2129, 2889, 2955, 4520, 6922, 7689, 8103, 9918, 10667]}, "edge": {"target": [], "time": []}}}, "displayed_time": "13.88", "trialTime": 17287, "trial_type": "mouselab-mdp", "trial_index": 29, "time_elapsed": 1061475, "internal_node_id": "0.0-4.0-1.0-20.0"}}, {"uniqueid": "w32248408:a32950982", "current_trial": 30, "dateTime": 1664376604955, "trialdata": {"revealed_states": [], "num_clicks_accrued": [0, 0, 0, 0, 0, 0, 0, 0, 0, 0, 0, 0, 0], "stateRewards": ["", -4, 8, -48, -48, -4, 4, -24, -48, 2, -4, -24, 24], "withholdReward": false, "trial_id": "mdp_183773275291", "block": "test1", "trialIndex": 23, "score": 25, "costs": -2, "simulationMode": [null, null, null], "rewards": [2, -4, 24], "path": ["0", "0", "9", "10", "12"], "rt": [16067, 18, 99], "actions": ["left", "left", "down"], "actionTimes": [17693, 18229, 18843], "queries": {"click": {"state": {"target": ["4", "3", "7", "8", "11", "12", "10", "9"], "time": [3864, 4854, 5641, 6416, 7886, 8833, 12882, 13509]}, "edge": {"target": [], "time": []}}, "mouseover": {"state": {"target": ["1", "4", "2", "3", "7", "8", "12", "10", "11", "10", "12", "10", "9"], "time": [2526, 2839, 4426, 4554, 5422, 6038, 7184, 7234, 7635, 8121, 8417, 12433, 13263]}, "edge": {"target": [], "time": []}}, "mouseout": {"state": {"target": ["1", "4", "2", "3", "7", "8", "12", "10", "11", "10", "12", "12", "10", "9"], "time": [2556, 4375, 4487, 5123, 5870, 6852, 7201, 7318, 8085, 8184, 9055, 12364, 13197, 13896]}, "edge": {"target": [], "time": []}}}, "displayed_time": "19.36", "trialTime": 23880, "trial_type": "mouselab-mdp", "trial_index": 30, "time_elapsed": 1085437, "internal_node_id": "0.0-4.0-1.0-21.0"}}, {"uniqueid": "w32248408:a32950982", "current_trial": 31, "dateTime": 1664376652350, "trialdata": {"revealed_states": [], "num_clicks_accrued": [0, 0, 0, 0, 0, 0, 0, 0, 0, 0, 0, 0, 0], "stateRewards": ["", -4, 8, -24, 48, 2, -8, 24, 48, 2, -8, -24, -48], "withholdReward": false, "trial_id": "mdp_493778446445", "block": "test1", "trialIndex": 24, "score": 54.5, "costs": -2.5, "simulationMode": [null, null, null], "rewards": [-4, 8, 48], "path": ["0", "0", "1", "2", "4"], "rt": [40992, 251, 166], "actions": ["up", "up", "left"], "actionTimes": [42466, 43206, 43893], "queries": {"click": {"state": {"target": ["4", "3", "11", "12", "7", "8", "1", "2", "5", "6"], "time": [2604, 7366, 9392, 10396, 14329, 15433, 18118, 18715, 20615, 21164]}, "edge": {"target": [], "time": []}}, "mouseover": {"state": {"target": ["4", "2", "3", "3", "11", "10", "12", "9", "1", "7", "6", "8", "5", "1", "2", "5", "6"], "time": [2335, 2804, 2869, 3303, 8402, 9830, 10063, 10814, 11096, 11415, 14658, 14975, 17491, 17796, 18442, 20368, 20903]}, "edge": {"target": [], "time": []}}, "mouseout": {"state": {"target": ["4", "2", "3", "3", "11", "10", "12", "9", "1", "7", "6", "8", "5", "1", "2", "1", "5", "6"], "time": [2789, 2837, 3136, 7998, 9781, 9945, 10664, 10863, 11113, 14594, 14842, 16840, 17591, 18359, 18990, 19042, 20822, 21371]}, "edge": {"target": [], "time": []}}}, "displayed_time": "44.40", "trialTime": 47309, "trial_type": "mouselab-mdp", "trial_index": 31, "time_elapsed": 1132833, "internal_node_id": "0.0-4.0-1.0-22.0"}}, {"uniqueid": "w32248408:a32950982", "current_trial": 32, "dateTime": 1664376677549, "trialdata": {"revealed_states": [], "num_clicks_accrued": [0, 0, 0, 0, 0, 0, 0, 0, 0, 0, 0, 0, 0], "stateRewards": ["", -4, 8, 24, -24, 4, 8, -24, -48, 2, 4, 24, -24], "withholdReward": true, "trial_id": "mdp_782187007008", "block": "test1", "trialIndex": 25, "score": 33, "costs": -2, "simulationMode": [null, null, null], "rewards": [2, 4, 24], "path": ["0", "0", "9", "10", "11"], "rt": [16258, 75, 231], "actions": ["left", "left", "up"], "actionTimes": [17869, 18458, 19196], "queries": {"click": {"state": {"target": ["4", "3", "12", "11", "7", "8", "10", "9"], "time": [6428, 7136, 8316, 9084, 9968, 10565, 13340, 14244]}, "edge": {"target": [], "time": []}}, "mouseover": {"state": {"target": ["2", "9", "4", "2", "3", "0", "12", "10", "11", "1", "7", "6", "8", "10", "9", "0"], "time": [4976, 5242, 6140, 6690, 6773, 7490, 8005, 8539, 8805, 9372, 9739, 10187, 10324, 13118, 13601, 15356]}, "edge": {"target": [], "time": []}}, "mouseout": {"state": {"target": ["8", "0", "2", "9", "4", "2", "3", "0", "12", "10", "11", "1", "7", "6", "8", "8", "10", "9", "0"], "time": [1027, 2289, 5178, 5258, 6656, 6741, 7324, 7523, 8506, 8555, 9304, 9388, 10157, 10220, 10787, 11890, 13551, 14419, 23410]}, "edge": {"target": [], "time": []}}}, "displayed_time": "19.71", "trialTime": 25105, "trial_type": "mouselab-mdp", "trial_index": 32, "time_elapsed": 1158032, "internal_node_id": "0.0-4.0-1.0-23.0"}}, {"uniqueid": "w32248408:a32950982", "current_trial": 33, "dateTime": 1664376700001, "trialdata": {"revealed_states": [], "num_clicks_accrued": [0, 0, 0, 0, 0, 0, 0, 0, 0, 0, 0, 0, 0], "stateRewards": ["", 4, -8, 48, 24, 4, -4, 48, 48, -4, 8, -48, 24], "withholdReward": true, "trial_id": "mdp_303828806348", "block": "test1", "trialIndex": 26, "score": 51.25, "costs": -1.75, "simulationMode": [null, null, null], "rewards": [4, -4, 48], "path": ["0", "0", "5", "6", "7"], "rt": [15926, 921, 77], "actions": ["right", "right", "up"], "actionTimes": [17452, 18883, 19472], "queries": {"click": {"state": {"target": ["4", "3", "7", "1", "2", "5", "6"], "time": [2791, 3457, 7278, 8694, 9341, 12085, 12771]}, "edge": {"target": [], "time": []}}, "mouseover": {"state": {"target": ["4", "2", "3", "7", "6", "5", "1", "2", "5", "6"], "time": [2493, 3038, 3105, 3738, 7738, 8069, 8517, 9004, 9821, 12532]}, "edge": {"target": [], "time": []}}, "mouseout": {"state": {"target": ["4", "2", "3", "7", "6", "5", "1", "2", "5", "6", "6"], "time": [3005, 3072, 3654, 7652, 7985, 8135, 8935, 9566, 12465, 13031, 15296]}, "edge": {"target": [], "time": []}}}, "displayed_time": "19.98", "trialTime": 22391, "trial_type": "mouselab-mdp", "trial_index": 33, "time_elapsed": 1180484, "internal_node_id": "0.0-4.0-1.0-24.0"}}, {"uniqueid": "w32248408:a32950982", "current_trial": 34, "dateTime": 1664376715251, "trialdata": {"revealed_states": [], "num_clicks_accrued": [0, 0, 0, 0, 0, 0, 0, 0, 0, 0, 0, 0, 0], "stateRewards": ["", -2, 4, -48, -48, -4, -8, 48, -48, 2, 4, 48, -48], "withholdReward": true, "trial_id": "mdp_258647270500", "block": "test1", "trialIndex": 27, "score": 58.25, "costs": -0.75, "simulationMode": [null, null, null], "rewards": [2, 4, 48], "path": ["0", "0", "9", "10", "11"], "rt": [5526, 84, 201], "actions": ["left", "left", "up"], "actionTimes": [6587, 7190, 7910], "queries": {"click": {"state": {"target": ["11", "10", "9"], "time": [2635, 4820, 5506]}, "edge": {"target": [], "time": []}}, "mouseover": {"state": {"target": ["1", "4", "11", "10", "12", "10", "9"], "time": [1625, 2028, 2493, 3075, 3792, 4325, 5140]}, "edge": {"target": [], "time": []}}, "mouseout": {"state": {"target": ["0", "1", "4", "11", "10", "12", "10", "9"], "time": [1544, 1660, 2208, 3008, 3141, 4291, 5107, 5806]}, "edge": {"target": [], "time": []}}}, "displayed_time": "10.06", "trialTime": 15177, "trial_type": "mouselab-mdp", "trial_index": 34, "time_elapsed": 1195734, "internal_node_id": "0.0-4.0-1.0-25.0"}}, {"uniqueid": "w32248408:a32950982", "current_trial": 35, "dateTime": 1664376743845, "trialdata": {"revealed_states": [], "num_clicks_accrued": [0, 0, 0, 0, 0, 0, 0, 0, 0, 0, 0, 0, 0], "stateRewards": ["", -4, 4, -48, -48, -4, 8, -24, 24, 2, -4, 48, 48], "withholdReward": true, "trial_id": "mdp_821566905048", "block": "test1", "trialIndex": 28, "score": 49.25, "costs": -1.75, "simulationMode": [null, null, null], "rewards": [2, -4, 48], "path": ["0", "0", "9", "10", "11"], "rt": [22041, 45, 101], "actions": ["left", "left", "up"], "actionTimes": [24561, 25125, 25746], "queries": {"click": {"state": {"target": ["11", "10", "9", "7", "8", "3", "4"], "time": [4375, 7263, 8454, 19338, 20625, 22255, 23094]}, "edge": {"target": [], "time": []}}, "mouseover": {"state": {"target": ["11", "10", "12", "10", "9", "7", "6", "8", "3", "2", "4"], "time": [3950, 4662, 4813, 5712, 7662, 19069, 20067, 20188, 22048, 22536, 22799]}, "edge": {"target": [], "time": []}}, "mouseout": {"state": {"target": ["0", "11", "10", "12", "10", "9", "7", "6", "8", "7", "3", "2", "4"], "time": [3083, 4596, 4763, 5597, 7594, 8676, 20037, 20149, 20883, 21781, 22497, 22736, 23299]}, "edge": {"target": [], "time": []}}}, "displayed_time": "26.26", "trialTime": 28507, "trial_type": "mouselab-mdp", "trial_index": 35, "time_elapsed": 1224327, "internal_node_id": "0.0-4.0-1.0-26.0"}}, {"uniqueid": "w32248408:a32950982", "current_trial": 36, "dateTime": 1664376757514, "trialdata": {"revealed_states": [], "num_clicks_accrued": [0, 0, 0, 0, 0, 0, 0, 0, 0, 0, 0, 0, 0], "stateRewards": ["", 2, 4, 48, 24, -4, 8, 48, 48, 2, -4, -48, -24], "withholdReward": true, "trial_id": "mdp_822099887466", "block": "test1", "trialIndex": 29, "score": 58, "costs": -1, "simulationMode": [null, null, null], "rewards": [2, 4, 48], "path": ["0", "0", "1", "2", "3"], "rt": [6823, 205, 164], "actions": ["up", "up", "right"], "actionTimes": [8129, 8841, 9514], "queries": {"click": {"state": {"target": ["4", "3", "2", "1"], "time": [2163, 2971, 6225, 6853]}, "edge": {"target": [], "time": []}}, "mouseover": {"state": {"target": ["1", "4", "2", "3", "2", "1", "6"], "time": [1706, 1973, 2441, 2525, 5939, 6634, 7255]}, "edge": {"target": [], "time": []}}, "mouseout": {"state": {"target": ["1", "0", "1", "4", "2", "3", "2", "1", "6", "8"], "time": [872, 1628, 1755, 2389, 2471, 3420, 6502, 7154, 11114, 11184]}, "edge": {"target": [], "time": []}}}, "displayed_time": "10.31", "trialTime": 13574, "trial_type": "mouselab-mdp", "trial_index": 36, "time_elapsed": 1237997, "internal_node_id": "0.0-4.0-1.0-27.0"}}, {"uniqueid": "w32248408:a32950982", "current_trial": 37, "dateTime": 1664376787191, "trialdata": {"revealed_states": [], "num_clicks_accrued": [0, 0, 0, 0, 0, 0, 0, 0, 0, 0, 0, 0, 0], "stateRewards": ["", -2, -4, -48, 48, -4, 4, -48, 24, -4, -8, 24, 48], "withholdReward": true, "trial_id": "mdp_264482284450", "block": "test1", "trialIndex": 30, "score": 44.5, "costs": -2.5, "simulationMode": [null, null, null], "rewards": [-2, -4, 48], "path": ["0", "0", "1", "2", "4"], "rt": [22439, 10, 143], "actions": ["up", "up", "left"], "actionTimes": [24927, 25428, 26094], "queries": {"click": {"state": {"target": ["4", "2", "1", "3", "7", "8", "11", "12", "10", "9"], "time": [4433, 7336, 9432, 11201, 12055, 12729, 13767, 14498, 15736, 23415]}, "edge": {"target": [], "time": []}}, "mouseover": {"state": {"target": ["4", "2", "1", "3", "7", "6", "8", "9", "11", "10", "12", "10", "9", "5", "9"], "time": [3568, 7052, 8014, 10644, 11711, 12311, 12393, 13192, 13496, 14007, 14192, 15328, 15992, 22935, 23183]}, "edge": {"target": [], "time": []}}, "mouseout": {"state": {"target": ["0", "0", "4", "2", "1", "1", "3", "7", "6", "8", "9", "11", "10", "12", "12", "10", "9", "5", "9"], "time": [1671, 3078, 6900, 7880, 9944, 10544, 11495, 12263, 12359, 12976, 13258, 13960, 14075, 14891, 15210, 15958, 18788, 22951, 23702]}, "edge": {"target": [], "time": []}}}, "displayed_time": "26.60", "trialTime": 29592, "trial_type": "mouselab-mdp", "trial_index": 37, "time_elapsed": 1267674, "internal_node_id": "0.0-4.0-1.0-28.0"}}, {"uniqueid": "w32248408:a32950982", "current_trial": 38, "dateTime": 1664376810525, "trialdata": {"revealed_states": [], "num_clicks_accrued": [0, 0, 0, 0, 0, 0, 0, 0, 0, 0, 0, 0, 0], "stateRewards": ["", 4, -8, -48, 24, 4, 4, -24, -24, 2, 4, -48, 24], "withholdReward": true, "trial_id": "mdp_626971397185", "block": "test1", "trialIndex": 31, "score": 33, "costs": -2, "simulationMode": [null, null, null], "rewards": [2, 4, 24], "path": ["0", "0", "9", "10", "12"], "rt": [13354, 117, 164], "actions": ["left", "left", "down"], "actionTimes": [15096, 15732, 16411], "queries": {"click": {"state": {"target": ["4", "11", "7", "8", "12", "3", "10", "9"], "time": [3122, 4116, 5661, 7529, 8966, 10090, 12394, 13386]}, "edge": {"target": [], "time": []}}, "mouseover": {"state": {"target": ["4", "11", "7", "8", "12", "9", "1", "3", "10", "9", "9", "0"], "time": [2789, 3873, 5354, 6787, 8336, 9318, 9436, 9634, 11635, 12649, 13179, 13732]}, "edge": {"target": [], "time": []}}, "mouseout": {"state": {"target": ["0", "4", "11", "7", "8", "12", "9", "1", "3", "10", "9", "9", "0"], "time": [2440, 3424, 4404, 5888, 7769, 9269, 9335, 9471, 10283, 12615, 12960, 13681, 13764]}, "edge": {"target": [], "time": []}}}, "displayed_time": "16.93", "trialTime": 23255, "trial_type": "mouselab-mdp", "trial_index": 38, "time_elapsed": 1291008, "internal_node_id": "0.0-4.0-1.0-29.0"}}, {"uniqueid": "w32248408:a32950982", "current_trial": 39, "dateTime": 1664376822826, "trialdata": {"rt": 12288, "stimulus": "<h1> End of block! </h1>\n\nYou have reached the end of the block 1/4. If you need a short break, feel free to take one now before moving on.\n\n<br><br>\nIn the next block, you will complete another 30 rounds of this game.\n\n<br><br>\n<div style='text-align: center;'>Press <code>space</code> to begin.</div>\n<br><br>\n<div style='text-align: center;'>(If the experiment doesn't continue, try clicking on the text and then pressing <code>space</code>.)</div>", "response": " ", "trial_id": "mdp_ready_2", "trial_type": "html-keyboard-response", "trial_index": 39, "time_elapsed": 1303309, "internal_node_id": "0.0-4.0-2.0"}}, {"uniqueid": "w32248408:a32950982", "current_trial": 40, "dateTime": 1664376840512, "trialdata": {"revealed_states": [], "num_clicks_accrued": [0, 0, 0, 0, 0, 0, 0, 0, 0, 0, 0, 0, 0], "stateRewards": ["", -2, 8, -48, 48, -4, 8, -24, 24, 4, -4, 24, -48], "withholdReward": false, "trial_id": "mdp_904238083902", "block": "test2", "trialIndex": 32, "score": 57, "costs": -2, "simulationMode": [null, null, null], "rewards": [-2, 8, 48], "path": ["0", "0", "1", "2", "4"], "rt": [11026, 30, 79], "actions": ["up", "up", "left"], "actionTimes": [13427, 13974, 14588], "queries": {"click": {"state": {"target": ["4", "3", "11", "12", "7", "8", "1", "2"], "time": [3703, 6106, 7396, 7976, 9502, 10448, 11727, 12275]}, "edge": {"target": [], "time": []}}, "mouseover": {"state": {"target": ["1", "4", "1", "3", "3", "1", "11", "11", "10", "12", "0", "5", "7", "6", "8", "6", "1", "2"], "time": [3086, 3436, 4266, 4537, 4784, 6847, 6897, 7199, 7580, 7680, 8312, 8379, 8897, 9711, 10362, 10761, 11543, 11964]}, "edge": {"target": [], "time": []}}, "mouseout": {"state": {"target": ["0", "0", "1", "4", "1", "3", "3", "1", "11", "11", "10", "12", "0", "5", "7", "6", "8", "6", "1", "2"], "time": [1821, 2920, 3101, 3999, 4349, 4566, 6623, 6863, 6932, 7563, 7640, 8234, 8351, 8396, 9678, 9814, 10729, 10816, 11877, 12495]}, "edge": {"target": [], "time": []}}}, "displayed_time": "15.09", "trialTime": 17599, "trial_type": "mouselab-mdp", "trial_index": 40, "time_elapsed": 1320994, "internal_node_id": "0.0-4.0-3.0-0.0"}}, {"uniqueid": "w32248408:a32950982", "current_trial": 41, "dateTime": 1664376858155, "trialdata": {"revealed_states": [], "num_clicks_accrued": [0, 0, 0, 0, 0, 0, 0, 0, 0, 0, 0, 0, 0], "stateRewards": ["", -2, -4, 48, -24, -4, -4, -24, -24, -2, 4, -48, -24], "withholdReward": false, "trial_id": "mdp_410467837196", "block": "test2", "trialIndex": 33, "score": 45, "costs": -2, "simulationMode": [null, null, null], "rewards": [-2, -4, 48], "path": ["0", "0", "1", "2", "3"], "rt": [12280, 100, 22], "actions": ["up", "up", "right"], "actionTimes": [13618, 14227, 14764], "queries": {"click": {"state": {"target": ["4", "11", "12", "3", "1", "2", "7", "8"], "time": [2187, 2995, 3775, 4715, 7282, 8108, 9082, 9731]}, "edge": {"target": [], "time": []}}, "mouseover": {"state": {"target": ["0", "1", "4", "11", "10", "12", "9", "1", "2", "3", "7", "1", "2", "7", "8", "6"], "time": [1345, 1785, 2018, 2617, 3201, 3283, 4000, 4050, 4136, 4467, 5250, 7064, 7664, 8746, 9530, 11460]}, "edge": {"target": [], "time": []}}, "mouseout": {"state": {"target": ["0", "1", "4", "11", "10", "12", "9", "1", "2", "3", "7", "1", "2", "7", "8", "6"], "time": [1677, 1819, 2536, 3168, 3250, 3968, 4017, 4066, 4243, 4950, 6670, 7513, 8317, 9264, 10595, 11877]}, "edge": {"target": [], "time": []}}}, "displayed_time": "15.27", "trialTime": 17557, "trial_type": "mouselab-mdp", "trial_index": 41, "time_elapsed": 1338638, "internal_node_id": "0.0-4.0-3.0-1.0"}}, {"uniqueid": "w32248408:a32950982", "current_trial": 42, "dateTime": 1664376885462, "trialdata": {"revealed_states": [], "num_clicks_accrued": [0, 0, 0, 0, 0, 0, 0, 0, 0, 0, 0, 0, 0], "stateRewards": ["", -2, -4, -24, 48, -4, 8, 48, 48, 2, 8, -48, -24], "withholdReward": true, "trial_id": "mdp_136376573354", "block": "test2", "trialIndex": 34, "score": 54.75, "costs": -2.25, "simulationMode": [null, null, null], "rewards": [-4, 8, 48], "path": ["0", "0", "5", "6", "8"], "rt": [21401, 202, 211], "actions": ["right", "right", "down"], "actionTimes": [22637, 23353, 24078], "queries": {"click": {"state": {"target": ["11", "7", "8", "3", "4", "12", "6", "5", "2"], "time": [2123, 4974, 6314, 8021, 8735, 9688, 11555, 12606, 14087]}, "edge": {"target": [], "time": []}}, "mouseover": {"state": {"target": ["11", "10", "12", "7", "6", "8", "5", "3", "2", "4", "10", "12", "6", "5", "2", "1", "9", "10", "10", "9", "0"], "time": [1620, 2418, 2601, 4973, 5265, 5548, 7134, 7708, 8283, 8363, 8999, 9463, 10911, 12342, 13757, 14377, 18257, 18639, 19526, 19953, 20470]}, "edge": {"target": [], "time": []}}, "mouseout": {"state": {"target": ["5", "11", "10", "12", "7", "6", "8", "5", "3", "2", "4", "10", "12", "6", "5", "5", "2", "1", "9", "10", "10", "9", "0", "5"], "time": [920, 2388, 2468, 2667, 5215, 5449, 6863, 7330, 8249, 8333, 8911, 9028, 9944, 11813, 12828, 13441, 14296, 18020, 18290, 18787, 19756, 20303, 20754, 21551]}, "edge": {"target": [], "time": []}}}, "displayed_time": "24.57", "trialTime": 27210, "trial_type": "mouselab-mdp", "trial_index": 42, "time_elapsed": 1365944, "internal_node_id": "0.0-4.0-3.0-2.0"}}, {"uniqueid": "w32248408:a32950982", "current_trial": 43, "dateTime": 1664376912513, "trialdata": {"revealed_states": [], "num_clicks_accrued": [0, 0, 0, 0, 0, 0, 0, 0, 0, 0, 0, 0, 0], "stateRewards": ["", -4, -8, 48, -24, 4, -8, 48, 48, -2, 4, -48, -24], "withholdReward": true, "trial_id": "mdp_925905402462", "block": "test2", "trialIndex": 35, "score": 46.5, "costs": -2.5, "simulationMode": [null, null, null], "rewards": [4, -8, 48], "path": ["0", "0", "5", "6", "8"], "rt": [21297, 182, 41], "actions": ["right", "right", "down"], "actionTimes": [22728, 23428, 23987], "queries": {"click": {"state": {"target": ["4", "7", "8", "11", "12", "3", "5", "6", "2", "1"], "time": [2301, 3522, 4597, 13641, 14201, 15053, 17291, 18367, 19563, 20399]}, "edge": {"target": [], "time": []}}, "mouseover": {"state": {"target": ["4", "2", "7", "6", "8", "5", "0", "9", "12", "6", "5", "0", "9", "10", "11", "11", "10", "12", "9", "1", "3", "5", "6", "2", "1"], "time": [2081, 2594, 3212, 3794, 4010, 7057, 10538, 10605, 10921, 11688, 12620, 12657, 12687, 12720, 12937, 13220, 13819, 13920, 14456, 14502, 14701, 16367, 18050, 19364, 19965]}, "edge": {"target": [], "time": []}}, "mouseout": {"state": {"target": ["0", "4", "2", "7", "6", "8", "8", "5", "0", "9", "12", "6", "5", "0", "9", "10", "11", "11", "10", "12", "9", "1", "3", "5", "6", "6", "2", "1", "5", "6"], "time": [1079, 2561, 2829, 3694, 3880, 4792, 5176, 10504, 10571, 10638, 11458, 12304, 12655, 12671, 12703, 12871, 13057, 13802, 13868, 14419, 14484, 14568, 15234, 17966, 18681, 18981, 19799, 20647, 21000, 21064]}, "edge": {"target": [], "time": []}}}, "displayed_time": "24.51", "trialTime": 26961, "trial_type": "mouselab-mdp", "trial_index": 43, "time_elapsed": 1392995, "internal_node_id": "0.0-4.0-3.0-3.0"}}, {"uniqueid": "w32248408:a32950982", "current_trial": 44, "dateTime": 1664376932559, "trialdata": {"revealed_states": [], "num_clicks_accrued": [0, 0, 0, 0, 0, 0, 0, 0, 0, 0, 0, 0, 0], "stateRewards": ["", -4, 4, -48, -48, -2, -8, -48, -24, 4, 8, -24, 24], "withholdReward": true, "trial_id": "mdp_449260894259", "block": "test2", "trialIndex": 36, "score": 39, "costs": -2, "simulationMode": [null, null, null], "rewards": [4, 8, 24], "path": ["0", "0", "9", "10", "12"], "rt": [11124, 36, 141], "actions": ["left", "left", "down"], "actionTimes": [12430, 12984, 13655], "queries": {"click": {"state": {"target": ["4", "3", "7", "8", "11", "12", "10", "9"], "time": [3449, 4638, 5528, 6322, 7679, 8328, 10397, 11127]}, "edge": {"target": [], "time": []}}, "mouseover": {"state": {"target": ["0", "9", "4", "2", "3", "7", "6", "8", "9", "10", "11", "10", "12", "10", "9"], "time": [2025, 2174, 3106, 3971, 4321, 5004, 5821, 6005, 6623, 6637, 7288, 7885, 8095, 10176, 10971]}, "edge": {"target": [], "time": []}}, "mouseout": {"state": {"target": ["1", "0", "9", "4", "2", "3", "7", "6", "8", "9", "10", "11", "10", "12", "10", "9"], "time": [1040, 2040, 2190, 3739, 4238, 4904, 5808, 5874, 6569, 6636, 6653, 7857, 7970, 8520, 10706, 11399]}, "edge": {"target": [], "time": []}}}, "displayed_time": "14.16", "trialTime": 19959, "trial_type": "mouselab-mdp", "trial_index": 44, "time_elapsed": 1413042, "internal_node_id": "0.0-4.0-3.0-4.0"}}, {"uniqueid": "w32248408:a32950982", "current_trial": 45, "dateTime": 1664376950347, "trialdata": {"revealed_states": [], "num_clicks_accrued": [0, 0, 0, 0, 0, 0, 0, 0, 0, 0, 0, 0, 0], "stateRewards": ["", 2, 4, 48, -48, 2, -4, 48, 24, -2, -8, -24, 48], "withholdReward": true, "trial_id": "mdp_962424406744", "block": "test2", "trialIndex": 37, "score": 57, "costs": -2, "simulationMode": [null, null, null], "rewards": [2, 4, 48], "path": ["0", "0", "1", "2", "3"], "rt": [12041, 32, 439], "actions": ["up", "up", "right"], "actionTimes": [13070, 13608, 14564], "queries": {"click": {"state": {"target": ["4", "3", "11", "12", "7", "8", "1", "2"], "time": [2739, 3586, 5178, 6000, 7169, 7997, 10504, 11671]}, "edge": {"target": [], "time": []}}, "mouseover": {"state": {"target": ["1", "4", "2", "3", "1", "9", "9", "11", "10", "12", "5", "7", "6", "8", "6", "1", "2"], "time": [1702, 2585, 3033, 3100, 3901, 4167, 4668, 4982, 5399, 5518, 6381, 6897, 7414, 7646, 10034, 10245, 11442]}, "edge": {"target": [], "time": []}}, "mouseout": {"state": {"target": ["0", "1", "4", "2", "3", "1", "9", "9", "11", "10", "12", "5", "7", "6", "8", "6", "1", "1", "2", "1", "0"], "time": [1655, 1719, 3001, 3066, 3799, 3916, 4367, 4767, 5348, 5466, 6263, 6432, 7380, 7548, 8215, 10060, 10956, 11410, 11829, 16639, 16705]}, "edge": {"target": [], "time": []}}}, "displayed_time": "15.07", "trialTime": 17707, "trial_type": "mouselab-mdp", "trial_index": 45, "time_elapsed": 1430830, "internal_node_id": "0.0-4.0-3.0-5.0"}}, {"uniqueid": "w32248408:a32950982", "current_trial": 46, "dateTime": 1664376990854, "trialdata": {"revealed_states": [], "num_clicks_accrued": [0, 0, 0, 0, 0, 0, 0, 0, 0, 0, 0, 0, 0], "stateRewards": ["", -2, -8, -24, 24, -2, -8, -48, 24, -2, -8, 24, 24], "withholdReward": true, "trial_id": "mdp_336617436097", "block": "test2", "trialIndex": 38, "score": 16, "costs": -3, "simulationMode": [null, null, null], "rewards": [-2, -8, 24], "path": ["0", "0", "5", "6", "8"], "rt": [22767, 344, 8605], "actions": ["right", "right", "down"], "actionTimes": [24058, 24917, 34029], "queries": {"click": {"state": {"target": ["12", "11", "4", "3", "7", "8", "6", "10", "2", "9", "1", "5"], "time": [2130, 2947, 3811, 4605, 5265, 5888, 12058, 13278, 15164, 18440, 20107, 21330]}, "edge": {"target": [], "time": []}}, "mouseover": {"state": {"target": ["12", "12", "10", "11", "4", "2", "3", "7", "6", "8", "6", "5", "0", "9", "10", "2", "1", "9", "0", "1", "5"], "time": [1723, 1940, 2422, 2609, 3571, 4038, 4237, 4870, 5453, 5537, 11866, 12682, 12747, 12830, 12997, 14147, 15956, 16311, 18875, 19327, 20425]}, "edge": {"target": [], "time": []}}, "mouseout": {"state": {"target": ["12", "12", "10", "11", "4", "2", "3", "7", "6", "8", "8", "6", "5", "0", "9", "10", "2", "1", "9", "0", "1", "5", "8"], "time": [1741, 2389, 2525, 3204, 3987, 4187, 4803, 5419, 5506, 6136, 10049, 12615, 12714, 12796, 12914, 13798, 15636, 16178, 18776, 19109, 20326, 21523, 21590]}, "edge": {"target": [], "time": []}}}, "displayed_time": "34.53", "trialTime": 40416, "trial_type": "mouselab-mdp", "trial_index": 46, "time_elapsed": 1471336, "internal_node_id": "0.0-4.0-3.0-6.0"}}, {"uniqueid": "w32248408:a32950982", "current_trial": 47, "dateTime": 1664377012754, "trialdata": {"revealed_states": [], "num_clicks_accrued": [0, 0, 0, 0, 0, 0, 0, 0, 0, 0, 0, 0, 0], "stateRewards": ["", -2, -8, 24, -48, 4, 4, -24, -48, -2, -8, -48, 24], "withholdReward": false, "trial_id": "mdp_556006673466", "block": "test2", "trialIndex": 39, "score": 16.5, "costs": -2.5, "simulationMode": [null, null, null], "rewards": [-2, -8, 24], "path": ["0", "0", "9", "10", "12"], "rt": [15765, 27, 78], "actions": ["left", "left", "down"], "actionTimes": [17254, 17799, 18411], "queries": {"click": {"state": {"target": ["4", "11", "12", "3", "7", "8", "1", "2", "10", "9"], "time": [2686, 3658, 4655, 5942, 6605, 7321, 10055, 11542, 13470, 15428]}, "edge": {"target": [], "time": []}}, "mouseover": {"state": {"target": ["4", "11", "10", "12", "0", "3", "7", "6", "8", "5", "1", "2", "9", "10", "9"], "time": [2479, 3478, 3945, 4077, 5010, 5660, 6312, 6791, 7062, 9323, 9805, 10422, 12357, 13303, 15215]}, "edge": {"target": [], "time": []}}, "mouseout": {"state": {"target": ["0", "4", "11", "10", "12", "0", "3", "7", "6", "8", "8", "5", "1", "2", "1", "9", "10", "9"], "time": [1196, 2961, 3877, 4013, 4927, 5110, 6181, 6775, 6808, 7591, 9241, 9424, 10356, 11772, 12053, 13106, 13804, 15752]}, "edge": {"target": [], "time": []}}}, "displayed_time": "18.92", "trialTime": 21823, "trial_type": "mouselab-mdp", "trial_index": 47, "time_elapsed": 1493237, "internal_node_id": "0.0-4.0-3.0-7.0"}}, {"uniqueid": "w32248408:a32950982", "current_trial": 48, "dateTime": 1664377032455, "trialdata": {"revealed_states": [], "num_clicks_accrued": [0, 0, 0, 0, 0, 0, 0, 0, 0, 0, 0, 0, 0], "stateRewards": ["", 2, -8, 24, -24, -2, 8, -48, -48, 2, -8, -24, -48], "withholdReward": true, "trial_id": "mdp_744278669205", "block": "test2", "trialIndex": 40, "score": 21.5, "costs": -1.5, "simulationMode": [null, null, null], "rewards": [2, -8, 24], "path": ["0", "0", "1", "2", "3"], "rt": [13024, 232, 200], "actions": ["up", "up", "right"], "actionTimes": [14990, 15734, 16451], "queries": {"click": {"state": {"target": ["4", "11", "12", "3", "7", "8"], "time": [4211, 5358, 6200, 7330, 8149, 8996]}, "edge": {"target": [], "time": []}}, "mouseover": {"state": {"target": ["1", "4", "1", "1", "11", "10", "12", "9", "1", "3", "3", "7", "7", "6", "8", "6"], "time": [3560, 3843, 4642, 4859, 5210, 5561, 5993, 6392, 6444, 6508, 7118, 7557, 7803, 8391, 8609, 9572]}, "edge": {"target": [], "time": []}}, "mouseout": {"state": {"target": ["0", "1", "4", "1", "1", "11", "10", "12", "9", "1", "3", "3", "7", "7", "6", "8", "6", "3"], "time": [1079, 3644, 4463, 4726, 4910, 5525, 5592, 6377, 6409, 6458, 6758, 7490, 7573, 8356, 8522, 9539, 9589, 9888]}, "edge": {"target": [], "time": []}}}, "displayed_time": "16.97", "trialTime": 19607, "trial_type": "mouselab-mdp", "trial_index": 48, "time_elapsed": 1512937, "internal_node_id": "0.0-4.0-3.0-8.0"}}, {"uniqueid": "w32248408:a32950982", "current_trial": 49, "dateTime": 1664377055452, "trialdata": {"revealed_states": [], "num_clicks_accrued": [0, 0, 0, 0, 0, 0, 0, 0, 0, 0, 0, 0, 0], "stateRewards": ["", -2, 4, 24, 48, 2, 4, -48, -48, 2, 8, 48, -48], "withholdReward": false, "trial_id": "mdp_409609775558", "block": "test2", "trialIndex": 41, "score": 61, "costs": -2, "simulationMode": [null, null, null], "rewards": [2, 8, 48], "path": ["0", "0", "9", "10", "11"], "rt": [11111, 166, 187], "actions": ["left", "left", "up"], "actionTimes": [12951, 13631, 14335], "queries": {"click": {"state": {"target": ["4", "3", "11", "12", "7", "8", "10", "9"], "time": [2808, 3909, 5474, 6424, 8257, 8959, 10741, 11576]}, "edge": {"target": [], "time": []}}, "mouseover": {"state": {"target": ["1", "4", "2", "3", "11", "10", "12", "0", "7", "6", "8", "10", "9"], "time": [2388, 2622, 3106, 3575, 5190, 5702, 5802, 6806, 7201, 8449, 8551, 9634, 11281]}, "edge": {"target": [], "time": []}}, "mouseout": {"state": {"target": ["0", "1", "4", "2", "3", "11", "10", "12", "0", "7", "6", "8", "10", "9"], "time": [1925, 2426, 3053, 3205, 4102, 5672, 5738, 6668, 6822, 8433, 8536, 9233, 11083, 12030]}, "edge": {"target": [], "time": []}}}, "displayed_time": "14.85", "trialTime": 22898, "trial_type": "mouselab-mdp", "trial_index": 49, "time_elapsed": 1535935, "internal_node_id": "0.0-4.0-3.0-9.0"}}, {"uniqueid": "w32248408:a32950982", "current_trial": 50, "dateTime": 1664377074323, "trialdata": {"revealed_states": [], "num_clicks_accrued": [0, 0, 0, 0, 0, 0, 0, 0, 0, 0, 0, 0, 0], "stateRewards": ["", 2, 4, -48, -24, 2, 8, 24, 48, -2, 4, 48, -48], "withholdReward": true, "trial_id": "mdp_551894842204", "block": "test2", "trialIndex": 42, "score": 60.5, "costs": -2.5, "simulationMode": [null, null, null], "rewards": [2, 8, 48], "path": ["0", "0", "5", "6", "8"], "rt": [13017, 126, 52], "actions": ["right", "right", "down"], "actionTimes": [14796, 15441, 15983], "queries": {"click": {"state": {"target": ["4", "11", "12", "7", "8", "3", "10", "9", "6", "5"], "time": [2851, 4013, 4811, 5842, 8394, 9811, 10914, 11562, 12723, 13626]}, "edge": {"target": [], "time": []}}, "mouseover": {"state": {"target": ["4", "1", "11", "10", "12", "6", "7", "6", "8", "6", "3", "5", "9", "10", "9", "6", "5"], "time": [2506, 3574, 3740, 4293, 4457, 5321, 5440, 6039, 6190, 8635, 9353, 10317, 10534, 10705, 11285, 12449, 13049]}, "edge": {"target": [], "time": []}}, "mouseout": {"state": {"target": ["0", "4", "1", "11", "10", "12", "6", "7", "6", "8", "6", "7", "3", "5", "9", "10", "9", "6", "5"], "time": [2323, 3240, 3640, 4239, 4358, 5072, 5404, 6024, 6104, 8621, 8685, 8785, 10000, 10418, 10600, 11099, 11899, 12948, 13831]}, "edge": {"target": [], "time": []}}}, "displayed_time": "16.51", "trialTime": 18757, "trial_type": "mouselab-mdp", "trial_index": 50, "time_elapsed": 1554806, "internal_node_id": "0.0-4.0-3.0-10.0"}}, {"uniqueid": "w32248408:a32950982", "current_trial": 51, "dateTime": 1664377096911, "trialdata": {"revealed_states": [], "num_clicks_accrued": [0, 0, 0, 0, 0, 0, 0, 0, 0, 0, 0, 0, 0], "stateRewards": ["", 4, -8, 24, 48, -2, -4, -48, 24, 2, 4, -48, -24], "withholdReward": true, "trial_id": "mdp_749974461966", "block": "test2", "trialIndex": 43, "score": 47.25, "costs": -1.75, "simulationMode": [null, null, null], "rewards": [4, -8, 48], "path": ["0", "0", "1", "2", "4"], "rt": [16500, 206, 8], "actions": ["up", "up", "left"], "actionTimes": [18840, 19551, 20069], "queries": {"click": {"state": {"target": ["4", "1", "2", "11", "12", "7", "8"], "time": [3752, 5741, 6359, 11472, 14408, 15865, 16894]}, "edge": {"target": [], "time": []}}, "mouseover": {"state": {"target": ["4", "1", "2", "3", "11", "10", "10", "12", "5", "7", "6", "8", "5"], "time": [3439, 5355, 6106, 7536, 11121, 11799, 12766, 14136, 14966, 15147, 16163, 16463, 17878]}, "edge": {"target": [], "time": []}}, "mouseout": {"state": {"target": ["0", "4", "1", "2", "3", "1", "1", "11", "10", "10", "12", "5", "7", "6", "8", "8"], "time": [3123, 4106, 6005, 6658, 9534, 10600, 10900, 11669, 12016, 12782, 14680, 15014, 16113, 16380, 17214, 17828]}, "edge": {"target": [], "time": []}}}, "displayed_time": "20.60", "trialTime": 22494, "trial_type": "mouselab-mdp", "trial_index": 51, "time_elapsed": 1577394, "internal_node_id": "0.0-4.0-3.0-11.0"}}, {"uniqueid": "w32248408:a32950982", "current_trial": 52, "dateTime": 1664377120284, "trialdata": {"revealed_states": [], "num_clicks_accrued": [0, 0, 0, 0, 0, 0, 0, 0, 0, 0, 0, 0, 0], "stateRewards": ["", -2, 4, -24, 48, 4, -8, 48, -48, 2, -8, 48, 24], "withholdReward": true, "trial_id": "mdp_501111216502", "block": "test2", "trialIndex": 44, "score": 52.75, "costs": -2.25, "simulationMode": [null, null, null], "rewards": [-2, 4, 48], "path": ["0", "0", "1", "2", "4"], "rt": [17683, 157, 64], "actions": ["up", "up", "left"], "actionTimes": [19278, 19942, 20516], "queries": {"click": {"state": {"target": ["4", "1", "2", "11", "7", "8", "12", "10", "6"], "time": [2765, 4118, 4950, 8697, 10539, 11845, 13767, 15404, 17723]}, "edge": {"target": [], "time": []}}, "mouseover": {"state": {"target": ["1", "4", "1", "2", "5", "0", "9", "11", "10", "9", "0", "7", "6", "8", "12", "9", "10", "9", "9", "0", "5", "6"], "time": [2216, 2530, 3846, 4446, 6065, 6298, 7060, 7409, 9228, 9807, 9842, 10375, 10840, 10975, 12665, 14487, 14773, 15753, 17118, 17237, 17338, 17417]}, "edge": {"target": [], "time": []}}, "mouseout": {"state": {"target": ["5", "0", "1", "4", "1", "2", "5", "0", "9", "11", "10", "9", "0", "7", "6", "8", "12", "9", "10", "9", "9", "0", "5", "6"], "time": [1083, 2193, 2265, 3048, 4328, 5230, 6162, 6662, 7159, 8892, 9780, 9842, 9857, 10707, 10856, 12122, 14054, 14521, 15703, 15822, 17203, 17302, 17384, 17967]}, "edge": {"target": [], "time": []}}}, "displayed_time": "21.03", "trialTime": 23275, "trial_type": "mouselab-mdp", "trial_index": 52, "time_elapsed": 1600767, "internal_node_id": "0.0-4.0-3.0-12.0"}}, {"uniqueid": "w32248408:a32950982", "current_trial": 53, "dateTime": 1664377149164, "trialdata": {"revealed_states": [], "num_clicks_accrued": [0, 0, 0, 0, 0, 0, 0, 0, 0, 0, 0, 0, 0], "stateRewards": ["", -4, -8, 48, 48, -4, 4, 48, -24, 4, 8, -24, -48], "withholdReward": true, "trial_id": "mdp_142906093415", "block": "test2", "trialIndex": 45, "score": 50.5, "costs": -2.5, "simulationMode": [null, null, null], "rewards": [-4, 4, 48], "path": ["0", "0", "5", "6", "7"], "rt": [22578, 173, 239], "actions": ["right", "right", "up"], "actionTimes": [24146, 24834, 25583], "queries": {"click": {"state": {"target": ["4", "11", "3", "7", "8", "12", "6", "5", "2", "1"], "time": [2753, 4589, 5495, 6631, 7944, 9661, 10738, 11776, 14605, 21191]}, "edge": {"target": [], "time": []}}, "mouseover": {"state": {"target": ["4", "11", "3", "7", "7", "6", "8", "12", "12", "0", "5", "6", "5", "2", "1"], "time": [2432, 3210, 5061, 5775, 6408, 6957, 7323, 8592, 8941, 10005, 10055, 10520, 11489, 12836, 15184]}, "edge": {"target": [], "time": []}}, "mouseout": {"state": {"target": ["0", "4", "11", "3", "7", "7", "6", "8", "12", "12", "0", "5", "6", "5", "5", "2", "1", "5"], "time": [2062, 2977, 4826, 5691, 5807, 6858, 7240, 8505, 8623, 9888, 10021, 10154, 11090, 12003, 12608, 14850, 21496, 22446]}, "edge": {"target": [], "time": []}}}, "displayed_time": "26.09", "trialTime": 28788, "trial_type": "mouselab-mdp", "trial_index": 53, "time_elapsed": 1629647, "internal_node_id": "0.0-4.0-3.0-13.0"}}, {"uniqueid": "w32248408:a32950982", "current_trial": 54, "dateTime": 1664377168453, "trialdata": {"revealed_states": [], "num_clicks_accrued": [0, 0, 0, 0, 0, 0, 0, 0, 0, 0, 0, 0, 0], "stateRewards": ["", 4, 8, -24, 48, -2, -4, 24, -24, -2, 4, 24, 24], "withholdReward": true, "trial_id": "mdp_948713805479", "block": "test2", "trialIndex": 46, "score": 63.75, "costs": -1.25, "simulationMode": [null, null, null], "rewards": [4, 8, 48], "path": ["0", "0", "1", "2", "4"], "rt": [13163, 106, 298], "actions": ["up", "up", "left"], "actionTimes": [14581, 15197, 16005], "queries": {"click": {"state": {"target": ["4", "11", "12", "7", "8"], "time": [2290, 3749, 6179, 7762, 9283]}, "edge": {"target": [], "time": []}}, "mouseover": {"state": {"target": ["4", "11", "9", "12", "0", "5", "7", "6", "8", "5", "1", "6"], "time": [1933, 3232, 4872, 5014, 6512, 6582, 6829, 8045, 8144, 10060, 10893, 11427]}, "edge": {"target": [], "time": []}}, "mouseout": {"state": {"target": ["8", "0", "4", "11", "9", "12", "0", "5", "7", "6", "8", "8", "5", "1", "6"], "time": [817, 1117, 2600, 4098, 4897, 6430, 6529, 6629, 8011, 8094, 9477, 9928, 10428, 11359, 11442]}, "edge": {"target": [], "time": []}}}, "displayed_time": "16.52", "trialTime": 19206, "trial_type": "mouselab-mdp", "trial_index": 54, "time_elapsed": 1648936, "internal_node_id": "0.0-4.0-3.0-14.0"}}, {"uniqueid": "w32248408:a32950982", "current_trial": 55, "dateTime": 1664377193516, "trialdata": {"revealed_states": [], "num_clicks_accrued": [0, 0, 0, 0, 0, 0, 0, 0, 0, 0, 0, 0, 0], "stateRewards": ["", -2, -8, 48, 24, -2, 8, -48, -24, -2, 4, -48, 48], "withholdReward": true, "trial_id": "mdp_295220852217", "block": "test2", "trialIndex": 47, "score": 52.75, "costs": -2.25, "simulationMode": [null, null, null], "rewards": [-2, 4, 48], "path": ["0", "0", "9", "10", "12"], "rt": [18186, 193, 107], "actions": ["left", "left", "down"], "actionTimes": [20194, 20894, 21509], "queries": {"click": {"state": {"target": ["4", "3", "7", "8", "11", "12", "10", "9", "2"], "time": [2889, 4872, 9016, 10203, 11459, 12673, 14817, 15803, 18190]}, "edge": {"target": [], "time": []}}, "mouseover": {"state": {"target": ["1", "4", "2", "3", "7", "6", "8", "10", "11", "10", "12", "10", "9", "1", "2", "1", "0"], "time": [2235, 2383, 4462, 4712, 8176, 9658, 9829, 10773, 10923, 11755, 11972, 14604, 15419, 17018, 17505, 18588, 19333]}, "edge": {"target": [], "time": []}}, "mouseout": {"state": {"target": ["6", "5", "0", "9", "1", "4", "4", "2", "3", "7", "6", "8", "10", "11", "10", "12", "10", "9", "1", "2", "1", "0"], "time": [1032, 1049, 1066, 1332, 2264, 3597, 4414, 4529, 5066, 9325, 9745, 10474, 10890, 11690, 11773, 12924, 15092, 16119, 17186, 18467, 19222, 19350]}, "edge": {"target": [], "time": []}}}, "displayed_time": "22.02", "trialTime": 24966, "trial_type": "mouselab-mdp", "trial_index": 55, "time_elapsed": 1673998, "internal_node_id": "0.0-4.0-3.0-15.0"}}, {"uniqueid": "w32248408:a32950982", "current_trial": 56, "dateTime": 1664377215716, "trialdata": {"revealed_states": [], "num_clicks_accrued": [0, 0, 0, 0, 0, 0, 0, 0, 0, 0, 0, 0, 0], "stateRewards": ["", -4, 4, -24, 48, -2, 8, -48, 24, 2, 4, 48, -48], "withholdReward": true, "trial_id": "mdp_366632183904", "block": "test2", "trialIndex": 48, "score": 57.5, "costs": -1.5, "simulationMode": [null, null, null], "rewards": [2, 4, 48], "path": ["0", "0", "9", "10", "11"], "rt": [16480, 641, 94], "actions": ["left", "left", "up"], "actionTimes": [17833, 18989, 19592], "queries": {"click": {"state": {"target": ["4", "11", "7", "8", "9", "10"], "time": [2273, 3896, 6465, 8028, 10027, 11220]}, "edge": {"target": [], "time": []}}, "mouseover": {"state": {"target": ["1", "4", "11", "9", "5", "6", "7", "0", "8", "5", "1", "9", "10", "0"], "time": [1862, 2110, 3625, 4109, 5163, 5193, 5710, 7589, 7689, 8640, 9537, 9689, 10636, 11752]}, "edge": {"target": [], "time": []}}, "mouseout": {"state": {"target": ["0", "1", "4", "11", "9", "5", "6", "7", "0", "8", "5", "1", "9", "10", "0"], "time": [1758, 1978, 2510, 4058, 4458, 5192, 5208, 6757, 7606, 8257, 8676, 9609, 10521, 11436, 11805]}, "edge": {"target": [], "time": []}}}, "displayed_time": "20.10", "trialTime": 22131, "trial_type": "mouselab-mdp", "trial_index": 56, "time_elapsed": 1696198, "internal_node_id": "0.0-4.0-3.0-16.0"}}, {"uniqueid": "w32248408:a32950982", "current_trial": 57, "dateTime": 1664377242443, "trialdata": {"revealed_states": [], "num_clicks_accrued": [0, 0, 0, 0, 0, 0, 0, 0, 0, 0, 0, 0, 0], "stateRewards": ["", 2, -8, 48, -24, -4, -8, -24, 48, -2, 4, 24, -48], "withholdReward": false, "trial_id": "mdp_186932504904", "block": "test2", "trialIndex": 49, "score": 44.5, "costs": -2.5, "simulationMode": [null, null, null], "rewards": [2, -8, 48], "path": ["0", "0", "1", "2", "3"], "rt": [21615, 48, 108], "actions": ["up", "up", "right"], "actionTimes": [22894, 23450, 24092], "queries": {"click": {"state": {"target": ["4", "3", "7", "8", "11", "12", "5", "1", "2", "6"], "time": [2081, 3425, 4994, 9728, 11425, 12729, 14863, 16454, 17929, 19431]}, "edge": {"target": [], "time": []}}, "mouseover": {"state": {"target": ["1", "4", "1", "3", "7", "6", "8", "9", "11", "10", "12", "0", "5", "5", "1", "2", "6"], "time": [1600, 1887, 2931, 3214, 4748, 5296, 5734, 10742, 11080, 11907, 12173, 13906, 14272, 14672, 15687, 17186, 18735]}, "edge": {"target": [], "time": []}}, "mouseout": {"state": {"target": ["0", "1", "4", "1", "3", "7", "6", "8", "9", "11", "10", "12", "0", "5", "5", "1", "2", "1", "5", "6"], "time": [1498, 1632, 2282, 2981, 3665, 5196, 5446, 10158, 10825, 11726, 12091, 12940, 14210, 14339, 15638, 17038, 18152, 18470, 18702, 19670]}, "edge": {"target": [], "time": []}}}, "displayed_time": "24.60", "trialTime": 26633, "trial_type": "mouselab-mdp", "trial_index": 57, "time_elapsed": 1722925, "internal_node_id": "0.0-4.0-3.0-17.0"}}, {"uniqueid": "w32248408:a32950982", "current_trial": 58, "dateTime": 1664377258531, "trialdata": {"revealed_states": [], "num_clicks_accrued": [0, 0, 0, 0, 0, 0, 0, 0, 0, 0, 0, 0, 0], "stateRewards": ["", -4, 8, -24, -48, 2, 8, -48, -24, -2, -4, 48, -48], "withholdReward": true, "trial_id": "mdp_599927291428", "block": "test2", "trialIndex": 50, "score": 45.75, "costs": -1.25, "simulationMode": [null, null, null], "rewards": [-2, -4, 48], "path": ["0", "0", "9", "10", "11"], "rt": [10909, 98, 70], "actions": ["left", "left", "up"], "actionTimes": [12306, 12923, 13510], "queries": {"click": {"state": {"target": ["4", "3", "7", "8", "11"], "time": [2446, 3582, 4432, 5393, 6417]}, "edge": {"target": [], "time": []}}, "mouseover": {"state": {"target": ["4", "4", "3", "7", "6", "8", "9", "11", "10", "12", "9"], "time": [1933, 2269, 3330, 4069, 4648, 4812, 5944, 6143, 6693, 6927, 9657]}, "edge": {"target": [], "time": []}}, "mouseout": {"state": {"target": ["0", "4", "4", "3", "7", "6", "8", "9", "11", "10", "12", "9"], "time": [1706, 2065, 2717, 3813, 4596, 4765, 5661, 6045, 6644, 6844, 9511, 11090]}, "edge": {"target": [], "time": []}}}, "displayed_time": "14.02", "trialTime": 16009, "trial_type": "mouselab-mdp", "trial_index": 58, "time_elapsed": 1739014, "internal_node_id": "0.0-4.0-3.0-18.0"}}, {"uniqueid": "w32248408:a32950982", "current_trial": 59, "dateTime": 1664377277902, "trialdata": {"revealed_states": [], "num_clicks_accrued": [0, 0, 0, 0, 0, 0, 0, 0, 0, 0, 0, 0, 0], "stateRewards": ["", -2, -4, -24, -48, -4, -8, -48, 24, -4, -8, -24, -48], "withholdReward": false, "trial_id": "mdp_475782454549", "block": "test2", "trialIndex": 51, "score": 15.5, "costs": -1.5, "simulationMode": [null, null, null], "rewards": [-4, -8, 24], "path": ["0", "0", "5", "6", "8"], "rt": [11231, 377, 228], "actions": ["right", "right", "down"], "actionTimes": [13352, 14233, 14967], "queries": {"click": {"state": {"target": ["4", "3", "7", "8", "11", "12"], "time": [3438, 4781, 5557, 6495, 7463, 8313]}, "edge": {"target": [], "time": []}}, "mouseover": {"state": {"target": ["9", "4", "1", "3", "7", "6", "8", "9", "11", "10", "12"], "time": [2497, 2796, 4295, 4412, 5078, 5777, 5944, 6877, 7243, 7693, 7942]}, "edge": {"target": [], "time": []}}, "mouseout": {"state": {"target": ["0", "9", "4", "1", "3", "7", "6", "8", "9", "11", "10", "12"], "time": [2413, 2513, 3781, 4328, 4944, 5730, 5894, 6726, 7009, 7648, 7808, 8542]}, "edge": {"target": [], "time": []}}}, "displayed_time": "15.47", "trialTime": 19293, "trial_type": "mouselab-mdp", "trial_index": 59, "time_elapsed": 1758385, "internal_node_id": "0.0-4.0-3.0-19.0"}}, {"uniqueid": "w32248408:a32950982", "current_trial": 60, "dateTime": 1664377292944, "trialdata": {"revealed_states": [], "num_clicks_accrued": [0, 0, 0, 0, 0, 0, 0, 0, 0, 0, 0, 0, 0], "stateRewards": ["", 2, -4, 24, 24, 2, 4, 24, 24, -4, 8, 24, 48], "withholdReward": true, "trial_id": "mdp_268430387178", "block": "test2", "trialIndex": 52, "score": 55.5, "costs": -1.5, "simulationMode": [null, null, null], "rewards": [-4, 8, 48], "path": ["0", "0", "9", "10", "12"], "rt": [9415, 180, 196], "actions": ["left", "left", "down"], "actionTimes": [10927, 11619, 12331], "queries": {"click": {"state": {"target": ["4", "3", "7", "8", "11", "12"], "time": [2833, 3968, 5425, 6496, 7656, 8513]}, "edge": {"target": [], "time": []}}, "mouseover": {"state": {"target": ["9", "4", "2", "3", "7", "6", "8", "9", "11", "10", "12"], "time": [1979, 2457, 3357, 3558, 4593, 5755, 5923, 7120, 7387, 7919, 8086]}, "edge": {"target": [], "time": []}}, "mouseout": {"state": {"target": ["0", "9", "4", "2", "3", "7", "6", "8", "9", "11", "10"], "time": [1876, 2041, 3323, 3406, 4156, 5622, 5875, 7008, 7136, 7858, 8019]}, "edge": {"target": [], "time": []}}}, "displayed_time": "12.85", "trialTime": 14944, "trial_type": "mouselab-mdp", "trial_index": 60, "time_elapsed": 1773426, "internal_node_id": "0.0-4.0-3.0-20.0"}}, {"uniqueid": "w32248408:a32950982", "current_trial": 61, "dateTime": 1664377307536, "trialdata": {"revealed_states": [], "num_clicks_accrued": [0, 0, 0, 0, 0, 0, 0, 0, 0, 0, 0, 0, 0], "stateRewards": ["", 2, 8, -48, 24, -4, 8, 48, -24, 2, 8, 24, 24], "withholdReward": true, "trial_id": "mdp_175372499314", "block": "test2", "trialIndex": 53, "score": 55.75, "costs": -1.25, "simulationMode": [null, null, null], "rewards": [-4, 8, 48], "path": ["0", "0", "5", "6", "7"], "rt": [8020, 701, 55], "actions": ["right", "right", "up"], "actionTimes": [9661, 10879, 11449], "queries": {"click": {"state": {"target": ["4", "3", "7", "11", "12"], "time": [2505, 3796, 4622, 6622, 7566]}, "edge": {"target": [], "time": []}}, "mouseover": {"state": {"target": ["4", "1", "3", "7", "6", "8", "9", "11", "10", "12"], "time": [2251, 2785, 3167, 4287, 4849, 5016, 6014, 6266, 6813, 7080]}, "edge": {"target": [], "time": []}}, "mouseout": {"state": {"target": ["12", "5", "5", "0", "4", "1", "3", "7", "6", "8", "9", "11", "10", "12"], "time": [601, 952, 1152, 2012, 2700, 2851, 4016, 4819, 4932, 5898, 6081, 6763, 6963, 7846]}, "edge": {"target": [], "time": []}}}, "displayed_time": "11.96", "trialTime": 14476, "trial_type": "mouselab-mdp", "trial_index": 61, "time_elapsed": 1788019, "internal_node_id": "0.0-4.0-3.0-21.0"}}, {"uniqueid": "w32248408:a32950982", "current_trial": 62, "dateTime": 1664377326419, "trialdata": {"revealed_states": [], "num_clicks_accrued": [0, 0, 0, 0, 0, 0, 0, 0, 0, 0, 0, 0, 0], "stateRewards": ["", 2, 8, 48, -48, -2, -4, -24, 24, 4, -4, 48, -48], "withholdReward": false, "trial_id": "mdp_105734044587", "block": "test2", "trialIndex": 54, "score": 61, "costs": -2, "simulationMode": [null, null, null], "rewards": [2, 8, 48], "path": ["0", "0", "1", "2", "3"], "rt": [11799, 143, 65], "actions": ["up", "up", "right"], "actionTimes": [13326, 13976, 14547], "queries": {"click": {"state": {"target": ["4", "3", "7", "8", "11", "12", "1", "2"], "time": [2582, 3543, 4990, 5870, 6945, 8672, 10785, 11878]}, "edge": {"target": [], "time": []}}, "mouseover": {"state": {"target": ["4", "1", "3", "7", "6", "8", "10", "11", "10", "12", "9", "1", "2"], "time": [2357, 2957, 3240, 4688, 5272, 5471, 6486, 6720, 7154, 7339, 9718, 10267, 11599]}, "edge": {"target": [], "time": []}}, "mouseout": {"state": {"target": ["0", "4", "1", "3", "7", "6", "8", "10", "11", "10", "12", "9", "1", "2", "1", "0"], "time": [2074, 2840, 3190, 3739, 5205, 5409, 6120, 6654, 7120, 7253, 9551, 9950, 11549, 12053, 12099, 17146]}, "edge": {"target": [], "time": []}}}, "displayed_time": "15.06", "trialTime": 18794, "trial_type": "mouselab-mdp", "trial_index": 62, "time_elapsed": 1806902, "internal_node_id": "0.0-4.0-3.0-22.0"}}, {"uniqueid": "w32248408:a32950982", "current_trial": 63, "dateTime": 1664377339290, "trialdata": {"revealed_states": [], "num_clicks_accrued": [0, 0, 0, 0, 0, 0, 0, 0, 0, 0, 0, 0, 0], "stateRewards": ["", -2, -8, 24, -24, 4, -8, 48, 48, -4, -8, -24, -48], "withholdReward": true, "trial_id": "mdp_286767261523", "block": "test2", "trialIndex": 55, "score": 47.75, "costs": -1.25, "simulationMode": [null, null, null], "rewards": [4, -8, 48], "path": ["0", "0", "5", "6", "7"], "rt": [7159, 99, 85], "actions": ["right", "right", "up"], "actionTimes": [8519, 9131, 9734], "queries": {"click": {"state": {"target": ["4", "3", "7", "11", "12"], "time": [2215, 3076, 3790, 5397, 6473]}, "edge": {"target": [], "time": []}}, "mouseover": {"state": {"target": ["1", "4", "1", "3", "7", "6", "8", "10", "11", "10", "12"], "time": [1771, 2008, 2470, 2754, 3565, 3984, 4319, 4917, 5134, 5584, 5849]}, "edge": {"target": [], "time": []}}, "mouseout": {"state": {"target": ["0", "1", "4", "1", "3", "7", "6", "8", "10", "11", "10", "12"], "time": [955, 1820, 2386, 2502, 3338, 3934, 4038, 4701, 5050, 5534, 5717, 6750]}, "edge": {"target": [], "time": []}}}, "displayed_time": "10.25", "trialTime": 12792, "trial_type": "mouselab-mdp", "trial_index": 63, "time_elapsed": 1819773, "internal_node_id": "0.0-4.0-3.0-23.0"}}, {"uniqueid": "w32248408:a32950982", "current_trial": 64, "dateTime": 1664377367518, "trialdata": {"revealed_states": [], "num_clicks_accrued": [0, 0, 0, 0, 0, 0, 0, 0, 0, 0, 0, 0, 0], "stateRewards": ["", 2, -4, -48, 24, -4, 4, 24, 24, 2, -8, -24, -48], "withholdReward": true, "trial_id": "mdp_807654778305", "block": "test2", "trialIndex": 56, "score": 26.5, "costs": -2.5, "simulationMode": [null, null, null], "rewards": [-4, 4, 24], "path": ["0", "0", "5", "6", "8"], "rt": [22666, 166, 58], "actions": ["right", "right", "down"], "actionTimes": [24087, 24744, 25318], "queries": {"click": {"state": {"target": ["4", "3", "7", "8", "11", "12", "1", "2", "5", "6"], "time": [2503, 3403, 4571, 5460, 6590, 7257, 11134, 12583, 13654, 18019]}, "edge": {"target": [], "time": []}}, "mouseover": {"state": {"target": ["4", "1", "3", "6", "7", "6", "8", "9", "11", "10", "12", "1", "2", "2", "5", "6", "6"], "time": [2180, 2794, 3144, 4042, 4292, 4808, 5058, 5959, 6341, 6775, 6989, 10786, 11819, 12354, 13317, 14134, 16849]}, "edge": {"target": [], "time": []}}, "mouseout": {"state": {"target": ["0", "4", "1", "3", "6", "7", "6", "8", "9", "11", "10", "12", "1", "2", "2", "5", "6", "6", "8"], "time": [1028, 2743, 2843, 3576, 4092, 4759, 4992, 5825, 5990, 6739, 6874, 7493, 11753, 11853, 12768, 13883, 15350, 18214, 18780]}, "edge": {"target": [], "time": []}}}, "displayed_time": "25.84", "trialTime": 28121, "trial_type": "mouselab-mdp", "trial_index": 64, "time_elapsed": 1848000, "internal_node_id": "0.0-4.0-3.0-24.0"}}, {"uniqueid": "w32248408:a32950982", "current_trial": 65, "dateTime": 1664377385222, "trialdata": {"revealed_states": [], "num_clicks_accrued": [0, 0, 0, 0, 0, 0, 0, 0, 0, 0, 0, 0, 0], "stateRewards": ["", 2, -8, -24, 48, 4, -8, -24, -24, 2, 8, -24, 24], "withholdReward": true, "trial_id": "mdp_480787552818", "block": "test2", "trialIndex": 57, "score": 45.75, "costs": -1.25, "simulationMode": [null, null, null], "rewards": [2, -8, 48], "path": ["0", "0", "1", "2", "4"], "rt": [9736, 79, 306], "actions": ["up", "up", "left"], "actionTimes": [11433, 12001, 12811], "queries": {"click": {"state": {"target": ["4", "11", "12", "7", "8"], "time": [2605, 4724, 6051, 7105, 7922]}, "edge": {"target": [], "time": []}}, "mouseover": {"state": {"target": ["1", "4", "2", "3", "1", "11", "5", "6", "5", "12", "7", "6", "8", "5"], "time": [2129, 2312, 2861, 2994, 4060, 4426, 5160, 5210, 5327, 5893, 6792, 7291, 7458, 8756]}, "edge": {"target": [], "time": []}}, "mouseout": {"state": {"target": ["1", "1", "4", "2", "3", "1", "11", "5", "6", "5", "12", "7", "6", "8", "5"], "time": [1246, 2146, 2812, 2911, 4027, 4162, 5043, 5193, 5314, 5344, 6275, 7259, 7396, 8557, 9225]}, "edge": {"target": [], "time": []}}}, "displayed_time": "13.32", "trialTime": 17601, "trial_type": "mouselab-mdp", "trial_index": 65, "time_elapsed": 1865704, "internal_node_id": "0.0-4.0-3.0-25.0"}}, {"uniqueid": "w32248408:a32950982", "current_trial": 66, "dateTime": 1664377400386, "trialdata": {"revealed_states": [], "num_clicks_accrued": [0, 0, 0, 0, 0, 0, 0, 0, 0, 0, 0, 0, 0], "stateRewards": ["", -2, 8, 48, 24, 2, -8, -24, -48, -4, 8, -48, 24], "withholdReward": false, "trial_id": "mdp_224053025943", "block": "test2", "trialIndex": 58, "score": 57.5, "costs": -1.5, "simulationMode": [null, null, null], "rewards": [-2, 8, 48], "path": ["0", "0", "1", "2", "3"], "rt": [9041, 2, 139], "actions": ["up", "up", "right"], "actionTimes": [10999, 11508, 12178], "queries": {"click": {"state": {"target": ["4", "3", "7", "8", "11", "12"], "time": [2750, 3909, 5853, 6764, 7739, 8614]}, "edge": {"target": [], "time": []}}, "mouseover": {"state": {"target": ["4", "1", "3", "7", "6", "8", "9", "11", "10", "12", "0"], "time": [2545, 3345, 3612, 4312, 6179, 6443, 7142, 7442, 8008, 8325, 9807]}, "edge": {"target": [], "time": []}}, "mouseout": {"state": {"target": ["8", "5", "0", "0", "4", "1", "3", "7", "6", "8", "9", "11", "10", "12", "0", "0"], "time": [913, 1380, 1563, 2117, 3062, 3497, 4111, 6093, 6359, 7012, 7158, 7941, 8124, 8911, 9873, 13778]}, "edge": {"target": [], "time": []}}}, "displayed_time": "12.69", "trialTime": 15062, "trial_type": "mouselab-mdp", "trial_index": 66, "time_elapsed": 1880868, "internal_node_id": "0.0-4.0-3.0-26.0"}}, {"uniqueid": "w32248408:a32950982", "current_trial": 67, "dateTime": 1664377413731, "trialdata": {"revealed_states": [], "num_clicks_accrued": [0, 0, 0, 0, 0, 0, 0, 0, 0, 0, 0, 0, 0], "stateRewards": ["", 4, 4, 48, -48, 4, 4, -48, 24, 2, 8, 24, -48], "withholdReward": true, "trial_id": "mdp_291674656283", "block": "test2", "trialIndex": 59, "score": 59.5, "costs": -1.5, "simulationMode": [null, null, null], "rewards": [4, 4, 48], "path": ["0", "0", "1", "2", "3"], "rt": [7478, 333, 361], "actions": ["up", "up", "right"], "actionTimes": [8749, 9600, 10477], "queries": {"click": {"state": {"target": ["4", "3", "7", "8", "11", "12"], "time": [2457, 3379, 4493, 5405, 6497, 7171]}, "edge": {"target": [], "time": []}}, "mouseover": {"state": {"target": ["1", "4", "1", "3", "7", "6", "8", "11", "10", "12"], "time": [1790, 2137, 2820, 3120, 3625, 4834, 5035, 6267, 6699, 6833]}, "edge": {"target": [], "time": []}}, "mouseout": {"state": {"target": ["0", "1", "4", "1", "3", "7", "6", "8", "11", "10", "12"], "time": [1724, 1937, 2725, 2969, 3569, 4687, 4970, 5617, 6667, 6768, 7416]}, "edge": {"target": [], "time": []}}}, "displayed_time": "10.98", "trialTime": 13244, "trial_type": "mouselab-mdp", "trial_index": 67, "time_elapsed": 1894213, "internal_node_id": "0.0-4.0-3.0-27.0"}}, {"uniqueid": "w32248408:a32950982", "current_trial": 68, "dateTime": 1664377439464, "trialdata": {"revealed_states": [], "num_clicks_accrued": [0, 0, 0, 0, 0, 0, 0, 0, 0, 0, 0, 0, 0], "stateRewards": ["", -2, -4, -24, -24, 4, 8, 24, 24, -2, 8, 48, 48], "withholdReward": true, "trial_id": "mdp_620787912291", "block": "test2", "trialIndex": 60, "score": 57.5, "costs": -1.5, "simulationMode": [null, null, null], "rewards": [-2, 8, 48], "path": ["0", "0", "9", "10", "12"], "rt": [17710, 481, 57], "actions": ["left", "left", "down"], "actionTimes": [21080, 22070, 22643], "queries": {"click": {"state": {"target": ["4", "3", "11", "12", "7", "8"], "time": [9114, 10506, 11516, 12703, 15232, 16382]}, "edge": {"target": [], "time": []}}, "mouseover": {"state": {"target": ["4", "4", "2", "3", "1", "11", "10", "12", "5", "7", "6", "8", "9", "10"], "time": [8382, 8729, 9495, 9612, 10943, 11328, 11880, 12047, 14377, 14659, 15494, 15707, 18425, 19321]}, "edge": {"target": [], "time": []}}, "mouseout": {"state": {"target": ["0", "4", "4", "2", "3", "1", "11", "10", "12", "5", "7", "6", "8", "8", "9", "10"], "time": [3965, 8496, 9461, 9561, 10795, 10960, 11793, 11960, 12942, 14441, 15457, 15574, 16789, 17238, 18579, 20069]}, "edge": {"target": [], "time": []}}}, "displayed_time": "23.17", "trialTime": 25652, "trial_type": "mouselab-mdp", "trial_index": 68, "time_elapsed": 1919946, "internal_node_id": "0.0-4.0-3.0-28.0"}}, {"uniqueid": "w32248408:a32950982", "current_trial": 69, "dateTime": 1664377458463, "trialdata": {"revealed_states": [], "num_clicks_accrued": [0, 0, 0, 0, 0, 0, 0, 0, 0, 0, 0, 0, 0], "stateRewards": ["", -2, -4, -24, 48, -2, -8, -48, -24, 4, 8, 48, 24], "withholdReward": true, "trial_id": "mdp_625355871626", "block": "test2", "trialIndex": 61, "score": 63, "costs": -2, "simulationMode": [null, null, null], "rewards": [4, 8, 48], "path": ["0", "0", "9", "10", "11"], "rt": [12164, 562, 108], "actions": ["left", "left", "up"], "actionTimes": [14507, 15584, 16227], "queries": {"click": {"state": {"target": ["4", "7", "8", "11", "1", "2", "9", "10"], "time": [3401, 4905, 5823, 6783, 9594, 11292, 12492, 13440]}, "edge": {"target": [], "time": []}}, "mouseover": {"state": {"target": ["1", "2", "4", "2", "3", "7", "6", "8", "8", "9", "11", "10", "12", "9", "1", "2", "9", "10"], "time": [2697, 2797, 3063, 3631, 3713, 4662, 5128, 5263, 5628, 6263, 6526, 6960, 7292, 8927, 9258, 10359, 11922, 13071]}, "edge": {"target": [], "time": []}}, "mouseout": {"state": {"target": ["0", "1", "2", "4", "2", "3", "7", "6", "8", "8", "9", "11", "10", "12", "9", "1", "1", "2", "1", "9", "10"], "time": [948, 2764, 2863, 3596, 3679, 3896, 5095, 5230, 5311, 6011, 6428, 6943, 7046, 8860, 8942, 9791, 10291, 11506, 11639, 12772, 13671]}, "edge": {"target": [], "time": []}}}, "displayed_time": "16.74", "trialTime": 18904, "trial_type": "mouselab-mdp", "trial_index": 69, "time_elapsed": 1938946, "internal_node_id": "0.0-4.0-3.0-29.0"}}, {"uniqueid": "w32248408:a32950982", "current_trial": 70, "dateTime": 1664377468652, "trialdata": {"rt": 10179, "stimulus": "<h1> End of block! </h1>\n\nYou have reached the end of the block 2/4. If you need a short break, feel free to take one now before moving on.\n\n<br><br>\nIn the next block, you will complete another 30 rounds of this game.\n\n<br><br>\n<div style='text-align: center;'>Press <code>space</code> to begin.</div>\n<br><br>\n<div style='text-align: center;'>(If the experiment doesn't continue, try clicking on the text and then pressing <code>space</code>.)</div>", "response": " ", "trial_id": "mdp_ready_3", "trial_type": "html-keyboard-response", "trial_index": 70, "time_elapsed": 1949135, "internal_node_id": "0.0-4.0-4.0"}}, {"uniqueid": "w32248408:a32950982", "current_trial": 71, "dateTime": 1664377483257, "trialdata": {"revealed_states": [], "num_clicks_accrued": [0, 0, 0, 0, 0, 0, 0, 0, 0, 0, 0, 0, 0], "stateRewards": ["", -2, -4, -48, -48, -2, -8, 48, -48, 4, -8, -48, 24], "withholdReward": true, "trial_id": "mdp_468495641521", "block": "test3", "trialIndex": 62, "score": 41.75, "costs": -1.25, "simulationMode": [null, null, null], "rewards": [-2, -8, 48], "path": ["0", "0", "5", "6", "7"], "rt": [8631, 548, 76], "actions": ["right", "right", "up"], "actionTimes": [10121, 11186, 11778], "queries": {"click": {"state": {"target": ["4", "3", "7", "11", "12"], "time": [2795, 4283, 5115, 6809, 8057]}, "edge": {"target": [], "time": []}}, "mouseover": {"state": {"target": ["1", "4", "2", "3", "7", "6", "8", "8", "11", "12"], "time": [2127, 2413, 3243, 3625, 4624, 5356, 5457, 5607, 6639, 7221]}, "edge": {"target": [], "time": []}}, "mouseout": {"state": {"target": ["0", "1", "4", "2", "3", "7", "6", "8", "8", "11", "12"], "time": [1194, 2160, 3146, 3409, 4495, 5308, 5406, 5473, 6206, 6988, 8558]}, "edge": {"target": [], "time": []}}}, "displayed_time": "12.29", "trialTime": 14500, "trial_type": "mouselab-mdp", "trial_index": 71, "time_elapsed": 1963740, "internal_node_id": "0.0-4.0-5.0-0.0"}}, {"uniqueid": "w32248408:a32950982", "current_trial": 72, "dateTime": 1664377502508, "trialdata": {"revealed_states": [], "num_clicks_accrued": [0, 0, 0, 0, 0, 0, 0, 0, 0, 0, 0, 0, 0], "stateRewards": ["", -4, -4, 24, -48, -2, 8, -24, -48, -4, 4, 24, -48], "withholdReward": true, "trial_id": "mdp_934626330092", "block": "test3", "trialIndex": 63, "score": 26.5, "costs": -2.5, "simulationMode": [null, null, null], "rewards": [-4, 4, 24], "path": ["0", "0", "9", "10", "11"], "rt": [14186, 37, 257], "actions": ["left", "left", "up"], "actionTimes": [15128, 15672, 16442], "queries": {"click": {"state": {"target": ["4", "3", "7", "8", "11", "12", "9", "10", "1", "2"], "time": [1732, 2519, 3313, 4248, 5321, 6152, 8514, 10192, 11548, 13682]}, "edge": {"target": [], "time": []}}, "mouseover": {"state": {"target": ["0", "4", "1", "3", "7", "6", "8", "8", "12", "11", "10", "12", "9", "10", "1", "2"], "time": [1289, 1495, 2028, 2266, 2746, 3560, 3661, 4090, 4744, 5076, 5560, 5731, 8175, 9240, 11238, 12024]}, "edge": {"target": [], "time": []}}, "mouseout": {"state": {"target": ["0", "0", "4", "1", "3", "7", "6", "8", "8", "12", "11", "10", "12", "9", "10", "9", "1", "2", "1"], "time": [696, 1379, 1962, 2195, 2695, 3515, 3632, 3827, 4594, 4793, 5510, 5609, 6360, 8776, 10475, 11089, 11875, 13902, 14202]}, "edge": {"target": [], "time": []}}}, "displayed_time": "16.95", "trialTime": 19148, "trial_type": "mouselab-mdp", "trial_index": 72, "time_elapsed": 1982990, "internal_node_id": "0.0-4.0-5.0-1.0"}}, {"uniqueid": "w32248408:a32950982", "current_trial": 73, "dateTime": 1664377515927, "trialdata": {"revealed_states": [], "num_clicks_accrued": [0, 0, 0, 0, 0, 0, 0, 0, 0, 0, 0, 0, 0], "stateRewards": ["", 2, 4, -24, -24, 4, 8, -48, 48, 2, 4, -24, -48], "withholdReward": true, "trial_id": "mdp_565165082781", "block": "test3", "trialIndex": 64, "score": 63.5, "costs": -1.5, "simulationMode": [null, null, null], "rewards": [4, 8, 48], "path": ["0", "0", "5", "6", "8"], "rt": [8151, 237, 131], "actions": ["right", "right", "down"], "actionTimes": [9193, 9943, 10588], "queries": {"click": {"state": {"target": ["4", "3", "7", "8", "11", "12"], "time": [2113, 3297, 3949, 5031, 6585, 7820]}, "edge": {"target": [], "time": []}}, "mouseover": {"state": {"target": ["1", "4", "1", "3", "7", "6", "8", "8", "10", "11", "10", "12"], "time": [1596, 1896, 2494, 3128, 3763, 4128, 4194, 4502, 6093, 6294, 6792, 7458]}, "edge": {"target": [], "time": []}}, "mouseout": {"state": {"target": ["0", "1", "4", "1", "3", "7", "6", "8", "8", "10", "11", "10", "12"], "time": [1503, 1632, 2395, 2855, 3478, 4110, 4164, 4277, 5209, 6109, 6742, 7295, 8258]}, "edge": {"target": [], "time": []}}}, "displayed_time": "11.11", "trialTime": 13332, "trial_type": "mouselab-mdp", "trial_index": 73, "time_elapsed": 1996409, "internal_node_id": "0.0-4.0-5.0-2.0"}}, {"uniqueid": "w32248408:a32950982", "current_trial": 74, "dateTime": 1664377535402, "trialdata": {"revealed_states": [], "num_clicks_accrued": [0, 0, 0, 0, 0, 0, 0, 0, 0, 0, 0, 0, 0], "stateRewards": ["", -4, -8, 48, 48, -4, 4, 48, -24, 4, 8, -24, -48], "withholdReward": true, "trial_id": "mdp_142906093415", "block": "test3", "trialIndex": 65, "score": 51.25, "costs": -1.75, "simulationMode": [null, null, null], "rewards": [-4, 4, 48], "path": ["0", "0", "5", "6", "7"], "rt": [13687, 189, 186], "actions": ["right", "right", "up"], "actionTimes": [15263, 15963, 16660], "queries": {"click": {"state": {"target": ["4", "7", "11", "1", "5", "2", "6"], "time": [2603, 4167, 6094, 7373, 9782, 11109, 14115]}, "edge": {"target": [], "time": []}}, "mouseover": {"state": {"target": ["4", "1", "5", "6", "7", "7", "6", "8", "11", "10", "1", "5", "2", "5", "2", "2", "6"], "time": [2359, 2949, 3119, 3218, 3267, 3849, 4382, 5029, 5847, 6331, 6913, 8161, 8712, 9528, 10677, 10910, 11956]}, "edge": {"target": [], "time": []}}, "mouseout": {"state": {"target": ["0", "4", "1", "5", "6", "7", "7", "6", "8", "11", "10", "11", "1", "5", "2", "1", "5", "2", "2", "5", "6"], "time": [2018, 2833, 2983, 3150, 3233, 3300, 4332, 4465, 5298, 6280, 6646, 6752, 7563, 8615, 9211, 9278, 10631, 10710, 11259, 11492, 14340]}, "edge": {"target": [], "time": []}}}, "displayed_time": "17.17", "trialTime": 19374, "trial_type": "mouselab-mdp", "trial_index": 74, "time_elapsed": 2015885, "internal_node_id": "0.0-4.0-5.0-3.0"}}, {"uniqueid": "w