{"condition": 0, "counterbalance": 0, "assignmentId": "a67839834", "workerId": "w62656789", "hitId": "h16343595", "currenttrial": 959, "bonus": 0, "data": [{"uniqueid": "w62656789:a67839834", "current_trial": 0, "dateTime": 1664555033320, "trialdata": {"success": true, "trial_type": "fullscreen", "trial_index": 0, "time_elapsed": 24230, "internal_node_id": "0.0-0.0"}}, {"uniqueid": "w62656789:a67839834", "current_trial": 1, "dateTime": 1664555049294, "trialdata": {"view_history": [{"page_index": 0, "viewing_time": 15971}], "rt": 15971, "trial_id": "exp_instructions_distractor", "trial_type": "instructions", "trial_index": 1, "time_elapsed": 40204, "internal_node_id": "0.0-1.0"}}, {"uniqueid": "w62656789:a67839834", "current_trial": 2, "dateTime": 1664555067123, "trialdata": {"view_history": [{"page_index": 0, "viewing_time": 17827}], "rt": 17828, "trial_id": "color_game_instructions", "trial_type": "instructions", "trial_index": 2, "time_elapsed": 58033, "internal_node_id": "0.0-2.0"}}, {"uniqueid": "w62656789:a67839834", "current_trial": 3, "dateTime": 1664555137230, "trialdata": {"rt": 70106, "stimulus": "<h1> Get ready to start the game! </h1>\n\nThank you for reading the instructions. Get ready start with the first of 5 block(s) of this game.\n<br><br>\nIn this first block, you will complete 90 rounds of this game before moving on.\n<br><br>\nRemember, the better you perform, the bigger your bonus will be!\n<br><br>\n<div style='text-align: center;'>Press <code>space</code> to begin.</div>", "response": " ", "trial_id": "stroop_1_ready_1", "trial_type": "html-keyboard-response", "trial_index": 3, "time_elapsed": 128140, "internal_node_id": "0.0-3.0"}}, {"uniqueid": "w62656789:a67839834", "current_trial": 4, "dateTime": 1664555137886, "trialdata": {"rt": 653, "stimulus": "<p id='stroop-text' class='stroop-blue'>BOTTLE</p>", "response": "b", "stimulus-type": "unrelated", "word": "BOTTLE", "color": "blue", "correct_response": "b", "trial_id": "stroop-trial-1-unrelated-7", "trial_type": "html-keyboard-response", "trial_index": 4, "time_elapsed": 128795, "internal_node_id": "0.0-4.0-0.0"}}, {"uniqueid": "w62656789:a67839834", "current_trial": 5, "dateTime": 1664555139244, "trialdata": {"rt": 843, "stimulus": "<p id='stroop-text' class='stroop-red'>DOG</p>", "response": "r", "stimulus-type": "unrelated", "word": "DOG", "color": "red", "correct_response": "r", "trial_id": "stroop-trial-1-unrelated-5", "trial_type": "html-keyboard-response", "trial_index": 5, "time_elapsed": 130153, "internal_node_id": "0.0-4.0-1.0"}}, {"uniqueid": "w62656789:a67839834", "current_trial": 6, "dateTime": 1664555140603, "trialdata": {"rt": 848, "stimulus": "<p id='stroop-text' class='stroop-red'>DOG</p>", "response": "r", "stimulus-type": "unrelated", "word": "DOG", "color": "red", "correct_response": "r", "trial_id": "stroop-trial-1-unrelated-17", "trial_type": "html-keyboard-response", "trial_index": 6, "time_elapsed": 131512, "internal_node_id": "0.0-4.0-2.0"}}, {"uniqueid": "w62656789:a67839834", "current_trial": 7, "dateTime": 1664555142215, "trialdata": {"rt": 1098, "stimulus": "<p id='stroop-text' class='stroop-yellow'>YELLOW</p>", "response": "y", "stimulus-type": "congruent", "word": "yellow", "color": "yellow", "correct_response": "y", "trial_id": "stroop-trial-1-congruent-10", "trial_type": "html-keyboard-response", "trial_index": 7, "time_elapsed": 133124, "internal_node_id": "0.0-4.0-3.0"}}, {"uniqueid": "w62656789:a67839834", "current_trial": 8, "dateTime": 1664555143691, "trialdata": {"rt": 964, "stimulus": "<p id='stroop-text' class='stroop-blue'>RED</p>", "response": "b", "stimulus-type": "incongruent", "word": "red", "color": "blue", "correct_response": "b", "trial_id": "stroop-trial-1-incongruent-22", "trial_type": "html-keyboard-response", "trial_index": 8, "time_elapsed": 134601, "internal_node_id": "0.0-4.0-4.0"}}, {"uniqueid": "w62656789:a67839834", "current_trial": 9, "dateTime": 1664555145187, "trialdata": {"rt": 983, "stimulus": "<p id='stroop-text' class='stroop-yellow'>DOG</p>", "response": "y", "stimulus-type": "unrelated", "word": "DOG", "color": "yellow", "correct_response": "y", "trial_id": "stroop-trial-1-unrelated-26", "trial_type": "html-keyboard-response", "trial_index": 9, "time_elapsed": 136097, "internal_node_id": "0.0-4.0-5.0"}}, {"uniqueid": "w62656789:a67839834", "current_trial": 10, "dateTime": 1664555146684, "trialdata": {"rt": 991, "stimulus": "<p id='stroop-text' class='stroop-green'>GREEN</p>", "response": "g", "stimulus-type": "congruent", "word": "green", "color": "green", "correct_response": "g", "trial_id": "stroop-trial-1-congruent-14", "trial_type": "html-keyboard-response", "trial_index": 10, "time_elapsed": 137594, "internal_node_id": "0.0-4.0-6.0"}}, {"uniqueid": "w62656789:a67839834", "current_trial": 11, "dateTime": 1664555147835, "trialdata": {"rt": 649, "stimulus": "<p id='stroop-text' class='stroop-green'>GREEN</p>", "response": "g", "stimulus-type": "congruent", "word": "green", "color": "green", "correct_response": "g", "trial_id": "stroop-trial-1-congruent-8", "trial_type": "html-keyboard-response", "trial_index": 11, "time_elapsed": 138745, "internal_node_id": "0.0-4.0-7.0"}}, {"uniqueid": "w62656789:a67839834", "current_trial": 12, "dateTime": 1664555149106, "trialdata": {"rt": 766, "stimulus": "<p id='stroop-text' class='stroop-red'>WINDOW</p>", "response": "r", "stimulus-type": "unrelated", "word": "WINDOW", "color": "red", "correct_response": "r", "trial_id": "stroop-trial-1-unrelated-4", "trial_type": "html-keyboard-response", "trial_index": 12, "time_elapsed": 140016, "internal_node_id": "0.0-4.0-8.0"}}, {"uniqueid": "w62656789:a67839834", "current_trial": 13, "dateTime": 1664555150376, "trialdata": {"rt": 759, "stimulus": "<p id='stroop-text' class='stroop-red'>BOAT</p>", "response": "r", "stimulus-type": "unrelated", "word": "BOAT", "color": "red", "correct_response": "r", "trial_id": "stroop-trial-1-unrelated-8", "trial_type": "html-keyboard-response", "trial_index": 13, "time_elapsed": 141286, "internal_node_id": "0.0-4.0-9.0"}}, {"uniqueid": "w62656789:a67839834", "current_trial": 14, "dateTime": 1664555151571, "trialdata": {"rt": 694, "stimulus": "<p id='stroop-text' class='stroop-green'>GREEN</p>", "response": "g", "stimulus-type": "congruent", "word": "green", "color": "green", "correct_response": "g", "trial_id": "stroop-trial-1-congruent-2", "trial_type": "html-keyboard-response", "trial_index": 14, "time_elapsed": 142481, "internal_node_id": "0.0-4.0-10.0"}}, {"uniqueid": "w62656789:a67839834", "current_trial": 15, "dateTime": 1664555152692, "trialdata": {"rt": 616, "stimulus": "<p id='stroop-text' class='stroop-green'>BRAIN</p>", "response": "g", "stimulus-type": "unrelated", "word": "BRAIN", "color": "green", "correct_response": "g", "trial_id": "stroop-trial-1-unrelated-28", "trial_type": "html-keyboard-response", "trial_index": 15, "time_elapsed": 143602, "internal_node_id": "0.0-4.0-11.0"}}, {"uniqueid": "w62656789:a67839834", "current_trial": 16, "dateTime": 1664555154024, "trialdata": {"rt": 824, "stimulus": "<p id='stroop-text' class='stroop-blue'>WINDOW</p>", "response": "b", "stimulus-type": "unrelated", "word": "WINDOW", "color": "blue", "correct_response": "b", "trial_id": "stroop-trial-1-unrelated-29", "trial_type": "html-keyboard-response", "trial_index": 16, "time_elapsed": 144934, "internal_node_id": "0.0-4.0-12.0"}}, {"uniqueid": "w62656789:a67839834", "current_trial": 17, "dateTime": 1664555155216, "trialdata": {"rt": 676, "stimulus": "<p id='stroop-text' class='stroop-green'>YELLOW</p>", "response": "g", "stimulus-type": "incongruent", "word": "yellow", "color": "green", "correct_response": "g", "trial_id": "stroop-trial-1-incongruent-30", "trial_type": "html-keyboard-response", "trial_index": 17, "time_elapsed": 146126, "internal_node_id": "0.0-4.0-13.0"}}, {"uniqueid": "w62656789:a67839834", "current_trial": 18, "dateTime": 1664555156375, "trialdata": {"rt": 648, "stimulus": "<p id='stroop-text' class='stroop-blue'>YELLOW</p>", "response": "b", "stimulus-type": "incongruent", "word": "yellow", "color": "blue", "correct_response": "b", "trial_id": "stroop-trial-1-incongruent-29", "trial_type": "html-keyboard-response", "trial_index": 18, "time_elapsed": 147285, "internal_node_id": "0.0-4.0-14.0"}}, {"uniqueid": "w62656789:a67839834", "current_trial": 19, "dateTime": 1664555157591, "trialdata": {"rt": 708, "stimulus": "<p id='stroop-text' class='stroop-blue'>BOTTLE</p>", "response": "b", "stimulus-type": "unrelated", "word": "BOTTLE", "color": "blue", "correct_response": "b", "trial_id": "stroop-trial-1-unrelated-2", "trial_type": "html-keyboard-response", "trial_index": 19, "time_elapsed": 148501, "internal_node_id": "0.0-4.0-15.0"}}, {"uniqueid": "w62656789:a67839834", "current_trial": 20, "dateTime": 1664555159653, "trialdata": {"rt": 1554, "stimulus": "<p id='stroop-text' class='stroop-yellow'>RED</p>", "response": "y", "stimulus-type": "incongruent", "word": "red", "color": "yellow", "correct_response": "y", "trial_id": "stroop-trial-1-incongruent-3", "trial_type": "html-keyboard-response", "trial_index": 20, "time_elapsed": 150563, "internal_node_id": "0.0-4.0-16.0"}}, {"uniqueid": "w62656789:a67839834", "current_trial": 21, "dateTime": 1664555161550, "trialdata": {"rt": 1390, "stimulus": "<p id='stroop-text' class='stroop-yellow'>GREEN</p>", "response": "y", "stimulus-type": "incongruent", "word": "green", "color": "yellow", "correct_response": "y", "trial_id": "stroop-trial-1-incongruent-24", "trial_type": "html-keyboard-response", "trial_index": 21, "time_elapsed": 152460, "internal_node_id": "0.0-4.0-17.0"}}, {"uniqueid": "w62656789:a67839834", "current_trial": 22, "dateTime": 1664555162848, "trialdata": {"rt": 788, "stimulus": "<p id='stroop-text' class='stroop-green'>WINDOW</p>", "response": "g", "stimulus-type": "unrelated", "word": "WINDOW", "color": "green", "correct_response": "g", "trial_id": "stroop-trial-1-unrelated-6", "trial_type": "html-keyboard-response", "trial_index": 22, "time_elapsed": 153758, "internal_node_id": "0.0-4.0-18.0"}}, {"uniqueid": "w62656789:a67839834", "current_trial": 23, "dateTime": 1664555163863, "trialdata": {"rt": 502, "stimulus": "<p id='stroop-text' class='stroop-red'>BLUE</p>", "response": "r", "stimulus-type": "incongruent", "word": "blue", "color": "red", "correct_response": "r", "trial_id": "stroop-trial-1-incongruent-2", "trial_type": "html-keyboard-response", "trial_index": 23, "time_elapsed": 154772, "internal_node_id": "0.0-4.0-19.0"}}, {"uniqueid": "w62656789:a67839834", "current_trial": 24, "dateTime": 1664555165025, "trialdata": {"rt": 650, "stimulus": "<p id='stroop-text' class='stroop-blue'>YELLOW</p>", "response": "b", "stimulus-type": "incongruent", "word": "yellow", "color": "blue", "correct_response": "b", "trial_id": "stroop-trial-1-incongruent-27", "trial_type": "html-keyboard-response", "trial_index": 24, "time_elapsed": 155935, "internal_node_id": "0.0-4.0-20.0"}}, {"uniqueid": "w62656789:a67839834", "current_trial": 25, "dateTime": 1664555166218, "trialdata": {"rt": 680, "stimulus": "<p id='stroop-text' class='stroop-yellow'>WINDOW</p>", "response": "y", "stimulus-type": "unrelated", "word": "WINDOW", "color": "yellow", "correct_response": "y", "trial_id": "stroop-trial-1-unrelated-15", "trial_type": "html-keyboard-response", "trial_index": 25, "time_elapsed": 157128, "internal_node_id": "0.0-4.0-21.0"}}, {"uniqueid": "w62656789:a67839834", "current_trial": 26, "dateTime": 1664555167416, "trialdata": {"rt": 693, "stimulus": "<p id='stroop-text' class='stroop-yellow'>RED</p>", "response": "r", "stimulus-type": "incongruent", "word": "red", "color": "yellow", "correct_response": "y", "trial_id": "stroop-trial-1-incongruent-11", "trial_type": "html-keyboard-response", "trial_index": 26, "time_elapsed": 158325, "internal_node_id": "0.0-4.0-22.0"}}, {"uniqueid": "w62656789:a67839834", "current_trial": 27, "dateTime": 1664555169089, "trialdata": {"rt": 1158, "stimulus": "<p id='stroop-text' class='stroop-green'>YELLOW</p>", "response": "g", "stimulus-type": "incongruent", "word": "yellow", "color": "green", "correct_response": "g", "trial_id": "stroop-trial-1-incongruent-13", "trial_type": "html-keyboard-response", "trial_index": 27, "time_elapsed": 159999, "internal_node_id": "0.0-4.0-23.0"}}, {"uniqueid": "w62656789:a67839834", "current_trial": 28, "dateTime": 1664555170454, "trialdata": {"rt": 856, "stimulus": "<p id='stroop-text' class='stroop-blue'>RED</p>", "response": "b", "stimulus-type": "incongruent", "word": "red", "color": "blue", "correct_response": "b", "trial_id": "stroop-trial-1-incongruent-8", "trial_type": "html-keyboard-response", "trial_index": 28, "time_elapsed": 161364, "internal_node_id": "0.0-4.0-24.0"}}, {"uniqueid": "w62656789:a67839834", "current_trial": 29, "dateTime": 1664555172070, "trialdata": {"rt": 1110, "stimulus": "<p id='stroop-text' class='stroop-blue'>CHAIR</p>", "response": "b", "stimulus-type": "unrelated", "word": "CHAIR", "color": "blue", "correct_response": "b", "trial_id": "stroop-trial-1-unrelated-9", "trial_type": "html-keyboard-response", "trial_index": 29, "time_elapsed": 162980, "internal_node_id": "0.0-4.0-25.0"}}, {"uniqueid": "w62656789:a67839834", "current_trial": 30, "dateTime": 1664555173575, "trialdata": {"rt": 999, "stimulus": "<p id='stroop-text' class='stroop-yellow'>BOTTLE</p>", "response": "y", "stimulus-type": "unrelated", "word": "BOTTLE", "color": "yellow", "correct_response": "y", "trial_id": "stroop-trial-1-unrelated-1", "trial_type": "html-keyboard-response", "trial_index": 30, "time_elapsed": 164485, "internal_node_id": "0.0-4.0-26.0"}}, {"uniqueid": "w62656789:a67839834", "current_trial": 31, "dateTime": 1664555174792, "trialdata": {"rt": 715, "stimulus": "<p id='stroop-text' class='stroop-yellow'>WINDOW</p>", "response": "y", "stimulus-type": "unrelated", "word": "WINDOW", "color": "yellow", "correct_response": "y", "trial_id": "stroop-trial-1-unrelated-19", "trial_type": "html-keyboard-response", "trial_index": 31, "time_elapsed": 165702, "internal_node_id": "0.0-4.0-27.0"}}, {"uniqueid": "w62656789:a67839834", "current_trial": 32, "dateTime": 1664555176077, "trialdata": {"rt": 780, "stimulus": "<p id='stroop-text' class='stroop-red'>RED</p>", "response": "r", "stimulus-type": "congruent", "word": "red", "color": "red", "correct_response": "r", "trial_id": "stroop-trial-1-congruent-4", "trial_type": "html-keyboard-response", "trial_index": 32, "time_elapsed": 166987, "internal_node_id": "0.0-4.0-28.0"}}, {"uniqueid": "w62656789:a67839834", "current_trial": 33, "dateTime": 1664555177428, "trialdata": {"rt": 846, "stimulus": "<p id='stroop-text' class='stroop-red'>RED</p>", "response": "r", "stimulus-type": "congruent", "word": "red", "color": "red", "correct_response": "r", "trial_id": "stroop-trial-1-congruent-20", "trial_type": "html-keyboard-response", "trial_index": 33, "time_elapsed": 168338, "internal_node_id": "0.0-4.0-29.0"}}, {"uniqueid": "w62656789:a67839834", "current_trial": 34, "dateTime": 1664555178765, "trialdata": {"rt": 830, "stimulus": "<p id='stroop-text' class='stroop-yellow'>YELLOW</p>", "response": "y", "stimulus-type": "congruent", "word": "yellow", "color": "yellow", "correct_response": "y", "trial_id": "stroop-trial-1-congruent-27", "trial_type": "html-keyboard-response", "trial_index": 34, "time_elapsed": 169675, "internal_node_id": "0.0-4.0-30.0"}}, {"uniqueid": "w62656789:a67839834", "current_trial": 35, "dateTime": 1664555180106, "trialdata": {"rt": 837, "stimulus": "<p id='stroop-text' class='stroop-red'>GREEN</p>", "response": "r", "stimulus-type": "incongruent", "word": "green", "color": "red", "correct_response": "r", "trial_id": "stroop-trial-1-incongruent-18", "trial_type": "html-keyboard-response", "trial_index": 35, "time_elapsed": 171016, "internal_node_id": "0.0-4.0-31.0"}}, {"uniqueid": "w62656789:a67839834", "current_trial": 36, "dateTime": 1664555181301, "trialdata": {"rt": 688, "stimulus": "<p id='stroop-text' class='stroop-yellow'>GREEN</p>", "response": "y", "stimulus-type": "incongruent", "word": "green", "color": "yellow", "correct_response": "y", "trial_id": "stroop-trial-1-incongruent-23", "trial_type": "html-keyboard-response", "trial_index": 36, "time_elapsed": 172210, "internal_node_id": "0.0-4.0-32.0"}}, {"uniqueid": "w62656789:a67839834", "current_trial": 37, "dateTime": 1664555182515, "trialdata": {"rt": 705, "stimulus": "<p id='stroop-text' class='stroop-yellow'>GREEN</p>", "response": "y", "stimulus-type": "incongruent", "word": "green", "color": "yellow", "correct_response": "y", "trial_id": "stroop-trial-1-incongruent-21", "trial_type": "html-keyboard-response", "trial_index": 37, "time_elapsed": 173425, "internal_node_id": "0.0-4.0-33.0"}}, {"uniqueid": "w62656789:a67839834", "current_trial": 38, "dateTime": 1664555183710, "trialdata": {"rt": 685, "stimulus": "<p id='stroop-text' class='stroop-red'>RED</p>", "response": "r", "stimulus-type": "congruent", "word": "red", "color": "red", "correct_response": "r", "trial_id": "stroop-trial-1-congruent-17", "trial_type": "html-keyboard-response", "trial_index": 38, "time_elapsed": 174620, "internal_node_id": "0.0-4.0-34.0"}}, {"uniqueid": "w62656789:a67839834", "current_trial": 39, "dateTime": 1664555184882, "trialdata": {"rt": 666, "stimulus": "<p id='stroop-text' class='stroop-blue'>RED</p>", "response": "b", "stimulus-type": "incongruent", "word": "red", "color": "blue", "correct_response": "b", "trial_id": "stroop-trial-1-incongruent-6", "trial_type": "html-keyboard-response", "trial_index": 39, "time_elapsed": 175792, "internal_node_id": "0.0-4.0-35.0"}}, {"uniqueid": "w62656789:a67839834", "current_trial": 40, "dateTime": 1664555185967, "trialdata": {"rt": 578, "stimulus": "<p id='stroop-text' class='stroop-blue'>BLUE</p>", "response": "b", "stimulus-type": "congruent", "word": "blue", "color": "blue", "correct_response": "b", "trial_id": "stroop-trial-1-congruent-5", "trial_type": "html-keyboard-response", "trial_index": 40, "time_elapsed": 176877, "internal_node_id": "0.0-4.0-36.0"}}, {"uniqueid": "w62656789:a67839834", "current_trial": 41, "dateTime": 1664555187079, "trialdata": {"rt": 602, "stimulus": "<p id='stroop-text' class='stroop-yellow'>YELLOW</p>", "response": "y", "stimulus-type": "congruent", "word": "yellow", "color": "yellow", "correct_response": "y", "trial_id": "stroop-trial-1-congruent-19", "trial_type": "html-keyboard-response", "trial_index": 41, "time_elapsed": 177989, "internal_node_id": "0.0-4.0-37.0"}}, {"uniqueid": "w62656789:a67839834", "current_trial": 42, "dateTime": 1664555188291, "trialdata": {"rt": 710, "stimulus": "<p id='stroop-text' class='stroop-blue'>BLUE</p>", "response": "b", "stimulus-type": "congruent", "word": "blue", "color": "blue", "correct_response": "b", "trial_id": "stroop-trial-1-congruent-29", "trial_type": "html-keyboard-response", "trial_index": 42, "time_elapsed": 179201, "internal_node_id": "0.0-4.0-38.0"}}, {"uniqueid": "w62656789:a67839834", "current_trial": 43, "dateTime": 1664555189491, "trialdata": {"rt": 684, "stimulus": "<p id='stroop-text' class='stroop-red'>GREEN</p>", "response": "r", "stimulus-type": "incongruent", "word": "green", "color": "red", "correct_response": "r", "trial_id": "stroop-trial-1-incongruent-12", "trial_type": "html-keyboard-response", "trial_index": 43, "time_elapsed": 180401, "internal_node_id": "0.0-4.0-39.0"}}, {"uniqueid": "w62656789:a67839834", "current_trial": 44, "dateTime": 1664555190780, "trialdata": {"rt": 777, "stimulus": "<p id='stroop-text' class='stroop-green'>BRAIN</p>", "response": "g", "stimulus-type": "unrelated", "word": "BRAIN", "color": "green", "correct_response": "g", "trial_id": "stroop-trial-1-unrelated-23", "trial_type": "html-keyboard-response", "trial_index": 44, "time_elapsed": 181690, "internal_node_id": "0.0-4.0-40.0"}}, {"uniqueid": "w62656789:a67839834", "current_trial": 45, "dateTime": 1664555191964, "trialdata": {"rt": 683, "stimulus": "<p id='stroop-text' class='stroop-yellow'>FORK</p>", "response": "y", "stimulus-type": "unrelated", "word": "FORK", "color": "yellow", "correct_response": "y", "trial_id": "stroop-trial-1-unrelated-20", "trial_type": "html-keyboard-response", "trial_index": 45, "time_elapsed": 182874, "internal_node_id": "0.0-4.0-41.0"}}, {"uniqueid": "w62656789:a67839834", "current_trial": 46, "dateTime": 1664555193147, "trialdata": {"rt": 668, "stimulus": "<p id='stroop-text' class='stroop-blue'>BOTTLE</p>", "response": "b", "stimulus-type": "unrelated", "word": "BOTTLE", "color": "blue", "correct_response": "b", "trial_id": "stroop-trial-1-unrelated-16", "trial_type": "html-keyboard-response", "trial_index": 46, "time_elapsed": 184057, "internal_node_id": "0.0-4.0-42.0"}}, {"uniqueid": "w62656789:a67839834", "current_trial": 47, "dateTime": 1664555194236, "trialdata": {"rt": 574, "stimulus": "<p id='stroop-text' class='stroop-blue'>BLUE</p>", "response": "b", "stimulus-type": "congruent", "word": "blue", "color": "blue", "correct_response": "b", "trial_id": "stroop-trial-1-congruent-12", "trial_type": "html-keyboard-response", "trial_index": 47, "time_elapsed": 185146, "internal_node_id": "0.0-4.0-43.0"}}, {"uniqueid": "w62656789:a67839834", "current_trial": 48, "dateTime": 1664555195399, "trialdata": {"rt": 661, "stimulus": "<p id='stroop-text' class='stroop-green'>BLUE</p>", "response": "g", "stimulus-type": "incongruent", "word": "blue", "color": "green", "correct_response": "g", "trial_id": "stroop-trial-1-incongruent-17", "trial_type": "html-keyboard-response", "trial_index": 48, "time_elapsed": 186307, "internal_node_id": "0.0-4.0-44.0"}}, {"uniqueid": "w62656789:a67839834", "current_trial": 49, "dateTime": 1664555196533, "trialdata": {"rt": 631, "stimulus": "<p id='stroop-text' class='stroop-blue'>BRAIN</p>", "response": "b", "stimulus-type": "unrelated", "word": "BRAIN", "color": "blue", "correct_response": "b", "trial_id": "stroop-trial-1-unrelated-12", "trial_type": "html-keyboard-response", "trial_index": 49, "time_elapsed": 187442, "internal_node_id": "0.0-4.0-45.0"}}, {"uniqueid": "w62656789:a67839834", "current_trial": 50, "dateTime": 1664555197750, "trialdata": {"rt": 709, "stimulus": "<p id='stroop-text' class='stroop-red'>RED</p>", "response": "r", "stimulus-type": "congruent", "word": "red", "color": "red", "correct_response": "r", "trial_id": "stroop-trial-1-congruent-28", "trial_type": "html-keyboard-response", "trial_index": 50, "time_elapsed": 188660, "internal_node_id": "0.0-4.0-46.0"}}, {"uniqueid": "w62656789:a67839834", "current_trial": 51, "dateTime": 1664555198811, "trialdata": {"rt": 556, "stimulus": "<p id='stroop-text' class='stroop-red'>RED</p>", "response": "r", "stimulus-type": "congruent", "word": "red", "color": "red", "correct_response": "r", "trial_id": "stroop-trial-1-congruent-3", "trial_type": "html-keyboard-response", "trial_index": 51, "time_elapsed": 189721, "internal_node_id": "0.0-4.0-47.0"}}, {"uniqueid": "w62656789:a67839834", "current_trial": 52, "dateTime": 1664555199990, "trialdata": {"rt": 677, "stimulus": "<p id='stroop-text' class='stroop-blue'>BLUE</p>", "response": "b", "stimulus-type": "congruent", "word": "blue", "color": "blue", "correct_response": "b", "trial_id": "stroop-trial-1-congruent-18", "trial_type": "html-keyboard-response", "trial_index": 52, "time_elapsed": 190900, "internal_node_id": "0.0-4.0-48.0"}}, {"uniqueid": "w62656789:a67839834", "current_trial": 53, "dateTime": 1664555201199, "trialdata": {"rt": 693, "stimulus": "<p id='stroop-text' class='stroop-red'>WINDOW</p>", "response": "r", "stimulus-type": "unrelated", "word": "WINDOW", "color": "red", "correct_response": "r", "trial_id": "stroop-trial-1-unrelated-11", "trial_type": "html-keyboard-response", "trial_index": 53, "time_elapsed": 192109, "internal_node_id": "0.0-4.0-49.0"}}, {"uniqueid": "w62656789:a67839834", "current_trial": 54, "dateTime": 1664555202430, "trialdata": {"rt": 721, "stimulus": "<p id='stroop-text' class='stroop-yellow'>YELLOW</p>", "response": "y", "stimulus-type": "congruent", "word": "yellow", "color": "yellow", "correct_response": "y", "trial_id": "stroop-trial-1-congruent-13", "trial_type": "html-keyboard-response", "trial_index": 54, "time_elapsed": 193340, "internal_node_id": "0.0-4.0-50.0"}}, {"uniqueid": "w62656789:a67839834", "current_trial": 55, "dateTime": 1664555203843, "trialdata": {"rt": 900, "stimulus": "<p id='stroop-text' class='stroop-yellow'>BRAIN</p>", "response": "y", "stimulus-type": "unrelated", "word": "BRAIN", "color": "yellow", "correct_response": "y", "trial_id": "stroop-trial-1-unrelated-10", "trial_type": "html-keyboard-response", "trial_index": 55, "time_elapsed": 194753, "internal_node_id": "0.0-4.0-51.0"}}, {"uniqueid": "w62656789:a67839834", "current_trial": 56, "dateTime": 1664555205001, "trialdata": {"rt": 648, "stimulus": "<p id='stroop-text' class='stroop-yellow'>YELLOW</p>", "response": "y", "stimulus-type": "congruent", "word": "yellow", "color": "yellow", "correct_response": "y", "trial_id": "stroop-trial-1-congruent-22", "trial_type": "html-keyboard-response", "trial_index": 56, "time_elapsed": 195910, "internal_node_id": "0.0-4.0-52.0"}}, {"uniqueid": "w62656789:a67839834", "current_trial": 57, "dateTime": 1664555206370, "trialdata": {"rt": 856, "stimulus": "<p id='stroop-text' class='stroop-yellow'>BLUE</p>", "response": "y", "stimulus-type": "incongruent", "word": "blue", "color": "yellow", "correct_response": "y", "trial_id": "stroop-trial-1-incongruent-10", "trial_type": "html-keyboard-response", "trial_index": 57, "time_elapsed": 197280, "internal_node_id": "0.0-4.0-53.0"}}, {"uniqueid": "w62656789:a67839834", "current_trial": 58, "dateTime": 1664555207564, "trialdata": {"rt": 688, "stimulus": "<p id='stroop-text' class='stroop-green'>GREEN</p>", "response": "g", "stimulus-type": "congruent", "word": "green", "color": "green", "correct_response": "g", "trial_id": "stroop-trial-1-congruent-26", "trial_type": "html-keyboard-response", "trial_index": 58, "time_elapsed": 198474, "internal_node_id": "0.0-4.0-54.0"}}, {"uniqueid": "w62656789:a67839834", "current_trial": 59, "dateTime": 1664555208608, "trialdata": {"rt": 541, "stimulus": "<p id='stroop-text' class='stroop-green'>GREEN</p>", "response": "g", "stimulus-type": "congruent", "word": "green", "color": "green", "correct_response": "g", "trial_id": "stroop-trial-1-congruent-16", "trial_type": "html-keyboard-response", "trial_index": 59, "time_elapsed": 199518, "internal_node_id": "0.0-4.0-55.0"}}, {"uniqueid": "w62656789:a67839834", "current_trial": 60, "dateTime": 1664555209678, "trialdata": {"rt": 568, "stimulus": "<p id='stroop-text' class='stroop-blue'>RED</p>", "response": "b", "stimulus-type": "incongruent", "word": "red", "color": "blue", "correct_response": "b", "trial_id": "stroop-trial-1-incongruent-4", "trial_type": "html-keyboard-response", "trial_index": 60, "time_elapsed": 200588, "internal_node_id": "0.0-4.0-56.0"}}, {"uniqueid": "w62656789:a67839834", "current_trial": 61, "dateTime": 1664555210879, "trialdata": {"rt": 699, "stimulus": "<p id='stroop-text' class='stroop-yellow'>RED</p>", "response": "y", "stimulus-type": "incongruent", "word": "red", "color": "yellow", "correct_response": "y", "trial_id": "stroop-trial-1-incongruent-16", "trial_type": "html-keyboard-response", "trial_index": 61, "time_elapsed": 201788, "internal_node_id": "0.0-4.0-57.0"}}, {"uniqueid": "w62656789:a67839834", "current_trial": 62, "dateTime": 1664555212316, "trialdata": {"rt": 928, "stimulus": "<p id='stroop-text' class='stroop-blue'>GREEN</p>", "response": "b", "stimulus-type": "incongruent", "word": "green", "color": "blue", "correct_response": "b", "trial_id": "stroop-trial-1-incongruent-28", "trial_type": "html-keyboard-response", "trial_index": 62, "time_elapsed": 203226, "internal_node_id": "0.0-4.0-58.0"}}, {"uniqueid": "w62656789:a67839834", "current_trial": 63, "dateTime": 1664555213507, "trialdata": {"rt": 688, "stimulus": "<p id='stroop-text' class='stroop-red'>BLUE</p>", "response": "r", "stimulus-type": "incongruent", "word": "blue", "color": "red", "correct_response": "r", "trial_id": "stroop-trial-1-incongruent-26", "trial_type": "html-keyboard-response", "trial_index": 63, "time_elapsed": 204416, "internal_node_id": "0.0-4.0-59.0"}}, {"uniqueid": "w62656789:a67839834", "current_trial": 64, "dateTime": 1664555214594, "trialdata": {"rt": 572, "stimulus": "<p id='stroop-text' class='stroop-red'>DOG</p>", "response": "r", "stimulus-type": "unrelated", "word": "DOG", "color": "red", "correct_response": "r", "trial_id": "stroop-trial-1-unrelated-18", "trial_type": "html-keyboard-response", "trial_index": 64, "time_elapsed": 205504, "internal_node_id": "0.0-4.0-60.0"}}, {"uniqueid": "w62656789:a67839834", "current_trial": 65, "dateTime": 1664555215784, "trialdata": {"rt": 685, "stimulus": "<p id='stroop-text' class='stroop-green'>FORK</p>", "response": "g", "stimulus-type": "unrelated", "word": "FORK", "color": "green", "correct_response": "g", "trial_id": "stroop-trial-1-unrelated-22", "trial_type": "html-keyboard-response", "trial_index": 65, "time_elapsed": 206694, "internal_node_id": "0.0-4.0-61.0"}}, {"uniqueid": "w62656789:a67839834", "current_trial": 66, "dateTime": 1664555216810, "trialdata": {"rt": 522, "stimulus": "<p id='stroop-text' class='stroop-green'>RED</p>", "response": "g", "stimulus-type": "incongruent", "word": "red", "color": "green", "correct_response": "g", "trial_id": "stroop-trial-1-incongruent-25", "trial_type": "html-keyboard-response", "trial_index": 66, "time_elapsed": 207719, "internal_node_id": "0.0-4.0-62.0"}}, {"uniqueid": "w62656789:a67839834", "current_trial": 67, "dateTime": 1664555217920, "trialdata": {"rt": 608, "stimulus": "<p id='stroop-text' class='stroop-red'>RED</p>", "response": "r", "stimulus-type": "congruent", "word": "red", "color": "red", "correct_response": "r", "trial_id": "stroop-trial-1-congruent-1", "trial_type": "html-keyboard-response", "trial_index": 67, "time_elapsed": 208830, "internal_node_id": "0.0-4.0-63.0"}}, {"uniqueid": "w62656789:a67839834", "current_trial": 68, "dateTime": 1664555219037, "trialdata": {"rt": 605, "stimulus": "<p id='stroop-text' class='stroop-yellow'>BOTTLE</p>", "response": "y", "stimulus-type": "unrelated", "word": "BOTTLE", "color": "yellow", "correct_response": "y", "trial_id": "stroop-trial-1-unrelated-25", "trial_type": "html-keyboard-response", "trial_index": 68, "time_elapsed": 209947, "internal_node_id": "0.0-4.0-64.0"}}, {"uniqueid": "w62656789:a67839834", "current_trial": 69, "dateTime": 1664555220231, "trialdata": {"rt": 687, "stimulus": "<p id='stroop-text' class='stroop-red'>RED</p>", "response": "r", "stimulus-type": "congruent", "word": "red", "color": "red", "correct_response": "r", "trial_id": "stroop-trial-1-congruent-24", "trial_type": "html-keyboard-response", "trial_index": 69, "time_elapsed": 211140, "internal_node_id": "0.0-4.0-65.0"}}, {"uniqueid": "w62656789:a67839834", "current_trial": 70, "dateTime": 1664555221348, "trialdata": {"rt": 609, "stimulus": "<p id='stroop-text' class='stroop-red'>RED</p>", "response": "r", "stimulus-type": "congruent", "word": "red", "color": "red", "correct_response": "r", "trial_id": "stroop-trial-1-congruent-7", "trial_type": "html-keyboard-response", "trial_index": 70, "time_elapsed": 212258, "internal_node_id": "0.0-4.0-66.0"}}, {"uniqueid": "w62656789:a67839834", "current_trial": 71, "dateTime": 1664555222447, "trialdata": {"rt": 585, "stimulus": "<p id='stroop-text' class='stroop-yellow'>MONKEY</p>", "response": "y", "stimulus-type": "unrelated", "word": "MONKEY", "color": "yellow", "correct_response": "y", "trial_id": "stroop-trial-1-unrelated-30", "trial_type": "html-keyboard-response", "trial_index": 71, "time_elapsed": 213357, "internal_node_id": "0.0-4.0-67.0"}}, {"uniqueid": "w62656789:a67839834", "current_trial": 72, "dateTime": 1664555223571, "trialdata": {"rt": 616, "stimulus": "<p id='stroop-text' class='stroop-green'>GREEN</p>", "response": "g", "stimulus-type": "congruent", "word": "green", "color": "green", "correct_response": "g", "trial_id": "stroop-trial-1-congruent-9", "trial_type": "html-keyboard-response", "trial_index": 72, "time_elapsed": 214481, "internal_node_id": "0.0-4.0-68.0"}}, {"uniqueid": "w62656789:a67839834", "current_trial": 73, "dateTime": 1664555224677, "trialdata": {"rt": 599, "stimulus": "<p id='stroop-text' class='stroop-blue'>DOG</p>", "response": "b", "stimulus-type": "unrelated", "word": "DOG", "color": "blue", "correct_response": "b", "trial_id": "stroop-trial-1-unrelated-3", "trial_type": "html-keyboard-response", "trial_index": 73, "time_elapsed": 215587, "internal_node_id": "0.0-4.0-69.0"}}, {"uniqueid": "w62656789:a67839834", "current_trial": 74, "dateTime": 1664555225983, "trialdata": {"rt": 802, "stimulus": "<p id='stroop-text' class='stroop-blue'>MONKEY</p>", "response": "b", "stimulus-type": "unrelated", "word": "MONKEY", "color": "blue", "correct_response": "b", "trial_id": "stroop-trial-1-unrelated-21", "trial_type": "html-keyboard-response", "trial_index": 74, "time_elapsed": 216893, "internal_node_id": "0.0-4.0-70.0"}}, {"uniqueid": "w62656789:a67839834", "current_trial": 75, "dateTime": 1664555227075, "trialdata": {"rt": 588, "stimulus": "<p id='stroop-text' class='stroop-blue'>SHIP</p>", "response": "b", "stimulus-type": "unrelated", "word": "SHIP", "color": "blue", "correct_response": "b", "trial_id": "stroop-trial-1-unrelated-24", "trial_type": "html-keyboard-response", "trial_index": 75, "time_elapsed": 217985, "internal_node_id": "0.0-4.0-71.0"}}, {"uniqueid": "w62656789:a67839834", "current_trial": 76, "dateTime": 1664555228106, "trialdata": {"rt": 527, "stimulus": "<p id='stroop-text' class='stroop-blue'>YELLOW</p>", "response": "b", "stimulus-type": "incongruent", "word": "yellow", "color": "blue", "correct_response": "b", "trial_id": "stroop-trial-1-incongruent-14", "trial_type": "html-keyboard-response", "trial_index": 76, "time_elapsed": 219016, "internal_node_id": "0.0-4.0-72.0"}}, {"uniqueid": "w62656789:a67839834", "current_trial": 77, "dateTime": 1664555229139, "trialdata": {"rt": 531, "stimulus": "<p id='stroop-text' class='stroop-red'>RED</p>", "response": "r", "stimulus-type": "congruent", "word": "red", "color": "red", "correct_response": "r", "trial_id": "stroop-trial-1-congruent-25", "trial_type": "html-keyboard-response", "trial_index": 77, "time_elapsed": 220049, "internal_node_id": "0.0-4.0-73.0"}}, {"uniqueid": "w62656789:a67839834", "current_trial": 78, "dateTime": 1664555230411, "trialdata": {"rt": 761, "stimulus": "<p id='stroop-text' class='stroop-green'>RED</p>", "response": "g", "stimulus-type": "incongruent", "word": "red", "color": "green", "correct_response": "g", "trial_id": "stroop-trial-1-incongruent-1", "trial_type": "html-keyboard-response", "trial_index": 78, "time_elapsed": 221321, "internal_node_id": "0.0-4.0-74.0"}}, {"uniqueid": "w62656789:a67839834", "current_trial": 79, "dateTime": 1664555231505, "trialdata": {"rt": 587, "stimulus": "<p id='stroop-text' class='stroop-green'>RED</p>", "response": "g", "stimulus-type": "incongruent", "word": "red", "color": "green", "correct_response": "g", "trial_id": "stroop-trial-1-incongruent-7", "trial_type": "html-keyboard-response", "trial_index": 79, "time_elapsed": 222415, "internal_node_id": "0.0-4.0-75.0"}}, {"uniqueid": "w62656789:a67839834", "current_trial": 80, "dateTime": 1664555232549, "trialdata": {"rt": 541, "stimulus": "<p id='stroop-text' class='stroop-yellow'>YELLOW</p>", "response": "y", "stimulus-type": "congruent", "word": "yellow", "color": "yellow", "correct_response": "y", "trial_id": "stroop-trial-1-congruent-11", "trial_type": "html-keyboard-response", "trial_index": 80, "time_elapsed": 223459, "internal_node_id": "0.0-4.0-76.0"}}, {"uniqueid": "w62656789:a67839834", "current_trial": 81, "dateTime": 1664555233659, "trialdata": {"rt": 595, "stimulus": "<p id='stroop-text' class='stroop-red'>RED</p>", "response": "r", "stimulus-type": "congruent", "word": "red", "color": "red", "correct_response": "r", "trial_id": "stroop-trial-1-congruent-21", "trial_type": "html-keyboard-response", "trial_index": 81, "time_elapsed": 224569, "internal_node_id": "0.0-4.0-77.0"}}, {"uniqueid": "w62656789:a67839834", "current_trial": 82, "dateTime": 1664555234893, "trialdata": {"rt": 719, "stimulus": "<p id='stroop-text' class='stroop-red'>BRIDGE</p>", "response": "r", "stimulus-type": "unrelated", "word": "BRIDGE", "color": "red", "correct_response": "r", "trial_id": "stroop-trial-1-unrelated-14", "trial_type": "html-keyboard-response", "trial_index": 82, "time_elapsed": 225803, "internal_node_id": "0.0-4.0-78.0"}}, {"uniqueid": "w62656789:a67839834", "current_trial": 83, "dateTime": 1664555236044, "trialdata": {"rt": 649, "stimulus": "<p id='stroop-text' class='stroop-blue'>BLUE</p>", "response": "b", "stimulus-type": "congruent", "word": "blue", "color": "blue", "correct_response": "b", "trial_id": "stroop-trial-1-congruent-30", "trial_type": "html-keyboard-response", "trial_index": 83, "time_elapsed": 226954, "internal_node_id": "0.0-4.0-79.0"}}, {"uniqueid": "w62656789:a67839834", "current_trial": 84, "dateTime": 1664555237286, "trialdata": {"rt": 733, "stimulus": "<p id='stroop-text' class='stroop-red'>GREEN</p>", "response": "r", "stimulus-type": "incongruent", "word": "green", "color": "red", "correct_response": "r", "trial_id": "stroop-trial-1-incongruent-9", "trial_type": "html-keyboard-response", "trial_index": 84, "time_elapsed": 228196, "internal_node_id": "0.0-4.0-80.0"}}, {"uniqueid": "w62656789:a67839834", "current_trial": 85, "dateTime": 1664555238370, "trialdata": {"rt": 575, "stimulus": "<p id='stroop-text' class='stroop-green'>GREEN</p>", "response": "g", "stimulus-type": "congruent", "word": "green", "color": "green", "correct_response": "g", "trial_id": "stroop-trial-1-congruent-6", "trial_type": "html-keyboard-response", "trial_index": 85, "time_elapsed": 229280, "internal_node_id": "0.0-4.0-81.0"}}, {"uniqueid": "w62656789:a67839834", "current_trial": 86, "dateTime": 1664555239535, "trialdata": {"rt": 656, "stimulus": "<p id='stroop-text' class='stroop-yellow'>BLUE</p>", "response": "y", "stimulus-type": "incongruent", "word": "blue", "color": "yellow", "correct_response": "y", "trial_id": "stroop-trial-1-incongruent-20", "trial_type": "html-keyboard-response", "trial_index": 86, "time_elapsed": 230445, "internal_node_id": "0.0-4.0-82.0"}}, {"uniqueid": "w62656789:a67839834", "current_trial": 87, "dateTime": 1664555240567, "trialdata": {"rt": 527, "stimulus": "<p id='stroop-text' class='stroop-yellow'>GREEN</p>", "response": "y", "stimulus-type": "incongruent", "word": "green", "color": "yellow", "correct_response": "y", "trial_id": "stroop-trial-1-incongruent-5", "trial_type": "html-keyboard-response", "trial_index": 87, "time_elapsed": 231477, "internal_node_id": "0.0-4.0-83.0"}}, {"uniqueid": "w62656789:a67839834", "current_trial": 88, "dateTime": 1664555241727, "trialdata": {"rt": 649, "stimulus": "<p id='stroop-text' class='stroop-blue'>MONKEY</p>", "response": "b", "stimulus-type": "unrelated", "word": "MONKEY", "color": "blue", "correct_response": "b", "trial_id": "stroop-trial-1-unrelated-27", "trial_type": "html-keyboard-response", "trial_index": 88, "time_elapsed": 232636, "internal_node_id": "0.0-4.0-84.0"}}, {"uniqueid": "w62656789:a67839834", "current_trial": 89, "dateTime": 1664555242813, "trialdata": {"rt": 580, "stimulus": "<p id='stroop-text' class='stroop-yellow'>YELLOW</p>", "response": "y", "stimulus-type": "congruent", "word": "yellow", "color": "yellow", "correct_response": "y", "trial_id": "stroop-trial-1-congruent-23", "trial_type": "html-keyboard-response", "trial_index": 89, "time_elapsed": 233722, "internal_node_id": "0.0-4.0-85.0"}}, {"uniqueid": "w62656789:a67839834", "current_trial": 90, "dateTime": 1664555243964, "trialdata": {"rt": 641, "stimulus": "<p id='stroop-text' class='stroop-blue'>GREEN</p>", "response": "b", "stimulus-type": "incongruent", "word": "green", "color": "blue", "correct_response": "b", "trial_id": "stroop-trial-1-incongruent-19", "trial_type": "html-keyboard-response", "trial_index": 90, "time_elapsed": 234874, "internal_node_id": "0.0-4.0-86.0"}}, {"uniqueid": "w62656789:a67839834", "current_trial": 91, "dateTime": 1664555245021, "trialdata": {"rt": 552, "stimulus": "<p id='stroop-text' class='stroop-blue'>YELLOW</p>", "response": "b", "stimulus-type": "incongruent", "word": "yellow", "color": "blue", "correct_response": "b", "trial_id": "stroop-trial-1-incongruent-15", "trial_type": "html-keyboard-response", "trial_index": 91, "time_elapsed": 235931, "internal_node_id": "0.0-4.0-87.0"}}, {"uniqueid": "w62656789:a67839834", "current_trial": 92, "dateTime": 1664555246072, "trialdata": {"rt": 542, "stimulus": "<p id='stroop-text' class='stroop-blue'>BLUE</p>", "response": "b", "stimulus-type": "congruent", "word": "blue", "color": "blue", "correct_response": "b", "trial_id": "stroop-trial-1-congruent-15", "trial_type": "html-keyboard-response", "trial_index": 92, "time_elapsed": 236982, "internal_node_id": "0.0-4.0-88.0"}}, {"uniqueid": "w62656789:a67839834", "current_trial": 93, "dateTime": 1664555247614, "trialdata": {"rt": 1033, "stimulus": "<p id='stroop-text' class='stroop-blue'>WINDOW</p>", "response": "b", "stimulus-type": "unrelated", "word": "WINDOW", "color": "blue", "correct_response": "b", "trial_id": "stroop-trial-1-unrelated-13", "trial_type": "html-keyboard-response", "trial_index": 93, "time_elapsed": 238524, "internal_node_id": "0.0-4.0-89.0"}}, {"uniqueid": "w62656789:a67839834", "current_trial": 94, "dateTime": 1664555254792, "trialdata": {"rt": 6674, "stimulus": "  <h1> End of block! </h1>\n\n  You have reached the end of the block 1/5. If you need a short break, feel free to take one now before moving on.\n\n  <br><br>\n  In the next block, you will complete another 90 rounds of this game.\n\n  <br><br>\n  <div style='text-align: center;'>Press <code>space</code> to begin.</div>\n  <br><br>\n<div style='text-align: center;'>(If the experiment doesn't continue, try clicking on the text and then pressing <code>space</code>.)</div>", "response": " ", "trial_id": "stroop_1_ready_2", "trial_type": "html-keyboard-response", "trial_index": 94, "time_elapsed": 245702, "internal_node_id": "0.0-5.0"}}, {"uniqueid": "w62656789:a67839834", "current_trial": 95, "dateTime": 1664555255395, "trialdata": {"rt": 601, "stimulus": "<p id='stroop-text' class='stroop-blue'>BLUE</p>", "response": "b", "stimulus-type": "congruent", "word": "blue", "color": "blue", "correct_response": "b", "trial_id": "stroop-trial-1-congruent-21", "trial_type": "html-keyboard-response", "trial_index": 95, "time_elapsed": 246304, "internal_node_id": "0.0-6.0-0.0"}}, {"uniqueid": "w62656789:a67839834", "current_trial": 96, "dateTime": 1664555256375, "trialdata": {"rt": 468, "stimulus": "<p id='stroop-text' class='stroop-blue'>BLUE</p>", "response": "b", "stimulus-type": "congruent", "word": "blue", "color": "blue", "correct_response": "b", "trial_id": "stroop-trial-1-congruent-28", "trial_type": "html-keyboard-response", "trial_index": 96, "time_elapsed": 247285, "internal_node_id": "0.0-6.0-1.0"}}, {"uniqueid": "w62656789:a67839834", "current_trial": 97, "dateTime": 1664555257390, "trialdata": {"rt": 506, "stimulus": "<p id='stroop-text' class='stroop-green'>GREEN</p>", "response": "g", "stimulus-type": "congruent", "word": "green", "color": "green", "correct_response": "g", "trial_id": "stroop-trial-1-congruent-4", "trial_type": "html-keyboard-response", "trial_index": 97, "time_elapsed": 248300, "internal_node_id": "0.0-6.0-2.0"}}, {"uniqueid": "w62656789:a67839834", "current_trial": 98, "dateTime": 1664555258407, "trialdata": {"rt": 508, "stimulus": "<p id='stroop-text' class='stroop-yellow'>YELLOW</p>", "response": "y", "stimulus-type": "congruent", "word": "yellow", "color": "yellow", "correct_response": "y", "trial_id": "stroop-trial-1-congruent-7", "trial_type": "html-keyboard-response", "trial_index": 98, "time_elapsed": 249316, "internal_node_id": "0.0-6.0-3.0"}}, {"uniqueid": "w62656789:a67839834", "current_trial": 99, "dateTime": 1664555259910, "trialdata": {"rt": 998, "stimulus": "<p id='stroop-text' class='stroop-yellow'>BLUE</p>", "response": "y", "stimulus-type": "incongruent", "word": "blue", "color": "yellow", "correct_response": "y", "trial_id": "stroop-trial-1-incongruent-24", "trial_type": "html-keyboard-response", "trial_index": 99, "time_elapsed": 250819, "internal_node_id": "0.0-6.0-4.0"}}, {"uniqueid": "w62656789:a67839834", "current_trial": 100, "dateTime": 1664555260983, "trialdata": {"rt": 564, "stimulus": "<p id='stroop-text' class='stroop-green'>GREEN</p>", "response": "g", "stimulus-type": "congruent", "word": "green", "color": "green", "correct_response": "g", "trial_id": "stroop-trial-1-congruent-9", "trial_type": "html-keyboard-response", "trial_index": 100, "time_elapsed": 251892, "internal_node_id": "0.0-6.0-5.0"}}, {"uniqueid": "w62656789:a67839834", "current_trial": 101, "dateTime": 1664555262261, "trialdata": {"rt": 768, "stimulus": "<p id='stroop-text' class='stroop-blue'>GREEN</p>", "response": "b", "stimulus-type": "incongruent", "word": "green", "color": "blue", "correct_response": "b", "trial_id": "stroop-trial-1-incongruent-18", "trial_type": "html-keyboard-response", "trial_index": 101, "time_elapsed": 253171, "internal_node_id": "0.0-6.0-6.0"}}, {"uniqueid": "w62656789:a67839834", "current_trial": 102, "dateTime": 1664555263937, "trialdata": {"rt": 1167, "stimulus": "<p id='stroop-text' class='stroop-red'>YELLOW</p>", "response": "r", "stimulus-type": "incongruent", "word": "yellow", "color": "red", "correct_response": "r", "trial_id": "stroop-trial-1-incongruent-25", "trial_type": "html-keyboard-response", "trial_index": 102, "time_elapsed": 254847, "internal_node_id": "0.0-6.0-7.0"}}, {"uniqueid": "w62656789:a67839834", "current_trial": 103, "dateTime": 1664555265220, "trialdata": {"rt": 774, "stimulus": "<p id='stroop-text' class='stroop-red'>BOTTLE</p>", "response": "r", "stimulus-type": "unrelated", "word": "BOTTLE", "color": "red", "correct_response": "r", "trial_id": "stroop-trial-1-unrelated-1", "trial_type": "html-keyboard-response", "trial_index": 103, "time_elapsed": 256130, "internal_node_id": "0.0-6.0-8.0"}}, {"uniqueid": "w62656789:a67839834", "current_trial": 104, "dateTime": 1664555266387, "trialdata": {"rt": 656, "stimulus": "<p id='stroop-text' class='stroop-yellow'>GREEN</p>", "response": "g", "stimulus-type": "incongruent", "word": "green", "color": "yellow", "correct_response": "y", "trial_id": "stroop-trial-1-incongruent-13", "trial_type": "html-keyboard-response", "trial_index": 104, "time_elapsed": 257297, "internal_node_id": "0.0-6.0-9.0"}}, {"uniqueid": "w62656789:a67839834", "current_trial": 105, "dateTime": 1664555267121, "trialdata": {"rt": 230, "stimulus": "<p id='stroop-text' class='stroop-red'>GREEN</p>", "response": "y", "stimulus-type": "incongruent", "word": "green", "color": "red", "correct_response": "r", "trial_id": "stroop-trial-1-incongruent-16", "trial_type": "html-keyboard-response", "trial_index": 105, "time_elapsed": 258031, "internal_node_id": "0.0-6.0-10.0"}}, {"uniqueid": "w62656789:a67839834", "current_trial": 106, "dateTime": 1664555268709, "trialdata": {"rt": 1077, "stimulus": "<p id='stroop-text' class='stroop-green'>BOAT</p>", "response": "g", "stimulus-type": "unrelated", "word": "BOAT", "color": "green", "correct_response": "g", "trial_id": "stroop-trial-1-unrelated-11", "trial_type": "html-keyboard-response", "trial_index": 106, "time_elapsed": 259619, "internal_node_id": "0.0-6.0-11.0"}}, {"uniqueid": "w62656789:a67839834", "current_trial": 107, "dateTime": 1664555269702, "trialdata": {"rt": 489, "stimulus": "<p id='stroop-text' class='stroop-green'>CHAIR</p>", "response": "g", "stimulus-type": "unrelated", "word": "CHAIR", "color": "green", "correct_response": "g", "trial_id": "stroop-trial-1-unrelated-15", "trial_type": "html-keyboard-response", "trial_index": 107, "time_elapsed": 260612, "internal_node_id": "0.0-6.0-12.0"}}, {"uniqueid": "w62656789:a67839834", "current_trial": 108, "dateTime": 1664555270924, "trialdata": {"rt": 708, "stimulus": "<p id='stroop-text' class='stroop-blue'>GREEN</p>", "response": "b", "stimulus-type": "incongruent", "word": "green", "color": "blue", "correct_response": "b", "trial_id": "stroop-trial-1-incongruent-2", "trial_type": "html-keyboard-response", "trial_index": 108, "time_elapsed": 261834, "internal_node_id": "0.0-6.0-13.0"}}, {"uniqueid": "w62656789:a67839834", "current_trial": 109, "dateTime": 1664555272162, "trialdata": {"rt": 722, "stimulus": "<p id='stroop-text' class='stroop-yellow'>YELLOW</p>", "response": "y", "stimulus-type": "congruent", "word": "yellow", "color": "yellow", "correct_response": "y", "trial_id": "stroop-trial-1-congruent-15", "trial_type": "html-keyboard-response", "trial_index": 109, "time_elapsed": 263072, "internal_node_id": "0.0-6.0-14.0"}}, {"uniqueid": "w62656789:a67839834", "current_trial": 110, "dateTime": 1664555273726, "trialdata": {"rt": 1055, "stimulus": "<p id='stroop-text' class='stroop-blue'>BLUE</p>", "response": "b", "stimulus-type": "congruent", "word": "blue", "color": "blue", "correct_response": "b", "trial_id": "stroop-trial-1-congruent-16", "trial_type": "html-keyboard-response", "trial_index": 110, "time_elapsed": 264636, "internal_node_id": "0.0-6.0-15.0"}}, {"uniqueid": "w62656789:a67839834", "current_trial": 111, "dateTime": 1664555274951, "trialdata": {"rt": 714, "stimulus": "<p id='stroop-text' class='stroop-yellow'>BRIDGE</p>", "response": "y", "stimulus-type": "unrelated", "word": "BRIDGE", "color": "yellow", "correct_response": "y", "trial_id": "stroop-trial-1-unrelated-8", "trial_type": "html-keyboard-response", "trial_index": 111, "time_elapsed": 265861, "internal_node_id": "0.0-6.0-16.0"}}, {"uniqueid": "w62656789:a67839834", "current_trial": 112, "dateTime": 1664555276156, "trialdata": {"rt": 687, "stimulus": "<p id='stroop-text' class='stroop-red'>MONKEY</p>", "response": "r", "stimulus-type": "unrelated", "word": "MONKEY", "color": "red", "correct_response": "r", "trial_id": "stroop-trial-1-unrelated-14", "trial_type": "html-keyboard-response", "trial_index": 112, "time_elapsed": 267065, "internal_node_id": "0.0-6.0-17.0"}}, {"uniqueid": "w62656789:a67839834", "current_trial": 113, "dateTime": 1664555277801, "trialdata": {"rt": 1134, "stimulus": "<p id='stroop-text' class='stroop-green'>YELLOW</p>", "response": "g", "stimulus-type": "incongruent", "word": "yellow", "color": "green", "correct_response": "g", "trial_id": "stroop-trial-1-incongruent-14", "trial_type": "html-keyboard-response", "trial_index": 113, "time_elapsed": 268711, "internal_node_id": "0.0-6.0-18.0"}}, {"uniqueid": "w62656789:a67839834", "current_trial": 114, "dateTime": 1664555279116, "trialdata": {"rt": 811, "stimulus": "<p id='stroop-text' class='stroop-red'>GREEN</p>", "response": "r", "stimulus-type": "incongruent", "word": "green", "color": "red", "correct_response": "r", "trial_id": "stroop-trial-1-incongruent-8", "trial_type": "html-keyboard-response", "trial_index": 114, "time_elapsed": 270025, "internal_node_id": "0.0-6.0-19.0"}}, {"uniqueid": "w62656789:a67839834", "current_trial": 115, "dateTime": 1664555280318, "trialdata": {"rt": 697, "stimulus": "<p id='stroop-text' class='stroop-green'>GREEN</p>", "response": "g", "stimulus-type": "congruent", "word": "green", "color": "green", "correct_response": "g", "trial_id": "stroop-trial-1-congruent-6", "trial_type": "html-keyboard-response", "trial_index": 115, "time_elapsed": 271228, "internal_node_id": "0.0-6.0-20.0"}}, {"uniqueid": "w62656789:a67839834", "current_trial": 116, "dateTime": 1664555281276, "trialdata": {"rt": 441, "stimulus": "<p id='stroop-text' class='stroop-green'>GREEN</p>", "response": "g", "stimulus-type": "congruent", "word": "green", "color": "green", "correct_response": "g", "trial_id": "stroop-trial-1-congruent-10", "trial_type": "html-keyboard-response", "trial_index": 116, "time_elapsed": 272186, "internal_node_id": "0.0-6.0-21.0"}}, {"uniqueid": "w62656789:a67839834", "current_trial": 117, "dateTime": 1664555282375, "trialdata": {"rt": 588, "stimulus": "<p id='stroop-text' class='stroop-red'>BRIDGE</p>", "response": "r", "stimulus-type": "unrelated", "word": "BRIDGE", "color": "red", "correct_response": "r", "trial_id": "stroop-trial-1-unrelated-2", "trial_type": "html-keyboard-response", "trial_index": 117, "time_elapsed": 273285, "internal_node_id": "0.0-6.0-22.0"}}, {"uniqueid": "w62656789:a67839834", "current_trial": 118, "dateTime": 1664555283520, "trialdata": {"rt": 644, "stimulus": "<p id='stroop-text' class='stroop-green'>CHAIR</p>", "response": "g", "stimulus-type": "unrelated", "word": "CHAIR", "color": "green", "correct_response": "g", "trial_id": "stroop-trial-1-unrelated-28", "trial_type": "html-keyboard-response", "trial_index": 118, "time_elapsed": 274430, "internal_node_id": "0.0-6.0-23.0"}}, {"uniqueid": "w62656789:a67839834", "current_trial": 119, "dateTime": 1664555284729, "trialdata": {"rt": 699, "stimulus": "<p id='stroop-text' class='stroop-blue'>BLUE</p>", "response": "b", "stimulus-type": "congruent", "word": "blue", "color": "blue", "correct_response": "b", "trial_id": "stroop-trial-1-congruent-19", "trial_type": "html-keyboard-response", "trial_index": 119, "time_elapsed": 275639, "internal_node_id": "0.0-6.0-24.0"}}, {"uniqueid": "w62656789:a67839834", "current_trial": 120, "dateTime": 1664555285713, "trialdata": {"rt": 481, "stimulus": "<p id='stroop-text' class='stroop-yellow'>YELLOW</p>", "response": "y", "stimulus-type": "congruent", "word": "yellow", "color": "yellow", "correct_response": "y", "trial_id": "stroop-trial-1-congruent-13", "trial_type": "html-keyboard-response", "trial_index": 120, "time_elapsed": 276623, "internal_node_id": "0.0-6.0-25.0"}}, {"uniqueid": "w62656789:a67839834", "current_trial": 121, "dateTime": 1664555286664, "trialdata": {"rt": 441, "stimulus": "<p id='stroop-text' class='stroop-yellow'>YELLOW</p>", "response": "y", "stimulus-type": "congruent", "word": "yellow", "color": "yellow", "correct_response": "y", "trial_id": "stroop-trial-1-congruent-8", "trial_type": "html-keyboard-response", "trial_index": 121, "time_elapsed": 277574, "internal_node_id": "0.0-6.0-26.0"}}, {"uniqueid": "w62656789:a67839834", "current_trial": 122, "dateTime": 1664555287760, "trialdata": {"rt": 591, "stimulus": "<p id='stroop-text' class='stroop-blue'>BLUE</p>", "response": "b", "stimulus-type": "congruent", "word": "blue", "color": "blue", "correct_response": "b", "trial_id": "stroop-trial-1-congruent-3", "trial_type": "html-keyboard-response", "trial_index": 122, "time_elapsed": 278670, "internal_node_id": "0.0-6.0-27.0"}}, {"uniqueid": "w62656789:a67839834", "current_trial": 123, "dateTime": 1664555288812, "trialdata": {"rt": 545, "stimulus": "<p id='stroop-text' class='stroop-blue'>STONE</p>", "response": "b", "stimulus-type": "unrelated", "word": "STONE", "color": "blue", "correct_response": "b", "trial_id": "stroop-trial-1-unrelated-4", "trial_type": "html-keyboard-response", "trial_index": 123, "time_elapsed": 279722, "internal_node_id": "0.0-6.0-28.0"}}, {"uniqueid": "w62656789:a67839834", "current_trial": 124, "dateTime": 1664555289910, "trialdata": {"rt": 585, "stimulus": "<p id='stroop-text' class='stroop-red'>STONE</p>", "response": "r", "stimulus-type": "unrelated", "word": "STONE", "color": "red", "correct_response": "r", "trial_id": "stroop-trial-1-unrelated-25", "trial_type": "html-keyboard-response", "trial_index": 124, "time_elapsed": 280820, "internal_node_id": "0.0-6.0-29.0"}}, {"uniqueid": "w62656789:a67839834", "current_trial": 125, "dateTime": 1664555291231, "trialdata": {"rt": 810, "stimulus": "<p id='stroop-text' class='stroop-blue'>GREEN</p>", "response": "b", "stimulus-type": "incongruent", "word": "green", "color": "blue", "correct_response": "b", "trial_id": "stroop-trial-1-incongruent-30", "trial_type": "html-keyboard-response", "trial_index": 125, "time_elapsed": 282141, "internal_node_id": "0.0-6.0-30.0"}}, {"uniqueid": "w62656789:a67839834", "current_trial": 126, "dateTime": 1664555292304, "trialdata": {"rt": 566, "stimulus": "<p id='stroop-text' class='stroop-yellow'>BRIDGE</p>", "response": "y", "stimulus-type": "unrelated", "word": "BRIDGE", "color": "yellow", "correct_response": "y", "trial_id": "stroop-trial-1-unrelated-5", "trial_type": "html-keyboard-response", "trial_index": 126, "time_elapsed": 283214, "internal_node_id": "0.0-6.0-31.0"}}, {"uniqueid": "w62656789:a67839834", "current_trial": 127, "dateTime": 1664555293575, "trialdata": {"rt": 758, "stimulus": "<p id='stroop-text' class='stroop-blue'>RED</p>", "response": "b", "stimulus-type": "incongruent", "word": "red", "color": "blue", "correct_response": "b", "trial_id": "stroop-trial-1-incongruent-28", "trial_type": "html-keyboard-response", "trial_index": 127, "time_elapsed": 284485, "internal_node_id": "0.0-6.0-32.0"}}, {"uniqueid": "w62656789:a67839834", "current_trial": 128, "dateTime": 1664555294667, "trialdata": {"rt": 580, "stimulus": "<p id='stroop-text' class='stroop-red'>BOTTLE</p>", "response": "r", "stimulus-type": "unrelated", "word": "BOTTLE", "color": "red", "correct_response": "r", "trial_id": "stroop-trial-1-unrelated-9", "trial_type": "html-keyboard-response", "trial_index": 128, "time_elapsed": 285577, "internal_node_id": "0.0-6.0-33.0"}}, {"uniqueid": "w62656789:a67839834", "current_trial": 129, "dateTime": 1664555295719, "trialdata": {"rt": 549, "stimulus": "<p id='stroop-text' class='stroop-yellow'>YELLOW</p>", "response": "y", "stimulus-type": "congruent", "word": "yellow", "color": "yellow", "correct_response": "y", "trial_id": "stroop-trial-1-congruent-12", "trial_type": "html-keyboard-response", "trial_index": 129, "time_elapsed": 286629, "internal_node_id": "0.0-6.0-34.0"}}, {"uniqueid": "w62656789:a67839834", "current_trial": 130, "dateTime": 1664555296900, "trialdata": {"rt": 674, "stimulus": "<p id='stroop-text' class='stroop-yellow'>RED</p>", "response": "y", "stimulus-type": "incongruent", "word": "red", "color": "yellow", "correct_response": "y", "trial_id": "stroop-trial-1-incongruent-3", "trial_type": "html-keyboard-response", "trial_index": 130, "time_elapsed": 287809, "internal_node_id": "0.0-6.0-35.0"}}, {"uniqueid": "w62656789:a67839834", "current_trial": 131, "dateTime": 1664555298014, "trialdata": {"rt": 600, "stimulus": "<p id='stroop-text' class='stroop-red'>RED</p>", "response": "r", "stimulus-type": "congruent", "word": "red", "color": "red", "correct_response": "r", "trial_id": "stroop-trial-1-congruent-11", "trial_type": "html-keyboard-response", "trial_index": 131, "time_elapsed": 288922, "internal_node_id": "0.0-6.0-36.0"}}, {"uniqueid": "w62656789:a67839834", "current_trial": 132, "dateTime": 1664555299228, "trialdata": {"rt": 711, "stimulus": "<p id='stroop-text' class='stroop-blue'>YELLOW</p>", "response": "b", "stimulus-type": "incongruent", "word": "yellow", "color": "blue", "correct_response": "b", "trial_id": "stroop-trial-1-incongruent-22", "trial_type": "html-keyboard-response", "trial_index": 132, "time_elapsed": 290137, "internal_node_id": "0.0-6.0-37.0"}}, {"uniqueid": "w62656789:a67839834", "current_trial": 133, "dateTime": 1664555300364, "trialdata": {"rt": 624, "stimulus": "<p id='stroop-text' class='stroop-blue'>BLUE</p>", "response": "b", "stimulus-type": "congruent", "word": "blue", "color": "blue", "correct_response": "b", "trial_id": "stroop-trial-1-congruent-17", "trial_type": "html-keyboard-response", "trial_index": 133, "time_elapsed": 291274, "internal_node_id": "0.0-6.0-38.0"}}, {"uniqueid": "w62656789:a67839834", "current_trial": 134, "dateTime": 1664555301787, "trialdata": {"rt": 917, "stimulus": "<p id='stroop-text' class='stroop-blue'>RED</p>", "response": "b", "stimulus-type": "incongruent", "word": "red", "color": "blue", "correct_response": "b", "trial_id": "stroop-trial-1-incongruent-26", "trial_type": "html-keyboard-response", "trial_index": 134, "time_elapsed": 292697, "internal_node_id": "0.0-6.0-39.0"}}, {"uniqueid": "w62656789:a67839834", "current_trial": 135, "dateTime": 1664555303803, "trialdata": {"rt": 1511, "stimulus": "<p id='stroop-text' class='stroop-green'>GREEN</p>", "response": "g", "stimulus-type": "congruent", "word": "green", "color": "green", "correct_response": "g", "trial_id": "stroop-trial-1-congruent-20", "trial_type": "html-keyboard-response", "trial_index": 135, "time_elapsed": 294713, "internal_node_id": "0.0-6.0-40.0"}}, {"uniqueid": "w62656789:a67839834", "current_trial": 136, "dateTime": 1664555305020, "trialdata": {"rt": 705, "stimulus": "<p id='stroop-text' class='stroop-blue'>GREEN</p>", "response": "b", "stimulus-type": "incongruent", "word": "green", "color": "blue", "correct_response": "b", "trial_id": "stroop-trial-1-incongruent-6", "trial_type": "html-keyboard-response", "trial_index": 136, "time_elapsed": 295930, "internal_node_id": "0.0-6.0-41.0"}}, {"uniqueid": "w62656789:a67839834", "current_trial": 137, "dateTime": 1664555306079, "trialdata": {"rt": 544, "stimulus": "<p id='stroop-text' class='stroop-yellow'>BRIDGE</p>", "response": "y", "stimulus-type": "unrelated", "word": "BRIDGE", "color": "yellow", "correct_response": "y", "trial_id": "stroop-trial-1-unrelated-12", "trial_type": "html-keyboard-response", "trial_index": 137, "time_elapsed": 296989, "internal_node_id": "0.0-6.0-42.0"}}, {"uniqueid": "w62656789:a67839834", "current_trial": 138, "dateTime": 1664555307326, "trialdata": {"rt": 730, "stimulus": "<p id='stroop-text' class='stroop-green'>GREEN</p>", "response": "g", "stimulus-type": "congruent", "word": "green", "color": "green", "correct_response": "g", "trial_id": "stroop-trial-1-congruent-5", "trial_type": "html-keyboard-response", "trial_index": 138, "time_elapsed": 298235, "internal_node_id": "0.0-6.0-43.0"}}, {"uniqueid": "w62656789:a67839834", "current_trial": 139, "dateTime": 1664555308509, "trialdata": {"rt": 682, "stimulus": "<p id='stroop-text' class='stroop-yellow'>GREEN</p>", "response": "y", "stimulus-type": "incongruent", "word": "green", "color": "yellow", "correct_response": "y", "trial_id": "stroop-trial-1-incongruent-21", "trial_type": "html-keyboard-response", "trial_index": 139, "time_elapsed": 299419, "internal_node_id": "0.0-6.0-44.0"}}, {"uniqueid": "w62656789:a67839834", "current_trial": 140, "dateTime": 1664555309697, "trialdata": {"rt": 682, "stimulus": "<p id='stroop-text' class='stroop-yellow'>CHAIR</p>", "response": "y", "stimulus-type": "unrelated", "word": "CHAIR", "color": "yellow", "correct_response": "y", "trial_id": "stroop-trial-1-unrelated-23", "trial_type": "html-keyboard-response", "trial_index": 140, "time_elapsed": 300607, "internal_node_id": "0.0-6.0-45.0"}}, {"uniqueid": "w62656789:a67839834", "current_trial": 141, "dateTime": 1664555310892, "trialdata": {"rt": 681, "stimulus": "<p id='stroop-text' class='stroop-yellow'>BRAIN</p>", "response": "y", "stimulus-type": "unrelated", "word": "BRAIN", "color": "yellow", "correct_response": "y", "trial_id": "stroop-trial-1-unrelated-10", "trial_type": "html-keyboard-response", "trial_index": 141, "time_elapsed": 301801, "internal_node_id": "0.0-6.0-46.0"}}, {"uniqueid": "w62656789:a67839834", "current_trial": 142, "dateTime": 1664555311993, "trialdata": {"rt": 586, "stimulus": "<p id='stroop-text' class='stroop-blue'>GREEN</p>", "response": "b", "stimulus-type": "incongruent", "word": "green", "color": "blue", "correct_response": "b", "trial_id": "stroop-trial-1-incongruent-9", "trial_type": "html-keyboard-response", "trial_index": 142, "time_elapsed": 302903, "internal_node_id": "0.0-6.0-47.0"}}, {"uniqueid": "w62656789:a67839834", "current_trial": 143, "dateTime": 1664555313170, "trialdata": {"rt": 672, "stimulus": "<p id='stroop-text' class='stroop-yellow'>YELLOW</p>", "response": "y", "stimulus-type": "congruent", "word": "yellow", "color": "yellow", "correct_response": "y", "trial_id": "stroop-trial-1-congruent-18", "trial_type": "html-keyboard-response", "trial_index": 143, "time_elapsed": 304079, "internal_node_id": "0.0-6.0-48.0"}}, {"uniqueid": "w62656789:a67839834", "current_trial": 144, "dateTime": 1664555314252, "trialdata": {"rt": 570, "stimulus": "<p id='stroop-text' class='stroop-yellow'>YELLOW</p>", "response": "y", "stimulus-type": "congruent", "word": "yellow", "color": "yellow", "correct_response": "y", "trial_id": "stroop-trial-1-congruent-1", "trial_type": "html-keyboard-response", "trial_index": 144, "time_elapsed": 305162, "internal_node_id": "0.0-6.0-49.0"}}, {"uniqueid": "w62656789:a67839834", "current_trial": 145, "dateTime": 1664555315415, "trialdata": {"rt": 659, "stimulus": "<p id='stroop-text' class='stroop-green'>BOTTLE</p>", "response": "g", "stimulus-type": "unrelated", "word": "BOTTLE", "color": "green", "correct_response": "g", "trial_id": "stroop-trial-1-unrelated-7", "trial_type": "html-keyboard-response", "trial_index": 145, "time_elapsed": 306325, "internal_node_id": "0.0-6.0-50.0"}}, {"uniqueid": "w62656789:a67839834", "current_trial": 146, "dateTime": 1664555316582, "trialdata": {"rt": 658, "stimulus": "<p id='stroop-text' class='stroop-green'>GREEN</p>", "response": "g", "stimulus-type": "congruent", "word": "green", "color": "green", "correct_response": "g", "trial_id": "stroop-trial-1-congruent-27", "trial_type": "html-keyboard-response", "trial_index": 146, "time_elapsed": 307492, "internal_node_id": "0.0-6.0-51.0"}}, {"uniqueid": "w62656789:a67839834", "current_trial": 147, "dateTime": 1664555317860, "trialdata": {"rt": 768, "stimulus": "<p id='stroop-text' class='stroop-red'>BRIDGE</p>", "response": "r", "stimulus-type": "unrelated", "word": "BRIDGE", "color": "red", "correct_response": "r", "trial_id": "stroop-trial-1-unrelated-17", "trial_type": "html-keyboard-response", "trial_index": 147, "time_elapsed": 308770, "internal_node_id": "0.0-6.0-52.0"}}, {"uniqueid": "w62656789:a67839834", "current_trial": 148, "dateTime": 1664555319115, "trialdata": {"rt": 753, "stimulus": "<p id='stroop-text' class='stroop-yellow'>YELLOW</p>", "response": "y", "stimulus-type": "congruent", "word": "yellow", "color": "yellow", "correct_response": "y", "trial_id": "stroop-trial-1-congruent-2", "trial_type": "html-keyboard-response", "trial_index": 148, "time_elapsed": 310025, "internal_node_id": "0.0-6.0-53.0"}}, {"uniqueid": "w62656789:a67839834", "current_trial": 149, "dateTime": 1664555320268, "trialdata": {"rt": 652, "stimulus": "<p id='stroop-text' class='stroop-yellow'>YELLOW</p>", "response": "y", "stimulus-type": "congruent", "word": "yellow", "color": "yellow", "correct_response": "y", "trial_id": "stroop-trial-1-congruent-29", "trial_type": "html-keyboard-response", "trial_index": 149, "time_elapsed": 311178, "internal_node_id": "0.0-6.0-54.0"}}, {"uniqueid": "w62656789:a67839834", "current_trial": 150, "dateTime": 1664555321393, "trialdata": {"rt": 615, "stimulus": "<p id='stroop-text' class='stroop-blue'>BLUE</p>", "response": "b", "stimulus-type": "congruent", "word": "blue", "color": "blue", "correct_response": "b", "trial_id": "stroop-trial-1-congruent-14", "trial_type": "html-keyboard-response", "trial_index": 150, "time_elapsed": 312303, "internal_node_id": "0.0-6.0-55.0"}}, {"uniqueid": "w62656789:a67839834", "current_trial": 151, "dateTime": 1664555322685, "trialdata": {"rt": 781, "stimulus": "<p id='stroop-text' class='stroop-green'>BLUE</p>", "response": "g", "stimulus-type": "incongruent", "word": "blue", "color": "green", "correct_response": "g", "trial_id": "stroop-trial-1-incongruent-7", "trial_type": "html-keyboard-response", "trial_index": 151, "time_elapsed": 313594, "internal_node_id": "0.0-6.0-56.0"}}, {"uniqueid": "w62656789:a67839834", "current_trial": 152, "dateTime": 1664555323802, "trialdata": {"rt": 615, "stimulus": "<p id='stroop-text' class='stroop-yellow'>SHIP</p>", "response": "y", "stimulus-type": "unrelated", "word": "SHIP", "color": "yellow", "correct_response": "y", "trial_id": "stroop-trial-1-unrelated-30", "trial_type": "html-keyboard-response", "trial_index": 152, "time_elapsed": 314712, "internal_node_id": "0.0-6.0-57.0"}}, {"uniqueid": "w62656789:a67839834", "current_trial": 153, "dateTime": 1664555325001, "trialdata": {"rt": 689, "stimulus": "<p id='stroop-text' class='stroop-green'>GREEN</p>", "response": "g", "stimulus-type": "congruent", "word": "green", "color": "green", "correct_response": "g", "trial_id": "stroop-trial-1-congruent-23", "trial_type": "html-keyboard-response", "trial_index": 153, "time_elapsed": 315911, "internal_node_id": "0.0-6.0-58.0"}}, {"uniqueid": "w62656789:a67839834", "current_trial": 154, "dateTime": 1664555326211, "trialdata": {"rt": 705, "stimulus": "<p id='stroop-text' class='stroop-blue'>BOTTLE</p>", "response": "b", "stimulus-type": "unrelated", "word": "BOTTLE", "color": "blue", "correct_response": "b", "trial_id": "stroop-trial-1-unrelated-27", "trial_type": "html-keyboard-response", "trial_index": 154, "time_elapsed": 317121, "internal_node_id": "0.0-6.0-59.0"}}, {"uniqueid": "w62656789:a67839834", "current_trial": 155, "dateTime": 1664555327447, "trialdata": {"rt": 729, "stimulus": "<p id='stroop-text' class='stroop-blue'>MONKEY</p>", "response": "b", "stimulus-type": "unrelated", "word": "MONKEY", "color": "blue", "correct_response": "b", "trial_id": "stroop-trial-1-unrelated-16", "trial_type": "html-keyboard-response", "trial_index": 155, "time_elapsed": 318357, "internal_node_id": "0.0-6.0-60.0"}}, {"uniqueid": "w62656789:a67839834", "current_trial": 156, "dateTime": 1664555328552, "trialdata": {"rt": 597, "stimulus": "<p id='stroop-text' class='stroop-red'>STONE</p>", "response": "r", "stimulus-type": "unrelated", "word": "STONE", "color": "red", "correct_response": "r", "trial_id": "stroop-trial-1-unrelated-13", "trial_type": "html-keyboard-response", "trial_index": 156, "time_elapsed": 319462, "internal_node_id": "0.0-6.0-61.0"}}, {"uniqueid": "w62656789:a67839834", "current_trial": 157, "dateTime": 1664555329681, "trialdata": {"rt": 624, "stimulus": "<p id='stroop-text' class='stroop-blue'>BOTTLE</p>", "response": "b", "stimulus-type": "unrelated", "word": "BOTTLE", "color": "blue", "correct_response": "b", "trial_id": "stroop-trial-1-unrelated-6", "trial_type": "html-keyboard-response", "trial_index": 157, "time_elapsed": 320590, "internal_node_id": "0.0-6.0-62.0"}}, {"uniqueid": "w62656789:a67839834", "current_trial": 158, "dateTime": 1664555330769, "trialdata": {"rt": 576, "stimulus": "<p id='stroop-text' class='stroop-red'>MONKEY</p>", "response": "r", "stimulus-type": "unrelated", "word": "MONKEY", "color": "red", "correct_response": "r", "trial_id": "stroop-trial-1-unrelated-22", "trial_type": "html-keyboard-response", "trial_index": 158, "time_elapsed": 321679, "internal_node_id": "0.0-6.0-63.0"}}, {"uniqueid": "w62656789:a67839834", "current_trial": 159, "dateTime": 1664555331943, "trialdata": {"rt": 660, "stimulus": "<p id='stroop-text' class='stroop-red'>MONKEY</p>", "response": "r", "stimulus-type": "unrelated", "word": "MONKEY", "color": "red", "correct_response": "r", "trial_id": "stroop-trial-1-unrelated-3", "trial_type": "html-keyboard-response", "trial_index": 159, "time_elapsed": 322853, "internal_node_id": "0.0-6.0-64.0"}}, {"uniqueid": "w62656789:a67839834", "current_trial": 160, "dateTime": 1664555333195, "trialdata": {"rt": 742, "stimulus": "<p id='stroop-text' class='stroop-blue'>YELLOW</p>", "response": "b", "stimulus-type": "incongruent", "word": "yellow", "color": "blue", "correct_response": "b", "trial_id": "stroop-trial-1-incongruent-17", "trial_type": "html-keyboard-response", "trial_index": 160, "time_elapsed": 324105, "internal_node_id": "0.0-6.0-65.0"}}, {"uniqueid": "w62656789:a67839834", "current_trial": 161, "dateTime": 1664555334349, "trialdata": {"rt": 641, "stimulus": "<p id='stroop-text' class='stroop-blue'>GREEN</p>", "response": "b", "stimulus-type": "incongruent", "word": "green", "color": "blue", "correct_response": "b", "trial_id": "stroop-trial-1-incongruent-1", "trial_type": "html-keyboard-response", "trial_index": 161, "time_elapsed": 325259, "internal_node_id": "0.0-6.0-66.0"}}, {"uniqueid": "w62656789:a67839834", "current_trial": 162, "dateTime": 1664555335432, "trialdata": {"rt": 574, "stimulus": "<p id='stroop-text' class='stroop-blue'>FORK</p>", "response": "b", "stimulus-type": "unrelated", "word": "FORK", "color": "blue", "correct_response": "b", "trial_id": "stroop-trial-1-unrelated-21", "trial_type": "html-keyboard-response", "trial_index": 162, "time_elapsed": 326342, "internal_node_id": "0.0-6.0-67.0"}}, {"uniqueid": "w62656789:a67839834", "current_trial": 163, "dateTime": 1664555336673, "trialdata": {"rt": 740, "stimulus": "<p id='stroop-text' class='stroop-blue'>RED</p>", "response": "r", "stimulus-type": "incongruent", "word": "red", "color": "blue", "correct_response": "b", "trial_id": "stroop-trial-1-incongruent-5", "trial_type": "html-keyboard-response", "trial_index": 163, "time_elapsed": 327583, "internal_node_id": "0.0-6.0-68.0"}}, {"uniqueid": "w62656789:a67839834", "current_trial": 164, "dateTime": 1664555337367, "trialdata": {"rt": 183, "stimulus": "<p id='stroop-text' class='stroop-green'>BRIDGE</p>", "response": "b", "stimulus-type": "unrelated", "word": "BRIDGE", "color": "green", "correct_response": "g", "trial_id": "stroop-trial-1-unrelated-19", "trial_type": "html-keyboard-response", "trial_index": 164, "time_elapsed": 328277, "internal_node_id": "0.0-6.0-69.0"}}, {"uniqueid": "w62656789:a67839834", "current_trial": 165, "dateTime": 1664555338747, "trialdata": {"rt": 878, "stimulus": "<p id='stroop-text' class='stroop-blue'>YELLOW</p>", "response": "b", "stimulus-type": "incongruent", "word": "yellow", "color": "blue", "correct_response": "b", "trial_id": "stroop-trial-1-incongruent-11", "trial_type": "html-keyboard-response", "trial_index": 165, "time_elapsed": 329656, "internal_node_id": "0.0-6.0-70.0"}}, {"uniqueid": "w62656789:a67839834", "current_trial": 166, "dateTime": 1664555340258, "trialdata": {"rt": 1000, "stimulus": "<p id='stroop-text' class='stroop-green'>BLUE</p>", "response": "g", "stimulus-type": "incongruent", "word": "blue", "color": "green", "correct_response": "g", "trial_id": "stroop-trial-1-incongruent-10", "trial_type": "html-keyboard-response", "trial_index": 166, "time_elapsed": 331167, "internal_node_id": "0.0-6.0-71.0"}}, {"uniqueid": "w62656789:a67839834", "current_trial": 167, "dateTime": 1664555341473, "trialdata": {"rt": 701, "stimulus": "<p id='stroop-text' class='stroop-yellow'>YELLOW</p>", "response": "y", "stimulus-type": "congruent", "word": "yellow", "color": "yellow", "correct_response": "y", "trial_id": "stroop-trial-1-congruent-26", "trial_type": "html-keyboard-response", "trial_index": 167, "time_elapsed": 332383, "internal_node_id": "0.0-6.0-72.0"}}, {"uniqueid": "w62656789:a67839834", "current_trial": 168, "dateTime": 1664555342963, "trialdata": {"rt": 986, "stimulus": "<p id='stroop-text' class='stroop-red'>YELLOW</p>", "response": "r", "stimulus-type": "incongruent", "word": "yellow", "color": "red", "correct_response": "r", "trial_id": "stroop-trial-1-incongruent-15", "trial_type": "html-keyboard-response", "trial_index": 168, "time_elapsed": 333872, "internal_node_id": "0.0-6.0-73.0"}}, {"uniqueid": "w62656789:a67839834", "current_trial": 169, "dateTime": 1664555344131, "trialdata": {"rt": 665, "stimulus": "<p id='stroop-text' class='stroop-blue'>YELLOW</p>", "response": "b", "stimulus-type": "incongruent", "word": "yellow", "color": "blue", "correct_response": "b", "trial_id": "stroop-trial-1-incongruent-19", "trial_type": "html-keyboard-response", "trial_index": 169, "time_elapsed": 335041, "internal_node_id": "0.0-6.0-74.0"}}, {"uniqueid": "w62656789:a67839834", "current_trial": 170, "dateTime": 1664555345303, "trialdata": {"rt": 655, "stimulus": "<p id='stroop-text' class='stroop-yellow'>GREEN</p>", "response": "y", "stimulus-type": "incongruent", "word": "green", "color": "yellow", "correct_response": "y", "trial_id": "stroop-trial-1-incongruent-23", "trial_type": "html-keyboard-response", "trial_index": 170, "time_elapsed": 336212, "internal_node_id": "0.0-6.0-75.0"}}, {"uniqueid": "w62656789:a67839834", "current_trial": 171, "dateTime": 1664555346541, "trialdata": {"rt": 726, "stimulus": "<p id='stroop-text' class='stroop-blue'>SHIP</p>", "response": "b", "stimulus-type": "unrelated", "word": "SHIP", "color": "blue", "correct_response": "b", "trial_id": "stroop-trial-1-unrelated-29", "trial_type": "html-keyboard-response", "trial_index": 171, "time_elapsed": 337451, "internal_node_id": "0.0-6.0-76.0"}}, {"uniqueid": "w62656789:a67839834", "current_trial": 172, "dateTime": 1664555347859, "trialdata": {"rt": 813, "stimulus": "<p id='stroop-text' class='stroop-red'>CHAIR</p>", "response": "r", "stimulus-type": "unrelated", "word": "CHAIR", "color": "red", "correct_response": "r", "trial_id": "stroop-trial-1-unrelated-24", "trial_type": "html-keyboard-response", "trial_index": 172, "time_elapsed": 338769, "internal_node_id": "0.0-6.0-77.0"}}, {"uniqueid": "w62656789:a67839834", "current_trial": 173, "dateTime": 1664555348892, "trialdata": {"rt": 517, "stimulus": "<p id='stroop-text' class='stroop-red'>RED</p>", "response": "r", "stimulus-type": "congruent", "word": "red", "color": "red", "correct_response": "r", "trial_id": "stroop-trial-1-congruent-25", "trial_type": "html-keyboard-response", "trial_index": 173, "time_elapsed": 339801, "internal_node_id": "0.0-6.0-78.0"}}, {"uniqueid": "w62656789:a67839834", "current_trial": 174, "dateTime": 1664555349991, "trialdata": {"rt": 593, "stimulus": "<p id='stroop-text' class='stroop-blue'>BLUE</p>", "response": "b", "stimulus-type": "congruent", "word": "blue", "color": "blue", "correct_response": "b", "trial_id": "stroop-trial-1-congruent-22", "trial_type": "html-keyboard-response", "trial_index": 174, "time_elapsed": 340901, "internal_node_id": "0.0-6.0-79.0"}}, {"uniqueid": "w62656789:a67839834", "current_trial": 175, "dateTime": 1664555351279, "trialdata": {"rt": 783, "stimulus": "<p id='stroop-text' class='stroop-green'>BLUE</p>", "response": "g", "stimulus-type": "incongruent", "word": "blue", "color": "green", "correct_response": "g", "trial_id": "stroop-trial-1-incongruent-29", "trial_type": "html-keyboard-response", "trial_index": 175, "time_elapsed": 342189, "internal_node_id": "0.0-6.0-80.0"}}, {"uniqueid": "w62656789:a67839834", "current_trial": 176, "dateTime": 1664555352442, "trialdata": {"rt": 654, "stimulus": "<p id='stroop-text' class='stroop-blue'>GREEN</p>", "response": "b", "stimulus-type": "incongruent", "word": "green", "color": "blue", "correct_response": "b", "trial_id": "stroop-trial-1-incongruent-20", "trial_type": "html-keyboard-response", "trial_index": 176, "time_elapsed": 343352, "internal_node_id": "0.0-6.0-81.0"}}, {"uniqueid": "w62656789:a67839834", "current_trial": 177, "dateTime": 1664555353626, "trialdata": {"rt": 681, "stimulus": "<p id='stroop-text' class='stroop-yellow'>RED</p>", "response": "y", "stimulus-type": "incongruent", "word": "red", "color": "yellow", "correct_response": "y", "trial_id": "stroop-trial-1-incongruent-12", "trial_type": "html-keyboard-response", "trial_index": 177, "time_elapsed": 344536, "internal_node_id": "0.0-6.0-82.0"}}, {"uniqueid": "w62656789:a67839834", "current_trial": 178, "dateTime": 1664555354702, "trialdata": {"rt": 569, "stimulus": "<p id='stroop-text' class='stroop-yellow'>YELLOW</p>", "response": "y", "stimulus-type": "congruent", "word": "yellow", "color": "yellow", "correct_response": "y", "trial_id": "stroop-trial-1-congruent-24", "trial_type": "html-keyboard-response", "trial_index": 178, "time_elapsed": 345612, "internal_node_id": "0.0-6.0-83.0"}}, {"uniqueid": "w62656789:a67839834", "current_trial": 179, "dateTime": 1664555355739, "trialdata": {"rt": 531, "stimulus": "<p id='stroop-text' class='stroop-yellow'>YELLOW</p>", "response": "y", "stimulus-type": "congruent", "word": "yellow", "color": "yellow", "correct_response": "y", "trial_id": "stroop-trial-1-congruent-30", "trial_type": "html-keyboard-response", "trial_index": 179, "time_elapsed": 346649, "internal_node_id": "0.0-6.0-84.0"}}, {"uniqueid": "w62656789:a67839834", "current_trial": 180, "dateTime": 1664555356778, "trialdata": {"rt": 524, "stimulus": "<p id='stroop-text' class='stroop-blue'>BRIDGE</p>", "response": "b", "stimulus-type": "unrelated", "word": "BRIDGE", "color": "blue", "correct_response": "b", "trial_id": "stroop-trial-1-unrelated-20", "trial_type": "html-keyboard-response", "trial_index": 180, "time_elapsed": 347688, "internal_node_id": "0.0-6.0-85.0"}}, {"uniqueid": "w62656789:a67839834", "current_trial": 181, "dateTime": 1664555357830, "trialdata": {"rt": 538, "stimulus": "<p id='stroop-text' class='stroop-red'>STONE</p>", "response": "r", "stimulus-type": "unrelated", "word": "STONE", "color": "red", "correct_response": "r", "trial_id": "stroop-trial-1-unrelated-26", "trial_type": "html-keyboard-response", "trial_index": 181, "time_elapsed": 348740, "internal_node_id": "0.0-6.0-86.0"}}, {"uniqueid": "w62656789:a67839834", "current_trial": 182, "dateTime": 1664555359311, "trialdata": {"rt": 975, "stimulus": "<p id='stroop-text' class='stroop-blue'>WINDOW</p>", "response": "b", "stimulus-type": "unrelated", "word": "WINDOW", "color": "blue", "correct_response": "b", "trial_id": "stroop-trial-1-unrelated-18", "trial_type": "html-keyboard-response", "trial_index": 182, "time_elapsed": 350221, "internal_node_id": "0.0-6.0-87.0"}}, {"uniqueid": "w62656789:a67839834", "current_trial": 183, "dateTime": 1664555360402, "trialdata": {"rt": 581, "stimulus": "<p id='stroop-text' class='stroop-blue'>RED</p>", "response": "b", "stimulus-type": "incongruent", "word": "red", "color": "blue", "correct_response": "b", "trial_id": "stroop-trial-1-incongruent-27", "trial_type": "html-keyboard-response", "trial_index": 183, "time_elapsed": 351312, "internal_node_id": "0.0-6.0-88.0"}}, {"uniqueid": "w62656789:a67839834", "current_trial": 184, "dateTime": 1664555361398, "trialdata": {"rt": 487, "stimulus": "<p id='stroop-text' class='stroop-red'>BLUE</p>", "response": "r", "stimulus-type": "incongruent", "word": "blue", "color": "red", "correct_response": "r", "trial_id": "stroop-trial-1-incongruent-4", "trial_type": "html-keyboard-response", "trial_index": 184, "time_elapsed": 352308, "internal_node_id": "0.0-6.0-89.0"}}, {"uniqueid": "w62656789:a67839834", "current_trial": 185, "dateTime": 1664555364577, "trialdata": {"rt": 2668, "stimulus": "  <h1> End of block! </h1>\n\n  You have reached the end of the block 2/5. If you need a short break, feel free to take one now before moving on.\n\n  <br><br>\n  In the next block, you will complete another 90 rounds of this game.\n\n  <br><br>\n  <div style='text-align: center;'>Press <code>space</code> to begin.</div>\n  <br><br>\n<div style='text-align: center;'>(If the experiment doesn't continue, try clicking on the text and then pressing <code>space</code>.)</div>", "response": " ", "trial_id": "stroop_1_ready_3", "trial_type": "html-keyboard-response", "trial_index": 185, "time_elapsed": 355487, "internal_node_id": "0.0-7.0"}}, {"uniqueid": "w62656789:a67839834", "current_trial": 186, "dateTime": 1664555365141, "trialdata": {"rt": 562, "stimulus": "<p id='stroop-text' class='stroop-yellow'>GREEN</p>", "response": "y", "stimulus-type": "incongruent", "word": "green", "color": "yellow", "correct_response": "y", "trial_id": "stroop-trial-1-incongruent-8", "trial_type": "html-keyboard-response", "trial_index": 186, "time_elapsed": 356051, "internal_node_id": "0.0-8.0-0.0"}}, {"uniqueid": "w62656789:a67839834", "current_trial": 187, "dateTime": 1664555366450, "trialdata": {"rt": 801, "stimulus": "<p id='stroop-text' class='stroop-green'>RED</p>", "response": "g", "stimulus-type": "incongruent", "word": "red", "color": "green", "correct_response": "g", "trial_id": "stroop-trial-1-incongruent-29", "trial_type": "html-keyboard-response", "trial_index": 187, "time_elapsed": 357360, "internal_node_id": "0.0-8.0-1.0"}}, {"uniqueid": "w62656789:a67839834", "current_trial": 188, "dateTime": 1664555367501, "trialdata": {"rt": 545, "stimulus": "<p id='stroop-text' class='stroop-yellow'>YELLOW</p>", "response": "y", "stimulus-type": "congruent", "word": "yellow", "color": "yellow", "correct_response": "y", "trial_id": "stroop-trial-1-congruent-28", "trial_type": "html-keyboard-response", "trial_index": 188, "time_elapsed": 358411, "internal_node_id": "0.0-8.0-2.0"}}, {"uniqueid": "w62656789:a67839834", "current_trial": 189, "dateTime": 1664555368852, "trialdata": {"rt": 848, "stimulus": "<p id='stroop-text' class='stroop-green'>STONE</p>", "response": "g", "stimulus-type": "unrelated", "word": "STONE", "color": "green", "correct_response": "g", "trial_id": "stroop-trial-1-unrelated-29", "trial_type": "html-keyboard-response", "trial_index": 189, "time_elapsed": 359762, "internal_node_id": "0.0-8.0-3.0"}}, {"uniqueid": "w62656789:a67839834", "current_trial": 190, "dateTime": 1664555369859, "trialdata": {"rt": 496, "stimulus": "<p id='stroop-text' class='stroop-yellow'>GREEN</p>", "response": "y", "stimulus-type": "incongruent", "word": "green", "color": "yellow", "correct_response": "y", "trial_id": "stroop-trial-1-incongruent-14", "trial_type": "html-keyboard-response", "trial_index": 190, "time_elapsed": 360768, "internal_node_id": "0.0-8.0-4.0"}}, {"uniqueid": "w62656789:a67839834", "current_trial": 191, "dateTime": 1664555370966, "trialdata": {"rt": 595, "stimulus": "<p id='stroop-text' class='stroop-yellow'>GREEN</p>", "response": "y", "stimulus-type": "incongruent", "word": "green", "color": "yellow", "correct_response": "y", "trial_id": "stroop-trial-1-incongruent-9", "trial_type": "html-keyboard-response", "trial_index": 191, "time_elapsed": 361876, "internal_node_id": "0.0-8.0-5.0"}}, {"uniqueid": "w62656789:a67839834", "current_trial": 192, "dateTime": 1664555372001, "trialdata": {"rt": 525, "stimulus": "<p id='stroop-text' class='stroop-blue'>BRIDGE</p>", "response": "b", "stimulus-type": "unrelated", "word": "BRIDGE", "color": "blue", "correct_response": "b", "trial_id": "stroop-trial-1-unrelated-24", "trial_type": "html-keyboard-response", "trial_index": 192, "time_elapsed": 362911, "internal_node_id": "0.0-8.0-6.0"}}, {"uniqueid": "w62656789:a67839834", "current_trial": 193, "dateTime": 1664555373401, "trialdata": {"rt": 884, "stimulus": "<p id='stroop-text' class='stroop-yellow'>STONE</p>", "response": "y", "stimulus-type": "unrelated", "word": "STONE", "color": "yellow", "correct_response": "y", "trial_id": "stroop-trial-1-unrelated-1", "trial_type": "html-keyboard-response", "trial_index": 193, "time_elapsed": 364311, "internal_node_id": "0.0-8.0-7.0"}}, {"uniqueid": "w62656789:a67839834", "current_trial": 194, "dateTime": 1664555374471, "trialdata": {"rt": 565, "stimulus": "<p id='stroop-text' class='stroop-blue'>BRIDGE</p>", "response": "b", "stimulus-type": "unrelated", "word": "BRIDGE", "color": "blue", "correct_response": "b", "trial_id": "stroop-trial-1-unrelated-26", "trial_type": "html-keyboard-response", "trial_index": 194, "time_elapsed": 365381, "internal_node_id": "0.0-8.0-8.0"}}, {"uniqueid": "w62656789:a67839834", "current_trial": 195, "dateTime": 1664555375589, "trialdata": {"rt": 602, "stimulus": "<p id='stroop-text' class='stroop-yellow'>YELLOW</p>", "response": "y", "stimulus-type": "congruent", "word": "yellow", "color": "yellow", "correct_response": "y", "trial_id": "stroop-trial-1-congruent-19", "trial_type": "html-keyboard-response", "trial_index": 195, "time_elapsed": 366499, "internal_node_id": "0.0-8.0-9.0"}}, {"uniqueid": "w62656789:a67839834", "current_trial": 196, "dateTime": 1664555376622, "trialdata": {"rt": 525, "stimulus": "<p id='stroop-text' class='stroop-red'>BRIDGE</p>", "response": "r", "stimulus-type": "unrelated", "word": "BRIDGE", "color": "red", "correct_response": "r", "trial_id": "stroop-trial-1-unrelated-15", "trial_type": "html-keyboard-response", "trial_index": 196, "time_elapsed": 367532, "internal_node_id": "0.0-8.0-10.0"}}, {"uniqueid": "w62656789:a67839834", "current_trial": 197, "dateTime": 1664555377532, "trialdata": {"rt": 408, "stimulus": "<p id='stroop-text' class='stroop-red'>CHAIR</p>", "response": "r", "stimulus-type": "unrelated", "word": "CHAIR", "color": "red", "correct_response": "r", "trial_id": "stroop-trial-1-unrelated-23", "trial_type": "html-keyboard-response", "trial_index": 197, "time_elapsed": 368442, "internal_node_id": "0.0-8.0-11.0"}}, {"uniqueid": "w62656789:a67839834", "current_trial": 198, "dateTime": 1664555378487, "trialdata": {"rt": 439, "stimulus": "<p id='stroop-text' class='stroop-red'>BOTTLE</p>", "response": "r", "stimulus-type": "unrelated", "word": "BOTTLE", "color": "red", "correct_response": "r", "trial_id": "stroop-trial-1-unrelated-9", "trial_type": "html-keyboard-response", "trial_index": 198, "time_elapsed": 369397, "internal_node_id": "0.0-8.0-12.0"}}, {"uniqueid": "w62656789:a67839834", "current_trial": 199, "dateTime": 1664555379856, "trialdata": {"rt": 861, "stimulus": "<p id='stroop-text' class='stroop-green'>WINDOW</p>", "response": "g", "stimulus-type": "unrelated", "word": "WINDOW", "color": "green", "correct_response": "g", "trial_id": "stroop-trial-1-unrelated-12", "trial_type": "html-keyboard-response", "trial_index": 199, "time_elapsed": 370766, "internal_node_id": "0.0-8.0-13.0"}}, {"uniqueid": "w62656789:a67839834", "current_trial": 200, "dateTime": 1664555380961, "trialdata": {"rt": 603, "stimulus": "<p id='stroop-text' class='stroop-yellow'>YELLOW</p>", "response": "y", "stimulus-type": "congruent", "word": "yellow", "color": "yellow", "correct_response": "y", "trial_id": "stroop-trial-1-congruent-14", "trial_type": "html-keyboard-response", "trial_index": 200, "time_elapsed": 371871, "internal_node_id": "0.0-8.0-14.0"}}, {"uniqueid": "w62656789:a67839834", "current_trial": 201, "dateTime": 1664555382094, "trialdata": {"rt": 630, "stimulus": "<p id='stroop-text' class='stroop-yellow'>YELLOW</p>", "response": "y", "stimulus-type": "congruent", "word": "yellow", "color": "yellow", "correct_response": "y", "trial_id": "stroop-trial-1-congruent-20", "trial_type": "html-keyboard-response", "trial_index": 201, "time_elapsed": 373004, "internal_node_id": "0.0-8.0-15.0"}}, {"uniqueid": "w62656789:a67839834", "current_trial": 202, "dateTime": 1664555383190, "trialdata": {"rt": 581, "stimulus": "<p id='stroop-text' class='stroop-green'>MONKEY</p>", "response": "g", "stimulus-type": "unrelated", "word": "MONKEY", "color": "green", "correct_response": "g", "trial_id": "stroop-trial-1-unrelated-28", "trial_type": "html-keyboard-response", "trial_index": 202, "time_elapsed": 374100, "internal_node_id": "0.0-8.0-16.0"}}, {"uniqueid": "w62656789:a67839834", "current_trial": 203, "dateTime": 1664555384190, "trialdata": {"rt": 496, "stimulus": "<p id='stroop-text' class='stroop-blue'>BRIDGE</p>", "response": "b", "stimulus-type": "unrelated", "word": "BRIDGE", "color": "blue", "correct_response": "b", "trial_id": "stroop-trial-1-unrelated-6", "trial_type": "html-keyboard-response", "trial_index": 203, "time_elapsed": 375100, "internal_node_id": "0.0-8.0-17.0"}}, {"uniqueid": "w62656789:a67839834", "current_trial": 204, "dateTime": 1664555385258, "trialdata": {"rt": 554, "stimulus": "<p id='stroop-text' class='stroop-blue'>BLUE</p>", "response": "b", "stimulus-type": "congruent", "word": "blue", "color": "blue", "correct_response": "b", "trial_id": "stroop-trial-1-congruent-24", "trial_type": "html-keyboard-response", "trial_index": 204, "time_elapsed": 376168, "internal_node_id": "0.0-8.0-18.0"}}, {"uniqueid": "w62656789:a67839834", "current_trial": 205, "dateTime": 1664555386616, "trialdata": {"rt": 855, "stimulus": "<p id='stroop-text' class='stroop-green'>BLUE</p>", "response": "g", "stimulus-type": "incongruent", "word": "blue", "color": "green", "correct_response": "g", "trial_id": "stroop-trial-1-incongruent-10", "trial_type": "html-keyboard-response", "trial_index": 205, "time_elapsed": 377526, "internal_node_id": "0.0-8.0-19.0"}}, {"uniqueid": "w62656789:a67839834", "current_trial": 206, "dateTime": 1664555387712, "trialdata": {"rt": 593, "stimulus": "<p id='stroop-text' class='stroop-blue'>BLUE</p>", "response": "b", "stimulus-type": "congruent", "word": "blue", "color": "blue", "correct_response": "b", "trial_id": "stroop-trial-1-congruent-10", "trial_type": "html-keyboard-response", "trial_index": 206, "time_elapsed": 378622, "internal_node_id": "0.0-8.0-20.0"}}, {"uniqueid": "w62656789:a67839834", "current_trial": 207, "dateTime": 1664555388827, "trialdata": {"rt": 609, "stimulus": "<p id='stroop-text' class='stroop-yellow'>YELLOW</p>", "response": "y", "stimulus-type": "congruent", "word": "yellow", "color": "yellow", "correct_response": "y", "trial_id": "stroop-trial-1-congruent-1", "trial_type": "html-keyboard-response", "trial_index": 207, "time_elapsed": 379737, "internal_node_id": "0.0-8.0-21.0"}}, {"uniqueid": "w62656789:a67839834", "current_trial": 208, "dateTime": 1664555389941, "trialdata": {"rt": 599, "stimulus": "<p id='stroop-text' class='stroop-yellow'>YELLOW</p>", "response": "y", "stimulus-type": "congruent", "word": "yellow", "color": "yellow", "correct_response": "y", "trial_id": "stroop-trial-1-congruent-15", "trial_type": "html-keyboard-response", "trial_index": 208, "time_elapsed": 380851, "internal_node_id": "0.0-8.0-22.0"}}, {"uniqueid": "w62656789:a67839834", "current_trial": 209, "dateTime": 1664555390951, "trialdata": {"rt": 505, "stimulus": "<p id='stroop-text' class='stroop-yellow'>YELLOW</p>", "response": "y", "stimulus-type": "congruent", "word": "yellow", "color": "yellow", "correct_response": "y", "trial_id": "stroop-trial-1-congruent-5", "trial_type": "html-keyboard-response", "trial_index": 209, "time_elapsed": 381861, "internal_node_id": "0.0-8.0-23.0"}}, {"uniqueid": "w62656789:a67839834", "current_trial": 210, "dateTime": 1664555392079, "trialdata": {"rt": 611, "stimulus": "<p id='stroop-text' class='stroop-blue'>GREEN</p>", "response": "b", "stimulus-type": "incongruent", "word": "green", "color": "blue", "correct_response": "b", "trial_id": "stroop-trial-1-incongruent-7", "trial_type": "html-keyboard-response", "trial_index": 210, "time_elapsed": 382989, "internal_node_id": "0.0-8.0-24.0"}}, {"uniqueid": "w62656789:a67839834", "current_trial": 211, "dateTime": 1664555393216, "trialdata": {"rt": 621, "stimulus": "<p id='stroop-text' class='stroop-yellow'>YELLOW</p>", "response": "y", "stimulus-type": "congruent", "word": "yellow", "color": "yellow", "correct_response": "y", "trial_id": "stroop-trial-1-congruent-23", "trial_type": "html-keyboard-response", "trial_index": 211, "time_elapsed": 384125, "internal_node_id": "0.0-8.0-25.0"}}, {"uniqueid": "w62656789:a67839834", "current_trial": 212, "dateTime": 1664555394392, "trialdata": {"rt": 664, "stimulus": "<p id='stroop-text' class='stroop-green'>BRIDGE</p>", "response": "g", "stimulus-type": "unrelated", "word": "BRIDGE", "color": "green", "correct_response": "g", "trial_id": "stroop-trial-1-unrelated-22", "trial_type": "html-keyboard-response", "trial_index": 212, "time_elapsed": 385302, "internal_node_id": "0.0-8.0-26.0"}}, {"uniqueid": "w62656789:a67839834", "current_trial": 213, "dateTime": 1664555395413, "trialdata": {"rt": 520, "stimulus": "<p id='stroop-text' class='stroop-green'>YELLOW</p>", "response": "g", "stimulus-type": "incongruent", "word": "yellow", "color": "green", "correct_response": "g", "trial_id": "stroop-trial-1-incongruent-21", "trial_type": "html-keyboard-response", "trial_index": 213, "time_elapsed": 386323, "internal_node_id": "0.0-8.0-27.0"}}, {"uniqueid": "w62656789:a67839834", "current_trial": 214, "dateTime": 1664555396557, "trialdata": {"rt": 635, "stimulus": "<p id='stroop-text' class='stroop-blue'>YELLOW</p>", "response": "b", "stimulus-type": "incongruent", "word": "yellow", "color": "blue", "correct_response": "b", "trial_id": "stroop-trial-1-incongruent-13", "trial_type": "html-keyboard-response", "trial_index": 214, "time_elapsed": 387467, "internal_node_id": "0.0-8.0-28.0"}}, {"uniqueid": "w62656789:a67839834", "current_trial": 215, "dateTime": 1664555397879, "trialdata": {"rt": 816, "stimulus": "<p id='stroop-text' class='stroop-green'>YELLOW</p>", "response": "g", "stimulus-type": "incongruent", "word": "yellow", "color": "green", "correct_response": "g", "trial_id": "stroop-trial-1-incongruent-4", "trial_type": "html-keyboard-response", "trial_index": 215, "time_elapsed": 388789, "internal_node_id": "0.0-8.0-29.0"}}, {"uniqueid": "w62656789:a67839834", "current_trial": 216, "dateTime": 1664555399075, "trialdata": {"rt": 688, "stimulus": "<p id='stroop-text' class='stroop-blue'>RED</p>", "response": "b", "stimulus-type": "incongruent", "word": "red", "color": "blue", "correct_response": "b", "trial_id": "stroop-trial-1-incongruent-23", "trial_type": "html-keyboard-response", "trial_index": 216, "time_elapsed": 389985, "internal_node_id": "0.0-8.0-30.0"}}, {"uniqueid": "w62656789:a67839834", "current_trial": 217, "dateTime": 1664555400158, "trialdata": {"rt": 567, "stimulus": "<p id='stroop-text' class='stroop-yellow'>YELLOW</p>", "response": "y", "stimulus-type": "congruent", "word": "yellow", "color": "yellow", "correct_response": "y", "trial_id": "stroop-trial-1-congruent-9", "trial_type": "html-keyboard-response", "trial_index": 217, "time_elapsed": 391068, "internal_node_id": "0.0-8.0-31.0"}}, {"uniqueid": "w62656789:a67839834", "current_trial": 218, "dateTime": 1664555401254, "trialdata": {"rt": 588, "stimulus": "<p id='stroop-text' class='stroop-blue'>YELLOW</p>", "response": "b", "stimulus-type": "incongruent", "word": "yellow", "color": "blue", "correct_response": "b", "trial_id": "stroop-trial-1-incongruent-18", "trial_type": "html-keyboard-response", "trial_index": 218, "time_elapsed": 392164, "internal_node_id": "0.0-8.0-32.0"}}, {"uniqueid": "w62656789:a67839834", "current_trial": 219, "dateTime": 1664555402438, "trialdata": {"rt": 681, "stimulus": "<p id='stroop-text' class='stroop-yellow'>YELLOW</p>", "response": "y", "stimulus-type": "congruent", "word": "yellow", "color": "yellow", "correct_response": "y", "trial_id": "stroop-trial-1-congruent-7", "trial_type": "html-keyboard-response", "trial_index": 219, "time_elapsed": 393348, "internal_node_id": "0.0-8.0-33.0"}}, {"uniqueid": "w62656789:a67839834", "current_trial": 220, "dateTime": 1664555403469, "trialdata": {"rt": 515, "stimulus": "<p id='stroop-text' class='stroop-red'>CHAIR</p>", "response": "r", "stimulus-type": "unrelated", "word": "CHAIR", "color": "red", "correct_response": "r", "trial_id": "stroop-trial-1-unrelated-18", "trial_type": "html-keyboard-response", "trial_index": 220, "time_elapsed": 394379, "internal_node_id": "0.0-8.0-34.0"}}, {"uniqueid": "w62656789:a67839834", "current_trial": 221, "dateTime": 1664555404499, "trialdata": {"rt": 516, "stimulus": "<p id='stroop-text' class='stroop-red'>CHAIR</p>", "response": "r", "stimulus-type": "unrelated", "word": "CHAIR", "color": "red", "correct_response": "r", "trial_id": "stroop-trial-1-unrelated-8", "trial_type": "html-keyboard-response", "trial_index": 221, "time_elapsed": 395409, "internal_node_id": "0.0-8.0-35.0"}}, {"uniqueid": "w62656789:a67839834", "current_trial": 222, "dateTime": 1664555405497, "trialdata": {"rt": 484, "stimulus": "<p id='stroop-text' class='stroop-yellow'>BLUE</p>", "response": "g", "stimulus-type": "incongruent", "word": "blue", 