{"condition": 1, "counterbalance": 0, "assignmentId": "a61106465", "workerId": "w40648109", "hitId": "h35399887", "currenttrial": 143, "bonus": 0, "data": [{"uniqueid": "w40648109:a61106465", "current_trial": 0, "dateTime": 1664367948459, "trialdata": {"success": true, "trial_type": "fullscreen", "trial_index": 0, "time_elapsed": 11926, "internal_node_id": "0.0-0.0"}}, {"uniqueid": "w40648109:a61106465", "current_trial": 1, "dateTime": 1664367994418, "trialdata": {"view_history": [{"page_index": 0, "viewing_time": 45927}], "rt": 45930, "trial_id": "exp_instructions_no_distractor", "trial_type": "instructions", "trial_index": 1, "time_elapsed": 57887, "internal_node_id": "0.0-1.0"}}, {"uniqueid": "w40648109:a61106465", "current_trial": 2, "dateTime": 1664367999527, "trialdata": {"success": true, "trial_type": "fullscreen", "trial_index": 2, "time_elapsed": 62996, "internal_node_id": "0.0-2.0-0.0"}}, {"uniqueid": "w40648109:a61106465", "current_trial": 3, "dateTime": 1664368230025, "trialdata": {"view_history": [{"page_index": 0, "viewing_time": 95328}, {"page_index": 1, "viewing_time": 70245}, {"page_index": 2, "viewing_time": 21002}, {"page_index": 3, "viewing_time": 12068}, {"page_index": 4, "viewing_time": 31848}], "rt": 230492, "trial_id": "mouselab_instructions_1", "trial_type": "instructions", "trial_index": 3, "time_elapsed": 293494, "internal_node_id": "0.0-2.0-1.0"}}, {"uniqueid": "w40648109:a61106465", "current_trial": 4, "dateTime": 1664368268762, "trialdata": {"revealed_states": [], "num_clicks_accrued": [0, 0, 0, 0, 0, 0, 0, 0, 0, 0, 0, 0, 0], "stateRewards": ["", 10, 10, 10, -10, -10, 10, 10, -10, 10, 10, -10, -10], "withholdReward": false, "trial_id": "practice_1", "block": "test", "trialIndex": 0, "score": 11.5, "costs": -0.5, "simulationMode": [null, null, null], "rewards": [10, 10, -10], "path": ["0", "0", "9", "10", "12"], "rt": [12777, 9299, 1800], "actions": ["left", "left", "down"], "actionTimes": [21332, 31121, 33437], "queries": {"click": {"state": {"target": ["5", "9"], "time": [17874, 19355]}, "edge": {"target": [], "time": []}}, "mouseover": {"state": {"target": ["5", "0", "9"], "time": [14202, 18886, 19119]}, "edge": {"target": [], "time": []}}, "mouseout": {"state": {"target": ["3", "5", "0", "5", "0", "9", "0", "9", "10", "9"], "time": [7284, 7434, 14069, 18768, 19018, 20101, 22562, 22834, 24251, 24485]}, "edge": {"target": [], "time": []}}}, "displayed_time": "33.94", "trialTime": 37126, "trial_type": "mouselab-mdp", "trial_index": 4, "time_elapsed": 332229, "internal_node_id": "0.0-2.0-2.0-0.0"}}, {"uniqueid": "w40648109:a61106465", "current_trial": 5, "dateTime": 1664368296947, "trialdata": {"revealed_states": [], "num_clicks_accrued": [0, 0, 0, 0, 0, 0, 0, 0, 0, 0, 0, 0, 0], "stateRewards": ["", 10, -10, -10, -10, 10, 10, -10, -10, -10, 10, -10, 10], "withholdReward": false, "trial_id": "practice_2", "block": "test", "trialIndex": 1, "score": 10.25, "costs": -1.75, "simulationMode": [null, null, null], "rewards": [10, 10, -10], "path": ["0", "0", "5", "6", "8"], "rt": [20503, 132, 197], "actions": ["right", "right", "down"], "actionTimes": [23983, 24607, 25322], "queries": {"click": {"state": {"target": ["1", "2", "9", "5", "6", "7", "8"], "time": [9803, 10900, 13214, 15195, 15856, 16672, 18028]}, "edge": {"target": [], "time": []}}, "mouseover": {"state": {"target": ["9", "5", "1", "2", "9", "0", "5", "6", "7", "8"], "time": [8625, 9122, 9547, 10556, 13024, 14723, 14974, 15590, 16439, 17756]}, "edge": {"target": [], "time": []}}, "mouseout": {"state": {"target": ["0", "9", "5", "1", "2", "1", "9", "9", "9", "0", "5", "6", "6", "7", "6", "8", "8", "5"], "time": [7729, 8724, 9223, 10356, 11706, 12273, 13756, 14524, 14689, 14905, 15556, 16174, 16389, 17040, 17709, 18324, 18811, 20272]}, "edge": {"target": [], "time": []}}}, "displayed_time": "25.82", "trialTime": 27967, "trial_type": "mouselab-mdp", "trial_index": 5, "time_elapsed": 360416, "internal_node_id": "0.0-2.0-2.0-1.0"}}, {"uniqueid": "w40648109:a61106465", "current_trial": 6, "dateTime": 1664368409068, "trialdata": {"view_history": [{"page_index": 0, "viewing_time": 57699}, {"page_index": 1, "viewing_time": 30443}, {"page_index": 2, "viewing_time": 23971}], "rt": 112115, "trial_id": "mouselab_instructions_2_scarce", "trial_type": "instructions", "trial_index": 6, "time_elapsed": 472537, "internal_node_id": "0.0-2.0-3.0"}}, {"uniqueid": "w40648109:a61106465", "current_trial": 7, "dateTime": 1664368486033, "trialdata": {"rt": 76954, "response": {"Q0": "$-48 to $48", "Q1": "The cost is always $0.25.", "Q2": "The better I perform the higher my bonus will be.", "Q3": "No, the structure of the web will be different each time.", "Q4": "The values of the nodes walked through from start to finish.", "Q5": "No, the spider might forget to count the money on some rounds."}, "question_order": [0, 1, 2, 3, 4, 5], "correct": {"Q0": "$-48 to $48", "Q1": "The cost is always $0.25.", "Q2": "The better I perform the higher my bonus will be.", "Q3": "No, the amount of cash at each node of the web may be different each time.", "Q4": "The values of the nodes walked through from start to finish.", "Q5": "No, the spider might forget to count the money on some rounds."}, "trial_id": "mouselab_quiz_scarce", "trial_type": "survey-multi-choice", "trial_index": 7, "time_elapsed": 549502, "internal_node_id": "0.0-2.0-4.0"}}, {"uniqueid": "w40648109:a61106465", "current_trial": 8, "dateTime": 1664368500896, "trialdata": {"success": true, "trial_type": "fullscreen", "trial_index": 8, "time_elapsed": 564364, "internal_node_id": "0.0-2.1-0.1"}}, {"uniqueid": "w40648109:a61106465", "current_trial": 9, "dateTime": 1664368508953, "trialdata": {"view_history": [{"page_index": 0, "viewing_time": 1955}, {"page_index": 1, "viewing_time": 1081}, {"page_index": 2, "viewing_time": 1514}, {"page_index": 3, "viewing_time": 2323}, {"page_index": 4, "viewing_time": 1172}], "rt": 8046, "trial_id": "mouselab_instructions_1", "trial_type": "instructions", "trial_index": 9, "time_elapsed": 572422, "internal_node_id": "0.0-2.1-1.1"}}, {"uniqueid": "w40648109:a61106465", "current_trial": 10, "dateTime": 1664368520120, "trialdata": {"revealed_states": [], "num_clicks_accrued": [0, 0, 0, 0, 0, 0, 0, 0, 0, 0, 0, 0, 0], "stateRewards": ["", 10, 10, 10, -10, -10, 10, 10, -10, 10, 10, -10, -10], "withholdReward": false, "trial_id": "practice_1", "block": "test", "trialIndex": 2, "score": 11.25, "costs": -0.75, "simulationMode": [null, null, null], "rewards": [10, 10, -10], "path": ["0", "0", "9", "10", "12"], "rt": [4848, 187, 159], "actions": ["left", "left", "down"], "actionTimes": [6996, 7689, 8345], "queries": {"click": {"state": {"target": ["5", "6", "8"], "time": [3469, 4086, 4586]}, "edge": {"target": [], "time": []}}, "mouseover": {"state": {"target": ["5", "6", "8"], "time": [3332, 3932, 4282]}, "edge": {"target": [], "time": []}}, "mouseout": {"state": {"target": ["0", "5", "6", "8"], "time": [3049, 3823, 4265, 5199]}, "edge": {"target": [], "time": []}}}, "displayed_time": "8.85", "trialTime": 10947, "trial_type": "mouselab-mdp", "trial_index": 10, "time_elapsed": 583588, "internal_node_id": "0.0-2.1-2.1-0.1"}}, {"uniqueid": "w40648109:a61106465", "current_trial": 11, "dateTime": 1664368528005, "trialdata": {"revealed_states": [], "num_clicks_accrued": [0, 0, 0, 0, 0, 0, 0, 0, 0, 0, 0, 0, 0], "stateRewards": ["", 10, -10, -10, -10, 10, 10, -10, -10, -10, 10, -10, 10], "withholdReward": false, "trial_id": "practice_2", "block": "test", "trialIndex": 3, "score": 12, "costs": 0, "simulationMode": [null, null, null], "rewards": [-10, 10, 10], "path": ["0", "0", "9", "10", "12"], "rt": [1206, 296, 51], "actions": ["left", "left", "down"], "actionTimes": [4894, 5708, 6263], "queries": {"click": {"state": {"target": [], "time": []}, "edge": {"target": [], "time": []}}, "mouseover": {"state": {"target": [], "time": []}, "edge": {"target": [], "time": []}}, "mouseout": {"state": {"target": ["0"], "time": [3892]}, "edge": {"target": [], "time": []}}}, "displayed_time": "6.78", "trialTime": 7710, "trial_type": "mouselab-mdp", "trial_index": 11, "time_elapsed": 591474, "internal_node_id": "0.0-2.1-2.1-1.1"}}, {"uniqueid": "w40648109:a61106465", "current_trial": 12, "dateTime": 1664368551036, "trialdata": {"view_history": [{"page_index": 0, "viewing_time": 18929}, {"page_index": 1, "viewing_time": 3000}, {"page_index": 2, "viewing_time": 1091}], "rt": 23021, "trial_id": "mouselab_instructions_2_scarce", "trial_type": "instructions", "trial_index": 12, "time_elapsed": 614505, "internal_node_id": "0.0-2.1-3.1"}}, {"uniqueid": "w40648109:a61106465", "current_trial": 13, "dateTime": 1664368583536, "trialdata": {"rt": 32489, "response": {"Q0": "$-48 to $48", "Q1": "The cost is always $0.25.", "Q2": "The better I perform the higher my bonus will be.", "Q3": "No, the amount of cash at each node of the web may be different each time.", "Q4": "The values of the nodes walked through from start to finish.", "Q5": "No, the spider might forget to count the money on some rounds."}, "question_order": [0, 1, 2, 3, 4, 5], "correct": {"Q0": "$-48 to $48", "Q1": "The cost is always $0.25.", "Q2": "The better I perform the higher my bonus will be.", "Q3": "No, the amount of cash at each node of the web may be different each time.", "Q4": "The values of the nodes walked through from start to finish.", "Q5": "No, the spider might forget to count the money on some rounds."}, "trial_id": "mouselab_quiz_scarce", "trial_type": "survey-multi-choice", "trial_index": 13, "time_elapsed": 647004, "internal_node_id": "0.0-2.1-4.1"}}, {"uniqueid": "w40648109:a61106465", "current_trial": 14, "dateTime": 1664368585801, "trialdata": {"rt": 2232, "stimulus": "\n<h1> Get ready to start the game! </h1>\n\nThank you for reading the instructions. Get ready start with the first of 4 block(s) of this game.\n<br><br>\nIn this first block, you will complete 30 rounds of this game before moving on.\n<br><br>\nRemember, the more money the spider gets, the bigger your bonus will be!\n<br><br>\n<div style='text-align: center;'>Press <code>space</code> to begin.</div>\n\n<br><br>\n(If, at any point, the <code>space</code> key does not take you to the next page, click once on the text and try again.)", "response": " ", "trial_id": "mdp_ready_1", "trial_type": "html-keyboard-response", "trial_index": 14, "time_elapsed": 649269, "internal_node_id": "0.0-4.0-0.0"}}, {"uniqueid": "w40648109:a61106465", "current_trial": 15, "dateTime": 1664368608307, "trialdata": {"revealed_states": [], "num_clicks_accrued": [0, 0, 0, 0, 0, 0, 0, 0, 0, 0, 0, 0, 0], "stateRewards": ["", 2, 4, 24, 48, -2, 8, 24, -24, -4, -4, 48, 48], "withholdReward": true, "trial_id": "mdp_753439303214", "block": "test1", "trialIndex": 4, "score": 34, "costs": -1, "simulationMode": [null, null, null], "rewards": [2, 4, 24], "path": ["0", "0", "1", "2", "3"], "rt": [6071, 6, 7858], "actions": ["up", "up", "right"], "actionTimes": [11129, 11657, 20030], "queries": {"click": {"state": {"target": ["5", "9", "1", "2"], "time": [6175, 7843, 9109, 9937]}, "edge": {"target": [], "time": []}}, "mouseover": {"state": {"target": ["0", "5", "6", "0", "9", "1", "2"], "time": [5185, 5890, 6718, 7253, 7652, 8703, 9619]}, "edge": {"target": [], "time": []}}, "mouseout": {"state": {"target": ["0", "0", "5", "6", "5", "0", "9", "9", "1", "2", "5"], "time": [4755, 5218, 6553, 7086, 7153, 7418, 8269, 8536, 9519, 10120, 15986]}, "edge": {"target": [], "time": []}}}, "displayed_time": "20.52", "trialTime": 22287, "trial_type": "mouselab-mdp", "trial_index": 15, "time_elapsed": 671774, "internal_node_id": "0.0-4.0-1.0-0.0"}}, {"uniqueid": "w40648109:a61106465", "current_trial": 16, "dateTime": 1664368623165, "trialdata": {"revealed_states": [], "num_clicks_accrued": [0, 0, 0, 0, 0, 0, 0, 0, 0, 0, 0, 0, 0], "stateRewards": ["", 2, -4, -48, 24, 4, 4, 48, -48, -2, -4, -24, -48], "withholdReward": true, "trial_id": "mdp_858916930936", "block": "test1", "trialIndex": 5, "score": -45, "costs": 0, "simulationMode": [null, null, null], "rewards": [2, -4, -48], "path": ["0", "0", "1", "2", "3"], "rt": [1194, 316, 412], "actions": ["up", "up", "right"], "actionTimes": [6553, 7371, 8284], "queries": {"click": {"state": {"target": [], "time": []}, "edge": {"target": [], "time": []}}, "mouseover": {"state": {"target": ["0"], "time": [5517]}, "edge": {"target": [], "time": []}}, "mouseout": {"state": {"target": ["0", "0"], "time": [5084, 13445]}, "edge": {"target": [], "time": []}}}, "displayed_time": "13.36", "trialTime": 14612, "trial_type": "mouselab-mdp", "trial_index": 16, "time_elapsed": 686634, "internal_node_id": "0.0-4.0-1.0-1.0"}}, {"uniqueid": "w40648109:a61106465", "current_trial": 17, "dateTime": 1664368636957, "trialdata": {"revealed_states": [], "num_clicks_accrued": [0, 0, 0, 0, 0, 0, 0, 0, 0, 0, 0, 0, 0], "stateRewards": ["", 2, 4, -48, -24, -4, 4, -24, 24, -2, -8, -24, 24], "withholdReward": false, "trial_id": "mdp_640720803523", "block": "test1", "trialIndex": 6, "score": 29, "costs": 0, "simulationMode": [null, null, null], "rewards": [-4, 4, 24], "path": ["0", "0", "5", "6", "8"], "rt": [1013, 200, 162], "actions": ["right", "right", "down"], "actionTimes": [3596, 4304, 4966], "queries": {"click": {"state": {"target": [], "time": []}, "edge": {"target": [], "time": []}}, "mouseover": {"state": {"target": [], "time": []}, "edge": {"target": [], "time": []}}, "mouseout": {"state": {"target": ["0"], "time": [1983]}, "edge": {"target": [], "time": []}}}, "displayed_time": "10.58", "trialTime": 13586, "trial_type": "mouselab-mdp", "trial_index": 17, "time_elapsed": 700426, "internal_node_id": "0.0-4.0-1.0-2.0"}}, {"uniqueid": "w40648109:a61106465", "current_trial": 18, "dateTime": 1664368651549, "trialdata": {"revealed_states": [], "num_clicks_accrued": [0, 0, 0, 0, 0, 0, 0, 0, 0, 0, 0, 0, 0], "stateRewards": ["", -4, -4, 24, -24, 4, 4, 24, 48, 4, -4, 48, -48], "withholdReward": true, "trial_id": "mdp_522385334882", "block": "test1", "trialIndex": 7, "score": 36.25, "costs": -0.75, "simulationMode": [null, null, null], "rewards": [4, 4, 24], "path": ["0", "0", "5", "6", "7"], "rt": [5117, 198, 132], "actions": ["right", "right", "up"], "actionTimes": [9997, 10701, 11335], "queries": {"click": {"state": {"target": ["5", "6", "7"], "time": [6218, 7357, 8529]}, "edge": {"target": [], "time": []}}, "mouseover": {"state": {"target": ["5", "6", "7"], "time": [5734, 6734, 8250]}, "edge": {"target": [], "time": []}}, "mouseout": {"state": {"target": ["0", "0", "5", "6", "6", "7"], "time": [1065, 5257, 6700, 7717, 8133, 9135]}, "edge": {"target": [], "time": []}}}, "displayed_time": "12.88", "trialTime": 14378, "trial_type": "mouselab-mdp", "trial_index": 18, "time_elapsed": 715018, "internal_node_id": "0.0-4.0-1.0-3.0"}}, {"uniqueid": "w40648109:a61106465", "current_trial": 19, "dateTime": 1664368664292, "trialdata": {"revealed_states": [], "num_clicks_accrued": [0, 0, 0, 0, 0, 0, 0, 0, 0, 0, 0, 0, 0], "stateRewards": ["", -4, -8, 48, 24, 4, -8, 24, -48, -2, -8, 24, -48], "withholdReward": false, "trial_id": "mdp_952038635544", "block": "test1", "trialIndex": 8, "score": 17, "costs": 0, "simulationMode": [null, null, null], "rewards": [-4, -8, 24], "path": ["0", "0", "1", "2", "4"], "rt": [1554, 117, 2], "actions": ["up", "up", "left"], "actionTimes": [3720, 4348, 4848], "queries": {"click": {"state": {"target": [], "time": []}, "edge": {"target": [], "time": []}}, "mouseover": {"state": {"target": [], "time": []}, "edge": {"target": [], "time": []}}, "mouseout": {"state": {"target": ["6", "5"], "time": [1043, 1226]}, "edge": {"target": [], "time": []}}}, "displayed_time": "11.17", "trialTime": 12565, "trial_type": "mouselab-mdp", "trial_index": 19, "time_elapsed": 727761, "internal_node_id": "0.0-4.0-1.0-4.0"}}, {"uniqueid": "w40648109:a61106465", "current_trial": 20, "dateTime": 1664368676054, "trialdata": {"revealed_states": [], "num_clicks_accrued": [0, 0, 0, 0, 0, 0, 0, 0, 0, 0, 0, 0, 0], "stateRewards": ["", -2, -4, -48, -48, 4, 8, 24, -48, 4, -8, 24, 24], "withholdReward": true, "trial_id": "mdp_749799219195", "block": "test1", "trialIndex": 9, "score": 25, "costs": 0, "simulationMode": [null, null, null], "rewards": [4, -8, 24], "path": ["0", "0", "9", "10", "12"], "rt": [1077, 153, 24], "actions": ["left", "left", "down"], "actionTimes": [3542, 4194, 4730], "queries": {"click": {"state": {"target": [], "time": []}, "edge": {"target": [], "time": []}}, "mouseover": {"state": {"target": [], "time": []}, "edge": {"target": [], "time": []}}, "mouseout": {"state": {"target": ["0", "0", "0"], "time": [1773, 2252, 9954]}, "edge": {"target": [], "time": []}}}, "displayed_time": "10.47", "trialTime": 11519, "trial_type": "mouselab-mdp", "trial_index": 20, "time_elapsed": 739523, "internal_node_id": "0.0-4.0-1.0-5.0"}}, {"uniqueid": "w40648109:a61106465", "current_trial": 21, "dateTime": 1664368694377, "trialdata": {"revealed_states": [], "num_clicks_accrued": [0, 0, 0, 0, 0, 0, 0, 0, 0, 0, 0, 0, 0], "stateRewards": ["", 2, -4, -24, -48, -2, 8, -24, 48, -2, 8, 24, -48], "withholdReward": false, "trial_id": "mdp_566582551557", "block": "test1", "trialIndex": 10, "score": 57, "costs": -2, "simulationMode": [null, null, null], "rewards": [-2, 8, 48], "path": ["0", "0", "5", "6", "8"], "rt": [11246, 711, 238], "actions": ["right", "right", "down"], "actionTimes": [12626, 13850, 14593], "queries": {"click": {"state": {"target": ["5", "9", "1", "2", "3", "4", "10", "12"], "time": [2332, 3425, 4416, 5161, 6503, 7441, 9126, 10183]}, "edge": {"target": [], "time": []}}, "mouseover": {"state": {"target": ["5", "0", "9", "1", "2", "3", "4", "10", "12", "0"], "time": [2136, 2918, 3252, 4253, 5070, 6369, 7170, 8768, 9986, 10802]}, "edge": {"target": [], "time": []}}, "mouseout": {"state": {"target": ["0", "5", "0", "9", "1", "2", "3", "2", "4", "1", "9", "10", "12", "0", "5"], "time": [1678, 2836, 2936, 4104, 4853, 6285, 6873, 7052, 8009, 8203, 8685, 9902, 10654, 10852, 11287]}, "edge": {"target": [], "time": []}}}, "displayed_time": "15.09", "trialTime": 18108, "trial_type": "mouselab-mdp", "trial_index": 21, "time_elapsed": 757846, "internal_node_id": "0.0-4.0-1.0-6.0"}}, {"uniqueid": "w40648109:a61106465", "current_trial": 22, "dateTime": 1664368709558, "trialdata": {"revealed_states": [], "num_clicks_accrued": [0, 0, 0, 0, 0, 0, 0, 0, 0, 0, 0, 0, 0], "stateRewards": ["", 2, 4, -24, -48, 4, -4, 24, 48, -4, -4, -24, 48], "withholdReward": true, "trial_id": "mdp_181958792175", "block": "test1", "trialIndex": 11, "score": 27.25, "costs": -1.75, "simulationMode": [null, null, null], "rewards": [4, -4, 24], "path": ["0", "0", "5", "6", "7"], "rt": [10024, 4, 1042], "actions": ["right", "right", "up"], "actionTimes": [11462, 11966, 13537], "queries": {"click": {"state": {"target": ["1", "2", "3", "4", "5", "6", "7"], "time": [3218, 4257, 5096, 6023, 7270, 7822, 9569]}, "edge": {"target": [], "time": []}}, "mouseover": {"state": {"target": ["0", "1", "2", "3", "4", "5", "6", "0", "0", "7", "8"], "time": [1632, 3006, 3806, 4890, 5898, 7023, 7690, 8623, 9039, 9389, 10089]}, "edge": {"target": [], "time": []}}, "mouseout": {"state": {"target": ["0", "0", "1", "2", "3", "2", "4", "1", "5", "6", "5", "0", "0", "5", "6", "7", "6", "8"], "time": [922, 2789, 3673, 4839, 5512, 5723, 6556, 6739, 7606, 8491, 8575, 8790, 9056, 9091, 9290, 9894, 10006, 10223]}, "edge": {"target": [], "time": []}}}, "displayed_time": "14.05", "trialTime": 14892, "trial_type": "mouselab-mdp", "trial_index": 22, "time_elapsed": 773026, "internal_node_id": "0.0-4.0-1.0-7.0"}}, {"uniqueid": "w40648109:a61106465", "current_trial": 23, "dateTime": 1664368720026, "trialdata": {"revealed_states": [], "num_clicks_accrued": [0, 0, 0, 0, 0, 0, 0, 0, 0, 0, 0, 0, 0], "stateRewards": ["", -4, 4, 48, 24, -4, 4, -24, 48, -2, -8, 24, -48], "withholdReward": true, "trial_id": "mdp_261501605436", "block": "test1", "trialIndex": 12, "score": -19, "costs": 0, "simulationMode": [null, null, null], "rewards": [-4, 4, -24], "path": ["0", "0", "5", "6", "7"], "rt": [1353, 510, 483], "actions": ["right", "right", "up"], "actionTimes": [3879, 4906, 5896], "queries": {"click": {"state": {"target": [], "time": []}, "edge": {"target": [], "time": []}}, "mouseover": {"state": {"target": ["0"], "time": [2710]}, "edge": {"target": [], "time": []}}, "mouseout": {"state": {"target": ["5"], "time": [2125]}, "edge": {"target": [], "time": []}}}, "displayed_time": "9.53", "trialTime": 10230, "trial_type": "mouselab-mdp", "trial_index": 23, "time_elapsed": 783494, "internal_node_id": "0.0-4.0-1.0-8.0"}}, {"uniqueid": "w40648109:a61106465", "current_trial": 24, "dateTime": 1664368729480, "trialdata": {"revealed_states": [], "num_clicks_accrued": [0, 0, 0, 0, 0, 0, 0, 0, 0, 0, 0, 0, 0], "stateRewards": ["", -4, 8, 24, 24, 2, 4, -48, 24, -2, -4, -24, -24], "withholdReward": true, "trial_id": "mdp_752328329546", "block": "test1", "trialIndex": 13, "score": -25, "costs": 0, "simulationMode": [null, null, null], "rewards": [-2, -4, -24], "path": ["0", "0", "9", "10", "11"], "rt": [1156, 78, 186], "actions": ["left", "left", "up"], "actionTimes": [1603, 2174, 2882], "queries": {"click": {"state": {"target": [], "time": []}, "edge": {"target": [], "time": []}}, "mouseover": {"state": {"target": [], "time": []}, "edge": {"target": [], "time": []}}, "mouseout": {"state": {"target": [], "time": []}, "edge": {"target": [], "time": []}}}, "displayed_time": "8.45", "trialTime": 9151, "trial_type": "mouselab-mdp", "trial_index": 24, "time_elapsed": 792948, "internal_node_id": "0.0-4.0-1.0-9.0"}}, {"uniqueid": "w40648109:a61106465", "current_trial": 25, "dateTime": 1664368739427, "trialdata": {"revealed_states": [], "num_clicks_accrued": [0, 0, 0, 0, 0, 0, 0, 0, 0, 0, 0, 0, 0], "stateRewards": ["", 4, 8, -48, -48, 2, 4, -24, -48, 2, 8, 48, -48], "withholdReward": true, "trial_id": "mdp_902172716465", "block": "test1", "trialIndex": 14, "score": -33, "costs": 0, "simulationMode": [null, null, null], "rewards": [2, 8, -48], "path": ["0", "0", "9", "10", "12"], "rt": [1033, 502, 365], "actions": ["left", "left", "down"], "actionTimes": [1840, 2842, 3705], "queries": {"click": {"state": {"target": [], "time": []}, "edge": {"target": [], "time": []}}, "mouseover": {"state": {"target": [], "time": []}, "edge": {"target": [], "time": []}}, "mouseout": {"state": {"target": [], "time": []}, "edge": {"target": [], "time": []}}}, "displayed_time": "8.81", "trialTime": 9658, "trial_type": "mouselab-mdp", "trial_index": 25, "time_elapsed": 802896, "internal_node_id": "0.0-4.0-1.0-10.0"}}, {"uniqueid": "w40648109:a61106465", "current_trial": 26, "dateTime": 1664368751324, "trialdata": {"revealed_states": [], "num_clicks_accrued": [0, 0, 0, 0, 0, 0, 0, 0, 0, 0, 0, 0, 0], "stateRewards": ["", -2, -8, 48, 24, -2, 8, -48, -24, -2, 4, -48, 48], "withholdReward": true, "trial_id": "mdp_295220852217", "block": "test1", "trialIndex": 15, "score": -13, "costs": 0, "simulationMode": [null, null, null], "rewards": [-2, 8, -24], "path": ["0", "0", "5", "6", "8"], "rt": [1206, 130, 149], "actions": ["right", "right", "down"], "actionTimes": [3235, 3861, 4530], "queries": {"click": {"state": {"target": [], "time": []}, "edge": {"target": [], "time": []}}, "mouseover": {"state": {"target": [], "time": []}, "edge": {"target": [], "time": []}}, "mouseout": {"state": {"target": [], "time": []}, "edge": {"target": [], "time": []}}}, "displayed_time": "11.03", "trialTime": 11629, "trial_type": "mouselab-mdp", "trial_index": 26, "time_elapsed": 814792, "internal_node_id": "0.0-4.0-1.0-11.0"}}, {"uniqueid": "w40648109:a61106465", "current_trial": 27, "dateTime": 1664368764559, "trialdata": {"revealed_states": [], "num_clicks_accrued": [0, 0, 0, 0, 0, 0, 0, 0, 0, 0, 0, 0, 0], "stateRewards": ["", -2, 8, 48, 48, 4, -8, -48, 48, 2, -4, -48, 48], "withholdReward": true, "trial_id": "mdp_132958048709", "block": "test1", "trialIndex": 16, "score": 49, "costs": 0, "simulationMode": [null, null, null], "rewards": [4, -8, 48], "path": ["0", "0", "5", "6", "8"], "rt": [973, 383, 198], "actions": ["right", "right", "down"], "actionTimes": [2723, 3599, 4314], "queries": {"click": {"state": {"target": [], "time": []}, "edge": {"target": [], "time": []}}, "mouseover": {"state": {"target": [], "time": []}, "edge": {"target": [], "time": []}}, "mouseout": {"state": {"target": [], "time": []}, "edge": {"target": [], "time": []}}}, "displayed_time": "11.75", "trialTime": 12949, "trial_type": "mouselab-mdp", "trial_index": 27, "time_elapsed": 828027, "internal_node_id": "0.0-4.0-1.0-12.0"}}, {"uniqueid": "w40648109:a61106465", "current_trial": 28, "dateTime": 1664368776525, "trialdata": {"revealed_states": [], "num_clicks_accrued": [0, 0, 0, 0, 0, 0, 0, 0, 0, 0, 0, 0, 0], "stateRewards": ["", -2, -8, 24, -24, 4, -8, 48, 48, -4, -8, -24, -48], "withholdReward": true, "trial_id": "mdp_286767261523", "block": "test1", "trialIndex": 17, "score": 48, "costs": -1, "simulationMode": [null, null, null], "rewards": [4, -8, 48], "path": ["0", "0", "5", "6", "7"], "rt": [4664, 632, 525], "actions": ["right", "right", "up"], "actionTimes": [5443, 6570, 7613], "queries": {"click": {"state": {"target": ["1", "5", "6", "7"], "time": [1814, 2644, 3257, 4021]}, "edge": {"target": [], "time": []}}, "mouseover": {"state": {"target": ["5", "1", "0", "5", "6", "7", "8"], "time": [1385, 1585, 2351, 2501, 3088, 3951, 4617]}, "edge": {"target": [], "time": []}}, "mouseout": {"state": {"target": ["0", "5", "1", "0", "5", "6", "7", "6"], "time": [1167, 1534, 2251, 2417, 3053, 3900, 4405, 4568]}, "edge": {"target": [], "time": []}}}, "displayed_time": "10.78", "trialTime": 11720, "trial_type": "mouselab-mdp", "trial_index": 28, "time_elapsed": 839993, "internal_node_id": "0.0-4.0-1.0-13.0"}}, {"uniqueid": "w40648109:a61106465", "current_trial": 29, "dateTime": 1664368788289, "trialdata": {"revealed_states": [], "num_clicks_accrued": [0, 0, 0, 0, 0, 0, 0, 0, 0, 0, 0, 0, 0], "stateRewards": ["", 2, 4, -48, 24, -4, 4, -24, 48, -2, -8, -48, 48], "withholdReward": true, "trial_id": "mdp_424193661731", "block": "test1", "trialIndex": 18, "score": 52.25, "costs": -0.75, "simulationMode": [null, null, null], "rewards": [-4, 4, 48], "path": ["0", "0", "5", "6", "8"], "rt": [3733, 196, 192], "actions": ["right", "right", "down"], "actionTimes": [6073, 6770, 7481], "queries": {"click": {"state": {"target": ["5", "6", "8"], "time": [3501, 4085, 4788]}, "edge": {"target": [], "time": []}}, "mouseover": {"state": {"target": ["5", "5", "5", "6", "8"], "time": [2719, 3136, 3343, 3969, 4671]}, "edge": {"target": [], "time": []}}, "mouseout": {"state": {"target": ["8", "0", "5", "5", "5", "6", "8"], "time": [1718, 2638, 2968, 3185, 3852, 4586, 5235]}, "edge": {"target": [], "time": []}}}, "displayed_time": "10.34", "trialTime": 11486, "trial_type": "mouselab-mdp", "trial_index": 29, "time_elapsed": 851757, "internal_node_id": "0.0-4.0-1.0-14.0"}}, {"uniqueid": "w40648109:a61106465", "current_trial": 30, "dateTime": 1664368799792, "trialdata": {"revealed_states": [], "num_clicks_accrued": [0, 0, 0, 0, 0, 0, 0, 0, 0, 0, 0, 0, 0], "stateRewards": ["", -2, 8, 48, 24, 2, -4, 48, -48, 2, 8, 24, -24], "withholdReward": true, "trial_id": "mdp_176207245985", "block": "test1", "trialIndex": 19, "score": 50, "costs": -1, "simulationMode": [null, null, null], "rewards": [2, -4, 48], "path": ["0", "0", "5", "6", "7"], "rt": [5161, 113, 553], "actions": ["right", "right", "up"], "actionTimes": [6386, 7005, 8061], "queries": {"click": {"state": {"target": ["5", "6", "8", "7"], "time": [2900, 3541, 4344, 5161]}, "edge": {"target": [], "time": []}}, "mouseover": {"state": {"target": ["5", "6", "8", "7"], "time": [2654, 3304, 4154, 5037]}, "edge": {"target": [], "time": []}}, "mouseout": {"state": {"target": ["0", "5", "6", "8", "6", "7"], "time": [1737, 3238, 4096, 4704, 4987, 5570]}, "edge": {"target": [], "time": []}}}, "displayed_time": "10.23", "trialTime": 11190, "trial_type": "mouselab-mdp", "trial_index": 30, "time_elapsed": 863260, "internal_node_id": "0.0-4.0-1.0-15.0"}}, {"uniqueid": "w40648109:a61106465", "current_trial": 31, "dateTime": 1664368811693, "trialdata": {"revealed_states": [], "num_clicks_accrued": [0, 0, 0, 0, 0, 0, 0, 0, 0, 0, 0, 0, 0], "stateRewards": ["", -4, -8, 48, -48, 2, -4, 48, -24, 2, -8, -48, -48], "withholdReward": true, "trial_id": "mdp_624553692913", "block": "test1", "trialIndex": 20, "score": 40.25, "costs": -0.75, "simulationMode": [null, null, null], "rewards": [-4, -8, 48], "path": ["0", "0", "1", "2", "3"], "rt": [3750, 198, 212], "actions": ["up", "up", "right"], "actionTimes": [5960, 6665, 7397], "queries": {"click": {"state": {"target": ["1", "2", "3"], "time": [2992, 3585, 4527]}, "edge": {"target": [], "time": []}}, "mouseover": {"state": {"target": ["1", "2", "3", "3"], "time": [2813, 3463, 4114, 4399]}, "edge": {"target": [], "time": []}}, "mouseout": {"state": {"target": ["6", "5", "1", "2", "3", "3", "1"], "time": [1595, 1678, 3346, 4096, 4147, 4735, 5063]}, "edge": {"target": [], "time": []}}}, "displayed_time": "10.21", "trialTime": 11634, "trial_type": "mouselab-mdp", "trial_index": 31, "time_elapsed": 875162, "internal_node_id": "0.0-4.0-1.0-16.0"}}, {"uniqueid": "w40648109:a61106465", "current_trial": 32, "dateTime": 1664368822534, "trialdata": {"revealed_states": [], "num_clicks_accrued": [0, 0, 0, 0, 0, 0, 0, 0, 0, 0, 0, 0, 0], "stateRewards": ["", -2, -8, 48, 24, 4, -8, 24, 48, 4, -4, 24, -48], "withholdReward": true, "trial_id": "mdp_871576155740", "block": "test1", "trialIndex": 21, "score": -43, "costs": 0, "simulationMode": [null, null, null], "rewards": [4, -4, -48], "path": ["0", "0", "9", "10", "12"], "rt": [2557, 65, 100], "actions": ["left", "left", "down"], "actionTimes": [3562, 4131, 4751], "queries": {"click": {"state": {"target": [], "time": []}, "edge": {"target": [], "time": []}}, "mouseover": {"state": {"target": ["0"], "time": [1081]}, "edge": {"target": [], "time": []}}, "mouseout": {"state": {"target": ["0", "0"], "time": [754, 2424]}, "edge": {"target": [], "time": []}}}, "displayed_time": "10.01", "trialTime": 10541, "trial_type": "mouselab-mdp", "trial_index": 32, "time_elapsed": 886002, "internal_node_id": "0.0-4.0-1.0-17.0"}}, {"uniqueid": "w40648109:a61106465", "current_trial": 33, "dateTime": 1664368834289, "trialdata": {"revealed_states": [], "num_clicks_accrued": [0, 0, 0, 0, 0, 0, 0, 0, 0, 0, 0, 0, 0], "stateRewards": ["", -2, 8, -24, 24, 2, -8, 48, -24, 2, 8, -24, -24], "withholdReward": true, "trial_id": "mdp_674708270444", "block": "test1", "trialIndex": 22, "score": 35, "costs": 0, "simulationMode": [null, null, null], "rewards": [-2, 8, 24], "path": ["0", "0", "1", "2", "4"], "rt": [1086, 353, 537], "actions": ["up", "up", "left"], "actionTimes": [2222, 3081, 4116], "queries": {"click": {"state": {"target": [], "time": []}, "edge": {"target": [], "time": []}}, "mouseover": {"state": {"target": [], "time": []}, "edge": {"target": [], "time": []}}, "mouseout": {"state": {"target": ["0"], "time": [691]}, "edge": {"target": [], "time": []}}}, "displayed_time": "10.14", "trialTime": 11442, "trial_type": "mouselab-mdp", "trial_index": 33, "time_elapsed": 897757, "internal_node_id": "0.0-4.0-1.0-18.0"}}, {"uniqueid": "w40648109:a61106465", "current_trial": 34, "dateTime": 1664368844216, "trialdata": {"revealed_states": [], "num_clicks_accrued": [0, 0, 0, 0, 0, 0, 0, 0, 0, 0, 0, 0, 0], "stateRewards": ["", 4, -4, 48, 24, 2, -8, 24, -48, -2, -4, -48, -48], "withholdReward": true, "trial_id": "mdp_655302318695", "block": "test1", "trialIndex": 23, "score": 52.25, "costs": -0.75, "simulationMode": [null, null, null], "rewards": [4, -4, 48], "path": ["0", "0", "1", "2", "3"], "rt": [3195, 134, 149], "actions": ["up", "up", "right"], "actionTimes": [3881, 4509, 5159], "queries": {"click": {"state": {"target": ["1", "2", "3"], "time": [1326, 2016, 2621]}, "edge": {"target": [], "time": []}}, "mouseover": {"state": {"target": ["1", "2", "3"], "time": [1073, 1872, 2473]}, "edge": {"target": [], "time": []}}, "mouseout": {"state": {"target": ["0", "1", "2", "3"], "time": [493, 1755, 2456, 3039]}, "edge": {"target": [], "time": []}}}, "displayed_time": "8.69", "trialTime": 9683, "trial_type": "mouselab-mdp", "trial_index": 34, "time_elapsed": 907684, "internal_node_id": "0.0-4.0-1.0-19.0"}}, {"uniqueid": "w40648109:a61106465", "current_trial": 35, "dateTime": 1664368857600, "trialdata": {"revealed_states": [], "num_clicks_accrued": [0, 0, 0, 0, 0, 0, 0, 0, 0, 0, 0, 0, 0], "stateRewards": ["", -2, 4, -24, -24, -2, 4, 48, 24, -4, -8, 24, -48], "withholdReward": true, "trial_id": "mdp_191839460481", "block": "test1", "trialIndex": 24, "score": -17, "costs": 0, "simulationMode": [null, null, null], "rewards": [-2, 4, -24], "path": ["0", "0", "1", "2", "3"], "rt": [1335, 1795, 484], "actions": ["up", "up", "right"], "actionTimes": [3905, 7326, 8332], "queries": {"click": {"state": {"target": [], "time": []}, "edge": {"target": [], "time": []}}, "mouseover": {"state": {"target": [], "time": []}, "edge": {"target": [], "time": []}}, "mouseout": {"state": {"target": ["1", "11", "9"], "time": [1397, 1811, 1894]}, "edge": {"target": [], "time": []}}}, "displayed_time": "12.57", "trialTime": 13108, "trial_type": "mouselab-mdp", "trial_index": 35, "time_elapsed": 921069, "internal_node_id": "0.0-4.0-1.0-20.0"}}, {"uniqueid": "w40648109:a61106465", "current_trial": 36, "dateTime": 1664368869117, "trialdata": {"revealed_states": [], "num_clicks_accrued": [0, 0, 0, 0, 0, 0, 0, 0, 0, 0, 0, 0, 0], "stateRewards": ["", -2, -8, -24, -24, 4, -4, -48, 48, 2, 8, 48, -48], "withholdReward": false, "trial_id": "mdp_498095124548", "block": "test1", "trialIndex": 25, "score": -29, "costs": 0, "simulationMode": [null, null, null], "rewards": [-2, -8, -24], "path": ["0", "0", "1", "2", "3"], "rt": [855, 155, 508], "actions": ["up", "up", "right"], "actionTimes": [2919, 3566, 4570], "queries": {"click": {"state": {"target": [], "time": []}, "edge": {"target": [], "time": []}}, "mouseover": {"state": {"target": [], "time": []}, "edge": {"target": [], "time": []}}, "mouseout": {"state": {"target": ["0"], "time": [1879]}, "edge": {"target": [], "time": []}}}, "displayed_time": "10.06", "trialTime": 11271, "trial_type": "mouselab-mdp", "trial_index": 36, "time_elapsed": 932586, "internal_node_id": "0.0-4.0-1.0-21.0"}}, {"uniqueid": "w40648109:a61106465", "current_trial": 37, "dateTime": 1664368880509, "trialdata": {"revealed_states": [], "num_clicks_accrued": [0, 0, 0, 0, 0, 0, 0, 0, 0, 0, 0, 0, 0], "stateRewards": ["", -2, -4, -48, 48, -2, -4, 24, 48, -4, -8, -24, 24], "withholdReward": false, "trial_id": "mdp_917590390609", "block": "test1", "trialIndex": 26, "score": 47, "costs": 0, "simulationMode": [null, null, null], "rewards": [-2, -4, 48], "path": ["0", "0", "1", "2", "4"], "rt": [712, 75, 473], "actions": ["up", "up", "left"], "actionTimes": [2612, 3181, 4178], "queries": {"click": {"state": {"target": [], "time": []}, "edge": {"target": [], "time": []}}, "mouseover": {"state": {"target": [], "time": []}, "edge": {"target": [], "time": []}}, "mouseout": {"state": {"target": ["0"], "time": [1691]}, "edge": {"target": [], "time": []}}}, "displayed_time": "9.90", "trialTime": 11090, "trial_type": "mouselab-mdp", "trial_index": 37, "time_elapsed": 943978, "internal_node_id": "0.0-4.0-1.0-22.0"}}, {"uniqueid": "w40648109:a61106465", "current_trial": 38, "dateTime": 1664368893221, "trialdata": {"revealed_states": [], "num_clicks_accrued": [0, 0, 0, 0, 0, 0, 0, 0, 0, 0, 0, 0, 0], "stateRewards": ["", 2, 4, -48, 48, -4, 8, -48, -24, -4, -4, 48, 48], "withholdReward": true, "trial_id": "mdp_613582696541", "block": "test1", "trialIndex": 27, "score": 45, "costs": 0, "simulationMode": [null, null, null], "rewards": [-4, -4, 48], "path": ["0", "0", "9", "10", "11"], "rt": [937, 73, 611], "actions": ["left", "left", "up"], "actionTimes": [2785, 3362, 4468], "queries": {"click": {"state": {"target": [], "time": []}, "edge": {"target": [], "time": []}}, "mouseover": {"state": {"target": [], "time": []}, "edge": {"target": [], "time": []}}, "mouseout": {"state": {"target": ["0"], "time": [1650]}, "edge": {"target": [], "time": []}}}, "displayed_time": "11.85", "trialTime": 12454, "trial_type": "mouselab-mdp", "trial_index": 38, "time_elapsed": 956690, "internal_node_id": "0.0-4.0-1.0-23.0"}}, {"uniqueid": "w40648109:a61106465", "current_trial": 39, "dateTime": 1664368905852, "trialdata": {"revealed_states": [], "num_clicks_accrued": [0, 0, 0, 0, 0, 0, 0, 0, 0, 0, 0, 0, 0], "stateRewards": ["", -2, -4, -24, 48, -2, -8, -48, -24, 4, 8, 48, 24], "withholdReward": false, "trial_id": "mdp_625355871626", "block": "test1", "trialIndex": 28, "score": 41, "costs": 0, "simulationMode": [null, null, null], "rewards": [4, 8, 24], "path": ["0", "0", "9", "10", "12"], "rt": [1281, 326, 208], "actions": ["left", "left", "down"], "actionTimes": [2903, 3745, 4477], "queries": {"click": {"state": {"target": [], "time": []}, "edge": {"target": [], "time": []}}, "mouseover": {"state": {"target": ["8"], "time": [1635]}, "edge": {"target": [], "time": []}}, "mouseout": {"state": {"target": ["0", "8"], "time": [1402, 2232]}, "edge": {"target": [], "time": []}}}, "displayed_time": "9.62", "trialTime": 12379, "trial_type": "mouselab-mdp", "trial_index": 39, "time_elapsed": 969321, "internal_node_id": "0.0-4.0-1.0-24.0"}}, {"uniqueid": "w40648109:a61106465", "current_trial": 40, "dateTime": 1664368917732, "trialdata": {"revealed_states": [], "num_clicks_accrued": [0, 0, 0, 0, 0, 0, 0, 0, 0, 0, 0, 0, 0], "stateRewards": ["", 2, -4, 24, 48, -2, 4, -48, -48, -4, 4, 24, -24], "withholdReward": true, "trial_id": "mdp_900363662757", "block": "test1", "trialIndex": 29, "score": -19, "costs": 0, "simulationMode": [null, null, null], "rewards": [-4, 4, -24], "path": ["0", "0", "9", "10", "12"], "rt": [867, 3, 59], "actions": ["left", "left", "down"], "actionTimes": [2960, 3480, 4068], "queries": {"click": {"state": {"target": [], "time": []}, "edge": {"target": [], "time": []}}, "mouseover": {"state": {"target": [], "time": []}, "edge": {"target": [], "time": []}}, "mouseout": {"state": {"target": ["5"], "time": [1556]}, "edge": {"target": [], "time": []}}}, "displayed_time": "11.09", "trialTime": 11616, "trial_type": "mouselab-mdp", "trial_index": 40, "time_elapsed": 981200, "internal_node_id": "0.0-4.0-1.0-25.0"}}, {"uniqueid": "w40648109:a61106465", "current_trial": 41, "dateTime": 1664368929812, "trialdata": {"revealed_states": [], "num_clicks_accrued": [0, 0, 0, 0, 0, 0, 0, 0, 0, 0, 0, 0, 0], "stateRewards": ["", -2, -4, 48, -24, -4, -4, -24, -24, -2, 4, -48, -24], "withholdReward": false, "trial_id": "mdp_410467837196", "block": "test1", "trialIndex": 30, "score": -27, "costs": 0, "simulationMode": [null, null, null], "rewards": [-4, -4, -24], "path": ["0", "0", "5", "6", "7"], "rt": [876, 210, 15], "actions": ["right", "right", "up"], "actionTimes": [2664, 3376, 3897], "queries": {"click": {"state": {"target": [], "time": []}, "edge": {"target": [], "time": []}}, "mouseover": {"state": {"target": [], "time": []}, "edge": {"target": [], "time": []}}, "mouseout": {"state": {"target": [], "time": []}, "edge": {"target": [], "time": []}}}, "displayed_time": "10.79", "trialTime": 11803, "trial_type": "mouselab-mdp", "trial_index": 41, "time_elapsed": 993281, "internal_node_id": "0.0-4.0-1.0-26.0"}}, {"uniqueid": "w40648109:a61106465", "current_trial": 42, "dateTime": 1664368941706, "trialdata": {"revealed_states": [], "num_clicks_accrued": [0, 0, 0, 0, 0, 0, 0, 0, 0, 0, 0, 0, 0], "stateRewards": ["", -4, -4, -24, -24, -2, 4, 48, -24, -2, -4, -24, 48], "withholdReward": true, "trial_id": "mdp_855903341564", "block": "test1", "trialIndex": 31, "score": 55, "costs": 0, "simulationMode": [null, null, null], "rewards": [-2, 4, 48], "path": ["0", "0", "5", "6", "7"], "rt": [1263, 121, 874], "actions": ["right", "right", "up"], "actionTimes": [2956, 3583, 4952], "queries": {"click": {"state": {"target": [], "time": []}, "edge": {"target": [], "time": []}}, "mouseover": {"state": {"target": [], "time": []}, "edge": {"target": [], "time": []}}, "mouseout": {"state": {"target": [], "time": []}, "edge": {"target": [], "time": []}}}, "displayed_time": "9.70", "trialTime": 11591, "trial_type": "mouselab-mdp", "trial_index": 42, "time_elapsed": 1005174, "internal_node_id": "0.0-4.0-1.0-27.0"}}, {"uniqueid": "w40648109:a61106465", "current_trial": 43, "dateTime": 1664368952147, "trialdata": {"revealed_states": [], "num_clicks_accrued": [0, 0, 0, 0, 0, 0, 0, 0, 0, 0, 0, 0, 0], "stateRewards": ["", 2, 4, 48, -48, 2, 4, 24, -24, 2, -4, -24, -48], "withholdReward": true, "trial_id": "mdp_706591889062", "block": "test1", "trialIndex": 32, "score": 34.25, "costs": -0.75, "simulationMode": [null, null, null], "rewards": [2, 4, 24], "path": ["0", "0", "5", "6", "7"], "rt": [3268, 127, 133], "actions": ["right", "right", "up"], "actionTimes": [3783, 4418, 5073], "queries": {"click": {"state": {"target": ["5", "6", "7"], "time": [1601, 2072, 2456]}, "edge": {"target": [], "time": []}}, "mouseover": {"state": {"target": ["5", "5", "6", "7"], "time": [1153, 1419, 1920, 2320]}, "edge": {"target": [], "time": []}}, "mouseout": {"state": {"target": ["0", "5", "5", "6", "7", "6"], "time": [908, 1203, 1788, 2253, 2670, 2770]}, "edge": {"target": [], "time": []}}}, "displayed_time": "9.52", "trialTime": 10145, "trial_type": "mouselab-mdp", "trial_index": 43, "time_elapsed": 1015616, "internal_node_id": "0.0-4.0-1.0-28.0"}}, {"uniqueid": "w40648109:a61106465", "current_trial": 44, "dateTime": 1664368962985, "trialdata": {"revealed_states": [], "num_clicks_accrued": [0, 0, 0, 0, 0, 0, 0, 0, 0, 0, 0, 0, 0], "stateRewards": ["", 4, -8, -48, 24, 4, 4, -24, -24, 2, 4, -48, 24], "withholdReward": false, "trial_id": "mdp_626971397185", "block": "test1", "trialIndex": 33, "score": 33.25, "costs": -1.75, "simulationMode": [null, null, null], "rewards": [2, 4, 24], "path": ["0", "0", "9", "10", "12"], "rt": [5465, 176, 557], "actions": ["left", "left", "down"], "actionTimes": [7222, 7895, 8959], "queries": {"click": {"state": {"target": ["5", "6", "7", "8", "9", "10", "12"], "time": [2253, 2631, 3093, 4034, 5366, 5782, 6185]}, "edge": {"target": [], "time": []}}, "mouseover": {"state": {"target": ["0", "5", "6", "7", "8", "9", "10", "12"], "time": [1908, 2041, 2465, 2948, 3833, 5033, 5631, 6049]}, "edge": {"target": [], "time": []}}, "mouseout": {"state": {"target": ["5", "0", "0", "5", "6", "7", "6", "8", "9", "10", "12"], "time": [1213, 1464, 1965, 2428, 2881, 3299, 3398, 4717, 5548, 5932, 6366]}, "edge": {"target": [], "time": []}}}, "displayed_time": "9.47", "trialTime": 10511, "trial_type": "mouselab-mdp", "trial_index": 44, "time_elapsed": 1026454, "internal_node_id": "0.0-4.0-1.0-29.0"}}, {"uniqueid": "w40648109:a61106465", "current_trial": 45, "dateTime": 1664369006288, "trialdata": {"rt": 43285, "stimulus": "<h1> End of block! </h1>\n\nYou have reached the end of the block 1/4. If you need a short break, feel free to take one now before moving on.\n\n<br><br>\nIn the next block, you will complete another 30 rounds of this game.\n\n<br><br>\n<div style='text-align: center;'>Press <code>space</code> to begin.</div>\n<br><br>\n<div style='text-align: center;'>(If the experiment doesn't continue, try clicking on the text and then pressing <code>space</code>.)</div>", "response": " ", "trial_id": "mdp_ready_2", "trial_type": "html-keyboard-response", "trial_index": 45, "time_elapsed": 1069757, "internal_node_id": "0.0-4.0-2.0"}}, {"uniqueid": "w40648109:a61106465", "current_trial": 46, "dateTime": 1664369019147, "trialdata": {"revealed_states": [], "num_clicks_accrued": [0, 0, 0, 0, 0, 0, 0, 0, 0, 0, 0, 0, 0], "stateRewards": ["", 2, -4, -24, 24, 2, 8, 48, 48, 2, -8, 48, -24], "withholdReward": true, "trial_id": "mdp_330392242530", "block": "test2", "trialIndex": 34, "score": 27, "costs": 0, "simulationMode": [null, null, null], "rewards": [2, -4, 24], "path": ["0", "0", "1", "2", "4"], "rt": [863, 431, 570], "actions": ["up", "up", "left"], "actionTimes": [2756, 3695, 4768], "queries": {"click": {"state": {"target": [], "time": []}, "edge": {"target": [], "time": []}}, "mouseover": {"state": {"target": [], "time": []}, "edge": {"target": [], "time": []}}, "mouseout": {"state": {"target": [], "time": []}, "edge": {"target": [], "time": []}}}, "displayed_time": "11.89", "trialTime": 12518, "trial_type": "mouselab-mdp", "trial_index": 46, "time_elapsed": 1082616, "internal_node_id": "0.0-4.0-3.0-0.0"}}, {"uniqueid": "w40648109:a61106465", "current_trial": 47, "dateTime": 1664369030090, "trialdata": {"revealed_states": [], "num_clicks_accrued": [0, 0, 0, 0, 0, 0, 0, 0, 0, 0, 0, 0, 0], "stateRewards": ["", -2, 4, -48, 24, -4, 8, 48, 24, -2, 4, -48, -24], "withholdReward": true, "trial_id": "mdp_740882974347", "block": "test2", "trialIndex": 35, "score": 30, "costs": -1, "simulationMode": [null, null, null], "rewards": [-2, 4, 24], "path": ["0", "0", "1", "2", "4"], "rt": [4922, 151, 63], "actions": ["up", "up", "left"], "actionTimes": [5875, 6531, 7108], "queries": {"click": {"state": {"target": ["1", "2", "3", "4"], "time": [3214, 3646, 4124, 4868]}, "edge": {"target": [], "time": []}}, "mouseover": {"state": {"target": ["1", "2", "3", "4"], "time": [3009, 3459, 3959, 4725]}, "edge": {"target": [], "time": []}}, "mouseout": {"state": {"target": ["0", "1", "2", "3", "2", "4", "1"], "time": [2780, 3409, 3908, 4542, 4643, 5076, 10259]}, "edge": {"target": [], "time": []}}}, "displayed_time": "9.95", "trialTime": 10677, "trial_type": "mouselab-mdp", "trial_index": 47, "time_elapsed": 1093559, "internal_node_id": "0.0-4.0-3.0-1.0"}}, {"uniqueid": "w40648109:a61106465", "current_trial": 48, "dateTime": 1664369040338, "trialdata": {"revealed_states": [], "num_clicks_accrued": [0, 0, 0, 0, 0, 0, 0, 0, 0, 0, 0, 0, 0], "stateRewards": ["", 2, 8, -48, -24, 4, 4, 24, 48, 4, -4, -48, 48], "withholdReward": false, "trial_id": "mdp_665096999232", "block": "test2", "trialIndex": 36, "score": 36.25, "costs": -0.75, "simulationMode": [null, null, null], "rewards": [4, 4, 24], "path": ["0", "0", "5", "6", "7"], "rt": [2830, 80, 132], "actions": ["right", "right", "up"], "actionTimes": [3626, 4211, 4863], "queries": {"click": {"state": {"target": ["5", "6", "7"], "time": [1435, 2131, 2547]}, "edge": {"target": [], "time": []}}, "mouseover": {"state": {"target": ["0", "5", "6", "7"], "time": [961, 1327, 2001, 2444]}, "edge": {"target": [], "time": []}}, "mouseout": {"state": {"target": ["0", "0", "5", "6", "7", "6", "0"], "time": [550, 1127, 1644, 2394, 2760, 8528, 9644]}, "edge": {"target": [], "time": []}}}, "displayed_time": "8.80", "trialTime": 9892, "trial_type": "mouselab-mdp", "trial_index": 48, "time_elapsed": 1103806, "internal_node_id": "0.0-4.0-3.0-2.0"}}, {"uniqueid": "w40648109:a61106465", "current_trial": 49, "dateTime": 1664369050555, "trialdata": {"revealed_states": [], "num_clicks_accrued": [0, 0, 0, 0, 0, 0, 0, 0, 0, 0, 0, 0, 0], "stateRewards": ["", 4, -4, 24, 48, 4, 8, -24, -24, -2, 4, 48, 48], "withholdReward": true, "trial_id": "mdp_624998450453", "block": "test2", "trialIndex": 37, "score": -7, "costs": 0, "simulationMode": [null, null, null], "rewards": [4, 8, -24], "path": ["0", "0", "5", "6", "7"], "rt": [938, 58, 280], "actions": ["right", "right", "up"], "actionTimes": [1640, 2199, 2987], "queries": {"click": {"state": {"target": [], "time": []}, "edge": {"target": [], "time": []}}, "mouseover": {"state": {"target": [], "time": []}, "edge": {"target": [], "time": []}}, "mouseout": {"state": {"target": [], "time": []}, "edge": {"target": [], "time": []}}}, "displayed_time": "8.70", "trialTime": 9853, "trial_type": "mouselab-mdp", "trial_index": 49, "time_elapsed": 1114024, "internal_node_id": "0.0-4.0-3.0-3.0"}}, {"uniqueid": "w40648109:a61106465", "current_trial": 50, "dateTime": 1664369061220, "trialdata": {"revealed_states": [], "num_clicks_accrued": [0, 0, 0, 0, 0, 0, 0, 0, 0, 0, 0, 0, 0], "stateRewards": ["", -2, -4, 48, -24, 2, -4, -24, -48, 2, 8, -48, -24], "withholdReward": true, "trial_id": "mdp_238243948191", "block": "test2", "trialIndex": 38, "score": -45, "costs": 0, "simulationMode": [null, null, null], "rewards": [2, -4, -48], "path": ["0", "0", "5", "6", "8"], "rt": [997, 69, 330], "actions": ["right", "right", "down"], "actionTimes": [1775, 2346, 3175], "queries": {"click": {"state": {"target": [], "time": []}, "edge": {"target": [], "time": []}}, "mouseover": {"state": {"target": [], "time": []}, "edge": {"target": [], "time": []}}, "mouseout": {"state": {"target": [], "time": []}, "edge": {"target": [], "time": []}}}, "displayed_time": "9.78", "trialTime": 10422, "trial_type": "mouselab-mdp", "trial_index": 50, "time_elapsed": 1124689, "internal_node_id": "0.0-4.0-3.0-4.0"}}, {"uniqueid": "w40648109:a61106465", "current_trial": 51, "dateTime": 1664369071958, "trialdata": {"revealed_states": [], "num_clicks_accrued": [0, 0, 0, 0, 0, 0, 0, 0, 0, 0, 0, 0, 0], "stateRewards": ["", 4, -4, 48, -48, -2, -8, -24, 48, -2, 4, 24, -24], "withholdReward": true, "trial_id": "mdp_507290896735", "block": "test2", "trialIndex": 39, "score": 30, "costs": -1, "simulationMode": [null, null, null], "rewards": [-2, 4, 24], "path": ["0", "0", "9", "10", "11"], "rt": [4144, 38, 102], "actions": ["left", "left", "up"], "actionTimes": [5256, 5868, 6481], "queries": {"click": {"state": {"target": ["9", "10", "12", "11"], "time": [2050, 2590, 3061, 4018]}, "edge": {"target": [], "time": []}}, "mouseover": {"state": {"target": ["9", "10", "9", "10", "12", "11"], "time": [1477, 1650, 1893, 2259, 2926, 3910]}, "edge": {"target": [], "time": []}}, "mouseout": {"state": {"target": ["0", "9", "10", "9", "10", "12", "12", "10", "11", "10", "9"], "time": [1461, 1509, 1743, 2209, 2809, 3310, 3559, 3675, 4193, 4427, 4542]}, "edge": {"target": [], "time": []}}}, "displayed_time": "9.11", "trialTime": 10478, "trial_type": "mouselab-mdp", "trial_index": 51, "time_elapsed": 1135427, "internal_node_id": "0.0-4.0-3.0-5.0"}}, {"uniqueid": "w40648109:a61106465", "current_trial": 52, "dateTime": 1664369084665, "trialdata": {"revealed_states": [], "num_clicks_accrued": [0, 0, 0, 0, 0, 0, 0, 0, 0, 0, 0, 0, 0], "stateRewards": ["", -4, -8, 24, -48, 2, 4, -48, -48, 2, -8, 24, 48], "withholdReward": true, "trial_id": "mdp_111262146724", "block": "test2", "trialIndex": 40, "score": 44, "costs": -3, "simulationMode": [null, null, null], "rewards": [2, -8, 48], "path": ["0", "0", "9", "10", "12"], "rt": [8910, 16, 482], "actions": ["left", "left", "down"], "actionTimes": [9639, 10176, 11192], "queries": {"click": {"state": {"target": ["5", "6", "7", "8", "1", "2", "3", "4", "9", "10", "11", "12"], "time": [1610, 2055, 2598, 3438, 4396, 4943, 5703, 6608, 7314, 7718, 8104, 8620]}, "edge": {"target": [], "time": []}}, "mouseover": {"state": {"target": ["0", "5", "6", "7", "8", "0", "1", "2", "3", "3", "4", "9", "10", "11", "12"], "time": [840, 1224, 1907, 2390, 3190, 4106, 4255, 4723, 5339, 5576, 6340, 7106, 7524, 7973, 8456]}, "edge": {"target": [], "time": []}}, "mouseout": {"state": {"target": ["0", "0", "5", "6", "7", "6", "6", "8", "0", "1", "2", "3", "3", "1", "4", "9", "10", "11", "10", "12"], "time": [472, 1122, 1856, 2356, 2756, 2790, 3106, 3924, 4139, 4590, 5139, 5373, 5873, 6006, 6873, 7473, 7906, 8275, 8322, 8840]}, "edge": {"target": [], "time": []}}}, "displayed_time": "11.69", "trialTime": 12331, "trial_type": "mouselab-mdp", "trial_index": 52, "time_elapsed": 1148134, "internal_node_id": "0.0-4.0-3.0-6.0"}}, {"uniqueid": "w40648109:a61106465", "current_trial": 53, "dateTime": 1664369094789, "trialdata": {"revealed_states": [], "num_clicks_accrued": [0, 0, 0, 0, 0, 0, 0, 0, 0, 0, 0, 0, 0], "stateRewards": ["", 2, -4, -24, -24, -2, -8, -48, 24, -4, -8, 24, 24], "withholdReward": true, "trial_id": "mdp_521351546461", "block": "test2", "trialIndex": 41, "score": 16, "costs": -1, "simulationMode": [null, null, null], "rewards": [-4, -8, 24], "path": ["0", "0", "9", "10", "12"], "rt": [4874, 5, 127], "actions": ["left", "left", "down"], "actionTimes": [6111, 6640, 7280], "queries": {"click": {"state": {"target": ["9", "10", "12", "11"], "time": [2918, 3468, 3878, 4676]}, "edge": {"target": [], "time": []}}, "mouseover": {"state": {"target": ["0", "9", "10", "12", "11"], "time": [1657, 2237, 3315, 3749, 4449]}, "edge": {"target": [], "time": []}}, "mouseout": {"state": {"target": ["0", "0", "9", "10", "12", "10", "11", "10", "9"], "time": [1481, 2082, 3182, 3681, 4198, 4382, 4915, 5065, 5199]}, "edge": {"target": [], "time": []}}}, "displayed_time": "9.24", "trialTime": 9814, "trial_type": "mouselab-mdp", "trial_index": 53, "time_elapsed": 1158258, "internal_node_id": "0.0-4.0-3.0-7.0"}}, {"uniqueid": "w40648109:a61106465", "current_trial": 54, "dateTime": 1664369103719, "trialdata": {"revealed_states": [], "num_clicks_accrued": [0, 0, 0, 0, 0, 0, 0, 0, 0, 0, 0, 0, 0], "stateRewards": ["", -2, 8, 48, -48, 4, -8, 24, 24, 4, 4, -48, -24], "withholdReward": false, "trial_id": "mdp_746937869927", "block": "test2", "trialIndex": 42, "score": -37, "costs": 0, "simulationMode": [null, null, null], "rewards": [-2, 8, -48], "path": ["0", "0", "1", "2", "4"], "rt": [1494, 475, 350], "actions": ["up", "up", "left"], "actionTimes": [2387, 3367, 4209], "queries": {"click": {"state": {"target": [], "time": []}, "edge": {"target": [], "time": []}}, "mouseover": {"state": {"target": [], "time": []}, "edge": {"target": [], "time": []}}, "mouseout": {"state": {"target": ["0", "0"], "time": [555, 7923]}, "edge": {"target": [], "time": []}}}, "displayed_time": "7.89", "trialTime": 8619, "trial_type": "mouselab-mdp", "trial_index": 54, "time_elapsed": 1167188, "internal_node_id": "0.0-4.0-3.0-8.0"}}, {"uniqueid": "w40648109:a61106465", "current_trial": 55, "dateTime": 1664369114418, "trialdata": {"revealed_states": [], "num_clicks_accrued": [0, 0, 0, 0, 0, 0, 0, 0, 0, 0, 0, 0, 0], "stateRewards": ["", -2, -4, -24, -24, 4, 8, 24, 24, -2, 8, 48, 48], "withholdReward": true, "trial_id": "mdp_620787912291", "block": "test2", "trialIndex": 43, "score": 41, "costs": 0, "simulationMode": [null, null, null], "rewards": [4, 8, 24], "path": ["0", "0", "5", "6", "8"], "rt": [1244, 90, 396], "actions": ["right", "right", "down"], "actionTimes": [2096, 2688, 3578], "queries": {"click": {"state": {"target": [], "time": []}, "edge": {"target": [], "time": []}}, "mouseover": {"state": {"target": [], "time": []}, "edge": {"target": [], "time": []}}, "mouseout": {"state": {"target": ["0", "0"], "time": [1044, 9828]}, "edge": {"target": [], "time": []}}}, "displayed_time": "9.85", "trialTime": 10422, "trial_type": "mouselab-mdp", "trial_index": 55, "time_elapsed": 1177886, "internal_node_id": "0.0-4.0-3.0-9.0"}}, {"uniqueid": "w40648109:a61106465", "current_trial": 56, "dateTime": 1664369126443, "trialdata": {"revealed_states": [], "num_clicks_accrued": [0, 0, 0, 0, 0, 0, 0, 0, 0, 0, 0, 0, 0], "stateRewards": ["", -2, -4, 48, -24, -4, -4, -24, -24, -2, 4, -48, -24], "withholdReward": true, "trial_id": "mdp_410467837196", "block": "test2", "trialIndex": 44, "score": 46.25, "costs": -0.75, "simulationMode": [null, null, null], "rewards": [-2, -4, 48], "path": ["0", "0", "1", "2", "3"], "rt": [4752, 39, 23], "actions": ["up", "up", "right"], "actionTimes": [6817, 7370, 7887], "queries": {"click": {"state": {"target": ["1", "2", "3"], "time": [4887, 5283, 5666]}, "edge": {"target": [], "time": []}}, "mouseover": {"state": {"target": ["1", "2", "3"], "time": [4646, 5145, 5529]}, "edge": {"target": [], "time": []}}, "mouseout": {"state": {"target": ["9", "1", "2", "3"], "time": [1544, 5080, 5479, 5895]}, "edge": {"target": [], "time": []}}}, "displayed_time": "11.06", "trialTime": 11732, "trial_type": "mouselab-mdp", "trial_index": 56, "time_elapsed": 1189912, "internal_node_id": "0.0-4.0-3.0-10.0"}}, {"uniqueid": "w40648109:a61106465", "current_trial": 57, "dateTime": 1664369137807, "trialdata": {"revealed_states": [], "num_clicks_accrued": [0, 0, 0, 0, 0, 0, 0, 0, 0, 0, 0, 0, 0], "stateRewards": ["", 2, -8, -24, 48, 4, -8, -24, -24, 2, 8, -24, 24], "withholdReward": true, "trial_id": "mdp_480787552818", "block": "test2", "trialIndex": 45, "score": 46.25, "costs": -0.75, "simulationMode": [null, null, null], "rewards": [2, -8, 48], "path": ["0", "0", "1", "2", "4"], "rt": [2811, 173, 211], "actions": ["up", "up", "left"], "actionTimes": [4720, 5397, 6102], "queries": {"click": {"state": {"target": ["1", "2", "4"], "time": [2679, 3092, 3586]}, "edge": {"target": [], "time": []}}, "mouseover": {"state": {"target": ["1", "2", "4"], "time": [2440, 2989, 3371]}, "edge": {"target": [], "time": []}}, "mouseout": {"state": {"target": ["1", "0", "1", "2", "4"], "time": [1370, 2384, 2838, 3271, 3921]}, "edge": {"target": [], "time": []}}}, "displayed_time": "9.91", "trialTime": 11071, "trial_type": "mouselab-mdp", "trial_index": 57, "time_elapsed": 1201275, "internal_node_id": "0.0-4.0-3.0-11.0"}}, {"uniqueid": "w40648109:a61106465", "current_trial": 58, "dateTime": 1664369150283, "trialdata": {"revealed_states": [], "num_clicks_accrued": [0, 0, 0, 0, 0, 0, 0, 0, 0, 0, 0, 0, 0], "stateRewards": ["", 4, 4, -48, -24, -2, -4, 48, 24, -4, 4, 24, -48], "withholdReward": true, "trial_id": "mdp_617383046444", "block": "test2", "trialIndex": 46, "score": -35, "costs": 0, "simulationMode": [null, null, null], "rewards": [4, 4, -48], "path": ["0", "0", "1", "2", "3"], "rt": [1017, 105, 613], "actions": ["up", "up", "right"], "actionTimes": [2990, 3616, 4723], "queries": {"click": {"state": {"target": [], "time": []}, "edge": {"target": [], "time": []}}, "mouseover": {"state": {"target": [], "time": []}, "edge": {"target": [], "time": []}}, "mouseout": {"state": {"target": ["1", "0", "0"], "time": [1389, 1540, 2005]}, "edge": {"target": [], "time": []}}}, "displayed_time": "10.97", "trialTime": 12117, "trial_type": "mouselab-mdp", "trial_index": 58, "time_elapsed": 1213752, "internal_node_id": "0.0-4.0-3.0-12.0"}}, {"uniqueid": "w40648109:a61106465", "current_trial": 59, "dateTime": 1664369162952, "trialdata": {"revealed_states": [], "num_clicks_accrued": [0, 0, 0, 0, 0, 0, 0, 0, 0, 0, 0, 0, 0], "stateRewards": ["", -4, -4, 24, -48, 2, 4, -24, -48, -2, -8, -24, 24], "withholdReward": true, "trial_id": "mdp_565569130486", "block": "test2", "trialIndex": 47, "score": 16.25, "costs": -2.75, "simulationMode": [null, null, null], "rewards": [-2, -8, 24], "path": ["0", "0", "9", "10", "12"], "rt": [8761, 99, 72], "actions": ["left", "left", "down"], "actionTimes": [9252, 9855, 10443], "queries": {"click": {"state": {"target": ["1", "2", "4", "5", "6", "7", "8", "9", "10", "12", "11"], "time": [1102, 1461, 1829, 2941, 3329, 3793, 4638, 5519, 6333, 6669, 8150]}, "edge": {"target": [], "time": []}}, "mouseover": {"state": {"target": ["0", "1", "2", "4", "0", "5", "6", "7", "8", "9", "10", "10", "10", "12", "11"], "time": [669, 952, 1302, 1687, 2452, 2785, 3236, 3655, 4388, 5344, 5754, 6036, 6186, 6568, 7851]}, "edge": {"target": [], "time": []}}, "mouseout": {"state": {"target": ["0", "0", "1", "2", "4", "1", "0", "5", "6", "7", "6", "8", "9", "10", "10", "10", "12", "10", "10", "11", "10"], "time": [257, 885, 1269, 1652, 2137, 2252, 2677, 3169, 3619, 3952, 4003, 5069, 5706, 5818, 6053, 6499, 6986, 7684, 7735, 8318, 8402]}, "edge": {"target": [], "time": []}}}, "displayed_time": "10.96", "trialTime": 12331, "trial_type": "mouselab-mdp", "trial_index": 59, "time_elapsed": 1226420, "internal_node_id": "0.0-4.0-3.0-13.0"}}, {"uniqueid": "w40648109:a61106465", "current_trial": 60, "dateTime": 1664369174205, "trialdata": {"revealed_states": [], "num_clicks_accrued": [0, 0, 0, 0, 0, 0, 0, 0, 0, 0, 0, 0, 0], "stateRewards": ["", -4, 4, 24, 24, 4, -8, 48, -48, -2, -8, 24, 24], "withholdReward": false, "trial_id": "mdp_395264223239", "block": "test2", "trialIndex": 48, "score": 19, "costs": 0, "simulationMode": [null, null, null], "rewards": [-2, -8, 24], "path": ["0", "0", "9", "10", "12"], "rt": [1248, 438, 213], "actions": ["left", "left", "down"], "actionTimes": [3167, 4122, 4831], "queries": {"click": {"state": {"target": [], "time": []}, "edge": {"target": [], "time": []}}, "mouseover": {"state": {"target": [], "time": []}, "edge": {"target": [], "time": []}}, "mouseout": {"state": {"target": ["0"], "time": [2232]}, "edge": {"target": [], "time": []}}}, "displayed_time": "9.92", "trialTime": 10962, "trial_type": "mouselab-mdp", "trial_index": 60, "time_elapsed": 1237674, "internal_node_id": "0.0-4.0-3.0-14.0"}}, {"uniqueid": "w40648109:a61106465", "current_trial": 61, "dateTime": 1664369184657, "trialdata": {"revealed_states": [], "num_clicks_accrued": [0, 0, 0, 0, 0, 0, 0, 0, 0, 0, 0, 0, 0], "stateRewards": ["", -2, 4, -24, -24, -2, 4, 48, 24, -4, -8, 24, -48], "withholdReward": true, "trial_id": "mdp_191839460481", "block": "test2", "trialIndex": 49, "score": -17, "costs": 0, "simulationMode": [null, null, null], "rewards": [-2, 4, -24], "path": ["0", "0", "1", "2", "3"], "rt": [765, 93, 574], "actions": ["up", "up", "right"], "actionTimes": [2234, 2848, 3929], "queries": {"click": {"state": {"target": [], "time": []}, "edge": {"target": [], "time": []}}, "mouseover": {"state": {"target": [], "time": []}, "edge": {"target": [], "time": []}}, "mouseout": {"state": {"target": [], "time": []}, "edge": {"target": [], "time": []}}}, "displayed_time": "9.47", "trialTime": 10002, "trial_type": "mouselab-mdp", "trial_index": 61, "time_elapsed": 1248125, "internal_node_id": "0.0-4.0-3.0-15.0"}}, {"uniqueid": "w40648109:a61106465", "current_trial": 62, "dateTime": 1664369196055, "trialdata": {"revealed_states": [], "num_clicks_accrued": [0, 0, 0, 0, 0, 0, 0, 0, 0, 0, 0, 0, 0], "stateRewards": ["", 4, 4, 48, -24, 2, -4, 48, 24, -4, -4, -48, 24], "withholdReward": true, "trial_id": "mdp_496003763005", "block": "test2", "trialIndex": 50, "score": -11, "costs": 0, "simulationMode": [null, null, null], "rewards": [4, 4, -24], "path": ["0", "0", "1", "2", "4"], "rt": [899, 119, 134], "actions": ["up", "up", "left"], "actionTimes": [2384, 3006, 3656], "queries": {"click": {"state": {"target": [], "time": []}, "edge": {"target": [], "time": []}}, "mouseover": {"state": {"target": [], "time": []}, "edge": {"target": [], "time": []}}, "mouseout": {"state": {"target": ["0"], "time": [6168]}, "edge": {"target": [], "time": []}}}, "displayed_time": "10.49", "trialTime": 10950, "trial_type": "mouselab-mdp", "trial_index": 62, "time_elapsed": 1259524, "internal_node_id": "0.0-4.0-3.0-16.0"}}, {"uniqueid": "w40648109:a61106465", "current_trial": 63, "dateTime": 1664369206911, "trialdata": {"revealed_states": [], "num_clicks_accrued": [0, 0, 0, 0, 0, 0, 0, 0, 0, 0, 0, 0, 0], "stateRewards": ["", -2, 4, -48, -48, -4, -8, 48, -48, 2, 4, 48, -48], "withholdReward": true, "trial_id": "mdp_258647270500", "block": "test2", "trialIndex": 51, "score": -41, "costs": 0, "simulationMode": [null, null, null], "rewards": [-2, 4, -48], "path": ["0", "0", "1", "2", "3"], "rt": [799, 138, 427], "actions": ["up", "up", "right"], "actionTimes": [2671, 3306, 4230], "queries": {"click": {"state": {"target": [], "time": []}, "edge": {"target": [], "time": []}}, "mouseover": {"state": {"target": [], "time": []}, "edge": {"target": [], "time": []}}, "mouseout": {"state": {"target": [], "time": []}, "edge": {"target": [], "time": []}}}, "displayed_time": "9.87", "trialTime": 10552, "trial_type": "mouselab-mdp", "trial_index": 63, "time_elapsed": 1270379, "internal_node_id": "0.0-4.0-3.0-17.0"}}, {"uniqueid": "w40648109:a61106465", "current_trial": 64, "dateTime": 1664369218180, "trialdata": {"revealed_states": [], "num_clicks_accrued": [0, 0, 0, 0, 0, 0, 0, 0, 0, 0, 0, 0, 0], "stateRewards": ["", -2, 8, 48, -24, 2, 4, -48, -24, -4, 8, -48, -48], "withholdReward": true, "trial_id": "mdp_539167561933", "block": "test2", "trialIndex": 52, "score": -14.25, "costs": -1.25, "simulationMode": [null, null, null], "rewards": [-2, 8, -24], "path": ["0", "0", "1", "2", "4"], "rt": [4381, 38, 37], "actions": ["up", "up", "left"], "actionTimes": [5372, 5917, 6509], "queries": {"click": {"state": {"target": ["5", "6", "7", "8", "9"], "time": [1395, 1877, 2294, 3013, 4077]}, "edge": {"target": [], "time": []}}, "mouseover": {"state": {"target": ["0", "5", "6", "7", "8", "0", "9"], "time": [1080, 1278, 1728, 2227, 2810, 3610, 3945]}, "edge": {"target": [], "time": []}}, "mouseout": {"state": {"target": ["0", "0", "0", "0", "5", "6", "7", "6", "8", "8", "0", "9"], "time": [127, 460, 693, 1160, 1678, 2145, 2461, 2545, 3244, 3361, 3630, 4475]}, "edge": {"target": [], "time": []}}}, "displayed_time": "9.99", "trialTime": 10716, "trial_type": "mouselab-mdp", "trial_index": 64, "time_elapsed": 1281648, "internal_node_id": "0.0-4.0-3.0-18.0"}}, {"uniqueid": "w40648109:a61106465", "current_trial": 65, "dateTime": 1664369228778, "trialdata": {"revealed_states": [], "num_clicks_accrued": [0, 0, 0, 0, 0, 0, 0, 0, 0, 0, 0, 0, 0], "stateRewards": ["", 2, 8, -48, 48, -4, -8, 24, 24, -2, -8, 24, -24], "withholdReward": true, "trial_id": "mdp_910248289075", "block": "test2", "trialIndex": 53, "score": 61.25, "costs": -1.75, "simulationMode": [null, null, null], "rewards": [2, 8, 48], "path": ["0", "0", "1", "2", "4"], "rt": [4480, 29, 15], "actions": ["up", "up", "left"], "actionTimes": [5784, 6351, 6862], "queries": {"click": {"state": {"target": ["9", "10", "12", "11", "1", "2", "3"], "time": [1939, 2314, 2691, 3232, 4142, 4617, 4935]}, "edge": {"target": [], "time": []}}, "mouseover": {"state": {"target": ["9", "10", "12", "11", "1", "1", "2", "3"], "time": [1742, 2232, 2573, 3090, 3674, 3874, 4507, 4841]}, "edge": {"target": [], "time": []}}, "mouseout": {"state": {"target": ["0", "9", "10", "12", "10", "11", "1", "1", "2", "3"], "time": [1709, 2200, 2474, 2890, 3008, 3442, 3691, 4441, 4773, 9992]}, "edge": {"target": [], "time": []}}}, "displayed_time": "9.30", "trialTime": 10261, "trial_type": "mouselab-mdp", "trial_index": 65, "time_elapsed": 1292246, "internal_node_id": "0.0-4.0-3.0-19.0"}}, {"uniqueid": "w40648109:a61106465", "current_trial": 66, "dateTime": 1664369239771, "trialdata": {"revealed_states": [], "num_clicks_accrued": [0, 0, 0, 0, 0, 0, 0, 0, 0, 0, 0, 0, 0], "stateRewards": ["", 2, -4, -48, -48, -2, -4, -24, -48, -2, 8, 24, 24], "withholdReward": false, "trial_id": "mdp_656069446729", "block": "test2", "trialIndex": 54, "score": -49, "costs": 0, "simulationMode": [null, null, null], "rewards": [-2, -4, -48], "path": ["0", "0", "5", "6", "8"], "rt": [1012, 537, 64], "actions": ["right", "right", "down"], "actionTimes": [1761, 2813, 3379], "queries": {"click": {"state": {"target": [], "time": []}, "edge": {"target": [], "time": []}}, "mouseover": {"state": {"target": [], "time": []}, "edge": {"target": [], "time": []}}, "mouseout": {"state": {"target": ["5", "0"], "time": [63, 9930]}, "edge": {"target": [], "time": []}}}, "displayed_time": "8.75", "trialTime": 10593, "trial_type": "mouselab-mdp", "trial_index": 66, "time_elapsed": 1303240, "internal_node_id": "0.0-4.0-3.0-20.0"}}, {"uniqueid": "w40648109:a61106465", "current_trial": 67, "dateTime": 1664369251183, "trialdata": {"revealed_states": [], "num_clicks_accrued": [0, 0, 0, 0, 0, 0, 0, 0, 0, 0, 0, 0, 0], "stateRewards": ["", 2, 4, -48, 24, -4, -4, -24, 24, 2, -4, 24, -24], "withholdReward": false, "trial_id": "mdp_163600331068", "block": "test2", "trialIndex": 55, "score": 21, "costs": 0, "simulationMode": [null, null, null], "rewards": [-4, -4, 24], "path": ["0", "0", "5", "6", "8"], "rt": [925, 83, 142], "actions": ["right", "right", "down"], "actionTimes": [1649, 2248, 2890], "queries": {"click": {"state": {"target": [], "time": []}, "edge": {"target": [], "time": []}}, "mouseover": {"state": {"target": [], "time": []}, "edge": {"target": [], "time": []}}, "mouseout": {"state": {"target": ["0"], "time": [411]}, "edge": {"target": [], "time": []}}}, "displayed_time": "9.77", "trialTime": 11038, "trial_type": "mouselab-mdp", "trial_index": 67, "time_elapsed": 1314652, "internal_node_id": "0.0-4.0-3.0-21.0"}}, {"uniqueid": "w40648109:a61106465", "current_trial": 68, "dateTime": 1664369262381, "trialdata": {"revealed_states": [], "num_clicks_accrued": [0, 0, 0, 0, 0, 0, 0, 0, 0, 0, 0, 0, 0], "stateRewards": ["", -2, -8, -24, 48, -2, -8, -48, -48, 2, -8, -48, 24], "withholdReward": false, "trial_id": "mdp_288324580942", "block": "test2", "trialIndex": 56, "score": -53, "costs": 0, "simulationMode": [null, null, null], "rewards": [-2, -8, -48], "path": ["0", "0", "5", "6", "8"], "rt": [963, 620, 417], "actions": ["right", "right", "down"], "actionTimes": [2324, 3437, 4352], "queries": {"click": {"state": {"target": [], "time": []}, "edge": {"target": [], "time": []}}, "mouseover": {"state": {"target": [], "time": []}, "edge": {"target": [], "time": []}}, "mouseout": {"state": {"target": ["0"], "time": [662]}, "edge": {"target": [], "time": []}}}, "displayed_time": "10.36", "trialTime": 10836, "trial_type": "mouselab-mdp", "trial_index": 68, "time_elapsed": 1325849, "internal_node_id": "0.0-4.0-3.0-22.0"}}, {"uniqueid": "w40648109:a61106465", "current_trial": 69, "dateTime": 1664369273239, "trialdata": {"revealed_states": [], "num_clicks_accrued": [0, 0, 0, 0, 0, 0, 0, 0, 0, 0, 0, 0, 0], "stateRewards": ["", 2, 4, -48, -48, 2, 4, 48, -24, -2, 8, 48, -48], "withholdReward": true, "trial_id": "mdp_258528916140", "block": "test2", "trialIndex": 57, "score": 57.25, "costs": -1.75, "simulationMode": [null, null, null], "rewards": [2, 4, 48], "path": ["0", "0", "5", "6", "7"], "rt": [5545, 178, 54], "actions": ["right", "right", "up"], "actionTimes": [6392, 7092, 7651], "queries": {"click": {"state": {"target": ["1", "2", "3", "4", "5", "6", "7"], "time": [1375, 1853, 2303, 3546, 4575, 4973, 5344]}, "edge": {"target": [], "time": []}}, "mouseover": {"state": {"target": ["1", "2", "3", "4", "5", "6", "7"], "time": [1228, 1610, 2162, 3364, 4327, 4910, 5227]}, "edge": {"target": [], "time": []}}, "mouseout": {"state": {"target": ["0", "1", "2", "3", "2", "4", "5", "6", "7", "6"], "time": [494, 1544, 2110, 2494, 2960, 3944, 4761, 5144, 5528, 9817]}, "edge": {"target": [], "time": []}}}, "displayed_time": "9.85", "trialTime": 10541, "trial_type": "mouselab-mdp", "trial_index": 69, "time_elapsed": 1336707, "internal_node_id": "0.0-4.0-3.0-23.0"}}, {"uniqueid": "w40648109:a61106465", "current_trial": 70, "dateTime": 1664369286708, "trialdata": {"revealed_states": [], "num_clicks_accrued": [0, 0, 0, 0, 0, 0, 0, 0, 0, 0, 0, 0, 0], "stateRewards": ["", -4, -4, -48, -24, 2, 8, 24, -48, 4, 4, 48, 48], "withholdReward": false, "trial_id": "mdp_693501840209", "block": "test2", "trialIndex": 58, "score": 38.25, "costs": -0.75, "simulationMode": [null, null, null], "rewards": [2, 8, 24], "path": ["0", "0", "5", "6", "7"], "rt": [2085, 222, 107], "actions": ["right", "right", "up"], "actionTimes": [3153, 3886, 4507], "queries": {"click": {"state": {"target": ["5", "6", "7"], "time": [1464, 1867, 2245]}, "edge": {"target": [], "time": []}}, "mouseover": {"state": {"target": ["5", "6", "7"], "time": [1115, 1744, 2079]}, "edge": {"target": [], "time": []}}, "mouseout": {"state": {"target": ["6", "5", "0", "5", "6", "7", "5"], "time": [536, 593, 660, 1684, 2044, 2427, 5611]}, "edge": {"target": [], "time": []}}}, "displayed_time": "9.07", "trialTime": 13146, "trial_type": "mouselab-mdp", "trial_index": 70, "time_elapsed": 1350177, "internal_node_id": "0.0-4.0-3.0-24.0"}}, {"uniqueid": "w40648109:a61106465", "current_trial": 71, "dateTime": 1664369295744, "trialdata": {"revealed_states": [], "num_clicks_accrued": [0, 0, 0, 0, 0, 0, 0, 0, 0, 0, 0, 0, 0], "stateRewards": ["", 2, 4, 48, -24, 2, -8, -24, -24, 2, -8, -24, -48], "withholdReward": true, "trial_id": "mdp_274832552938", "block": "test2", "trialIndex": 59, "score": -50, "costs": -1, "simulationMode": [null, null, null], "rewards": [2, -8, -48], "path": ["0", "0", "9", "10", "12"], "rt": [4236, 647, 134], "actions": ["left", "left", "down"], "actionTimes": [5329, 6504, 7148], "queries": {"click": {"state": {"target": ["5", "6", "7", "8"], "time": [1560, 1960, 2903, 3664]}, "edge": {"target": [], "time": []}}, "mouseover": {"state": {"target": ["0", "5", "6", "8", "7", "7", "8", "0"], "time": [1160, 1411, 1760, 2278, 2577, 2709, 3460, 4144]}, "edge": {"target": [], "time": []}}, "mouseout": {"state": {"target": ["0", "0", "5", "6", "8", "6", "7", "7", "6", "8", "0"], "time": [792, 1362, 1728, 2244, 2449, 2544, 2595, 3094, 3327, 3944, 4378]}, "edge": {"target": [], "time": []}}}, "displayed_time": "8.10", "trialTime": 8697, "trial_type": "mouselab-mdp", "trial_index": 71, "time_elapsed": 1359213, "internal_node_id": "0.0-4.0-3.0-25.0"}}, {"uniqueid": "w40648109:a61106465", "current_trial": 72, "dateTime": 1664369307719, "trialdata": {"revealed_states": [], "num_clicks_accrued": [0, 0, 0, 0, 0, 0, 0, 0, 0, 0, 0, 0, 0], "stateRewards": ["", -2, 8, -48, 48, -4, 8, -24, 24, 4, -4, 24, -48], "withholdReward": false, "trial_id": "mdp_904238083902", "block": "test2", "trialIndex": 60, "score": -43, "costs": 0, "simulationMode": [null, null, null], "rewards": [4, -4, -48], "path": ["0", "0", "9", "10", "12"], "rt": [2378, 93, 477], "actions": ["left", "left", "down"], "actionTimes": [3915, 4524, 5524], "queries": {"click": {"state": {"target": [], "time": []}, "edge": {"target": [], "time": []}}, "mouseover": {"state": {"target": ["8"], "time": [3011]}, "edge": {"target": [], "time": []}}, "mouseout": {"state": {"target": ["0", "5", "8"], "time": [479, 743, 3032]}, "edge": {"target": [], "time": []}}}, "displayed_time": "10.54", "trialTime": 11640, "trial_type": "mouselab-mdp", "trial_index": 72, "time_elapsed": 1371188, "internal_node_id": "0.0-4.0-3.0-26.0"}}, {"uniqueid": "w40648109:a61106465", "current_trial": 73, "dateTime": 1664369319448, "trialdata": {"revealed_states": [], "num_clicks_accrued": [0, 0, 0, 0, 0, 0, 0, 0, 0, 0, 0, 0, 0], "stateRewards": ["", 2, 4, -48, 24, -4, 4, -24, 48, -2, -8, -48, 48], "withholdReward": true, "trial_id": "mdp_424193661731", "block": "test2", "trialIndex": 61, "score": 42, "costs": -1, "simulationMode": [null, null, null], "rewards": [-2, -8, 48], "path": ["0", "0", "9", "10", "12"], "rt": [3514, 82, 61], "actions": ["left", "left", "down"], "actionTimes": [4667, 5246, 5808], "queries": {"click": {"state": {"target": ["9", "10", "11", "12"], "time": [1621, 2066, 2629, 3350]}, "edge": {"target": [], "time": []}}, "mouseover": {"state": {"target": ["0", "9", "10", "12", "11", "12", "0"], "time": [1330, 1428, 1846, 2278, 2477, 3127, 3928]}, "edge": {"target": [], "time": []}}, "mouseout": {"state": {"target": ["0", "0", "9", "10", "12", "10", "11", "9", "12", "9"], "time": [793, 1377, 1811, 2228, 2360, 2428, 2846, 3063, 3544, 3695]}, "edge": {"target": [], "time": []}}}, "displayed_time": "10.15", "trialTime": 11268, "trial_type": "mouselab-mdp", "trial_index": 73, "time_elapsed": 1382917, "internal_node_id": "0.0-4.0-3.0-27.0"}}, {"uniqueid": "w40648109:a61106465", "current_trial": 74, "dateTime": 1664369330432, "trialdata": {"revealed_states": [], "num_clicks_accrued": [0, 0, 0, 0, 0, 0, 0, 0, 0, 0, 0, 0, 0], "stateRewards": ["", -2, -8, -24, -48, -2, -4, 48, -48, 4, 4, -48, 48], "withholdReward": true, "trial_id": "mdp_156977432949", "block": "test2", "trialIndex": 62, "score": 45.25, "costs": -1.75, "simulationMode": [null, null, null], "rewards": [-2, -4, 48], "path": ["0", "0", "5", "6", "7"], "rt": [4849, 336, 129], "actions": ["right", "right", "up"], "actionTimes": [5713, 6541, 7167], "queries": {"click": {"state": {"target": ["1", "2", "3", "4", "5", "6", "7"], "time": [1444, 1810, 2203, 2910, 3570, 4018, 4325]}, "edge": {"target": [], "time": []}}, "mouseover": {"state": {"target": ["1", "2", "3", "4", "5", "6", "7", "8"], "time": [1302, 1669, 2086, 2669, 3486, 3887, 4185, 4753]}, "edge": {"target": [], "time": []}}, "mouseout": {"state": {"target": ["0", "1", "2", "3", "4", "1", "5", "6", "7", "6", "8", "8"], "time": [1202, 1603, 2052, 2402, 3086, 3169, 3769, 4153, 4487, 4535, 9185, 9985]}, "edge": {"target": [], "time": []}}}, "displayed_time": "9.87", "trialTime": 10692, "trial_type": "mouselab-mdp", "trial_index": 74, "time_elapsed": 1393900, "internal_node_id": "0.0-4.0-3.0-28.0"}}, {"uniqueid": "w40648109:a61106465", "current_trial": 75, "dateTime": 1664369341718, "trialdata": {"revealed_states": [], "num_clicks_accrued": [0, 0, 0, 0, 0, 0, 0, 0, 0, 0, 0, 0, 0], "stateRewards": ["", -4, -4, -24, -48, -4, 8, -24, -48, 4, -8, 24, -24], "withholdReward": true, "trial_id": "mdp_924927483179", "block": "test2", "trialIndex": 63, "score": -28, "costs": -1, "simulationMode": [null, null, null], "rewards": [-4, -4, -24], "path": ["0", "0", "1", "2", "3"], "rt": [2946, 71, 12], "actions": ["up", "up", "right"], "actionTimes": [4107, 4677, 5185], "queries": {"click": {"state": {"target": ["5", "6", "8", "7"], "time": [1749, 2108, 2437, 3165]}, "edge": {"target": [], "time": []}}, "mouseover": {"state": {"target": ["5", "5", "6", "8", "7"], "time": [1205, 1470, 2003, 2303, 3069]}, "edge": {"target": [], "time": []}}, "mouseout": {"state": {"target": ["8", "0", "5", "5", "6", "8", "6", "7", "6", "3"], "time": [452, 818, 1387, 1936, 2252, 2852, 2987, 3337, 6422, 7003]}, "edge": {"target": [], "time": []}}}, "displayed_time": "10.16", "trialTime": 10963, "trial_type": "mouselab-mdp", "trial_index": 75, "time_elapsed": 1405186, "internal_node_id": "0.0-4.0-3.0-29.0"}}, {"uniqueid": "w40648109:a61106465", "current_trial": 76, "dateTime": 1664369343241, "trialdata": {"rt": 1511, "stimulus": "<h1> End of block! </h1>\n\nYou have reached the end of the block 2/4. If you need a short break, feel free to take one now before moving on.\n\n<br><br>\nIn the next block, you will complete another 30 rounds of this game.\n\n<br><br>\n<div style='text-align: center;'>Press <code>space</code> to begin.</div>\n<br><br>\n<div style='text-align: center;'>(If the experiment doesn't continue, try clicking on the text and then pressing <code>space</code>.)</div>", "response": " ", "trial_id": "mdp_ready_3", "trial_type": "html-keyboard-response", "trial_index": 76, "time_elapsed": 1406709, "internal_node_id": "0.0-4.0-4.0"}}, {"uniqueid": "w40648109:a61106465", "current_trial": 77, "dateTime": 1664369354058, "trialdata": {"revealed_states": [], "num_clicks_accrued": [0, 0, 0, 0, 0, 0, 0, 0, 0, 0, 0, 0, 0], "stateRewards": ["", -2, -8, 48, -24, 2, -4, -48, -24, -2, -4, -48, 48], "withholdReward": true, "trial_id": "mdp_143798438087", "block": "test3", "trialIndex": 64, "score": 42, "costs": -1, "simulationMode": [null, null, null], "rewards": [-2, -8, 48], "path": ["0", "0", "1", "2", "3"], "rt": [3322, 408, 29], "actions": ["up", "up", "right"], "actionTimes": [4585, 5500, 6036], "queries": {"click": {"state": {"target": ["1", "2", "4", "3"], "time": [1853, 2218, 2587, 3414]}, "edge": {"target": [], "time": []}}, "mouseover": {"state": {"target": ["1", "2", "4", "3"], "time": [1687, 2105, 2454, 3238]}, "edge": {"target": [], "time": []}}, "mouseout": {"state": {"target": ["0", "0", "1", "2", "4", "2", "3", "1", "0"], "time": [539, 969, 2021, 2387, 2838, 2921, 3571, 3754, 10221]}, "edge": {"target": [], "time": []}}}, "displayed_time": "9.27", "trialTime": 10421, "trial_type": "mouselab-mdp", "trial_index": 77, "time_elapsed": 1417527, "internal_node_id": "0.0-4.0-5.0-0.0"}}, {"uniqueid": "w40648109:a61106465", "current_trial": 78, "dateTime": 1664369363924, "trialdata": {"revealed_states": [], "num_clicks_accrued": [0, 0, 0, 0, 0, 0, 0, 0, 0, 0, 0, 0, 0], "stateRewards": ["", -2, -4, -24, 48, -2, -8, -48, -24, 4, 8, 48, 24], "withholdReward": false, "trial_id": "mdp_625355871626", "block": "test3", "trialIndex": 65, "score": 40.25, "costs": -0.75, "simulationMode": [null, null, null], "rewards": [4, 8, 24], "path": ["0", "0", "9", "10", "12"], "rt": [2342, 195, 167], "actions": ["left", "left", "down"], "actionTimes": [3104, 3813, 4500], "queries": {"click": {"state": {"target": ["9", "10", "12"], "time": [1325, 1735, 2175]}, "edge": {"target": [], "time": []}}, "mouseover": {"state": {"target": ["9", "9", "10", "12"], "time": [852, 1232, 1565, 1965]}, "edge": {"target": [], "time": []}}, "mouseout": {"state": {"target": ["0", "9", "9", "10", "12"], "time": [826, 932, 1520, 1882, 2366]}, "edge": {"target": [], "time": []}}}, "displayed_time": "8.76", "trialTime": 9499, "trial_type": "mouselab-mdp", "trial_index": 78, "time_elapsed": 1427393, "internal_node_id": "0.0-4.0-5.0-1.0"}}, {"uniqueid": "w40648109:a61106465", "current_trial": 79, "dateTime": 1664369375528, "trialdata": {"revealed_states": [], "num_clicks_accrued": [0, 0, 0, 0, 0, 0, 0, 0, 0, 0, 0, 0, 0], "stateRewards": ["", 2, 4, 48, 24, -2, -8, 24, 24, -2, 4, -48, 24], "withholdReward": false, "trial_id": "mdp_130849500124", "block": "test3", "trialIndex": 66, "score": 30.25, "costs": -0.75, "simulationMode": [null, null, null], "rewards": [-2, 4, 24], "path": ["0", "0", "9", "10", "12"], "rt": [2842, 138, 5], "actions": ["left", "left", "down"], "actionTimes": [4280, 4924, 5441], "queries": {"click": {"state": {"target": ["9", "10", "12"], "time": [2102, 2641, 3124]}, "edge": {"target": [], "time": []}}, "mouseover": {"state": {"target": ["0", "9", "10", "12"], "time": [1518, 1932, 2382, 2998]}, "edge": {"target": [], "time": []}}, "mouseout": {"state": {"target": ["0", "0", "9", "10", "12"], "time": [1066, 1799, 2298, 2932, 3298]}, "edge": {"target": [], "time": []}}}, "displayed_time": "10.44", "trialTime": 11151, "trial_type": "mouselab-mdp", "trial_index": 79, "time_elapsed": 1438996, "internal_node_id": "0.0-4.0-5.0-2.0"}}, {"uniqueid": "w40648109:a61106465", "current_trial": 80, "dateTime": 1664369385121, "trialdata": {"revealed_states": [], "num_clicks_accrued": [0, 0, 0, 0, 0, 0, 0, 0, 0, 0, 0, 0, 0], "stateRewards": ["", 2, -4, 48, -48, 2, 4, -24, 24, -4, -8, 24, -48], "withholdReward": true, "trial_id": "mdp_238810765895", "block": "test3", "trialIndex": 67, "score": 16.25, "costs": -0.75, "simulationMode": [null, null, null], "rewards": [-4, -8, 24], "path": ["0", "0", "9", "10", "11"], "rt": [2502, 71, 526], "actions": ["left", "left", "up"], "actionTimes": [3756, 4328, 5356], "queries": {"click": {"state": {"target": ["9", "10", "11"], "time": [1933, 2318, 2705]}, "edge": {"target": [], "time": []}}, "mouseover": {"state": {"target": ["0", "9", "10", "11"], "time": [1470, 1720, 2204, 2654]}, "edge": {"target": [], "time": []}}, "mouseout": {"state": {"target": ["0", "0", "9", "10", "11", "10"], "time": [1277, 1686, 2086, 2570, 2856, 6791]}, "edge": {"target": [], "time": []}}}, "displayed_time": "8.26", "trialTime": 9249, "trial_type": "mouselab-mdp", "trial_index": 80, "time_elapsed": 1448589, "internal_node_id": "0.0-4.0-5.0-3.0"}}, {"uniqueid": "w40648109:a61106465", "current_trial": 81, "dateTime": 1664369396527, "trialdata": {"revealed_states": [], "num_clicks_accrued": [0, 0, 0, 0, 0, 0, 0, 0, 0, 0, 0, 0, 0], "stateRewards": ["", 2, 4, 48, -24, 2, -8, -24, -24, 2, -8, -24, -48], "withholdReward": true, "trial_id": "mdp_274832552938", "block": "test3", "trialIndex": 68, "score": 57.25, "costs": -1.75, "simulationMode": [null, null, null], "rewards": [2, 4, 48], "path": ["0", "0", "1", "2", "3"], "rt": [4838, 47, 31], "actions": ["up", "up", "right"], "actionTimes": [5874, 6414, 6981], "queries": {"click": {"state": {"target": ["5", "6", "8", "7", "1", "2", "3"], "time": [1581, 1964, 2633, 3272, 4122, 4585, 5015]}, "edge": {"target": [], "time": []}}, "mouseover": {"state": {"target": ["5", "6", "7", "8", "7", "1", "2", "3"], "time": [1497, 1913, 2231, 2483, 3148, 3998, 4414, 4931]}, "edge": {"target": [], "time": []}}, "mouseout": {"state": {"target": ["0", "5", "6", "7", "6", "8", "6", "7", "1", "2", "3"], "time": [1399, 1764, 2180, 2414, 2464, 2997, 3097, 3497, 4298, 4881, 5214]}, "edge": {"target": [], "time": []}}}, "displayed_time": "10.04", "trialTime": 11016, "trial_type": "mouselab-mdp", "trial_index": 81, "time_elapsed": 1459996, "internal_node_id": "0.0-4.0-5.0-4.0"}}, {"uniqueid": "w40648109:a61106465", "current_trial": 82, "dateTime": 1664369407356, "trialdata": {"revealed_states": [], "num_clicks_accrued": [0, 0, 0, 0, 0, 0, 0, 0, 0, 0, 0, 0, 0], "stateRewards": ["", 2, 8, -48, -24, 2, -4, -48, 24, 2, -4, -24, -24], "withholdReward": true, "trial_id": "mdp_954659099093", "block": "test3", "trialIndex": 69, "score": -22, "costs": -1, "simulationMode": [null, null, null], "rewards": [2, -4, -24], "path": ["0", "0", "9", "10", "11"], "rt": [3343, 38, 543], "actions": ["left", "left", "up"], "actionTimes": [4464, 5022, 6110], "queries": {"click": {"state": {"target": ["1", "2", "4", "3"], "time": [1534, 1886, 2264, 3345]}, "edge": {"target": [], "time": []}}, "mouseover": {"state": {"target": ["1", "2", "4", "3"], "time": [1221, 1725, 2061, 3225]}, "edge": {"target": [], "time": []}}, "mouseout": {"state": {"target": ["5", "0", "1", "2", "4", "2", "3", "5"], "time": [608, 841, 1693, 2042, 2443, 3144, 8642, 8775]}, "edge": {"target": [], "time": []}}}, "displayed_time": "10.12", "trialTime": 10474, "trial_type": "mouselab-mdp", "trial_index": 82, "time_elapsed": 1470824, "internal_node_id": "0.0-4.0-5.0-5.0"}}, {"uniqueid": "w40648109:a61106465", "current_trial": 83, "dateTime": 1664369418858, "trialdata": {"revealed_states": [], "num_clicks_accrued": [0, 0, 0, 0, 0, 0, 0, 0, 0, 0, 0, 0, 0], "stateRewards": ["", 4, -4, 48, -48, 4, -4, 24, -24, 4, 8, -24, -48], "withholdReward": false, "trial_id": "mdp_433630527224", "block": "test3", "trialIndex": 70, "score": 51.25, "costs": -1.75, "simulationMode": [null, null, null], "rewards": [4, -4, 48], "path": ["0", "0", "1", "2", "3"], "rt": [4819, 112, 17], "actions": ["up", "up", "right"], "actionTimes": [5688, 6298, 6837], "queries": {"click": {"state": {"target": ["9", "10", "11", "12", "1", "2", "3"], "time": [1441, 1749, 2099, 2800, 3874, 4293, 4651]}, "edge": {"target": [], "time": []}}, "mouseover": {"state": {"target": ["9", "9", "10", "11", "12", "0", "1", "2", "3"], "time": [938, 1357, 1633, 1967, 2617, 3283, 3767, 4167, 4516]}, "edge": {"target": [], "time": []}}, "mouseout": {"state": {"target": ["0", "9", "9", "10", "11", "10", "12", "0", "1", "2", "3"], "time": [450, 970, 1584, 1917, 2316, 2568, 3134, 3683, 4083, 4467, 4834]}, "edge": {"target": [], "time": []}}}, "displayed_time": "9.87", "trialTime": 11067, "trial_type": "mouselab-mdp", "trial_index": 83, "time_elapsed": 1482326, "internal_node_id": "0.0-4.0-5.0-6.0"}}, {"uniqueid": "w40648109:a61106465", "current_trial": 84, "dateTime": 1664369429116, "trialdata": {"revealed_states": [], "num_clicks_accrued": [0, 0, 0, 0, 0, 0, 0, 0, 0, 0, 0, 0, 0], "stateRewards": ["", -2, 4, 48, -24, 2, 8, 24, 48, 2, 4, -24, -48], "withholdReward": false, "trial_id": "mdp_892412058587", "block": "test3", "trialIndex": 71, "score": 38.25, "costs": -0.75, "simulationMode": [null, null, null], "rewards": [2, 8, 24], "path": ["0", "0", "5", "6", "7"], "rt": [2381, 98, 898], "actions": ["right", "right", "up"], "actionTimes": [3331, 3927, 5345], "queries": {"click": {"state": {"target": ["5", "6", "7"], "time": [1676, 2048, 2446]}, "edge": {"target": [], "time": []}}, "mouseover": {"state": {"target": ["1", "5", "6", "7"], "time": [1329, 1477, 1927, 2293]}, "edge": {"target": [], "time": []}}, "mouseout": {"state": {"target": ["0", "1", "5", "6", "7"], "time": [509, 1427, 1860, 2227, 2583]}, "edge": {"target": [], "time": []}}}, "displayed_time": "8.95", "trialTime": 9867, "trial_type": "mouselab-mdp", "trial_index": 84, "time_elapsed": 1492585, "internal_node_id": "0.0-4.0-5.0-7.0"}}, {"uniqueid": "w40648109:a61106465", "current_trial": 85, "dateTime": 1664369442957, "trialdata": {"revealed_states": [], "num_clicks_accrued": [0, 0, 0, 0, 0, 0, 0, 0, 0, 0, 0, 0, 0], "stateRewards": ["", 4, 4, 48, -24, -4, -8, 24, -24, 2, -8, -24, 24], "withholdReward": true, "trial_id": "mdp_933201675789", "block": "test3", "trialIndex": 72, "score": 16.25, "costs": -0.75, "simulationMode": [null, null, null], "rewards": [-4, -8, 24], "path": ["0", "0", "5", "6", "7"], "rt": [2968, 319, 515], "actions": ["right", "right", "up"], "actionTimes": [5423, 6251, 7263], "queries": {"click": {"state": {"target": ["5", "6", "7"], "time": [2986, 3446, 4054]}, "edge": {"target": [], "time": []}}, "mouseover": {"state": {"target": ["5", "6", "7", "8"], "time": [2882, 3262, 3628, 4495]}, "edge": {"target": [], "time": []}}, "mouseout": {"state": {"target": ["6", "8", "0", "0", "5", "6", "7", "6", "8"], "time": [428, 477, 627, 2723, 3162, 3578, 4213, 4395, 9545]}, "edge": {"target": [], "time": []}}}, "displayed_time": "12.46", "trialTime": 13411, "trial_type": "mouselab-mdp", "trial_index": 85, "time_elapsed": 1506425, "internal_node_id": "0.0-4.0-5.0-8.0"}}, {"uniqueid": "w40648109:a61106465", "current_trial": 86, "dateTime": 1664369454106, "trialdata": {"revealed_states": [], "num_clicks_accrued": [0, 0, 0, 0, 0, 0, 0, 0, 0, 0, 0, 0, 0], "stateRewards": ["", 4, -4, 24, 48, 4, 8, -24, -24, -2, 4, 48, 48], "withholdReward": true, "trial_id": "mdp_624998450453", "block": "test3", "trialIndex": 73, "score": 52, "costs": -1, "simulationMode": [null, null, null], "rewards": [4, -4, 48], "path": ["0", "0", "1", "2", "4"], "rt": [3903, 9, 15], "actions": ["up", "up", "left"], "actionTimes": [5036, 5546, 6082], "queries": {"click": {"state": {"target": ["5", "6", "8", "7"], "time": [1889, 2263, 2804, 3734]}, "edge": {"target": [], "time": []}}, "mouseover": {"state": {"target": ["5", "5", "6", "8", "7"], "time": [1178, 1766, 2164, 2647, 3548]}, "edge": {"target": [], "time": []}}, "mouseout": {"state": {"target": ["5", "5", "6", "8", "8", "6", "7", "5"], "time": [1546, 2046, 2614, 3046, 3247, 3297, 3913, 8479]}, "edge": {"target": [], "time": []}}}, "displayed_time": "10.13", "trialTime": 10727, "trial_type": "mouselab-mdp", "trial_index": 86, "time_elapsed": 1517574, "internal_node_id": "0.0-4.0-5.0-9.0"}}, {"uniqueid": "w40648109:a61106465", "current_trial": 87, "dateTime": 1664369464960, "trialdata": {"revealed_states": [], "num_clicks_accrued": [0, 0, 0, 0, 0, 0, 0, 0, 0, 0, 0, 0, 0], "stateRewards": ["", -4, 4, 24, 24, 4, -8, 48, -48, -2, -8, 24, 24], "withholdReward": true, "trial_id": "mdp_395264223239", "block": "test3", "trialIndex": 74, "score": 28.25, "costs": -0.75, "simulationMode": [null, null, null], "rewards": [-4, 4, 24], "path": ["0", "0", "1", "2", "4"], "rt": [2371, 48, 251], "actions": ["up", "up", "left"], "actionTimes": [3116, 3659, 4444], "queries": {"click": {"state": {"target": ["1", "2", "4"], "time": [1103, 1456, 2030]}, "edge": {"target": [], "time": []}}, "mouseover": {"state": {"target": ["1", "2", "4"], "time": [925, 1341, 1907]}, "edge": {"target": [], "time": []}}, "mouseout": {"state": {"target": ["0", "1", "2", "4"], "time": [409, 1275, 1791, 2292]}, "edge": {"target": [], "time": []}}}, "displayed_time": "9.75", "trialTime": 10409, "trial_type": "mouselab-mdp", "trial_index": 87, "time_elapsed": 1528428, "internal_node_id": "0.0-4.0-5.0-10.0"}}, {"uniqueid": "w40648109:a61106465", "current_trial": 88, "dateTime": 1664369475903, "trialdata": {"revealed_states": [], "num_clicks_accrued": [0, 0, 0, 0, 0, 0, 0, 0, 0, 0, 0, 0, 0], "stateRewards": ["", -2, 4, -24, -48, -4, 8, -24, 48, 4, 4, -48, 24], "withholdReward": true, "trial_id": "mdp_341117665701", "block": "test3", "trialIndex": 75, "score": 55.25, "costs": -1.75, "simulationMode": [null, null, null], "rewards": [-4, 8, 48], "path": ["0", "0", "5", "6", "8"], "rt": [4933, 29, 46], "actions": ["right", "right", "down"], "actionTimes": [5535, 6096, 6664], "queries": {"click": {"state": {"target": ["1", "2", "3", "5", "6", "7", "8"], "time": [1049, 1399, 1945, 3161, 3541, 3866, 4630]}, "edge": {"target": [], "time": []}}, "mouseover": {"state": {"target": ["1", "2", "3", "4", "0", "5", "6", "7", "8"], "time": [783, 1284, 1818, 2467, 2849, 3000, 3433, 3718, 4483]}, "edge": {"target": [], "time": []}}, "mouseout": {"state": {"target": ["0", "1", "2", "3", "2", "4", "0", "5", "6", "7", "6"], "time": [646, 1233, 1733, 2138, 2416, 2733, 2934, 3366, 3684, 4051, 4382]}, "edge": {"target": [], "time": []}}}, "displayed_time": "9.60", "trialTime": 10378, "trial_type": "mouselab-mdp", "trial_index": 88, "time_elapsed": 1539372, "internal_node_id": "0.0-4.0-5.0-11.0"}}, {"uniqueid": "w40648109:a61106465", "current_trial": 89, "dateTime": 1664369487042, "trialdata": {"revealed_states": [], "num_clicks_accrued": [0, 0, 0, 0, 0, 0, 0, 0, 0, 0, 0, 0, 0], "stateRewards": ["", 2, -4, -48, -48, -2, -4, -24, -48, -2, 8, 24, 24], "withholdReward": true, "trial_id": "mdp_656069446729", "block": "test3", "trialIndex": 76, "score": 34, "costs": -1, "simulationMode": [null, null, null], "rewards": [-2, 8, 24], "path": ["0", "0", "9", "10", "12"], "rt": [3297, 17, 474], "actions": ["left", "left", "down"], "actionTimes": [4249, 4768, 5777], "queries": {"click": {"state": {"target": ["5", "6", "8", "7"], "time": [1810, 2176, 2552, 3167]}, "edge": {"target": [], "time": []}}, "mouseover": {"state": {"target": ["5", "6", "8", "7"], "time": [1647, 2064, 2367, 3047]}, "edge": {"target": [], "time": []}}, "mouseout": {"state": {"target": ["0", "5", "6", "8", "6", "7", "6"], "time": [1572, 2032, 2347, 2883, 2981, 3348, 10465]}, "edge": {"target": [], "time": []}}}, "displayed_time": "9.96", "trialTime": 10698, "trial_type": "mouselab-mdp", "trial_index": 89, "time_elapsed": 1550511, "internal_node_id": "0.0-4.0-5.0-12.0"}}, {"uniqueid": "w40648109:a61106465", "current_trial": 90, "dateTime": 1664369498076, "trialdata": {"revealed_states": [], "num_clicks_accrued": [0, 0, 0, 0, 0, 0, 0, 0, 0, 0, 0, 0, 0], "stateRewards": ["", -4, -4, -24, 24, -4, 4, -24, 48, -2, 4, 48, -48], "withholdReward": false, "trial_id": "mdp_774757609669", "block": "test3", "trialIndex": 77, "score": 54.25, "costs": -0.75, "simulationMode": [null, null, null], "rewards": [-2, 4, 48], "path": ["0", "0", "9", "10", "11"], "rt": [2546, 109, 8], "actions": ["left", "left", "up"], "actionTimes": [3357, 3975, 4527], "queries": {"click": {"state": {"target": ["9", "10", "11"], "time": [1178, 1601, 1998]}, "edge": {"target": [], "time": []}}, "mouseover": {"state": {"target": ["9", "10", "11"], "time": [994, 1461, 1894]}, "edge": {"target": [], "time": []}}, "mouseout": {"state": {"target": ["0", "9", "10", "11", "10"], "time": [830, 1377, 1828, 2161, 2277]}, "edge": {"target": [], "time": []}}}, "displayed_time": "9.81", "trialTime": 10545, "trial_type": "mouselab-mdp", "trial_index": 90, "time_elapsed": 1561545, "internal_node_id": "0.0-4.0-5.0-13.0"}}, {"uniqueid": "w40648109:a61106465", "current_trial": 91, "dateTime": 1664369509393, "trialdata": {"revealed_states": [], "num_clicks_accrued": [0, 0, 0, 0, 0, 0, 0, 0, 0, 0, 0, 0, 0], "stateRewards": ["", 4, 8, -24, 48, -2, -4, 24, -24, -2, 4, 24, 24], "withholdReward": false, "trial_id": "mdp_948713805479", "block": "test3", "trialIndex": 78, "score": 30.25, "costs": -0.75, "simulationMode": [null, null, null], "rewards": [-2, 4, 24], "path": ["0", "0", "9", "10", "12"], "rt": [2307, 257, 76], "actions": ["left", "left", "down"], "actionTimes": [3298, 4058, 4627], "queries": {"click": {"state": {"target": ["9", "10", "12"], "time": [1482, 1867, 2251]}, "edge": {"target": [], "time": []}}, "mouseover": {"state": {"target": ["9", "10", "12"], "time": [1315, 1763, 2148]}, "edge": {"target": [], "time": []}}, "mouseout": {"state": {"target": ["0", "9", "10", "12", "12"], "time": [1283, 1648, 2014, 2448, 9154]}, "edge": {"target": [], "time": []}}}, "displayed_time": "8.99", "trialTime": 10965, "trial_type": "mouselab-mdp", "trial_index": 91, "time_elapsed": 1572861, "internal_node_id": "0.0-4.0-5.0-14.0"}}, {"uniqueid": "w40648109:a61106465", "current_trial": 92, "dateTime": 1664369520192, "trialdata": {"revealed_states": [], "num_clicks_accrued": [0, 0, 0, 0, 0, 0, 0, 0, 0, 0, 0, 0, 0], "stateRewards": ["", -2, 4, -48, -48, 4, 4, 48, -48, 2, 8, 24, 48], "withholdReward": true, "trial_id": "mdp_686771069745", "block": "test3", "trialIndex": 79, "score": 62.25, "costs": -0.75, "simulationMode": [null, null, null], "rewards": [2, 8, 48], "path": ["0", "0", "9", "10", "12"], "rt": [2190, 60, 505], "actions": ["left", "left", "down"], "actionTimes": [2970, 3551, 4564], "queries": {"click": {"state": {"target": ["9", "10", "12"], "time": [1210, 1577, 1978]}, "edge": {"target": [], "time": []}}, "mouseover": {"state": {"target": ["9", "10", "12"], "time": [935, 1514, 1923]}, "edge": {"target": [], "time": []}}, "mouseout": {"state": {"target": ["0", "9", "10", "12"], "time": [874, 1395, 1846, 2189]}, "edge": {"target": [], "time": []}}}, "displayed_time": "9.79", "trialTime": 10355, "trial_type": "mouselab-mdp", "trial_index": 92, "time_elapsed": 1583661, "internal_node_id": "0.0-4.0-5.0-15.0"}}, {"uniqueid": "w40648109:a61106465", "current_trial": 93, "dateTime": 1664369530970, "trialdata": {"revealed_states": [], "num_clicks_accrued": [0, 0, 0, 0, 0, 0, 0, 0, 0, 0, 0, 0, 0], "stateRewards": ["", 4, -8, 24, 48, 2, 4, 48, 48, 2, 8, -48, -48], "withholdReward": true, "trial_id": "mdp_783704746330", "block": "test3", "trialIndex": 80, "score": 47.25, "costs": -1.75, "simulationMode": [null, null, null], "rewards": [4, -8, 48], "path": ["0", "0", "1", "2", "4"], "rt": [5279, 10, 68], "actions": ["up", "up", "left"], "actionTimes": [6208, 6750, 7332], "queries": {"click": {"state": {"target": ["9", "10", "11", "12", "1", "2", "4"], "time": [1414, 1783, 2185, 2870, 3760, 4212, 4796]}, "edge": {"target": [], "time": []}}, "mouseover": {"state": {"target": ["9", "10", "11", "12", "1", "2", "4"], "time": [1227, 1661, 2110, 2695, 3645, 4077, 4661]}, "edge": {"target": [], "time": []}}, "mouseout": {"state": {"target": ["0", "9", "10", "11", "10", "12", "9", "1", "2"], "time": [1032, 1594, 2045, 2361, 2395, 3044, 3327, 3927, 4527]}, "edge": {"target": [], "time": []}}}, "displayed_time": "8.93", "trialTime": 10405, "trial_type": "mouselab-mdp", "trial_index": 93, "time_elapsed": 1594439, "internal_node_id": "0.0-4.0-5.0-16.0"}}, {"uniqueid": "w40648109:a61106465", "current_trial": 94, "dateTime": 1664369540731, "trialdata": {"revealed_states": [], "num_clicks_accrued": [0, 0, 0, 0, 0, 0, 0, 0, 0, 0, 0, 0, 0], "stateRewards": ["", -4, 4, -48, -48, -2, -8, -48, -24, 4, 8, -24, 24], "withholdReward": true, "trial_id": "mdp_449260894259", "block": "test3", "trialIndex": 81, "score": 39.25, "costs": -1.75, "simulationMode": [null, null, null], "rewards": [4, 8, 24], "path": ["0", "0", "9", "10", "12"], "rt": [4767, 90, 313], "actions": ["left", "left", "down"], "actionTimes": [5537, 6141, 6977], "queries": {"click": {"state": {"target": ["1", "2", "3", "4", "5", "6", "7"], "time": [1135, 1511, 1834, 2555, 3472, 4241, 4542]}, "edge": {"target": [], "time": []}}, "mouseover": {"state": {"target": ["1", "2", "3", "4", "5", "5", "6", "6", "7"], "time": [908, 1429, 1728, 2480, 2946, 3329, 3895, 4126, 4412]}, "edge": {"target": [], "time": []}}, "mouseout": {"state": {"target": ["4", "0", "1", "2", "3", "2", "4", "1", "5", "5", "6", "6", "7"], "time": [144, 501, 1332, 1678, 2044, 2328, 2711, 2911, 3012, 3612, 3945, 4378, 4713]}, "edge": {"target": [], "time": []}}}, "displayed_time": "8.77", "trialTime": 9417, "trial_type": "mouselab-mdp", "trial_index": 94, "time_elapsed": 1604199, "internal_node_id": "0.0-4.0-5.0-17.0"}}, {"uniqueid": "w40648109:a61106465", "current_trial": 95, "dateTime": 1664369551362, "trialdata": {"revealed_states": [], "num_clicks_accrued": [0, 0, 0, 0, 0, 0, 0, 0, 0, 0, 0, 0, 0], "stateRewards": ["", -2, 4, 24, 48, 2, 4, -48, -48, 2, 8, 48, -48], "withholdReward": true, "trial_id": "mdp_409609775558", "block": "test3", "trialIndex": 82, "score": 62, "costs": -1, "simulationMode": [null, null, null], "rewards": [2, 8, 48], "path": ["0", "0", "9", "10