{"condition": 0, "counterbalance": 0, "assignmentId": "a44872433", "workerId": "w72652129", "hitId": "h60382983", "currenttrial": 958, "bonus": 0, "data": [{"uniqueid": "w72652129:a44872433", "current_trial": 0, "dateTime": 1664370290021, "trialdata": {"success": true, "trial_type": "fullscreen", "trial_index": 0, "time_elapsed": 31692, "internal_node_id": "0.0-0.0"}}, {"uniqueid": "w72652129:a44872433", "current_trial": 1, "dateTime": 1664370352963, "trialdata": {"view_history": [{"page_index": 0, "viewing_time": 62933}], "rt": 62934, "trial_id": "exp_instructions_distractor", "trial_type": "instructions", "trial_index": 1, "time_elapsed": 94635, "internal_node_id": "0.0-1.0"}}, {"uniqueid": "w72652129:a44872433", "current_trial": 2, "dateTime": 1664370417314, "trialdata": {"view_history": [{"page_index": 0, "viewing_time": 64348}], "rt": 64348, "trial_id": "color_game_instructions", "trial_type": "instructions", "trial_index": 2, "time_elapsed": 158986, "internal_node_id": "0.0-2.0"}}, {"uniqueid": "w72652129:a44872433", "current_trial": 3, "dateTime": 1664370432481, "trialdata": {"rt": 15162, "stimulus": "<h1> Get ready to start the game! </h1>\n\nThank you for reading the instructions. Get ready start with the first of 5 block(s) of this game.\n<br><br>\nIn this first block, you will complete 90 rounds of this game before moving on.\n<br><br>\nRemember, the better you perform, the bigger your bonus will be!\n<br><br>\n<div style='text-align: center;'>Press <code>space</code> to begin.</div>", "response": " ", "trial_id": "stroop_1_ready_1", "trial_type": "html-keyboard-response", "trial_index": 3, "time_elapsed": 174153, "internal_node_id": "0.0-3.0"}}, {"uniqueid": "w72652129:a44872433", "current_trial": 4, "dateTime": 1664370433892, "trialdata": {"rt": 1387, "stimulus": "<p id='stroop-text' class='stroop-blue'>BOAT</p>", "response": "b", "stimulus-type": "unrelated", "word": "BOAT", "color": "blue", "correct_response": "b", "trial_id": "stroop-trial-1-unrelated-13", "trial_type": "html-keyboard-response", "trial_index": 4, "time_elapsed": 175563, "internal_node_id": "0.0-4.0-0.0"}}, {"uniqueid": "w72652129:a44872433", "current_trial": 5, "dateTime": 1664370435492, "trialdata": {"rt": 1094, "stimulus": "<p id='stroop-text' class='stroop-blue'>YELLOW</p>", "response": "b", "stimulus-type": "incongruent", "word": "yellow", "color": "blue", "correct_response": "b", "trial_id": "stroop-trial-1-incongruent-19", "trial_type": "html-keyboard-response", "trial_index": 5, "time_elapsed": 177163, "internal_node_id": "0.0-4.0-1.0"}}, {"uniqueid": "w72652129:a44872433", "current_trial": 6, "dateTime": 1664370437225, "trialdata": {"rt": 1227, "stimulus": "<p id='stroop-text' class='stroop-red'>BOAT</p>", "response": "r", "stimulus-type": "unrelated", "word": "BOAT", "color": "red", "correct_response": "r", "trial_id": "stroop-trial-1-unrelated-12", "trial_type": "html-keyboard-response", "trial_index": 6, "time_elapsed": 178896, "internal_node_id": "0.0-4.0-2.0"}}, {"uniqueid": "w72652129:a44872433", "current_trial": 7, "dateTime": 1664370439047, "trialdata": {"rt": 1306, "stimulus": "<p id='stroop-text' class='stroop-blue'>RED</p>", "response": "b", "stimulus-type": "incongruent", "word": "red", "color": "blue", "correct_response": "b", "trial_id": "stroop-trial-1-incongruent-3", "trial_type": "html-keyboard-response", "trial_index": 7, "time_elapsed": 180718, "internal_node_id": "0.0-4.0-3.0"}}, {"uniqueid": "w72652129:a44872433", "current_trial": 8, "dateTime": 1664370440834, "trialdata": {"rt": 1282, "stimulus": "<p id='stroop-text' class='stroop-yellow'>WINDOW</p>", "response": "y", "stimulus-type": "unrelated", "word": "WINDOW", "color": "yellow", "correct_response": "y", "trial_id": "stroop-trial-1-unrelated-16", "trial_type": "html-keyboard-response", "trial_index": 8, "time_elapsed": 182506, "internal_node_id": "0.0-4.0-4.0"}}, {"uniqueid": "w72652129:a44872433", "current_trial": 9, "dateTime": 1664370442225, "trialdata": {"rt": 887, "stimulus": "<p id='stroop-text' class='stroop-yellow'>RED</p>", "response": "y", "stimulus-type": "incongruent", "word": "red", "color": "yellow", "correct_response": "y", "trial_id": "stroop-trial-1-incongruent-21", "trial_type": "html-keyboard-response", "trial_index": 9, "time_elapsed": 183896, "internal_node_id": "0.0-4.0-5.0"}}, {"uniqueid": "w72652129:a44872433", "current_trial": 10, "dateTime": 1664370443439, "trialdata": {"rt": 710, "stimulus": "<p id='stroop-text' class='stroop-yellow'>BRIDGE</p>", "response": "y", "stimulus-type": "unrelated", "word": "BRIDGE", "color": "yellow", "correct_response": "y", "trial_id": "stroop-trial-1-unrelated-17", "trial_type": "html-keyboard-response", "trial_index": 10, "time_elapsed": 185111, "internal_node_id": "0.0-4.0-6.0"}}, {"uniqueid": "w72652129:a44872433", "current_trial": 11, "dateTime": 1664370444660, "trialdata": {"rt": 714, "stimulus": "<p id='stroop-text' class='stroop-yellow'>BLUE</p>", "response": "y", "stimulus-type": "incongruent", "word": "blue", "color": "yellow", "correct_response": "y", "trial_id": "stroop-trial-1-incongruent-12", "trial_type": "html-keyboard-response", "trial_index": 11, "time_elapsed": 186331, "internal_node_id": "0.0-4.0-7.0"}}, {"uniqueid": "w72652129:a44872433", "current_trial": 12, "dateTime": 1664370446663, "trialdata": {"rt": 1491, "stimulus": "<p id='stroop-text' class='stroop-red'>MONKEY</p>", "response": "r", "stimulus-type": "unrelated", "word": "MONKEY", "color": "red", "correct_response": "r", "trial_id": "stroop-trial-1-unrelated-21", "trial_type": "html-keyboard-response", "trial_index": 12, "time_elapsed": 188334, "internal_node_id": "0.0-4.0-8.0"}}, {"uniqueid": "w72652129:a44872433", "current_trial": 13, "dateTime": 1664370448759, "trialdata": {"rt": 1590, "stimulus": "<p id='stroop-text' class='stroop-green'>WINDOW</p>", "response": "g", "stimulus-type": "unrelated", "word": "WINDOW", "color": "green", "correct_response": "g", "trial_id": "stroop-trial-1-unrelated-14", "trial_type": "html-keyboard-response", "trial_index": 13, "time_elapsed": 190430, "internal_node_id": "0.0-4.0-9.0"}}, {"uniqueid": "w72652129:a44872433", "current_trial": 14, "dateTime": 1664370449927, "trialdata": {"rt": 659, "stimulus": "<p id='stroop-text' class='stroop-green'>GREEN</p>", "response": "g", "stimulus-type": "congruent", "word": "green", "color": "green", "correct_response": "g", "trial_id": "stroop-trial-1-congruent-10", "trial_type": "html-keyboard-response", "trial_index": 14, "time_elapsed": 191598, "internal_node_id": "0.0-4.0-10.0"}}, {"uniqueid": "w72652129:a44872433", "current_trial": 15, "dateTime": 1664370451962, "trialdata": {"rt": 1531, "stimulus": "<p id='stroop-text' class='stroop-yellow'>BLUE</p>", "response": "y", "stimulus-type": "incongruent", "word": "blue", "color": "yellow", "correct_response": "y", "trial_id": "stroop-trial-1-incongruent-30", "trial_type": "html-keyboard-response", "trial_index": 15, "time_elapsed": 193634, "internal_node_id": "0.0-4.0-11.0"}}, {"uniqueid": "w72652129:a44872433", "current_trial": 16, "dateTime": 1664370453756, "trialdata": {"rt": 1288, "stimulus": "<p id='stroop-text' class='stroop-blue'>FORK</p>", "response": "b", "stimulus-type": "unrelated", "word": "FORK", "color": "blue", "correct_response": "b", "trial_id": "stroop-trial-1-unrelated-26", "trial_type": "html-keyboard-response", "trial_index": 16, "time_elapsed": 195427, "internal_node_id": "0.0-4.0-12.0"}}, {"uniqueid": "w72652129:a44872433", "current_trial": 17, "dateTime": 1664370455626, "trialdata": {"rt": 1365, "stimulus": "<p id='stroop-text' class='stroop-green'>SHIP</p>", "response": "g", "stimulus-type": "unrelated", "word": "SHIP", "color": "green", "correct_response": "g", "trial_id": "stroop-trial-1-unrelated-24", "trial_type": "html-keyboard-response", "trial_index": 17, "time_elapsed": 197297, "internal_node_id": "0.0-4.0-13.0"}}, {"uniqueid": "w72652129:a44872433", "current_trial": 18, "dateTime": 1664370456772, "trialdata": {"rt": 640, "stimulus": "<p id='stroop-text' class='stroop-green'>GREEN</p>", "response": "g", "stimulus-type": "congruent", "word": "green", "color": "green", "correct_response": "g", "trial_id": "stroop-trial-1-congruent-11", "trial_type": "html-keyboard-response", "trial_index": 18, "time_elapsed": 198443, "internal_node_id": "0.0-4.0-14.0"}}, {"uniqueid": "w72652129:a44872433", "current_trial": 19, "dateTime": 1664370458526, "trialdata": {"rt": 1250, "stimulus": "<p id='stroop-text' class='stroop-yellow'>YELLOW</p>", "response": "y", "stimulus-type": "congruent", "word": "yellow", "color": "yellow", "correct_response": "y", "trial_id": "stroop-trial-1-congruent-30", "trial_type": "html-keyboard-response", "trial_index": 19, "time_elapsed": 200197, "internal_node_id": "0.0-4.0-15.0"}}, {"uniqueid": "w72652129:a44872433", "current_trial": 20, "dateTime": 1664370460294, "trialdata": {"rt": 1262, "stimulus": "<p id='stroop-text' class='stroop-red'>CHAIR</p>", "response": "r", "stimulus-type": "unrelated", "word": "CHAIR", "color": "red", "correct_response": "r", "trial_id": "stroop-trial-1-unrelated-22", "trial_type": "html-keyboard-response", "trial_index": 20, "time_elapsed": 201965, "internal_node_id": "0.0-4.0-16.0"}}, {"uniqueid": "w72652129:a44872433", "current_trial": 21, "dateTime": 1664370462115, "trialdata": {"rt": 1316, "stimulus": "<p id='stroop-text' class='stroop-yellow'>YELLOW</p>", "response": "y", "stimulus-type": "congruent", "word": "yellow", "color": "yellow", "correct_response": "y", "trial_id": "stroop-trial-1-congruent-8", "trial_type": "html-keyboard-response", "trial_index": 21, "time_elapsed": 203786, "internal_node_id": "0.0-4.0-17.0"}}, {"uniqueid": "w72652129:a44872433", "current_trial": 22, "dateTime": 1664370463820, "trialdata": {"rt": 1200, "stimulus": "<p id='stroop-text' class='stroop-red'>BRAIN</p>", "response": "r", "stimulus-type": "unrelated", "word": "BRAIN", "color": "red", "correct_response": "r", "trial_id": "stroop-trial-1-unrelated-2", "trial_type": "html-keyboard-response", "trial_index": 22, "time_elapsed": 205491, "internal_node_id": "0.0-4.0-18.0"}}, {"uniqueid": "w72652129:a44872433", "current_trial": 23, "dateTime": 1664370465584, "trialdata": {"rt": 1260, "stimulus": "<p id='stroop-text' class='stroop-yellow'>RED</p>", "response": "y", "stimulus-type": "incongruent", "word": "red", "color": "yellow", "correct_response": "y", "trial_id": "stroop-trial-1-incongruent-18", "trial_type": "html-keyboard-response", "trial_index": 23, "time_elapsed": 207256, "internal_node_id": "0.0-4.0-19.0"}}, {"uniqueid": "w72652129:a44872433", "current_trial": 24, "dateTime": 1664370467198, "trialdata": {"rt": 1109, "stimulus": "<p id='stroop-text' class='stroop-red'>DOG</p>", "response": "r", "stimulus-type": "unrelated", "word": "DOG", "color": "red", "correct_response": "r", "trial_id": "stroop-trial-1-unrelated-9", "trial_type": "html-keyboard-response", "trial_index": 24, "time_elapsed": 208870, "internal_node_id": "0.0-4.0-20.0"}}, {"uniqueid": "w72652129:a44872433", "current_trial": 25, "dateTime": 1664370468888, "trialdata": {"rt": 1185, "stimulus": "<p id='stroop-text' class='stroop-blue'>GREEN</p>", "response": "b", "stimulus-type": "incongruent", "word": "green", "color": "blue", "correct_response": "b", "trial_id": "stroop-trial-1-incongruent-29", "trial_type": "html-keyboard-response", "trial_index": 25, "time_elapsed": 210559, "internal_node_id": "0.0-4.0-21.0"}}, {"uniqueid": "w72652129:a44872433", "current_trial": 26, "dateTime": 1664370470488, "trialdata": {"rt": 1095, "stimulus": "<p id='stroop-text' class='stroop-red'>RED</p>", "response": "r", "stimulus-type": "congruent", "word": "red", "color": "red", "correct_response": "r", "trial_id": "stroop-trial-1-congruent-28", "trial_type": "html-keyboard-response", "trial_index": 26, "time_elapsed": 212159, "internal_node_id": "0.0-4.0-22.0"}}, {"uniqueid": "w72652129:a44872433", "current_trial": 27, "dateTime": 1664370472100, "trialdata": {"rt": 1107, "stimulus": "<p id='stroop-text' class='stroop-yellow'>MONKEY</p>", "response": "y", "stimulus-type": "unrelated", "word": "MONKEY", "color": "yellow", "correct_response": "y", "trial_id": "stroop-trial-1-unrelated-23", "trial_type": "html-keyboard-response", "trial_index": 27, "time_elapsed": 213771, "internal_node_id": "0.0-4.0-23.0"}}, {"uniqueid": "w72652129:a44872433", "current_trial": 28, "dateTime": 1664370473452, "trialdata": {"rt": 847, "stimulus": "<p id='stroop-text' class='stroop-yellow'>YELLOW</p>", "response": "y", "stimulus-type": "congruent", "word": "yellow", "color": "yellow", "correct_response": "y", "trial_id": "stroop-trial-1-congruent-1", "trial_type": "html-keyboard-response", "trial_index": 28, "time_elapsed": 215123, "internal_node_id": "0.0-4.0-24.0"}}, {"uniqueid": "w72652129:a44872433", "current_trial": 29, "dateTime": 1664370474618, "trialdata": {"rt": 661, "stimulus": "<p id='stroop-text' class='stroop-yellow'>GREEN</p>", "response": "y", "stimulus-type": "incongruent", "word": "green", "color": "yellow", "correct_response": "y", "trial_id": "stroop-trial-1-incongruent-10", "trial_type": "html-keyboard-response", "trial_index": 29, "time_elapsed": 216289, "internal_node_id": "0.0-4.0-25.0"}}, {"uniqueid": "w72652129:a44872433", "current_trial": 30, "dateTime": 1664370476493, "trialdata": {"rt": 1370, "stimulus": "<p id='stroop-text' class='stroop-red'>BLUE</p>", "response": "r", "stimulus-type": "incongruent", "word": "blue", "color": "red", "correct_response": "r", "trial_id": "stroop-trial-1-incongruent-25", "trial_type": "html-keyboard-response", "trial_index": 30, "time_elapsed": 218165, "internal_node_id": "0.0-4.0-26.0"}}, {"uniqueid": "w72652129:a44872433", "current_trial": 31, "dateTime": 1664370478062, "trialdata": {"rt": 1062, "stimulus": "<p id='stroop-text' class='stroop-yellow'>YELLOW</p>", "response": "y", "stimulus-type": "congruent", "word": "yellow", "color": "yellow", "correct_response": "y", "trial_id": "stroop-trial-1-congruent-23", "trial_type": "html-keyboard-response", "trial_index": 31, "time_elapsed": 219733, "internal_node_id": "0.0-4.0-27.0"}}, {"uniqueid": "w72652129:a44872433", "current_trial": 32, "dateTime": 1664370479329, "trialdata": {"rt": 761, "stimulus": "<p id='stroop-text' class='stroop-yellow'>STONE</p>", "response": "y", "stimulus-type": "unrelated", "word": "STONE", "color": "yellow", "correct_response": "y", "trial_id": "stroop-trial-1-unrelated-4", "trial_type": "html-keyboard-response", "trial_index": 32, "time_elapsed": 221000, "internal_node_id": "0.0-4.0-28.0"}}, {"uniqueid": "w72652129:a44872433", "current_trial": 33, "dateTime": 1664370480919, "trialdata": {"rt": 1085, "stimulus": "<p id='stroop-text' class='stroop-red'>FORK</p>", "response": "r", "stimulus-type": "unrelated", "word": "FORK", "color": "red", "correct_response": "r", "trial_id": "stroop-trial-1-unrelated-19", "trial_type": "html-keyboard-response", "trial_index": 33, "time_elapsed": 222590, "internal_node_id": "0.0-4.0-29.0"}}, {"uniqueid": "w72652129:a44872433", "current_trial": 34, "dateTime": 1664370482105, "trialdata": {"rt": 683, "stimulus": "<p id='stroop-text' class='stroop-red'>SHIP</p>", "response": "r", "stimulus-type": "unrelated", "word": "SHIP", "color": "red", "correct_response": "r", "trial_id": "stroop-trial-1-unrelated-28", "trial_type": "html-keyboard-response", "trial_index": 34, "time_elapsed": 223777, "internal_node_id": "0.0-4.0-30.0"}}, {"uniqueid": "w72652129:a44872433", "current_trial": 35, "dateTime": 1664370483175, "trialdata": {"rt": 564, "stimulus": "<p id='stroop-text' class='stroop-red'>RED</p>", "response": "r", "stimulus-type": "congruent", "word": "red", "color": "red", "correct_response": "r", "trial_id": "stroop-trial-1-congruent-3", "trial_type": "html-keyboard-response", "trial_index": 35, "time_elapsed": 224846, "internal_node_id": "0.0-4.0-31.0"}}, {"uniqueid": "w72652129:a44872433", "current_trial": 36, "dateTime": 1664370484777, "trialdata": {"rt": 1097, "stimulus": "<p id='stroop-text' class='stroop-blue'>BOAT</p>", "response": "b", "stimulus-type": "unrelated", "word": "BOAT", "color": "blue", "correct_response": "b", "trial_id": "stroop-trial-1-unrelated-20", "trial_type": "html-keyboard-response", "trial_index": 36, "time_elapsed": 226449, "internal_node_id": "0.0-4.0-32.0"}}, {"uniqueid": "w72652129:a44872433", "current_trial": 37, "dateTime": 1664370486488, "trialdata": {"rt": 1201, "stimulus": "<p id='stroop-text' class='stroop-yellow'>GREEN</p>", "response": "y", "stimulus-type": "incongruent", "word": "green", "color": "yellow", "correct_response": "y", "trial_id": "stroop-trial-1-incongruent-20", "trial_type": "html-keyboard-response", "trial_index": 37, "time_elapsed": 228159, "internal_node_id": "0.0-4.0-33.0"}}, {"uniqueid": "w72652129:a44872433", "current_trial": 38, "dateTime": 1664370488175, "trialdata": {"rt": 1182, "stimulus": "<p id='stroop-text' class='stroop-red'>YELLOW</p>", "response": "r", "stimulus-type": "incongruent", "word": "yellow", "color": "red", "correct_response": "r", "trial_id": "stroop-trial-1-incongruent-17", "trial_type": "html-keyboard-response", "trial_index": 38, "time_elapsed": 229846, "internal_node_id": "0.0-4.0-34.0"}}, {"uniqueid": "w72652129:a44872433", "current_trial": 39, "dateTime": 1664370489959, "trialdata": {"rt": 1278, "stimulus": "<p id='stroop-text' class='stroop-green'>GREEN</p>", "response": "g", "stimulus-type": "congruent", "word": "green", "color": "green", "correct_response": "g", "trial_id": "stroop-trial-1-congruent-5", "trial_type": "html-keyboard-response", "trial_index": 39, "time_elapsed": 231630, "internal_node_id": "0.0-4.0-35.0"}}, {"uniqueid": "w72652129:a44872433", "current_trial": 40, "dateTime": 1664370491549, "trialdata": {"rt": 1086, "stimulus": "<p id='stroop-text' class='stroop-yellow'>YELLOW</p>", "response": "y", "stimulus-type": "congruent", "word": "yellow", "color": "yellow", "correct_response": "y", "trial_id": "stroop-trial-1-congruent-17", "trial_type": "html-keyboard-response", "trial_index": 40, "time_elapsed": 233221, "internal_node_id": "0.0-4.0-36.0"}}, {"uniqueid": "w72652129:a44872433", "current_trial": 41, "dateTime": 1664370493287, "trialdata": {"rt": 1230, "stimulus": "<p id='stroop-text' class='stroop-red'>GREEN</p>", "response": "r", "stimulus-type": "incongruent", "word": "green", "color": "red", "correct_response": "r", "trial_id": "stroop-trial-1-incongruent-4", "trial_type": "html-keyboard-response", "trial_index": 41, "time_elapsed": 234958, "internal_node_id": "0.0-4.0-37.0"}}, {"uniqueid": "w72652129:a44872433", "current_trial": 42, "dateTime": 1664370494357, "trialdata": {"rt": 565, "stimulus": "<p id='stroop-text' class='stroop-red'>WINDOW</p>", "response": "r", "stimulus-type": "unrelated", "word": "WINDOW", "color": "red", "correct_response": "r", "trial_id": "stroop-trial-1-unrelated-11", "trial_type": "html-keyboard-response", "trial_index": 42, "time_elapsed": 236028, "internal_node_id": "0.0-4.0-38.0"}}, {"uniqueid": "w72652129:a44872433", "current_trial": 43, "dateTime": 1664370495350, "trialdata": {"rt": 488, "stimulus": "<p id='stroop-text' class='stroop-red'>BLUE</p>", "response": "r", "stimulus-type": "incongruent", "word": "blue", "color": "red", "correct_response": "r", "trial_id": "stroop-trial-1-incongruent-23", "trial_type": "html-keyboard-response", "trial_index": 43, "time_elapsed": 237021, "internal_node_id": "0.0-4.0-39.0"}}, {"uniqueid": "w72652129:a44872433", "current_trial": 44, "dateTime": 1664370496388, "trialdata": {"rt": 533, "stimulus": "<p id='stroop-text' class='stroop-red'>YELLOW</p>", "response": "r", "stimulus-type": "incongruent", "word": "yellow", "color": "red", "correct_response": "r", "trial_id": "stroop-trial-1-incongruent-28", "trial_type": "html-keyboard-response", "trial_index": 44, "time_elapsed": 238059, "internal_node_id": "0.0-4.0-40.0"}}, {"uniqueid": "w72652129:a44872433", "current_trial": 45, "dateTime": 1664370497964, "trialdata": {"rt": 1071, "stimulus": "<p id='stroop-text' class='stroop-blue'>RED</p>", "response": "b", "stimulus-type": "incongruent", "word": "red", "color": "blue", "correct_response": "b", "trial_id": "stroop-trial-1-incongruent-7", "trial_type": "html-keyboard-response", "trial_index": 45, "time_elapsed": 239636, "internal_node_id": "0.0-4.0-41.0"}}, {"uniqueid": "w72652129:a44872433", "current_trial": 46, "dateTime": 1664370498995, "trialdata": {"rt": 525, "stimulus": "<p id='stroop-text' class='stroop-blue'>BLUE</p>", "response": "b", "stimulus-type": "congruent", "word": "blue", "color": "blue", "correct_response": "b", "trial_id": "stroop-trial-1-congruent-20", "trial_type": "html-keyboard-response", "trial_index": 46, "time_elapsed": 240666, "internal_node_id": "0.0-4.0-42.0"}}, {"uniqueid": "w72652129:a44872433", "current_trial": 47, "dateTime": 1664370500620, "trialdata": {"rt": 1120, "stimulus": "<p id='stroop-text' class='stroop-red'>BRIDGE</p>", "response": "r", "stimulus-type": "unrelated", "word": "BRIDGE", "color": "red", "correct_response": "r", "trial_id": "stroop-trial-1-unrelated-10", "trial_type": "html-keyboard-response", "trial_index": 47, "time_elapsed": 242291, "internal_node_id": "0.0-4.0-43.0"}}, {"uniqueid": "w72652129:a44872433", "current_trial": 48, "dateTime": 1664370501744, "trialdata": {"rt": 614, "stimulus": "<p id='stroop-text' class='stroop-red'>BLUE</p>", "response": "r", "stimulus-type": "incongruent", "word": "blue", "color": "red", "correct_response": "r", "trial_id": "stroop-trial-1-incongruent-11", "trial_type": "html-keyboard-response", "trial_index": 48, "time_elapsed": 243415, "internal_node_id": "0.0-4.0-44.0"}}, {"uniqueid": "w72652129:a44872433", "current_trial": 49, "dateTime": 1664370502897, "trialdata": {"rt": 648, "stimulus": "<p id='stroop-text' class='stroop-red'>GREEN</p>", "response": "r", "stimulus-type": "incongruent", "word": "green", "color": "red", "correct_response": "r", "trial_id": "stroop-trial-1-incongruent-9", "trial_type": "html-keyboard-response", "trial_index": 49, "time_elapsed": 244568, "internal_node_id": "0.0-4.0-45.0"}}, {"uniqueid": "w72652129:a44872433", "current_trial": 50, "dateTime": 1664370504823, "trialdata": {"rt": 1420, "stimulus": "<p id='stroop-text' class='stroop-blue'>GREEN</p>", "response": "b", "stimulus-type": "incongruent", "word": "green", "color": "blue", "correct_response": "b", "trial_id": "stroop-trial-1-incongruent-6", "trial_type": "html-keyboard-response", "trial_index": 50, "time_elapsed": 246494, "internal_node_id": "0.0-4.0-46.0"}}, {"uniqueid": "w72652129:a44872433", "current_trial": 51, "dateTime": 1664370506566, "trialdata": {"rt": 1238, "stimulus": "<p id='stroop-text' class='stroop-red'>YELLOW</p>", "response": "r", "stimulus-type": "incongruent", "word": "yellow", "color": "red", "correct_response": "r", "trial_id": "stroop-trial-1-incongruent-15", "trial_type": "html-keyboard-response", "trial_index": 51, "time_elapsed": 248237, "internal_node_id": "0.0-4.0-47.0"}}, {"uniqueid": "w72652129:a44872433", "current_trial": 52, "dateTime": 1664370508273, "trialdata": {"rt": 1201, "stimulus": "<p id='stroop-text' class='stroop-green'>DOG</p>", "response": "g", "stimulus-type": "unrelated", "word": "DOG", "color": "green", "correct_response": "g", "trial_id": "stroop-trial-1-unrelated-3", "trial_type": "html-keyboard-response", "trial_index": 52, "time_elapsed": 249944, "internal_node_id": "0.0-4.0-48.0"}}, {"uniqueid": "w72652129:a44872433", "current_trial": 53, "dateTime": 1664370509840, "trialdata": {"rt": 1058, "stimulus": "<p id='stroop-text' class='stroop-red'>RED</p>", "response": "r", "stimulus-type": "congruent", "word": "red", "color": "red", "correct_response": "r", "trial_id": "stroop-trial-1-congruent-6", "trial_type": "html-keyboard-response", "trial_index": 53, "time_elapsed": 251512, "internal_node_id": "0.0-4.0-49.0"}}, {"uniqueid": "w72652129:a44872433", "current_trial": 54, "dateTime": 1664370511396, "trialdata": {"rt": 1041, "stimulus": "<p id='stroop-text' class='stroop-yellow'>YELLOW</p>", "response": "y", "stimulus-type": "congruent", "word": "yellow", "color": "yellow", "correct_response": "y", "trial_id": "stroop-trial-1-congruent-9", "trial_type": "html-keyboard-response", "trial_index": 54, "time_elapsed": 253068, "internal_node_id": "0.0-4.0-50.0"}}, {"uniqueid": "w72652129:a44872433", "current_trial": 55, "dateTime": 1664370512380, "trialdata": {"rt": 478, "stimulus": "<p id='stroop-text' class='stroop-yellow'>YELLOW</p>", "response": "y", "stimulus-type": "congruent", "word": "yellow", "color": "yellow", "correct_response": "y", "trial_id": "stroop-trial-1-congruent-15", "trial_type": "html-keyboard-response", "trial_index": 55, "time_elapsed": 254051, "internal_node_id": "0.0-4.0-51.0"}}, {"uniqueid": "w72652129:a44872433", "current_trial": 56, "dateTime": 1664370514267, "trialdata": {"rt": 1382, "stimulus": "<p id='stroop-text' class='stroop-blue'>YELLOW</p>", "response": "b", "stimulus-type": "incongruent", "word": "yellow", "color": "blue", "correct_response": "b", "trial_id": "stroop-trial-1-incongruent-27", "trial_type": "html-keyboard-response", "trial_index": 56, "time_elapsed": 255938, "internal_node_id": "0.0-4.0-52.0"}}, {"uniqueid": "w72652129:a44872433", "current_trial": 57, "dateTime": 1664370515930, "trialdata": {"rt": 1159, "stimulus": "<p id='stroop-text' class='stroop-yellow'>YELLOW</p>", "response": "y", "stimulus-type": "congruent", "word": "yellow", "color": "yellow", "correct_response": "y", "trial_id": "stroop-trial-1-congruent-24", "trial_type": "html-keyboard-response", "trial_index": 57, "time_elapsed": 257602, "internal_node_id": "0.0-4.0-53.0"}}, {"uniqueid": "w72652129:a44872433", "current_trial": 58, "dateTime": 1664370517707, "trialdata": {"rt": 1265, "stimulus": "<p id='stroop-text' class='stroop-blue'>BLUE</p>", "response": "b", "stimulus-type": "congruent", "word": "blue", "color": "blue", "correct_response": "b", "trial_id": "stroop-trial-1-congruent-14", "trial_type": "html-keyboard-response", "trial_index": 58, "time_elapsed": 259378, "internal_node_id": "0.0-4.0-54.0"}}, {"uniqueid": "w72652129:a44872433", "current_trial": 59, "dateTime": 1664370519330, "trialdata": {"rt": 1117, "stimulus": "<p id='stroop-text' class='stroop-green'>BLUE</p>", "response": "g", "stimulus-type": "incongruent", "word": "blue", "color": "green", "correct_response": "g", "trial_id": "stroop-trial-1-incongruent-8", "trial_type": "html-keyboard-response", "trial_index": 59, "time_elapsed": 261002, "internal_node_id": "0.0-4.0-55.0"}}, {"uniqueid": "w72652129:a44872433", "current_trial": 60, "dateTime": 1664370520831, "trialdata": {"rt": 994, "stimulus": "<p id='stroop-text' class='stroop-red'>RED</p>", "response": "r", "stimulus-type": "congruent", "word": "red", "color": "red", "correct_response": "r", "trial_id": "stroop-trial-1-congruent-26", "trial_type": "html-keyboard-response", "trial_index": 60, "time_elapsed": 262502, "internal_node_id": "0.0-4.0-56.0"}}, {"uniqueid": "w72652129:a44872433", "current_trial": 61, "dateTime": 1664370522422, "trialdata": {"rt": 1086, "stimulus": "<p id='stroop-text' class='stroop-blue'>GREEN</p>", "response": "b", "stimulus-type": "incongruent", "word": "green", "color": "blue", "correct_response": "b", "trial_id": "stroop-trial-1-incongruent-24", "trial_type": "html-keyboard-response", "trial_index": 61, "time_elapsed": 264094, "internal_node_id": "0.0-4.0-57.0"}}, {"uniqueid": "w72652129:a44872433", "current_trial": 62, "dateTime": 1664370523981, "trialdata": {"rt": 1052, "stimulus": "<p id='stroop-text' class='stroop-yellow'>YELLOW</p>", "response": "y", "stimulus-type": "congruent", "word": "yellow", "color": "yellow", "correct_response": "y", "trial_id": "stroop-trial-1-congruent-16", "trial_type": "html-keyboard-response", "trial_index": 62, "time_elapsed": 265653, "internal_node_id": "0.0-4.0-58.0"}}, {"uniqueid": "w72652129:a44872433", "current_trial": 63, "dateTime": 1664370525584, "trialdata": {"rt": 1097, "stimulus": "<p id='stroop-text' class='stroop-green'>RED</p>", "response": "g", "stimulus-type": "incongruent", "word": "red", "color": "green", "correct_response": "g", "trial_id": "stroop-trial-1-incongruent-1", "trial_type": "html-keyboard-response", "trial_index": 63, "time_elapsed": 267255, "internal_node_id": "0.0-4.0-59.0"}}, {"uniqueid": "w72652129:a44872433", "current_trial": 64, "dateTime": 1664370527305, "trialdata": {"rt": 1213, "stimulus": "<p id='stroop-text' class='stroop-red'>MONKEY</p>", "response": "r", "stimulus-type": "unrelated", "word": "MONKEY", "color": "red", "correct_response": "r", "trial_id": "stroop-trial-1-unrelated-30", "trial_type": "html-keyboard-response", "trial_index": 64, "time_elapsed": 268976, "internal_node_id": "0.0-4.0-60.0"}}, {"uniqueid": "w72652129:a44872433", "current_trial": 65, "dateTime": 1664370528453, "trialdata": {"rt": 641, "stimulus": "<p id='stroop-text' class='stroop-red'>RED</p>", "response": "r", "stimulus-type": "congruent", "word": "red", "color": "red", "correct_response": "r", "trial_id": "stroop-trial-1-congruent-19", "trial_type": "html-keyboard-response", "trial_index": 65, "time_elapsed": 270125, "internal_node_id": "0.0-4.0-61.0"}}, {"uniqueid": "w72652129:a44872433", "current_trial": 66, "dateTime": 1664370529508, "trialdata": {"rt": 550, "stimulus": "<p id='stroop-text' class='stroop-red'>RED</p>", "response": "r", "stimulus-type": "congruent", "word": "red", "color": "red", "correct_response": "r", "trial_id": "stroop-trial-1-congruent-27", "trial_type": "html-keyboard-response", "trial_index": 66, "time_elapsed": 271180, "internal_node_id": "0.0-4.0-62.0"}}, {"uniqueid": "w72652129:a44872433", "current_trial": 67, "dateTime": 1664370531429, "trialdata": {"rt": 1415, "stimulus": "<p id='stroop-text' class='stroop-blue'>YELLOW</p>", "response": "b", "stimulus-type": "incongruent", "word": "yellow", "color": "blue", "correct_response": "b", "trial_id": "stroop-trial-1-incongruent-14", "trial_type": "html-keyboard-response", "trial_index": 67, "time_elapsed": 273100, "internal_node_id": "0.0-4.0-63.0"}}, {"uniqueid": "w72652129:a44872433", "current_trial": 68, "dateTime": 1664370532990, "trialdata": {"rt": 1053, "stimulus": "<p id='stroop-text' class='stroop-yellow'>BRAIN</p>", "response": "y", "stimulus-type": "unrelated", "word": "BRAIN", "color": "yellow", "correct_response": "y", "trial_id": "stroop-trial-1-unrelated-27", "trial_type": "html-keyboard-response", "trial_index": 68, "time_elapsed": 274661, "internal_node_id": "0.0-4.0-64.0"}}, {"uniqueid": "w72652129:a44872433", "current_trial": 69, "dateTime": 1664370534430, "trialdata": {"rt": 934, "stimulus": "<p id='stroop-text' class='stroop-blue'>BLUE</p>", "response": "b", "stimulus-type": "congruent", "word": "blue", "color": "blue", "correct_response": "b", "trial_id": "stroop-trial-1-congruent-29", "trial_type": "html-keyboard-response", "trial_index": 69, "time_elapsed": 276101, "internal_node_id": "0.0-4.0-65.0"}}, {"uniqueid": "w72652129:a44872433", "current_trial": 70, "dateTime": 1664370536083, "trialdata": {"rt": 1148, "stimulus": "<p id='stroop-text' class='stroop-green'>SHIP</p>", "response": "g", "stimulus-type": "unrelated", "word": "SHIP", "color": "green", "correct_response": "g", "trial_id": "stroop-trial-1-unrelated-25", "trial_type": "html-keyboard-response", "trial_index": 70, "time_elapsed": 277754, "internal_node_id": "0.0-4.0-66.0"}}, {"uniqueid": "w72652129:a44872433", "current_trial": 71, "dateTime": 1664370538183, "trialdata": {"rt": 1594, "stimulus": "<p id='stroop-text' class='stroop-blue'>RED</p>", "response": "b", "stimulus-type": "incongruent", "word": "red", "color": "blue", "correct_response": "b", "trial_id": "stroop-trial-1-incongruent-16", "trial_type": "html-keyboard-response", "trial_index": 71, "time_elapsed": 279855, "internal_node_id": "0.0-4.0-67.0"}}, {"uniqueid": "w72652129:a44872433", "current_trial": 72, "dateTime": 1664370539675, "trialdata": {"rt": 987, "stimulus": "<p id='stroop-text' class='stroop-green'>GREEN</p>", "response": "g", "stimulus-type": "congruent", "word": "green", "color": "green", "correct_response": "g", "trial_id": "stroop-trial-1-congruent-18", "trial_type": "html-keyboard-response", "trial_index": 72, "time_elapsed": 281347, "internal_node_id": "0.0-4.0-68.0"}}, {"uniqueid": "w72652129:a44872433", "current_trial": 73, "dateTime": 1664370541770, "trialdata": {"rt": 1580, "stimulus": "<p id='stroop-text' class='stroop-blue'>BOTTLE</p>", "response": "b", "stimulus-type": "unrelated", "word": "BOTTLE", "color": "blue", "correct_response": "b", "trial_id": "stroop-trial-1-unrelated-5", "trial_type": "html-keyboard-response", "trial_index": 73, "time_elapsed": 283441, "internal_node_id": "0.0-4.0-69.0"}}, {"uniqueid": "w72652129:a44872433", "current_trial": 74, "dateTime": 1664370543122, "trialdata": {"rt": 843, "stimulus": "<p id='stroop-text' class='stroop-blue'>GREEN</p>", "response": "b", "stimulus-type": "incongruent", "word": "green", "color": "blue", "correct_response": "b", "trial_id": "stroop-trial-1-incongruent-22", "trial_type": "html-keyboard-response", "trial_index": 74, "time_elapsed": 284793, "internal_node_id": "0.0-4.0-70.0"}}, {"uniqueid": "w72652129:a44872433", "current_trial": 75, "dateTime": 1664370544615, "trialdata": {"rt": 986, "stimulus": "<p id='stroop-text' class='stroop-yellow'>YELLOW</p>", "response": "y", "stimulus-type": "congruent", "word": "yellow", "color": "yellow", "correct_response": "y", "trial_id": "stroop-trial-1-congruent-21", "trial_type": "html-keyboard-response", "trial_index": 75, "time_elapsed": 286286, "internal_node_id": "0.0-4.0-71.0"}}, {"uniqueid": "w72652129:a44872433", "current_trial": 76, "dateTime": 1664370546792, "trialdata": {"rt": 1670, "stimulus": "<p id='stroop-text' class='stroop-green'>GREEN</p>", "response": "g", "stimulus-type": "congruent", "word": "green", "color": "green", "correct_response": "g", "trial_id": "stroop-trial-1-congruent-13", "trial_type": "html-keyboard-response", "trial_index": 76, "time_elapsed": 288464, "internal_node_id": "0.0-4.0-72.0"}}, {"uniqueid": "w72652129:a44872433", "current_trial": 77, "dateTime": 1664370548000, "trialdata": {"rt": 701, "stimulus": "<p id='stroop-text' class='stroop-green'>GREEN</p>", "response": "g", "stimulus-type": "congruent", "word": "green", "color": "green", "correct_response": "g", "trial_id": "stroop-trial-1-congruent-2", "trial_type": "html-keyboard-response", "trial_index": 77, "time_elapsed": 289671, "internal_node_id": "0.0-4.0-73.0"}}, {"uniqueid": "w72652129:a44872433", "current_trial": 78, "dateTime": 1664370549114, "trialdata": {"rt": 609, "stimulus": "<p id='stroop-text' class='stroop-green'>GREEN</p>", "response": "g", "stimulus-type": "congruent", "word": "green", "color": "green", "correct_response": "g", "trial_id": "stroop-trial-1-congruent-12", "trial_type": "html-keyboard-response", "trial_index": 78, "time_elapsed": 290786, "internal_node_id": "0.0-4.0-74.0"}}, {"uniqueid": "w72652129:a44872433", "current_trial": 79, "dateTime": 1664370550757, "trialdata": {"rt": 1137, "stimulus": "<p id='stroop-text' class='stroop-red'>BRIDGE</p>", "response": "r", "stimulus-type": "unrelated", "word": "BRIDGE", "color": "red", "correct_response": "r", "trial_id": "stroop-trial-1-unrelated-7", "trial_type": "html-keyboard-response", "trial_index": 79, "time_elapsed": 292429, "internal_node_id": "0.0-4.0-75.0"}}, {"uniqueid": "w72652129:a44872433", "current_trial": 80, "dateTime": 1664370552383, "trialdata": {"rt": 1119, "stimulus": "<p id='stroop-text' class='stroop-blue'>RED</p>", "response": "b", "stimulus-type": "incongruent", "word": "red", "color": "blue", "correct_response": "b", "trial_id": "stroop-trial-1-incongruent-2", "trial_type": "html-keyboard-response", "trial_index": 80, "time_elapsed": 294054, "internal_node_id": "0.0-4.0-76.0"}}, {"uniqueid": "w72652129:a44872433", "current_trial": 81, "dateTime": 1664370553946, "trialdata": {"rt": 1055, "stimulus": "<p id='stroop-text' class='stroop-yellow'>BLUE</p>", "response": "y", "stimulus-type": "incongruent", "word": "blue", "color": "yellow", "correct_response": "y", "trial_id": "stroop-trial-1-incongruent-26", "trial_type": "html-keyboard-response", "trial_index": 81, "time_elapsed": 295617, "internal_node_id": "0.0-4.0-77.0"}}, {"uniqueid": "w72652129:a44872433", "current_trial": 82, "dateTime": 1664370555546, "trialdata": {"rt": 1093, "stimulus": "<p id='stroop-text' class='stroop-yellow'>GREEN</p>", "response": "y", "stimulus-type": "incongruent", "word": "green", "color": "yellow", "correct_response": "y", "trial_id": "stroop-trial-1-incongruent-5", "trial_type": "html-keyboard-response", "trial_index": 82, "time_elapsed": 297217, "internal_node_id": "0.0-4.0-78.0"}}, {"uniqueid": "w72652129:a44872433", "current_trial": 83, "dateTime": 1664370557228, "trialdata": {"rt": 1176, "stimulus": "<p id='stroop-text' class='stroop-red'>RED</p>", "response": "r", "stimulus-type": "congruent", "word": "red", "color": "red", "correct_response": "r", "trial_id": "stroop-trial-1-congruent-22", "trial_type": "html-keyboard-response", "trial_index": 83, "time_elapsed": 298899, "internal_node_id": "0.0-4.0-79.0"}}, {"uniqueid": "w72652129:a44872433", "current_trial": 84, "dateTime": 1664370558845, "trialdata": {"rt": 1096, "stimulus": "<p id='stroop-text' class='stroop-blue'>DOG</p>", "response": "b", "stimulus-type": "unrelated", "word": "DOG", "color": "blue", "correct_response": "b", "trial_id": "stroop-trial-1-unrelated-1", "trial_type": "html-keyboard-response", "trial_index": 84, "time_elapsed": 300517, "internal_node_id": "0.0-4.0-80.0"}}, {"uniqueid": "w72652129:a44872433", "current_trial": 85, "dateTime": 1664370560387, "trialdata": {"rt": 1039, "stimulus": "<p id='stroop-text' class='stroop-yellow'>SHIP</p>", "response": "y", "stimulus-type": "unrelated", "word": "SHIP", "color": "yellow", "correct_response": "y", "trial_id": "stroop-trial-1-unrelated-8", "trial_type": "html-keyboard-response", "trial_index": 85, "time_elapsed": 302059, "internal_node_id": "0.0-4.0-81.0"}}, {"uniqueid": "w72652129:a44872433", "current_trial": 86, "dateTime": 1664370561961, "trialdata": {"rt": 1069, "stimulus": "<p id='stroop-text' class='stroop-red'>FORK</p>", "response": "r", "stimulus-type": "unrelated", "word": "FORK", "color": "red", "correct_response": "r", "trial_id": "stroop-trial-1-unrelated-15", "trial_type": "html-keyboard-response", "trial_index": 86, "time_elapsed": 303633, "internal_node_id": "0.0-4.0-82.0"}}, {"uniqueid": "w72652129:a44872433", "current_trial": 87, "dateTime": 1664370563513, "trialdata": {"rt": 1044, "stimulus": "<p id='stroop-text' class='stroop-blue'>STONE</p>", "response": "b", "stimulus-type": "unrelated", "word": "STONE", "color": "blue", "correct_response": "b", "trial_id": "stroop-trial-1-unrelated-6", "trial_type": "html-keyboard-response", "trial_index": 87, "time_elapsed": 305184, "internal_node_id": "0.0-4.0-83.0"}}, {"uniqueid": "w72652129:a44872433", "current_trial": 88, "dateTime": 1664370565158, "trialdata": {"rt": 1139, "stimulus": "<p id='stroop-text' class='stroop-blue'>DOG</p>", "response": "b", "stimulus-type": "unrelated", "word": "DOG", "color": "blue", "correct_response": "b", "trial_id": "stroop-trial-1-unrelated-18", "trial_type": "html-keyboard-response", "trial_index": 88, "time_elapsed": 306830, "internal_node_id": "0.0-4.0-84.0"}}, {"uniqueid": "w72652129:a44872433", "current_trial": 89, "dateTime": 1664370566807, "trialdata": {"rt": 1142, "stimulus": "<p id='stroop-text' class='stroop-red'>RED</p>", "response": "r", "stimulus-type": "congruent", "word": "red", "color": "red", "correct_response": "r", "trial_id": "stroop-trial-1-congruent-4", "trial_type": "html-keyboard-response", "trial_index": 89, "time_elapsed": 308478, "internal_node_id": "0.0-4.0-85.0"}}, {"uniqueid": "w72652129:a44872433", "current_trial": 90, "dateTime": 1664370568056, "trialdata": {"rt": 740, "stimulus": "<p id='stroop-text' class='stroop-red'>RED</p>", "response": "r", "stimulus-type": "congruent", "word": "red", "color": "red", "correct_response": "r", "trial_id": "stroop-trial-1-congruent-25", "trial_type": "html-keyboard-response", "trial_index": 90, "time_elapsed": 309727, "internal_node_id": "0.0-4.0-86.0"}}, {"uniqueid": "w72652129:a44872433", "current_trial": 91, "dateTime": 1664370569719, "trialdata": {"rt": 1157, "stimulus": "<p id='stroop-text' class='stroop-green'>BRAIN</p>", "response": "g", "stimulus-type": "unrelated", "word": "BRAIN", "color": "green", "correct_response": "g", "trial_id": "stroop-trial-1-unrelated-29", "trial_type": "html-keyboard-response", "trial_index": 91, "time_elapsed": 311391, "internal_node_id": "0.0-4.0-87.0"}}, {"uniqueid": "w72652129:a44872433", "current_trial": 92, "dateTime": 1664370571240, "trialdata": {"rt": 1014, "stimulus": "<p id='stroop-text' class='stroop-blue'>GREEN</p>", "response": "b", "stimulus-type": "incongruent", "word": "green", "color": "blue", "correct_response": "b", "trial_id": "stroop-trial-1-incongruent-13", "trial_type": "html-keyboard-response", "trial_index": 92, "time_elapsed": 312911, "internal_node_id": "0.0-4.0-88.0"}}, {"uniqueid": "w72652129:a44872433", "current_trial": 93, "dateTime": 1664370572939, "trialdata": {"rt": 1184, "stimulus": "<p id='stroop-text' class='stroop-green'>GREEN</p>", "response": "g", "stimulus-type": "congruent", "word": "green", "color": "green", "correct_response": "g", "trial_id": "stroop-trial-1-congruent-7", "trial_type": "html-keyboard-response", "trial_index": 93, "time_elapsed": 314611, "internal_node_id": "0.0-4.0-89.0"}}, {"uniqueid": "w72652129:a44872433", "current_trial": 94, "dateTime": 1664370593533, "trialdata": {"rt": 20082, "stimulus": "  <h1> End of block! </h1>\n\n  You have reached the end of the block 1/5. If you need a short break, feel free to take one now before moving on.\n\n  <br><br>\n  In the next block, you will complete another 90 rounds of this game.\n\n  <br><br>\n  <div style='text-align: center;'>Press <code>space</code> to begin.</div>\n  <br><br>\n<div style='text-align: center;'>(If the experiment doesn't continue, try clicking on the text and then pressing <code>space</code>.)</div>", "response": " ", "trial_id": "stroop_1_ready_2", "trial_type": "html-keyboard-response", "trial_index": 94, "time_elapsed": 335204, "internal_node_id": "0.0-5.0"}}, {"uniqueid": "w72652129:a44872433", "current_trial": 95, "dateTime": 1664370594787, "trialdata": {"rt": 1247, "stimulus": "<p id='stroop-text' class='stroop-green'>CHAIR</p>", "response": "g", "stimulus-type": "unrelated", "word": "CHAIR", "color": "green", "correct_response": "g", "trial_id": "stroop-trial-1-unrelated-13", "trial_type": "html-keyboard-response", "trial_index": 95, "time_elapsed": 336459, "internal_node_id": "0.0-6.0-0.0"}}, {"uniqueid": "w72652129:a44872433", "current_trial": 96, "dateTime": 1664370596415, "trialdata": {"rt": 1121, "stimulus": "<p id='stroop-text' class='stroop-yellow'>SHIP</p>", "response": "y", "stimulus-type": "unrelated", "word": "SHIP", "color": "yellow", "correct_response": "y", "trial_id": "stroop-trial-1-unrelated-15", "trial_type": "html-keyboard-response", "trial_index": 96, "time_elapsed": 338087, "internal_node_id": "0.0-6.0-1.0"}}, {"uniqueid": "w72652129:a44872433", "current_trial": 97, "dateTime": 1664370597850, "trialdata": {"rt": 927, "stimulus": "<p id='stroop-text' class='stroop-yellow'>BLUE</p>", "response": "y", "stimulus-type": "incongruent", "word": "blue", "color": "yellow", "correct_response": "y", "trial_id": "stroop-trial-1-incongruent-12", "trial_type": "html-keyboard-response", "trial_index": 97, "time_elapsed": 339521, "internal_node_id": "0.0-6.0-2.0"}}, {"uniqueid": "w72652129:a44872433", "current_trial": 98, "dateTime": 1664370599359, "trialdata": {"rt": 993, "stimulus": "<p id='stroop-text' class='stroop-blue'>BLUE</p>", "response": "b", "stimulus-type": "congruent", "word": "blue", "color": "blue", "correct_response": "b", "trial_id": "stroop-trial-1-congruent-9", "trial_type": "html-keyboard-response", "trial_index": 98, "time_elapsed": 341030, "internal_node_id": "0.0-6.0-3.0"}}, {"uniqueid": "w72652129:a44872433", "current_trial": 99, "dateTime": 1664370601012, "trialdata": {"rt": 1147, "stimulus": "<p id='stroop-text' class='stroop-red'>FORK</p>", "response": "r", "stimulus-type": "unrelated", "word": "FORK", "color": "red", "correct_response": "r", "trial_id": "stroop-trial-1-unrelated-23", "trial_type": "html-keyboard-response", "trial_index": 99, "time_elapsed": 342683, "internal_node_id": "0.0-6.0-4.0"}}, {"uniqueid": "w72652129:a44872433", "current_trial": 100, "dateTime": 1664370602017, "trialdata": {"rt": 500, "stimulus": "<p id='stroop-text' class='stroop-red'>YELLOW</p>", "response": "r", "stimulus-type": "incongruent", "word": "yellow", "color": "red", "correct_response": "r", "trial_id": "stroop-trial-1-incongruent-23", "trial_type": "html-keyboard-response", "trial_index": 100, "time_elapsed": 343688, "internal_node_id": "0.0-6.0-5.0"}}, {"uniqueid": "w72652129:a44872433", "current_trial": 101, "dateTime": 1664370603023, "trialdata": {"rt": 502, "stimulus": "<p id='stroop-text' class='stroop-red'>BOTTLE</p>", "response": "r", "stimulus-type": "unrelated", "word": "BOTTLE", "color": "red", "correct_response": "r", "trial_id": "stroop-trial-1-unrelated-30", "trial_type": "html-keyboard-response", "trial_index": 101, "time_elapsed": 344695, "internal_node_id": "0.0-6.0-6.0"}}, {"uniqueid": "w72652129:a44872433", "current_trial": 102, "dateTime": 1664370604791, "trialdata": {"rt": 1262, "stimulus": "<p id='stroop-text' class='stroop-yellow'>RED</p>", "response": "y", "stimulus-type": "incongruent", "word": "red", "color": "yellow", "correct_response": "y", "trial_id": "stroop-trial-1-incongruent-8", "trial_type": "html-keyboard-response", "trial_index": 102, "time_elapsed": 346462, "internal_node_id": "0.0-6.0-7.0"}}, {"uniqueid": "w72652129:a44872433", "current_trial": 103, "dateTime": 1664370605820, "trialdata": {"rt": 522, "stimulus": "<p id='stroop-text' class='stroop-yellow'>YELLOW</p>", "response": "y", "stimulus-type": "congruent", "word": "yellow", "color": "yellow", "correct_response": "y", "trial_id": "stroop-trial-1-congruent-5", "trial_type": "html-keyboard-response", "trial_index": 103, "time_elapsed": 347491, "internal_node_id": "0.0-6.0-8.0"}}, {"uniqueid": "w72652129:a44872433", "current_trial": 104, "dateTime": 1664370607343, "trialdata": {"rt": 1008, "stimulus": "<p id='stroop-text' class='stroop-blue'>GREEN</p>", "response": "g", "stimulus-type": "incongruent", "word": "green", "color": "blue", "correct_response": "b", "trial_id": "stroop-trial-1-incongruent-17", "trial_type": "html-keyboard-response", "trial_index": 104, "time_elapsed": 349015, "internal_node_id": "0.0-6.0-9.0"}}, {"uniqueid": "w72652129:a44872433", "current_trial": 105, "dateTime": 1664370610524, "trialdata": {"rt": 2673, "stimulus": "<p id='stroop-text' class='stroop-green'>BRIDGE</p>", "response": "g", "stimulus-type": "unrelated", "word": "BRIDGE", "color": "green", "correct_response": "g", "trial_id": "stroop-trial-1-unrelated-22", "trial_type": "html-keyboard-response", "trial_index": 105, "time_elapsed": 352196, "internal_node_id": "0.0-6.0-10.0"}}, {"uniqueid": "w72652129:a44872433", "current_trial": 106, "dateTime": 1664370612395, "trialdata": {"rt": 1366, "stimulus": "<p id='stroop-text' class='stroop-blue'>BLUE</p>", "response": "b", "stimulus-type": "congruent", "word": "blue", "color": "blue", "correct_response": "b", "trial_id": "stroop-trial-1-congruent-22", "trial_type": "html-keyboard-response", "trial_index": 106, "time_elapsed": 354066, "internal_node_id": "0.0-6.0-11.0"}}, {"uniqueid": "w72652129:a44872433", "current_trial": 107, "dateTime": 1664370614049, "trialdata": {"rt": 1145, "stimulus": "<p id='stroop-text' class='stroop-green'>BRIDGE</p>", "response": "g", "stimulus-type": "unrelated", "word": "BRIDGE", "color": "green", "correct_response": "g", "trial_id": "stroop-trial-1-unrelated-26", "trial_type": "html-keyboard-response", "trial_index": 107, "time_elapsed": 355720, "internal_node_id": "0.0-6.0-12.0"}}, {"uniqueid": "w72652129:a44872433", "current_trial": 108, "dateTime": 1664370615826, "trialdata": {"rt": 1271, "stimulus": "<p id='stroop-text' class='stroop-yellow'>YELLOW</p>", "response": "y", "stimulus-type": "congruent", "word": "yellow", "color": "yellow", "correct_response": "y", "trial_id": "stroop-trial-1-congruent-19", "trial_type": "html-keyboard-response", "trial_index": 108, "time_elapsed": 357497, "internal_node_id": "0.0-6.0-13.0"}}, {"uniqueid": "w72652129:a44872433", "current_trial": 109, "dateTime": 1664370617464, "trialdata": {"rt": 1130, "stimulus": "<p id='stroop-text' class='stroop-blue'>BLUE</p>", "response": "b", "stimulus-type": "congruent", "word": "blue", "color": "blue", "correct_response": "b", "trial_id": "stroop-trial-1-congruent-2", "trial_type": "html-keyboard-response", "trial_index": 109, "time_elapsed": 359136, "internal_node_id": "0.0-6.0-14.0"}}, {"uniqueid": "w72652129:a44872433", "current_trial": 110, "dateTime": 1664370619065, "trialdata": {"rt": 1092, "stimulus": "<p id='stroop-text' class='stroop-green'>BLUE</p>", "response": "g", "stimulus-type": "incongruent", "word": "blue", "color": "green", "correct_response": "g", "trial_id": "stroop-trial-1-incongruent-25", "trial_type": "html-keyboard-response", "trial_index": 110, "time_elapsed": 360736, "internal_node_id": "0.0-6.0-15.0"}}, {"uniqueid": "w72652129:a44872433", "current_trial": 111, "dateTime": 1664370620630, "trialdata": {"rt": 1060, "stimulus": "<p id='stroop-text' class='stroop-blue'>BLUE</p>", "response": "b", "stimulus-type": "congruent", "word": "blue", "color": "blue", "correct_response": "b", "trial_id": "stroop-trial-1-congruent-28", "trial_type": "html-keyboard-response", "trial_index": 111, "time_elapsed": 362302, "internal_node_id": "0.0-6.0-16.0"}}, {"uniqueid": "w72652129:a44872433", "current_trial": 112, "dateTime": 1664370622222, "trialdata": {"rt": 1083, "stimulus": "<p id='stroop-text' class='stroop-red'>RED</p>", "response": "r", "stimulus-type": "congruent", "word": "red", "color": "red", "correct_response": "r", "trial_id": "stroop-trial-1-congruent-29", "trial_type": "html-keyboard-response", "trial_index": 112, "time_elapsed": 363893, "internal_node_id": "0.0-6.0-17.0"}}, {"uniqueid": "w72652129:a44872433", "current_trial": 113, "dateTime": 1664370623934, "trialdata": {"rt": 1207, "stimulus": "<p id='stroop-text' class='stroop-yellow'>GREEN</p>", "response": "y", "stimulus-type": "incongruent", "word": "green", "color": "yellow", "correct_response": "y", "trial_id": "stroop-trial-1-incongruent-28", "trial_type": "html-keyboard-response", "trial_index": 113, "time_elapsed": 365606, "internal_node_id": "0.0-6.0-18.0"}}, {"uniqueid": "w72652129:a44872433", "current_trial": 114, "dateTime": 1664370625679, "trialdata": {"rt": 1238, "stimulus": "<p id='stroop-text' class='stroop-blue'>SHIP</p>", "response": "b", "stimulus-type": "unrelated", "word": "SHIP", "color": "blue", "correct_response": "b", "trial_id": "stroop-trial-1-unrelated-14", "trial_type": "html-keyboard-response", "trial_index": 114, "time_elapsed": 367351, "internal_node_id": "0.0-6.0-19.0"}}, {"uniqueid": "w72652129:a44872433", "current_trial": 115, "dateTime": 1664370627081, "trialdata": {"rt": 894, "stimulus": "<p id='stroop-text' class='stroop-blue'>BLUE</p>", "response": "b", "stimulus-type": "congruent", "word": "blue", "color": "blue", "correct_response": "b", "trial_id": "stroop-trial-1-congruent-25", "trial_type": "html-keyboard-response", "trial_index": 115, "time_elapsed": 368752, "internal_node_id": "0.0-6.0-20.0"}}, {"uniqueid": "w72652129:a44872433", "current_trial": 116, "dateTime": 1664370628685, "trialdata": {"rt": 1098, "stimulus": "<p id='stroop-text' class='stroop-yellow'>DOG</p>", "response": "y", "stimulus-type": "unrelated", "word": "DOG", "color": "yellow", "correct_response": "y", "trial_id": "stroop-trial-1-unrelated-5", "trial_type": "html-keyboard-response", "trial_index": 116, "time_elapsed": 370356, "internal_node_id": "0.0-6.0-21.0"}}, {"uniqueid": "w72652129:a44872433", "current_trial": 117, "dateTime": 1664370630186, "trialdata": {"rt": 991, "stimulus": "<p id='stroop-text' class='stroop-green'>GREEN</p>", "response": "g", "stimulus-type": "congruent", "word": "green", "color": "green", "correct_response": "g", "trial_id": "stroop-trial-1-congruent-8", "trial_type": "html-keyboard-response", "trial_index": 117, "time_elapsed": 371858, "internal_node_id": "0.0-6.0-22.0"}}, {"uniqueid": "w72652129:a44872433", "current_trial": 118, "dateTime": 1664370631984, "trialdata": {"rt": 1292, "stimulus": "<p id='stroop-text' class='stroop-blue'>WINDOW</p>", "response": "b", "stimulus-type": "unrelated", "word": "WINDOW", "color": "blue", "correct_response": "b", "trial_id": "stroop-trial-1-unrelated-20", "trial_type": "html-keyboard-response", "trial_index": 118, "time_elapsed": 373656, "internal_node_id": "0.0-6.0-23.0"}}, {"uniqueid": "w72652129:a44872433", "current_trial": 119, "dateTime": 1664370633218, "trialdata": {"rt": 726, "stimulus": "<p id='stroop-text' class='stroop-blue'>BLUE</p>", "response": "b", "stimulus-type": "congruent", "word": "blue", "color": "blue", "correct_response": "b", "trial_id": "stroop-trial-1-congruent-17", "trial_type": "html-keyboard-response", "trial_index": 119, "time_elapsed": 374890, "internal_node_id": "0.0-6.0-24.0"}}, {"uniqueid": "w72652129:a44872433", "current_trial": 120, "dateTime": 1664370634955, "trialdata": {"rt": 1231, "stimulus": "<p id='stroop-text' class='stroop-red'>RED</p>", "response": "r", "stimulus-type": "congruent", "word": "red", "color": "red", "correct_response": "r", "trial_id": "stroop-trial-1-congruent-26", "trial_type": "html-keyboard-response", "trial_index": 120, "time_elapsed": 376627, "internal_node_id": "0.0-6.0-25.0"}}, {"uniqueid": "w72652129:a44872433", "current_trial": 121, "dateTime": 1664370636061, "trialdata": {"rt": 597, "stimulus": "<p id='stroop-text' class='stroop-red'>RED</p>", "response": "r", "stimulus-type": "congruent", "word": "red", "color": "red", "correct_response": "r", "trial_id": "stroop-trial-1-congruent-1", "trial_type": "html-keyboard-response", "trial_index": 121, "time_elapsed": 377732, "internal_node_id": "0.0-6.0-26.0"}}, {"uniqueid": "w72652129:a44872433", "current_trial": 122, "dateTime": 1664370637649, "trialdata": {"rt": 1084, "stimulus": "<p id='stroop-text' class='stroop-green'>BOAT</p>", "response": "g", "stimulus-type": "unrelated", "word": "BOAT", "color": "green", "correct_response": "g", "trial_id": "stroop-trial-1-unrelated-11", "trial_type": "html-keyboard-response", "trial_index": 122, "time_elapsed": 379320, "internal_node_id": "0.0-6.0-27.0"}}, {"uniqueid": "w72652129:a44872433", "current_trial": 123, "dateTime": 1664370638955, "trialdata": {"rt": 799, "stimulus": "<p id='stroop-text' class='stroop-green'>RED</p>", "response": "g", "stimulus-type": "incongruent", "word": "red", "color": "green", "correct_response": "g", "trial_id": "stroop-trial-1-incongruent-14", "trial_type": "html-keyboard-response", "trial_index": 123, "time_elapsed": 380626, "internal_node_id": "0.0-6.0-28.0"}}, {"uniqueid": "w72652129:a44872433", "current_trial": 124, "dateTime": 1664370640465, "trialdata": {"rt": 1003, "stimulus": "<p id='stroop-text' class='stroop-yellow'>GREEN</p>", "response": "y", "stimulus-type": "incongruent", "word": "green", "color": "yellow", "correct_response": "y", "trial_id": "stroop-trial-1-incongruent-22", "trial_type": "html-keyboard-response", "trial_index": 124, "time_elapsed": 382136, "internal_node_id": "0.0-6.0-29.0"}}, {"uniqueid": "w72652129:a44872433", "current_trial": 125, "dateTime": 1664370642277, "trialdata": {"rt": 1307, "stimulus": "<p id='stroop-text' class='stroop-green'>YELLOW</p>", "response": "g", "stimulus-type": "incongruent", "word": "yellow", "color": "green", "correct_response": "g", "trial_id": "stroop-trial-1-incongruent-24", "trial_type": "html-keyboard-response", "trial_index": 125, "time_elapsed": 383948, "internal_node_id": "0.0-6.0-30.0"}}, {"uniqueid": "w72652129:a44872433", "current_trial": 126, "dateTime": 1664370643985, "trialdata": {"rt": 1203, "stimulus": "<p id='stroop-text' class='stroop-red'>BLUE</p>", "response": "r", "stimulus-type": "incongruent", "word": "blue", "color": "red", "correct_response": "r", "trial_id": "stroop-trial-1-incongruent-16", "trial_type": "html-keyboard-response", "trial_index": 126, "time_elapsed": 385656, "internal_node_id": "0.0-6.0-31.0"}}, {"uniqueid": "w72652129:a44872433", "current_trial": 127, "dateTime": 1664370645503, "trialdata": {"rt": 1012, "stimulus": "<p id='stroop-text' class='stroop-green'>DOG</p>", "response": "g", "stimulus-type": "unrelated", "word": "DOG", "color": "green", "correct_response": "g", "trial_id": "stroop-trial-1-unrelated-10", "trial_type": "html-keyboard-response", "trial_index": 127, "time_elapsed": 387174, "internal_node_id": "0.0-6.0-32.0"}}, {"uniqueid": "w72652129:a44872433", "current_trial": 128, "dateTime": 1664370646958, "trialdata": {"rt": 944, "stimulus": "<p id='stroop-text' class='stroop-yellow'>YELLOW</p>", "response": "y", "stimulus-type": "congruent", "word": "yellow", "color": "yellow", "correct_response": "y", "trial_id": "stroop-trial-1-congruent-14", "trial_type": "html-keyboard-response", "trial_index": 128, "time_elapsed": 388629, "internal_node_id": "0.0-6.0-33.0"}}, {"uniqueid": "w72652129:a44872433", "current_trial": 129, "dateTime": 1664370648750, "trialdata": {"rt": 1285, "stimulus": "<p id='stroop-text' class='stroop-blue'>YELLOW</p>", "response": "b", "stimulus-type": "incongruent", "word": "yellow", "color": "blue", "correct_response": "b", "trial_id": "stroop-trial-1-incongruent-19", "trial_type": "html-keyboard-response", "trial_index": 129, "time_elapsed": 390422, "internal_node_id": "0.0-6.0-34.0"}}, {"uniqueid": "w72652129:a44872433", "current_trial": 130, "dateTime": 1664370650267, "trialdata": {"rt": 1011, "stimulus": "<p id='stroop-text' class='stroop-green'>BLUE</p>", "response": "g", "stimulus-type": "incongruent", "word": "blue", "color": "green", "correct_response": "g", "trial_id": "stroop-trial-1-incongruent-10", "trial_type": "html-keyboard-response", "trial_index": 130, "time_elapsed": 391938, "internal_node_id": "0.0-6.0-35.0"}}, {"uniqueid": "w72652129:a44872433", "current_trial": 131, "dateTime": 1664370651772, "trialdata": {"rt": 1000, "stimulus": "<p id='stroop-text' class='stroop-yellow'>BOAT</p>", "response": "y", "stimulus-type": "unrelated", "word": "BOAT", "color": "yellow", "correct_response": "y", "trial_id": "stroop-trial-1-unrelated-2", "trial_type": "html-keyboard-response", "trial_index": 131, "time_elapsed": 393444, "internal_node_id": "0.0-6.0-36.0"}}, {"uniqueid": "w72652129:a44872433", "current_trial": 132, "dateTime": 1664370653259, "trialdata": {"rt": 983, "stimulus": "<p id='stroop-text' class='stroop-green'>BLUE</p>", "response": "g", "stimulus-type": "incongruent", "word": "blue", "color": "green", "correct_response": "g", "trial_id": "stroop-trial-1-incongruent-6", "trial_type": "html-keyboard-response", "trial_index": 132, "time_elapsed": 394930, "internal_node_id": "0.0-6.0-37.0"}}, {"uniqueid": "w72652129:a44872433", "current_trial": 133, "dateTime": 1664370654744, "trialdata": {"rt": 978, "stimulus": "<p id='stroop-text' class='stroop-yellow'>DOG</p>", "response": "y", "stimulus-type": "unrelated", "word": "DOG", "color": "yellow", "correct_response": "y", "trial_id": "stroop-trial-1-unrelated-27", "trial_type": "html-keyboard-response", "trial_index": 133, "time_elapsed": 396416, "internal_node_id": "0.0-6.0-38.0"}}, {"uniqueid": "w72652129:a44872433", "current_trial": 134, "dateTime": 1664370656215, "trialdata": {"rt": 966, "stimulus": "<p id='stroop-text' class='stroop-green'>BOTTLE</p>", "response": "g", "stimulus-type": "unrelated", "word": "BOTTLE", "color": "green", "correct_response": "g", "trial_id": "stroop-trial-1-unrelated-18", "trial_type": "html-keyboard-response", "trial_index": 134, "time_elapsed": 397886, "internal_node_id": "0.0-6.0-39.0"}}, {"uniqueid": "w72652129:a44872433", "current_trial": 135, "dateTime": 1664370657844, "trialdata": {"rt": 1121, "stimulus": "<p id='stroop-text' class='stroop-red'>YELLOW</p>", "response": "r", "stimulus-type": "incongruent", "word": "yellow", "color": "red", "correct_response": "r", "trial_id": "stroop-trial-1-incongruent-3", "trial_type": "html-keyboard-response", "trial_index": 135, "time_elapsed": 399516, "internal_node_id": "0.0-6.0-40.0"}}, {"uniqueid": "w72652129:a44872433", "current_trial": 136, "dateTime": 1664370659456, "trialdata": {"rt": 1101, "stimulus": "<p id='stroop-text' class='stroop-yellow'>BLUE</p>", "response": "y", "stimulus-type": "incongruent", "word": "blue", "color": "yellow", "correct_response": "y", "trial_id": "stroop-trial-1-incongruent-9", "trial_type": "html-keyboard-response", "trial_index": 136, "time_elapsed": 401127, "internal_node_id": "0.0-6.0-41.0"}}, {"uniqueid": "w72652129:a44872433", "current_trial": 137, "dateTime": 1664370661137, "trialdata": {"rt": 1174, "stimulus": "<p id='stroop-text' class='stroop-green'>RED</p>", "response": "g", "stimulus-type": "incongruent", "word": "red", "color": "green", "correct_response": "g", "trial_id": "stroop-trial-1-incongruent-20", "trial_type": "html-keyboard-response", "trial_index": 137, "time_elapsed": 402807, "internal_node_id": "0.0-6.0-42.0"}}, {"uniqueid": "w72652129:a44872433", "current_trial": 138, "dateTime": 1664370662880, "trialdata": {"rt": 1231, "stimulus": "<p id='stroop-text' class='stroop-blue'>BLUE</p>", "response": "b", "stimulus-type": "congruent", "word": "blue", "color": "blue", "correct_response": "b", "trial_id": "stroop-trial-1-congruent-13", "trial_type": "html-keyboard-response", "trial_index": 138, "time_elapsed": 404552, "internal_node_id": "0.0-6.0-43.0"}}, {"uniqueid": "w72652129:a44872433", "current_trial": 139, "dateTime": 1664370664464, "trialdata": {"rt": 1077, "stimulus": "<p id='stroop-text' class='stroop-yellow'>CHAIR</p>", "response": "y", "stimulus-type": "unrelated", "word": "CHAIR", "color": "yellow", "correct_response": "y", "trial_id": "stroop-trial-1-unrelated-25", "trial_type": "html-keyboard-response", "trial_index": 139, "time_elapsed": 406136, "internal_node_id": "0.0-6.0-44.0"}}, {"uniqueid": "w72652129:a44872433", "current_trial": 140, "dateTime": 1664370666194, "trialdata": {"rt": 1218, "stimulus": "<p id='stroop-text' class='stroop-red'>GREEN</p>", "response": "r", "stimulus-type": "incongruent", "word": "green", "color": "red", "correct_response": "r", "trial_id": "stroop-trial-1-incongruent-30", "trial_type": "html-keyboard-response", "trial_index": 140, "time_elapsed": 407865, "internal_node_id": "0.0-6.0-45.0"}}, {"uniqueid": "w72652129:a44872433", "current_trial": 141, "dateTime": 1664370667890, "trialdata": {"rt": 1189, "stimulus": "<p id='stroop-text' class='stroop-yellow'>YELLOW</p>", "response": "y", "stimulus-type": "congruent", "word": "yellow", "color": "yellow", "correct_response": "y", "trial_id": "stroop-trial-1-congruent-11", "trial_type": "html-keyboard-response", "trial_index": 141, "time_elapsed": 409561, "internal_node_id": "0.0-6.0-46.0"}}, {"uniqueid": "w72652129:a44872433", "current_trial": 142, "dateTime": 1664370669362, "trialdata": {"rt": 952, "stimulus": "<p id='stroop-text' class='stroop-yellow'>DOG</p>", "response": "y", "stimulus-type": "unrelated", "word": "DOG", "color": "yellow", "correct_response": "y", "trial_id": "stroop-trial-1-unrelated-29", "trial_type": "html-keyboard-response", "trial_index": 142, "time_elapsed": 411033, "internal_node_id": "0.0-6.0-47.0"}}, {"uniqueid": "w72652129:a44872433", "current_trial": 143, "dateTime": 1664370671065, "trialdata": {"rt": 1197, "stimulus": "<p id='stroop-text' class='stroop-blue'>BLUE</p>", "response": "b", "stimulus-type": "congruent", "word": "blue", "color": "blue", "correct_response": "b", "trial_id": "stroop-trial-1-congruent-6", "trial_type": "html-keyboard-response", "trial_index": 143, "time_elapsed": 412736, "internal_node_id": "0.0-6.0-48.0"}}, {"uniqueid": "w72652129:a44872433", "current_trial": 144, "dateTime": 1664370672742, "trialdata": {"rt": 1167, "stimulus": "<p id='stroop-text' class='stroop-red'>RED</p>", "response": "r", "stimulus-type": "congruent", "word": "red", "color": "red", "correct_response": "r", "trial_id": "stroop-trial-1-congruent-4", "trial_type": "html-keyboard-response", "trial_index": 144, "time_elapsed": 414413, "internal_node_id": "0.0-6.0-49.0"}}, {"uniqueid": "w72652129:a44872433", "current_trial": 145, "dateTime": 1664370674463, "trialdata": {"rt": 1214, "stimulus": "<p id='stroop-text' class='stroop-yellow'>FORK</p>", "response": "y", "stimulus-type": "unrelated", "word": "FORK", "color": "yellow", "correct_response": "y", "trial_id": "stroop-trial-1-unrelated-12", "trial_type": "html-keyboard-response", "trial_index": 145, "time_elapsed": 416134, "internal_node_id": "0.0-6.0-50.0"}}, {"uniqueid": "w72652129:a44872433", "current_trial": 146, "dateTime": 1664370676350, "trialdata": {"rt": 1381, "stimulus": "<p id='stroop-text' class='stroop-blue'>BLUE</p>", "response": "b", "stimulus-type": "congruent", "word": "blue", "color": "blue", "correct_response": "b", "trial_id": "stroop-trial-1-congruent-21", "trial_type": "html-keyboard-response", "trial_index": 146, "time_elapsed": 418021, "internal_node_id": "0.0-6.0-51.0"}}, {"uniqueid": "w72652129:a44872433", "current_trial": 147, "dateTime": 1664370677653, "trialdata": {"rt": 792, "stimulus": "<p id='stroop-text' class='stroop-blue'>GREEN</p>", "response": "b", "stimulus-type": "incongruent", "word": "green", "color": "blue", "correct_response": "b", "trial_id": "stroop-trial-1-incongruent-7", "trial_type": "html-keyboard-response", "trial_index": 147, "time_elapsed": 419322, "internal_node_id": "0.0-6.0-52.0"}}, {"uniqueid": "w72652129:a44872433", "current_trial": 148, "dateTime": 1664370679240, "trialdata": {"rt": 1075, "stimulus": "<p id='stroop-text' class='stroop-yellow'>YELLOW</p>", "response": "y", "stimulus-type": "congruent", "word": "yellow", "color": "yellow", "correct_response": "y", "trial_id": "stroop-trial-1-congruent-15", "trial_type": "html-keyboard-response", "trial_index": 148, "time_elapsed": 420911, "internal_node_id": "0.0-6.0-53.0"}}, {"uniqueid": "w72652129:a44872433", "current_trial": 149, "dateTime": 1664370680736, "trialdata": {"rt": 986, "stimulus": "<p id='stroop-text' class='stroop-red'>RED</p>", "response": "r", "stimulus-type": "congruent", "word": "red", "color": "red", "correct_response": "r", "trial_id": "stroop-trial-1-congruent-12", "trial_type": "html-keyboard-response", "trial_index": 149, "time_elapsed": 422408, "internal_node_id": "0.0-6.0-54.0"}}, {"uniqueid": "w72652129:a44872433", "current_trial": 150, "dateTime": 1664370682761, "trialdata": {"rt": 1517, "stimulus": "<p id='stroop-text' class='stroop-yellow'>SHIP</p>", "response": "y", "stimulus-type": "unrelated", "word": "SHIP", "color": "yellow", "correct_response": "y", "trial_id": "stroop-trial-1-unrelated-9", "trial_type": "html-keyboard-response", "trial_index": 150, "time_elapsed": 424433, "internal_node_id": "0.0-6.0-55.0"}}, {"uniqueid": "w72652129:a44872433", "current_trial": 151, "dateTime": 1664370684276, "trialdata": {"rt": 1008, "stimulus": "<p id='stroop-text' class='stroop-green'>MONKEY</p>", "response": "g", "stimulus-type": "unrelated", "word": "MONKEY", "color": "green", "correct_response": "g", "trial_id": "stroop-trial-1-unrelated-1", "trial_type": "html-keyboard-response", "trial_index": 151, "time_elapsed": 425948, "internal_node_id": "0.0-6.0-56.0"}}, {"uniqueid": "w72652129:a44872433", "current_trial": 152, "dateTime": 1664370685397, "trialdata": {"rt": 612, "stimulus": "<p id='stroop-text' class='stroop-green'>BLUE</p>", "response": "g", "stimulus-type": "incongruent", "word": "blue", "color": "green", "correct_response": "g", "trial_id": "stroop-trial-1-incongruent-29", "trial_type": "html-keyboard-response", "trial_index": 152, "time_elapsed": 427068, "internal_node_id": "0.0-6.0-57.0"}}, {"uniqueid": "w72652129:a44872433", "current_trial": 153, "dateTime": 1664370687069, "trialdata": {"rt": 1165, "stimulus": "<p id='stroop-text' class='stroop-yellow'>RED</p>", "response": "y", "stimulus-type": "incongruent", "word": "red", "color": "yellow", "correct_response": "y", "trial_id": "stroop-trial-1-incongruent-2", "trial_type": "html-keyboard-response", "trial_index": 153, "time_elapsed": 428741, "internal_node_id": "0.0-6.0-58.0"}}, {"uniqueid": "w72652129:a44872433", "current_trial": 154, "dateTime": 1664370688276, "trialdata": {"rt": 699, "stimulus": "<p id='stroop-text' class='stroop-yellow'>BLUE</p>", "response": "y", "stimulus-type": "incongruent", "word": "blue", "color": "yellow", "correct_response": "y", "trial_id": "stroop-trial-1-incongruent-27", "trial_type": "html-keyboard-response", "trial_index": 154, "time_elapsed": 429947, "internal_node_id": "0.0-6.0-59.0"}}, {"uniqueid": "w72652129:a44872433", "current_trial": 155, "dateTime": 1664370690028, "trialdata": {"rt": 1232, "stimulus": "<p id='stroop-text' class='stroop-red'>SHIP</p>", "response": "r", "stimulus-type": "unrelated", "word": "SHIP", "color": "red", "correct_response": "r", "trial_id": "stroop-trial-1-unrelated-3", "trial_type": "html-keyboard-response", "trial_index": 155, "time_elapsed": 431699, "internal_node_id": "0.0-6.0-60.0"}}, {"uniqueid": "w72652129:a44872433", "current_trial": 156, "dateTime": 1664370691606, "trialdata": {"rt": 1071, "stimulus": "<p id='stroop-text' class='stroop-blue'>DOG</p>", "response": "b", "stimulus-type": "unrelated", "word": "DOG", "color": "blue", "correct_response": "b", "trial_id": "stroop-trial-1-unrelated-28", "trial_type": "html-keyboard-response", "trial_index": 156, "time_elapsed": 433277, "internal_node_id": "0.0-6.0-61.0"}}, {"uniqueid": "w72652129:a44872433", "current_trial": 157, "dateTime": 1664370693184, "trialdata": {"rt": 1070, "stimulus": "<p id='stroop-text' class='stroop-yellow'>BOAT</p>", "response": "y", "stimulus-type": "unrelated", "word": "BOAT", "color": "yellow", "correct_response": "y", "trial_id": "stroop-trial-1-unrelated-8", "trial_type": "html-keyboard-response", "trial_index": 157, "time_elapsed": 434856, "internal_node_id": "0.0-6.0-62.0"}}, {"uniqueid": "w72652129:a44872433", "current_trial": 158, "dateTime": 1664370694429, "trialdata": {"rt": 735, "stimulus": "<p id='stroop-text' class='stroop-yellow'>GREEN</p>", "response": "y", "stimulus-type": "incongruent", "word": "green", "color": "yellow", "correct_response": "y", "trial_id": "stroop-trial-1-incongruent-15", "trial_type": "html-keyboard-response", "trial_index": 158, "time_elapsed": 436100, "internal_node_id": "0.0-6.0-63.0"}}, {"uniqueid": "w72652129:a44872433", "current_trial": 159, "dateTime": 1664370696231, "trialdata": {"rt": 1286, "stimulus": "<p id='stroop-text' class='stroop-blue'>RED</p>", "response": "b", "stimulus-type": "incongruent", "word": "red", "color": "blue", "correct_response": "b", "trial_id": "stroop-trial-1-incongruent-5", "trial_type": "html-keyboard-response", "trial_index": 159, "time_elapsed": 437902, "internal_node_id": "0.0-6.0-64.0"}}, {"uniqueid": "w72652129:a44872433", "current_trial": 160, "dateTime": 1664370697489, "trialdata": {"rt": 753, "stimulus": "<p id='stroop-text' class='stroop-blue'>BLUE</p>", "response": "b", "stimulus-type": "congruent", "word": "blue", "color": "blue", "correct_response": "b", "trial_id": "stroop-trial-1-congruent-27", "trial_type": "html-keyboard-response", "trial_index": 160, "time_elapsed": 439160, "internal_node_id": "0.0-6.0-65.0"}}, {"uniqueid": "w72652129:a44872433", "current_trial": 161, "dateTime": 1664370699185, "trialdata": {"rt": 1187, "stimulus": "<p id='stroop-text' class='stroop-red'>BLUE</p>", "response": "r", "stimulus-type": "incongruent", "word": "blue", "color": "red", "correct_response": "r", "trial_id": "stroop-trial-1-incongruent-1", "trial_type": "html-keyboard-response", "trial_index": 161, "time_elapsed": 440856, "internal_node_id": "0.0-6.0-66.0"}}, {"uniqueid": "w72652129:a44872433", "current_trial": 162, "dateTime": 1664370700812, "trialdata": {"rt": 1119, "stimulus": "<p id='stroop-text' class='stroop-blue'>BLUE</p>", "response": "b", "stimulus-type": "congruent", "word": "blue", "color": "blue", "correct_response": "b", "trial_id": "stroop-trial-1-congruent-23", "trial_type": "html-keyboard-response", "trial_index": 162, "time_elapsed": 442484, "internal_node_id": "0.0-6.0-67.0"}}, {"uniqueid": "w72652129:a44872433", "current_trial": 163, "dateTime": 1664370702386, "trialdata": {"rt": 1064, "stimulus": "<p id='stroop-text' class='stroop-green'>GREEN</p>", "response": "g", "stimulus-type": "congruent", "word": "green", "color": "green", "correct_response": "g", "trial_id": "stroop-trial-1-congruent-18", "trial_type": "html-keyboard-response", "trial_index": 163, "time_elapsed": 444057, "internal_node_id": "0.0-6.0-68.0"}}, {"uniqueid": "w72652129:a44872433", "current_trial": 164, "dateTime": 1664370703666, "trialdata": {"rt": 771, "stimulus": "<p id='stroop-text' class='stroop-green'>GREEN</p>", "response": "g", "stimulus-type": "congruent", "word": "green", "color": "green", "correct_response": "g", "trial_id": "stroop-trial-1-congruent-3", "trial_type": "html-keyboard-response", "trial_index": 164, "time_elapsed": 445338, "internal_node_id": "0.0-6.0-69.0"}}, {"uniqueid": "w72652129:a44872433", "current_trial": 165, "dateTime": 1664370704831, "trialdata": {"rt": 656, "stimulus": "<p id='stroop-text' class='stroop-green'>BLUE</p>", "response": "g", "stimulus-type": "incongruent", "word": "blue", "color": "green", "correct_response": "g", "trial_id": "stroop-trial-1-incongruent-18", "trial_type": "html-keyboard-response", "trial_index": 165, "time_elapsed": 446503, "internal_node_id": "0.0-6.0-70.0"}}, {"uniqueid": "w72652129:a44872433", "current_trial": 166, "dateTime": 1664370706550, "trialdata": {"rt": 1210, "stimulus": "<p id='stroop-text' class='stroop-yellow'>DOG</p>", "response": "y", "stimulus-type": "unrelated", "word": "DOG", "color": "yellow", "correct_response": "y", "trial_id": "stroop-trial-1-unrelated-7", "trial_type": "html-keyboard-response", "trial_index": 166, "time_elapsed": 448221, "internal_node_id": "0.0-6.0-71.0"}}, {"uniqueid": "w72652129:a44872433", "current_trial": 167, "dateTime": 1664370708207, "trialdata": {"rt": 1142, "stimulus": "<p id='stroop-text' class='stroop-green'>DOG</p>", "response": "g", "stimulus-type": "unrelated", "word": "DOG", "color": "green", "correct_response": "g", "trial_id": "stroop-trial-1-unrelated-6", "trial_type": "html-keyboard-response", "trial_index": 167, "time_elapsed": 449878, "internal_node_id": "0.0-6.0-72.0"}}, {"uniqueid": "w72652129:a44872433", "current_trial": 168, "dateTime": 1664370709617, "trialdata": {"rt": 901, "stimulus": "<p id='stroop-text' class='stroop-green'>BLUE</p>", "response": "g", "stimulus-type": "incongruent", "word": "blue", "color": "green", "correct_response": "g", "trial_id": "stroop-trial-1-incongruent-21", "trial_type": "html-keyboard-response", "trial_index": 168, "time_elapsed": 451289, "internal_node_id": "0.0-6.0-73.0"}}, {"uniqueid": "w72652129:a44872433", "current_trial": 169, "dateTime": 1664370711174, "trialdata": {"rt": 1050, "stimulus": "<p id='stroop-text' class='stroop-blue'>GREEN</p>", "response": "b", "stimulus-type": "incongruent", "word": "green", "color": "blue", "correct_response": "b", "trial_id": "stroop-trial-1-incongruent-11", "trial_type": "html-keyboard-response", "trial_index": 169, "time_elapsed": 452845, "internal_node_id": "0.0-6.0-74.0"}}, {"uniqueid": "w72652129:a44872433", "current_trial": 170, "dateTime": 1664370712922, "trialdata": {"rt": 1245, "stimulus": "<p id='stroop-text' class='stroop-green'>GREEN</p>", "response": "g", "stimulus-type": "congruent", "word": "green", "color": "green", "correct_response": "g", "trial_id": "stroop-trial-1-congruent-20", "trial_type": "html-keyboard-response", "trial_index": 170, "time_elapsed": 454594, "internal_node_id": "0.0-6.0-75.0"}}, {"uniqueid": "w72652129:a44872433", "current_trial": 171, "dateTime": 1664370714465, "trialdata": {"rt": 1037, "stimulus": "<p id='stroop-text' class='stroop-red'>RED</p>", "response": "r", "stimulus-type": "congruent", "word": "red", "color": "red", "correct_response": "r", "trial_id": "stroop-trial-1-congruent-10", "trial_type": "html-keyboard-response", "trial_index": 171, "time_elapsed": 456136, "internal_node_id": "0.0-6.0-76.0"}}, {"uniqueid": "w72652129:a44872433", "current_trial": 172, "dateTime": 1664370716527, "trialdata": {"rt": 1553, "stimulus": "<p id='stroop-text' class='stroop-green'>GREEN</p>", "response": "g", "stimulus-type": "congruent", "word": "green", "color": "green", "correct_response": "g", "trial_id": "stroop-trial-1-congruent-30", "trial_type": "html-keyboard-response", "trial_index": 172, "time_elapsed": 458198, "internal_node_id": "0.0-6.0-77.0"}}, {"uniqueid": "w72652129:a44872433", "current_trial": 173, "dateTime": 1664370718087, "trialdata": {"rt": 1051, "stimulus": "<p id='stroop-text' class='stroop-blue'>BLUE</p>", "response": "b", "stimulus-type": "congruent", "word": "blue", "color": "blue", "correct_response": "b", "trial_id": "stroop-trial-1-congruent-24", "trial_type": "html-keyboard-response", "trial_index": 173, "time_elapsed": 459758, "internal_node_id": "0.0-6.0-78.0"}}, {"uniqueid": "w72652129:a44872433", "current_trial": 174, "dateTime": 1664370719858, "trialdata": {"rt": 1262, "stimulus": "<p id='stroop-text' class='stroop-blue'>MONKEY</p>", "response": "b", "stimulus-type": "unrelated", "word": "MONKEY", "color": "blue", "correct_response": "b", "trial_id": "stroop-trial-1-unrelated-24", "trial_type": "html-keyboard-response", "trial_index": 174, "time_elapsed": 461529, "internal_node_id": "0.0-6.0-79.0"}}, {"uniqueid": "w72652129:a44872433", "current_trial": 175, "dateTime": 1664370720929, "trialdata": {"rt": 564, "stimulus": "<p id='stroop-text' class='stroop-blue'>YELLOW</p>", "response": "b", "stimulus-type": "incongruent", "word": "yellow", "color": "blue", "correct_response": "b", "trial_id": "stroop-trial-1-incongruent-26", "trial_type": "html-keyboard-response", "trial_index": 175, "time_elapsed": 462601, "internal_node_id": "0.0-6.0-80.0"}}, {"uniqueid": "w72652129:a44872433", "current_trial": 176, "dateTime": 1664370721977, "trialdata": {"rt": 544, "stimulus": "<p id='stroop-text' class='stroop-blue'>RED</p>", "response": "b", "stimulus-type": "incongruent", "word": "red", "color": "blue", "correct_response": "b", "trial_id": "stroop-trial-1-incongruent-4", "trial_type": "html-keyboard-response", "trial_index": 176, "time_elapsed": 463648, "internal_node_id": "0.0-6.0-81.0"}}, {"uniqueid": "w72652129:a44872433", "current_trial": 177, "dateTime": 1664370723636, "trialdata": {"rt": 1151, "stimulus": "<p id='stroop-text' class='stroop-red'>BOAT</p>", "response": "r", "stimulus-type": "unrelated", "word": "BOAT", "color": "red", "correct_response": "r", "trial_id": "stroop-trial-1-unrelated-17", "trial_type": "html-keyboard-response", "trial_index": 177, "time_elapsed": 465307, "internal_node_id": "0.0-6.0-82.0"}}, {"uniqueid": "w72652129:a44872433", "current_trial": 178, "dateTime": 1664370725348, "trialdata": {"rt": 1204, "stimulus": "<p id='stroop-text' class='stroop-green'>WINDOW</p>", "response": "g", "stimulus-type": "unrelated", "word": "WINDOW", "color": "green", "correct_response": "g", "trial_id": "stroop-trial-1-unrelated-4", "trial_type": "html-keyboard-response", "trial_index": 178, "time_elapsed": 467019, "internal_node_id": "0.0-6.0-83.0"}}, {"uniqueid": "w72652129:a44872433", "current_trial": 179, "dateTime": 1664370727142, "trialdata": {"rt": 1287, "stimulus": "<p id='stroop-text' class='stroop-red'>YELLOW</p>", "response": "r", "stimulus-type": "incongruent", "word": "yellow", "color": "red", "correct_response": "r", "trial_id": "stroop-trial-1-incongruent-13", "trial_type": "html-keyboard-response", "trial_index": 179, "time_elapsed": 468814, "internal_node_id": "0.0-6.0-84.0"}}, {"uniqueid": "w72652129:a44872433", "current_trial": 180, "dateTime": 1664370728379, "trialdata": {"rt": 727, "stimulus": "<p id='stroop-text' class='stroop-red'>BOAT</p>", "response": "r", "stimulus-type": "unrelated", "word": "BOAT", "color": "red", "correct_response": "r", "trial_id": "stroop-trial-1-unrelated-16", "trial_type": "html-keyboard-response", "trial_index": 180, "time_elapsed": 470051, "internal_node_id": "0.0-6.0-85.0"}}, {"uniqueid": "w72652129:a44872433", "current_trial": 181, "dateTime": 1664370729915, "trialdata": {"rt": 1027, "stimulus": "<p id='stroop-text' class='stroop-blue'>BOTTLE</p>", "response": "b", "stimulus-type": "unrelated", "word": "BOTTLE", "color": "blue", "correct_response": "b", "trial_id": "stroop-trial-1-unrelated-19", "trial_type": "html-keyboard-response", "trial_index": 181, "time_elapsed": 471587, "internal_node_id": "0.0-6.0-86.0"}}, {"uniqueid": "w72652129:a44872433", "current_trial": 182, "dateTime": 1664370731501, "trialdata": {"rt": 1070, "stimulus": "<p id='stroop-text' class='stroop-red'>RED</p>", "response": "r", "stimulus-type": "congruent", "word": "red", "color": "red", "correct_response": "r", "trial_id": "stroop-trial-1-congruent-7", "trial_type": "html-keyboard-response", "trial_index": 182, "time_elapsed": 473172, "internal_node_id": "0.0-6.0-87.0"}}, {"uniqueid": "w72652129:a44872433", "current_trial": 183, "dateTime": 1664370733035, "trialdata": {"rt": 1028, "stimulus": "<p id='stroop-text' class='stroop-green'>GREEN</p>", "response": "g", "stimulus-type": "congruent", "word": "green", "color": "green", "correct_response": "g", "trial_id": "stroop-trial-1-congruent-16", "trial_type": "html-keyboard-response", "trial_index": 183, "time_elapsed": 474707, "internal_node_id": "0.0-6.0-88.0"}}, {"uniqueid": "w72652129:a44872433", "current_trial": 184, "dateTime": 1664370734757, "trialdata": {"rt": 1215, "stimulus": "<p id='stroop-text' class='stroop-red'>BOTTLE</p>", "response": "r", "stimulus-type": "unrelated", "word": "BOTTLE", "color": "red", "correct_response": "r", "trial_id": "stroop-trial-1-unrelated-21", "trial_type": "html-keyboard-response", "trial_index": 184, "time_elapsed": 476429, "internal_node_id": "0.0-6.0-89.0"}}, {"uniqueid": "w72652129:a44872433", "current_trial": 185, "dateTime": 1664370739070, "trialdata": {"rt": 3805, "stimulus": "  <h1> End of block! </h1>\n\n  You have reached the end of the block 2/5. If you need a short break, feel free to take one now before moving on.\n\n  <br><br>\n  In the next block, you will complete another 90 rounds of this game.\n\n  <br><br>\n  <div style='text-align: center;'>Press <code>space</code> to begin.</div>\n  <br><br>\n<div style='text-align: center;'>(If the experiment doesn't continue, try clicking on the text and then pressing <code>space</code>.)</div>", "response": " ", "trial_id": "stroop_1_ready_3", "trial_type": "html-keyboard-response", "trial_index": 185, "time_elapsed": 480741, "internal_node_id": "0.0-7.0"}}, {"uniqueid": "w72652129:a44872433", "current_trial": 186, "dateTime": 1664370740458, "trialdata": {"rt": 1377, "stimulus": "<p id='stroop-text' class='stroop-blue'>YELLOW</p>", "response": "b", "stimulus-type": "incongruent", "word": "yellow", "color": "blue", "correct_response": "b", "trial_id": "stroop-trial-1-incongruent-24", "trial_type": "html-keyboard-response", "trial_index": 186, "time_elapsed": 482129, "internal_node_id": "0.0-8.0-0.0"}}, {"uniqueid": "w72652129:a44872433", "current_trial": 187, "dateTime": 1664370741715, "trialdata": {"rt": 750, "stimulus": "<p id='stroop-text' class='stroop-blue'>WINDOW</p>", "response": "b", "stimulus-type": "unrelated", "word": "WINDOW", "color": "blue", "correct_response": "b", "trial_id": "stroop-trial-1-unrelated-10", "trial_type": "html-keyboard-response", "trial_index": 187, "time_elapsed": 483386, "internal_node_id": "0.0-8.0-1.0"}}, {"uniqueid": "w72652129:a44872433", "current_trial": 188, "dateTime": 1664370743446, "trialdata": {"rt": 1221, "stimulus": "<p id='stroop-text' class='stroop-green'>BOTTLE</p>", "response": "g", "stimulus-type": "unrelated", "word": "BOTTLE", "color": "green", "correct_response": "g", "trial_id": "stroop-trial-1-unrelated-25", "trial_type": "html-keyboard-response", "trial_index": 188, "time_elapsed": 485116, "internal_node_id": "0.0-8.0-2.0"}}, {"uniqueid": "w72652129:a44872433", "current_trial": 189, "dateTime": 1664370745057, "trialdata": {"rt": 1101, "stimulus": "<p id='stroop-text' class='stroop-yellow'>YELLOW</p>", "response": "y", "stimulus-type": "congruent", "word": "yellow", "color": "yellow", "correct_response": "y", "trial_id": "stroop-trial-1-congruent-10", "trial_type": "html-keyboard-response", "trial_index": 189, "time_elapsed": 486729, "internal_node_id": "0.0-8.0-3.0"}}, {"uniqueid": "w72652129:a44872433", "current_trial": 190, "dateTime": 1664370746660, "trialdata": {"rt": 1096, "stimulus": "<p id='stroop-text' class='stroop-red'>RED</p>", "response": "r", "stimulus-type": "congruent", "word": "red", "color": "red", "correct_response": "r", "trial_id": "stroop-trial-1-congruent-14", "trial_type": "html-keyboard-response", "trial_index": 190, "time_elapsed": 488331, "internal_node_id": "0.0-8.0-4.0"}}, {"uniqueid": "w72652129:a44872433", "current_trial": 191, "dateTime": 1664370748304, "trialdata": {"rt": 1136, "stimulus": "<p id='stroop-text' class='stroop-green'>BLUE</p>", "response": "g", "stimulus-type": "incongruent", "word": "blue", "color": "green", "correct_response": "g", "trial_id": "stroop-trial-1-incongruent-19", "trial_type": "html-keyboard-response", "trial_index": 191, "time_elapsed": 489975, "internal_node_id": "0.0-8.0-5.0"}}, {"uniqueid": "w72652129:a44872433", "current_trial": 192, "dateTime": 1664370749499, "trialdata": {"rt": 687, "stimulus": "<p id='stroop-text' class='stroop-green'>MONKEY</p>", "response": "g", "stimulus-type": "unrelated", "word": "MONKEY", "color": "green", "correct_response": "g", "trial_id": "stroop-trial-1-unrelated-9", "trial_type": "html-keyboard-response", "trial_index": 192, "time_elapsed": 491170, "internal_node_id": "0.0-8.0-6.0"}}, {"uniqueid": "w72652129:a44872433", "current_trial": 193, "dateTime": 1664370750970, "trialdata": {"rt": 962, "stimulus": "<p id='stroop-text' class='stroop-blue'>RED</p>", "response": "b", "stimulus-type": "incongruent", "word": "red", "color": "blue", "correct_response": "b", "trial_id": "stroop-trial-1-incongruent-1", "trial_type": "html-keyboard-response", "trial_index": 193, "time_elapsed": 492641, "internal_node_id": "0.0-8.0-7.0"}}, {"uniqueid": "w72652129:a44872433", "current_trial": 194, "dateTime": 1664370752498, "trialdata": {"rt": 1020, "stimulus": "<p id='stroop-text' class='stroop-green'>MONKEY</p>", "response": "g", "stimulus-type": "unrelated", "word": "MONKEY", "color": "green", "correct_response": "g", "trial_id": "stroop-trial-1-unrelated-1", "trial_type": "html-keyboard-response", "trial_index": 194, "time_elapsed": 494169, "internal_node_id": "0.0-8.0-8.0"}}, {"uniqueid": "w72652129:a44872433", "current_trial": 195, "dateTime": 1664370754169, "trialdata": {"rt": 1163, "stimulus": "<p id='stroop-text' class='stroop-blue'>SHIP</p>", "response": "b", "stimulus-type": "unrelated", "word": "SHIP", "color": "blue", "correct_response": "b", "trial_id": "stroop-trial-1-unrelated-6", "trial_type": "html-keyboard-response", "trial_index": 195, "time_elapsed": 495840, "internal_node_id": "0.0-8.0-9.0"}}, {"uniqueid": "w72652129:a44872433", "current_trial": 196, "dateTime": 1664370755440, "trialdata": {"rt": 754, "stimulus": "<p id='stroop-text' class='stroop-blue'>FORK</p>", "response": "b", "stimulus-type": "unrelated", "word": "FORK", "color": "blue", "correct_response": "b", "trial_id": "stroop-trial-1-unrelated-24", "trial_type": "html-keyboard-response", "trial_index": 196, "time_elapsed": 497111, "internal_node_id": "0.0-8.0-10.0"}}, {"uniqueid": "w72652129:a44872433", "current_trial": 197, "dateTime": 1664370757015, "trialdata": {"rt": 1053, "stimulus": "<p id='stroop-text' class='stroop-red'>RED</p>", "response": "r", "stimulus-type": "congruent", "word": "red", "color": "red", "correct_response": "r", "trial_id": "stroop-trial-1-congruent-20", "trial_type": "html-keyboard-response", "trial_index": 197, "time_elapsed": 498686, "internal_node_id": "0.0-8.0-11.0"}}, {"uniqueid": "w72652129:a44872433", "current_trial": 198, "dateTime": 1664370758712, "trialdata": {"rt": 1185, "stimulus": "<p id='stroop-text' class='stroop-blue'>GREEN</p>", "response": "b", "stimulus-type": "incongruent", "word": "green", "color": "blue", "correct_response": "b", "trial_id": "stroop-trial-1-incongruent-4", "trial_type": "html-keyboard-response", "trial_index": 198, "time_elapsed": 500381, "internal_node_id": "0.0-8.0-12.0"}}, {"uniqueid": "w72652129:a44872433", "current_trial": 199, "dateTime": 1664370759790, "trialdata": {"rt": 569, "stimulus": "<p id='stroop-text' class='stroop-blue'>BLUE</p>", "response": "b", "stimulus-type": "congruent", "word": "blue", "color": "blue", "correct_response": "b", "trial_id": "stroop-trial-1-congruent-23", "trial_type": "html-keyboard-response", "trial_index": 199, "time_elapsed": 501462, "internal_node_id": "0.0-8.0-13.0"}}, {"uniqueid": "w72652129:a44872433", "current_trial": 200, "dateTime": 1664370761296, "trialdata": {"rt": 998, "stimulus": "<p id='stroop-text' class='stroop-yellow'>BLUE</p>", "response": "y", "stimulus-type": "incongruent", "word": "blue", "color": "yellow", "correct_response": "y", "trial_id": "stroop-trial-1-incongruent-3", "trial_type": "html-keyboard-response", "trial_index": 200, "time_elapsed": 502967, "internal_node_id": "0.0-8.0-14.0"}}, {"uniqueid": "w72652129:a44872433", "current_trial": 201, "dateTime": 1664370762773, "trialdata": {"rt": 970, "stimulus": "<p id='stroop-text' class='stroop-green'>BOAT</p>", "response": "g", "stimulus-type": "unrelated", "word": "BOAT", "color": "green", "correct_response": "g", "trial_id": "stroop-trial-1-unrelated-20", "trial_type": "html-keyboard-response", "trial_index": 201, "time_elapsed": 504445, "internal_node_id": "0.0-8.0-15.0"}}, {"uniqueid": "w72652129:a44872433", "current_trial": 202, "dateTime": 1664370764478, "trialdata": {"rt": 1198, "stimulus": "<p id='stroop-text' class='stroop-red'>YELLOW</p>", "response": "r", "stimulus-type": "incongruent", "word": "yellow", "color": "red", "correct_response": "r", "trial_id": "stroop-trial-1-incongruent-28", "trial_type": "html-keyboard-response", "trial_index": 202, "time_elapsed": 506150, "internal_node_id": "0.0-8.0-16.0"}}, {"uniqueid": "w72652129:a44872433", "current_trial": 203, "dateTime": 1664370766144, "trialdata": {"rt": 1148, "stimulus": "<p id='stroop-text' class='stroop-green'>BLUE</p>", "response": "g", "stimulus-type": "incongruent", "word": "blue", "color": "green", "correct_response": "g", "trial_id": "stroop-trial-1-incongruent-29", "trial_type": "html-keyboard-response", "trial_index": 203, "time_elapsed": 507815, "internal_node_id": "0.0-8.0-17.0"}}, {"uniqueid": "w72652129:a44872433", "current_trial": 204, "dateTime": 1664370767755, "trialdata": {"rt": 1095, "stimulus": "<p id='stroop-text' class='stroop-yellow'>FORK</p>", "response": "y", "stimulus-type": "unrelated", "word": "FORK", "color": "yellow", "correct_response": "y", "trial_id": "stroop-trial-1-unrelated-17", "trial_type": "html-keyboard-response", "trial_index": 204, "time_elapsed": 509427, "internal_node_id": "0.0-8.0-18.0"}}, {"uniqueid": "w72652129:a44872433", "current_trial": 205, "dateTime": 1664370769108, "trialdata": {"rt": 843, "stimulus": "<p id='stroop-text' class='stroop-yellow'>RED</p>", "response": "y", "stimulus-type": "incongruent", "word": "red", "color": "yellow", "correct_response": "y", "trial_id": "stroop-trial-1-incongruent-13", "trial_type": "html-keyboard-response", "trial_index": 205, "time_elapsed": 510779, "internal_node_id": "0.0-8.0-19.0"}}, {"uniqueid": "w72652129:a44872433", "current_trial": 206, "dateTime": 1664370770616, "trialdata": {"rt": 996, "stimulus": "<p id='stroop-text' class='stroop-blue'>BLUE</p>", "response": "b", "stimulus-type": "congruent", "word": "blue", "color": "blue", "correct_response": "b", "trial_id": "stroop-trial-1-congruent-5", "trial_type": "html-keyboard-response", "trial_index": 206, "time_elapsed": 512287, "internal_node_id": "0.0-8.0-20.0"}}, {"uniqueid": "w72652129:a44872433", "current_trial": 207, "dateTime": 1664370772229, "trialdata": {"rt": 1109, "stimulus": "<p id='stroop-text' class='stroop-red'>SHIP</p>", "response": "r", "stimulus-type": "unrelated", "word": "SHIP", "color": "red", "correct_response": "r", "trial_id": "stroop-trial-1-unrelated-22", "trial_type": "html-keyboard-response", "trial_index": 207, "time_elapsed": 513900, "internal_node_id": "0.0-8.0-21.0"}}, {"uniqueid": "w72652129:a44872433", "current_trial": 208, "dateTime": 1664370773797, "trialdata": {"rt": 1059, "stimulus": "<p id='stroop-text' class='stroop-yellow'>YELLOW</p>", "response": "y", "stimulus-type": "congruent", "word": "yellow", "color": "yellow", "correct_response": "y", "trial_id": "stroop-trial-1-congruent-6", "trial_type": "html-keyboard-response", "trial_index": 208, "time_elapsed": 515468, "internal_node_id": "0.0-8.0-22.0"}}, {"uniqueid": "w72652129:a44872433", "current_trial": 209, "dateTime": 1664370775157, "trialdata": {"rt": 855, "stimulus": "<p id='stroop-text' class='stroop-yellow'>YELLOW</p>", "response": "y", "stimulus-type": "congruent", "word": "yellow", "color": "yellow", "correct_response": "y", "trial_id": "stroop-trial-1-congruent-15", "trial_type": "html-keyboard-response", "trial_index": 209, "time_elapsed": 516829, "internal_node_id": "0.0-8.0-23.0"}}, {"uniqueid": "w72652129:a44872433", "current_trial": 210, "dateTime": 1664370776474, "trialdata": {"rt": 808, "stimulus": "<p id='stroop-text' class='stroop-yellow'>RED</p>", "response": "y", "stimulus-type": "incongruent", "word": "red", "color": "yellow", "correct_response": "y", "trial_id": "stroop-trial-1-incongruent-23", "trial_type": "html-keyboard-response", "trial_index": 210, "time_elapsed": 518145, "internal_node_id": "0.0-8.0-24.0"}}, {"uniqueid": "w72652129:a44872433", "current_trial": 211, "dateTime": 1664370778106, "trialdata": {"rt": 1125, "stimulus": "<p id='stroop-text' class='stroop-blue'>BLUE</p>", "response": "b", "stimulus-type": "congruent", "word": "blue", "color": "blue", "correct_response": "b", "trial_id": "stroop-trial-1-congruent-19", "trial_type": "html-keyboard-response", "trial_index": 211, "time_elapsed": 519778, "internal_node_id": "0.0-8.0-25.0"}}, {"uniqueid": "w72652129:a44872433", "current_trial": 212, "dateTime": 1664370780213, "trialdata": {"rt": 1596, "stimulus": "<p id='stroop-text' class='stroop-yellow'>RED</p>", "response": "y", "stimulus-type": "incongruent", "word": "red", "color": "yellow", "correct_response": "y", "trial_id": "stroop-trial-1-incongruent-30", "trial_type": "html-keyboard-response", "trial_index": 212, "time_elapsed": 521884, "internal_node_id": "0.0-8.0-26.0"}}, {"uniqueid": "w72652129:a44872433", "current_trial": 213, "dateTime": 1664370781397, "trialdata": {"rt": 675, "stimulus": "<p id='stroop-text' class='stroop-yellow'>YELLOW</p>", "response": "y", "stimulus-type": "congruent", "word": "yellow", "color": "yellow", "correct_response": "y", "trial_id": "stroop-trial-1-congruent-1", "trial_type": "html-keyboard-response", "trial_index": 213, "time_elapsed": 523069, "internal_node_id": "0.0-8.0-27.0"}}, {"uniqueid": "w72652129:a44872433", "current_trial": 214, "dateTime": 1664370782913, "trialdata": {"rt": 998, "stimulus": "<p id='stroop-text' class='stroop-blue'>FORK</p>", "response": "b", "stimulus-type": "unrelated", "word": "FORK", "color": "blue", "correct_response": "b", "trial_id": "stroop-trial-1-unrelated-29", "trial_type": "html-keyboard-response", "trial_index": 214, "time_elapsed": 524584, "internal_node_id": "0.0-8.0-28.0"}}, {"uniqueid": "w72652129:a44872433", "current_trial": 215, "dateTime": 1664370784604, "trialdata": {"rt": 1183, "stimulus": "<p id='stroop-text' class='stroop-yellow'>BOAT</p>", "response": "y", "stimulus-type": "unrelated", "word": "BOAT", "color": "yellow", "correct_response": "y", "trial_id": "stroop-trial-1-unrelated-3", "trial_type": "html-keyboard-response", "trial_index": 215, "time_elapsed": 526276, "internal_node_id": "0.0-8.0-29.0"}}, {"uniqueid": "w72652129:a44872433", "current_trial": 216, "dateTime": 1664370786299, "trialdata": {"rt": 1185, "stimulus": "<p id='stroop-text' class='stroop-red'>YELLOW</p>", "response": "r", "stimulus-type": "incongruent", "word": "yellow", "color": "red", "correct_response": "r", "trial_id": "stroop-trial-1-incongruent-2", "trial_type": "html-keyboard-response", "trial_index": 216, "time_elapsed": 527971, "internal_node_id": "0.0-8.0-30.0"}}, {"uniqueid": "w72652129:a44872433", "current_trial": 217, "dateTime": 1664370787642, "trialdata": {"rt": 835, "stimulus": "<p id='stroop-text' class='stroop-red'>BLUE</p>", "response": "r", "stimulus-type": "incongruent", "word": "blue", "color": "red", "correct_response": "r", "trial_id": "stroop-trial-1-incongruent-9", "trial_type": "html-keyboard-response", "trial_index": 217, "time_elapsed": 529313, "internal_node_id": "0.0-8.0-31.0"}}, {"uniqueid": "w72652129:a44872433", "current_trial": 218, "dateTime": 1664370789173, "trialdata": {"rt": 1027, "stimulus": "<p id='stroop-text' class='stroop-blue'>RED</p>", "response": "b", "stimulus-type": "incongruent", "word": "red", "color": "blue", "correct_response": "b", "trial_id": "stroop-trial-1-incongruent-27", "trial_type": "html-keyboard-response", "trial_index": 218, "time_elapsed": 530844, "internal_node_id": "0.0-8.0-32.0"}}, {"uniqueid": "w72652129:a44872433", "current_trial": 219, "dateTime": 1664370790457, "trialdata": {"rt": 777, "stimulus": "<p id='stroop-text' class='stroop-blue'>RED</p>", "response": "b", "stimulus-type": "incongruent", "word": "red", "color": "blue", "correct_response": "b", "trial_id": "stroop-trial-1-incongruent-12", "trial_type": "html-keyboard-response", "trial_index": 219, "time_elapsed": 532128, "internal_node_id": "0.0-8.0-33.0"}}, {"uniqueid": "w72652129:a44872433", "current_trial": 220, "dateTime": 1664370791530, "trialdata": {"rt": 562, "stimulus": "<p id='stroop-text' class='stroop-blue'>YELLOW</p>", "response": "b", "stimulus-type": "incongruent", "word": "yellow", "color": "blue", "correct_response": "b", "trial_id": "stroop-trial-1-incongruent-7", "trial_type": "html-keyboard-response", "trial_index": 220, "time_elapsed": 533201, "internal_node_id": "0.0-8.0-34.0"}}, {"uniqueid": "w72652129:a44872433", "current_trial": 221, "dateTime": 1664370792582, "trialdata": {"rt": 541, "stimulus": "<p id='stroop-text' class='stroop-blue'>BLUE</p>", "response": "b", "stimulus-type": "congruent", "word": "blue", "color": "blue", "correct_response": "b", "trial_id": "stroop-trial-1-congruent-27", "trial_type": "html-keyboard-response", "trial_index": 221, "time_elapsed": 534253, "internal_node_id": "0.0-8.0-35.0"}}, {"uniqueid": "w72652129:a44872433", "current_trial": 222, "dateTime": 1664370794065, "trialdata": {"rt": 974, "stimulus": "<p id='stroop-text' class='stroop-yellow'>BLUE</p>", "response": "y", "stimulus-type": "incongruent", "word": "blue", "color": "yellow", "correct_response": "y", "trial_id": "s