{"condition": 1, "counterbalance": 0, "assignmentId": "a36980686", "workerId": "w21561113", "hitId": "h30448794", "currenttrial": 137, "bonus": 0, "data": [{"uniqueid": "w21561113:a36980686", "current_trial": 0, "dateTime": 1664555072588, "trialdata": {"success": true, "trial_type": "fullscreen", "trial_index": 0, "time_elapsed": 5143, "internal_node_id": "0.0-0.0"}}, {"uniqueid": "w21561113:a36980686", "current_trial": 1, "dateTime": 1664555090592, "trialdata": {"view_history": [{"page_index": 0, "viewing_time": 18000}], "rt": 18001, "trial_id": "exp_instructions_no_distractor", "trial_type": "instructions", "trial_index": 1, "time_elapsed": 23147, "internal_node_id": "0.0-1.0"}}, {"uniqueid": "w21561113:a36980686", "current_trial": 2, "dateTime": 1664555435678, "trialdata": {"success": true, "trial_type": "fullscreen", "trial_index": 2, "time_elapsed": 368233, "internal_node_id": "0.0-2.0-0.0"}}, {"uniqueid": "w21561113:a36980686", "current_trial": 3, "dateTime": 1664555544691, "trialdata": {"view_history": [{"page_index": 0, "viewing_time": 44977}, {"page_index": 1, "viewing_time": 24335}, {"page_index": 2, "viewing_time": 9713}, {"page_index": 3, "viewing_time": 8706}, {"page_index": 4, "viewing_time": 21280}], "rt": 109012, "trial_id": "mouselab_instructions_1", "trial_type": "instructions", "trial_index": 3, "time_elapsed": 477246, "internal_node_id": "0.0-2.0-1.0"}}, {"uniqueid": "w21561113:a36980686", "current_trial": 4, "dateTime": 1664555566684, "trialdata": {"revealed_states": [], "num_clicks_accrued": [0, 0, 0, 0, 0, 0, 0, 0, 0, 0, 0, 0, 0], "stateRewards": ["", -10, -10, 10, -10, -10, -10, 10, -10, 10, 10, -10, 10], "withholdReward": false, "trial_id": "practice_1", "block": "test", "trialIndex": 0, "score": 31.25, "costs": -0.75, "simulationMode": [null, null, null], "rewards": [10, 10, 10], "path": ["0", "0", "9", "10", "12"], "rt": [9294, 2833, 2292], "actions": ["left", "left", "down"], "actionTimes": [10187, 13515, 16309], "queries": {"click": {"state": {"target": ["5", "9", "1"], "time": [4634, 6818, 8878]}, "edge": {"target": [], "time": []}}, "mouseover": {"state": {"target": ["5", "5", "0", "9", "1", "7"], "time": [1999, 3383, 6116, 6449, 8733, 9266]}, "edge": {"target": [], "time": []}}, "mouseout": {"state": {"target": ["0", "5", "5", "0", "9", "1"], "time": [1932, 3099, 6065, 6199, 7999, 9165]}, "edge": {"target": [], "time": []}}}, "displayed_time": "16.82", "trialTime": 19155, "trial_type": "mouselab-mdp", "trial_index": 4, "time_elapsed": 499239, "internal_node_id": "0.0-2.0-2.0-0.0"}}, {"uniqueid": "w21561113:a36980686", "current_trial": 5, "dateTime": 1664555576939, "trialdata": {"revealed_states": [], "num_clicks_accrued": [0, 0, 0, 0, 0, 0, 0, 0, 0, 0, 0, 0, 0], "stateRewards": ["", -10, 10, -10, 10, 10, -10, 10, -10, 10, -10, 10, -10], "withholdReward": false, "trial_id": "practice_2", "block": "test", "trialIndex": 1, "score": 11.5, "costs": -0.5, "simulationMode": [null, null, null], "rewards": [10, -10, 10], "path": ["0", "0", "9", "10", "11"], "rt": [3375, 861, 584], "actions": ["left", "left", "up"], "actionTimes": [5549, 6904, 7976], "queries": {"click": {"state": {"target": ["1", "9"], "time": [3337, 4199]}, "edge": {"target": [], "time": []}}, "mouseover": {"state": {"target": ["1", "9", "0", "5", "6"], "time": [2892, 3892, 4675, 4775, 4809]}, "edge": {"target": [], "time": []}}, "mouseout": {"state": {"target": ["7", "0", "1", "9", "0", "5", "6"], "time": [1725, 2742, 3859, 4642, 4692, 4808, 4843]}, "edge": {"target": [], "time": []}}}, "displayed_time": "8.47", "trialTime": 10220, "trial_type": "mouselab-mdp", "trial_index": 5, "time_elapsed": 509494, "internal_node_id": "0.0-2.0-2.0-1.0"}}, {"uniqueid": "w21561113:a36980686", "current_trial": 6, "dateTime": 1664555626842, "trialdata": {"view_history": [{"page_index": 0, "viewing_time": 28486}, {"page_index": 1, "viewing_time": 15854}, {"page_index": 2, "viewing_time": 5562}], "rt": 49902, "trial_id": "mouselab_instructions_2_scarce", "trial_type": "instructions", "trial_index": 6, "time_elapsed": 559397, "internal_node_id": "0.0-2.0-3.0"}}, {"uniqueid": "w21561113:a36980686", "current_trial": 7, "dateTime": 1664555657438, "trialdata": {"rt": 30593, "response": {"Q0": "$-48 to $48", "Q1": "The cost is always $0.25.", "Q2": "The better I perform the higher my bonus will be.", "Q3": "No, the amount of cash at each node of the web may be different each time.", "Q4": "The values of the nodes walked through from start to finish.", "Q5": "No, the spider might forget to count the money on some rounds."}, "question_order": [0, 1, 2, 3, 4, 5], "correct": {"Q0": "$-48 to $48", "Q1": "The cost is always $0.25.", "Q2": "The better I perform the higher my bonus will be.", "Q3": "No, the amount of cash at each node of the web may be different each time.", "Q4": "The values of the nodes walked through from start to finish.", "Q5": "No, the spider might forget to count the money on some rounds."}, "trial_id": "mouselab_quiz_scarce", "trial_type": "survey-multi-choice", "trial_index": 7, "time_elapsed": 589992, "internal_node_id": "0.0-2.0-4.0"}}, {"uniqueid": "w21561113:a36980686", "current_trial": 8, "dateTime": 1664555677561, "trialdata": {"rt": 20117, "stimulus": "\n<h1> Get ready to start the game! </h1>\n\nThank you for reading the instructions. Get ready start with the first of 4 block(s) of this game.\n<br><br>\nIn this first block, you will complete 30 rounds of this game before moving on.\n<br><br>\nRemember, the more money the spider gets, the bigger your bonus will be!\n<br><br>\n<div style='text-align: center;'>Press <code>space</code> to begin.</div>\n\n<br><br>\n(If, at any point, the <code>space</code> key does not take you to the next page, click once on the text and try again.)", "response": " ", "trial_id": "mdp_ready_1", "trial_type": "html-keyboard-response", "trial_index": 8, "time_elapsed": 610116, "internal_node_id": "0.0-4.0-0.0"}}, {"uniqueid": "w21561113:a36980686", "current_trial": 9, "dateTime": 1664555691539, "trialdata": {"revealed_states": [], "num_clicks_accrued": [0, 0, 0, 0, 0, 0, 0, 0, 0, 0, 0, 0, 0], "stateRewards": ["", -2, 4, 48, -24, 2, 8, 24, 48, 2, 4, -24, -48], "withholdReward": true, "trial_id": "mdp_892412058587", "block": "test1", "trialIndex": 2, "score": 38.25, "costs": -0.75, "simulationMode": [null, null, null], "rewards": [2, 8, 24], "path": ["0", "0", "5", "6", "7"], "rt": [4948, 1463, 1862], "actions": ["right", "right", "up"], "actionTimes": [6952, 8912, 11262], "queries": {"click": {"state": {"target": ["1", "5", "9"], "time": [2962, 4311, 5700]}, "edge": {"target": [], "time": []}}, "mouseover": {"state": {"target": ["1", "5", "0", "9"], "time": [2732, 3932, 5365, 5515]}, "edge": {"target": [], "time": []}}, "mouseout": {"state": {"target": ["0", "1", "5", "0", "9"], "time": [2650, 3715, 5348, 5448, 5931]}, "edge": {"target": [], "time": []}}}, "displayed_time": "11.75", "trialTime": 13944, "trial_type": "mouselab-mdp", "trial_index": 9, "time_elapsed": 624093, "internal_node_id": "0.0-4.0-1.0-0.0"}}, {"uniqueid": "w21561113:a36980686", "current_trial": 10, "dateTime": 1664555703565, "trialdata": {"revealed_states": [], "num_clicks_accrued": [0, 0, 0, 0, 0, 0, 0, 0, 0, 0, 0, 0, 0], "stateRewards": ["", -2, 8, -48, -24, -2, 8, 48, -48, -4, 8, 24, 48], "withholdReward": false, "trial_id": "mdp_160707003673", "block": "test1", "trialIndex": 3, "score": -13.75, "costs": -0.75, "simulationMode": [null, null, null], "rewards": [-2, 8, -24], "path": ["0", "0", "1", "2", "4"], "rt": [4110, 1098, 634], "actions": ["up", "up", "left"], "actionTimes": [5835, 7421, 8556], "queries": {"click": {"state": {"target": ["1", "9", "5"], "time": [2400, 3663, 4559]}, "edge": {"target": [], "time": []}}, "mouseover": {"state": {"target": ["1", "9", "0", "5"], "time": [2155, 3522, 4038, 4355]}, "edge": {"target": [], "time": []}}, "mouseout": {"state": {"target": ["0", "0", "1", "9", "0", "5", "8"], "time": [1288, 2121, 2955, 3889, 4155, 4905, 11687]}, "edge": {"target": [], "time": []}}}, "displayed_time": "10.73", "trialTime": 11994, "trial_type": "mouselab-mdp", "trial_index": 10, "time_elapsed": 636120, "internal_node_id": "0.0-4.0-1.0-1.0"}}, {"uniqueid": "w21561113:a36980686", "current_trial": 11, "dateTime": 1664555718256, "trialdata": {"revealed_states": [], "num_clicks_accrued": [0, 0, 0, 0, 0, 0, 0, 0, 0, 0, 0, 0, 0], "stateRewards": ["", 2, -8, 24, 24, 2, 4, -48, -48, 4, 4, -24, 48], "withholdReward": false, "trial_id": "mdp_985707010949", "block": "test1", "trialIndex": 4, "score": 60.25, "costs": -0.75, "simulationMode": [null, null, null], "rewards": [4, 4, 48], "path": ["0", "0", "9", "10", "12"], "rt": [3154, 1617, 647], "actions": ["left", "left", "down"], "actionTimes": [5935, 8047, 9209], "queries": {"click": {"state": {"target": ["5", "1", "9"], "time": [3530, 4347, 4956]}, "edge": {"target": [], "time": []}}, "mouseover": {"state": {"target": ["5", "5", "1", "9", "0", "6"], "time": [3113, 3346, 4229, 4846, 5196, 5279]}, "edge": {"target": [], "time": []}}, "mouseout": {"state": {"target": ["0", "5", "5", "1", "9", "0", "5", "6", "8", "8"], "time": [3079, 3130, 4046, 4729, 5163, 5230, 5263, 5296, 11080, 11595]}, "edge": {"target": [], "time": []}}}, "displayed_time": "9.78", "trialTime": 14659, "trial_type": "mouselab-mdp", "trial_index": 11, "time_elapsed": 650811, "internal_node_id": "0.0-4.0-1.0-2.0"}}, {"uniqueid": "w21561113:a36980686", "current_trial": 12, "dateTime": 1664555730626, "trialdata": {"revealed_states": [], "num_clicks_accrued": [0, 0, 0, 0, 0, 0, 0, 0, 0, 0, 0, 0, 0], "stateRewards": ["", -4, 8, -24, -48, 2, 8, -48, -24, -2, -4, 48, -48], "withholdReward": false, "trial_id": "mdp_599927291428", "block": "test1", "trialIndex": 5, "score": -33.75, "costs": -0.75, "simulationMode": [null, null, null], "rewards": [2, 8, -48], "path": ["0", "0", "5", "6", "7"], "rt": [4234, 1027, 764], "actions": ["right", "right", "up"], "actionTimes": [6305, 7833, 9086], "queries": {"click": {"state": {"target": ["1", "5", "9"], "time": [2851, 4121, 5165]}, "edge": {"target": [], "time": []}}, "mouseover": {"state": {"target": ["1", "1", "7", "7", "5", "0", "9", "9", "0"], "time": [2439, 2706, 3055, 3388, 3777, 4788, 4821, 5040, 5538]}, "edge": {"target": [], "time": []}}, "mouseout": {"state": {"target": ["8", "0", "1", "1", "7", "7", "5", "0", "9", "9", "0", "5", "5", "6", "6"], "time": [1422, 2388, 2471, 3022, 3072, 3421, 4755, 4805, 4839, 5505, 5572, 5688, 11238, 11271, 11337]}, "edge": {"target": [], "time": []}}}, "displayed_time": "10.07", "trialTime": 12339, "trial_type": "mouselab-mdp", "trial_index": 12, "time_elapsed": 663181, "internal_node_id": "0.0-4.0-1.0-3.0"}}, {"uniqueid": "w21561113:a36980686", "current_trial": 13, "dateTime": 1664555743260, "trialdata": {"revealed_states": [], "num_clicks_accrued": [0, 0, 0, 0, 0, 0, 0, 0, 0, 0, 0, 0, 0], "stateRewards": ["", 2, -8, -48, 24, 4, 8, 48, -48, 2, -4, 24, 24], "withholdReward": true, "trial_id": "mdp_130475327289", "block": "test1", "trialIndex": 6, "score": -49, "costs": 0, "simulationMode": [null, null, null], "rewards": [2, -8, -48], "path": ["0", "0", "1", "2", "3"], "rt": [1643, 722, 559], "actions": ["up", "up", "right"], "actionTimes": [2923, 4139, 5194], "queries": {"click": {"state": {"target": [], "time": []}, "edge": {"target": [], "time": []}}, "mouseover": {"state": {"target": [], "time": []}, "edge": {"target": [], "time": []}}, "mouseout": {"state": {"target": [], "time": []}, "edge": {"target": [], "time": []}}}, "displayed_time": "11.28", "trialTime": 12602, "trial_type": "mouselab-mdp", "trial_index": 13, "time_elapsed": 675815, "internal_node_id": "0.0-4.0-1.0-4.0"}}, {"uniqueid": "w21561113:a36980686", "current_trial": 14, "dateTime": 1664555756749, "trialdata": {"revealed_states": [], "num_clicks_accrued": [0, 0, 0, 0, 0, 0, 0, 0, 0, 0, 0, 0, 0], "stateRewards": ["", 4, 8, -24, 48, 4, -8, -48, 48, -4, 8, -24, -48], "withholdReward": true, "trial_id": "mdp_376126356841", "block": "test1", "trialIndex": 7, "score": -7.75, "costs": -0.75, "simulationMode": [null, null, null], "rewards": [4, 8, -24], "path": ["0", "0", "1", "2", "3"], "rt": [3693, 520, 469], "actions": ["up", "up", "right"], "actionTimes": [5776, 6786, 7750], "queries": {"click": {"state": {"target": ["9", "1", "5"], "time": [2915, 3564, 4365]}, "edge": {"target": [], "time": []}}, "mouseover": {"state": {"target": ["9", "1", "5"], "time": [2798, 3448, 4182]}, "edge": {"target": [], "time": []}}, "mouseout": {"state": {"target": ["0", "9", "1", "5"], "time": [2681, 3314, 3882, 4682]}, "edge": {"target": [], "time": []}}}, "displayed_time": "12.08", "trialTime": 13456, "trial_type": "mouselab-mdp", "trial_index": 14, "time_elapsed": 689304, "internal_node_id": "0.0-4.0-1.0-5.0"}}, {"uniqueid": "w21561113:a36980686", "current_trial": 15, "dateTime": 1664555766851, "trialdata": {"revealed_states": [], "num_clicks_accrued": [0, 0, 0, 0, 0, 0, 0, 0, 0, 0, 0, 0, 0], "stateRewards": ["", -2, -8, -48, 24, 2, -4, -48, 48, 2, 4, 24, -24], "withholdReward": true, "trial_id": "mdp_849341543762", "block": "test1", "trialIndex": 8, "score": 35, "costs": 0, "simulationMode": [null, null, null], "rewards": [2, 4, 24], "path": ["0", "0", "9", "10", "11"], "rt": [1008, 726, 662], "actions": ["left", "left", "up"], "actionTimes": [2846, 4068, 5220], "queries": {"click": {"state": {"target": [], "time": []}, "edge": {"target": [], "time": []}}, "mouseover": {"state": {"target": [], "time": []}, "edge": {"target": [], "time": []}}, "mouseout": {"state": {"target": [], "time": []}, "edge": {"target": [], "time": []}}}, "displayed_time": "8.84", "trialTime": 10068, "trial_type": "mouselab-mdp", "trial_index": 15, "time_elapsed": 699406, "internal_node_id": "0.0-4.0-1.0-6.0"}}, {"uniqueid": "w21561113:a36980686", "current_trial": 16, "dateTime": 1664555779891, "trialdata": {"revealed_states": [], "num_clicks_accrued": [0, 0, 0, 0, 0, 0, 0, 0, 0, 0, 0, 0, 0], "stateRewards": ["", -4, -4, 24, 48, 4, -4, -24, 24, -4, -4, 24, 24], "withholdReward": true, "trial_id": "mdp_357725458160", "block": "test1", "trialIndex": 9, "score": 28.25, "costs": -0.75, "simulationMode": [null, null, null], "rewards": [4, -4, 24], "path": ["0", "0", "5", "6", "8"], "rt": [3687, 623, 569], "actions": ["right", "right", "down"], "actionTimes": [5222, 6345, 7407], "queries": {"click": {"state": {"target": ["5", "1", "9"], "time": [2632, 3639, 4167]}, "edge": {"target": [], "time": []}}, "mouseover": {"state": {"target": ["5", "1", "9"], "time": [2571, 3504, 4021]}, "edge": {"target": [], "time": []}}, "mouseout": {"state": {"target": ["0", "5", "1", "9"], "time": [2405, 3355, 3889, 4455]}, "edge": {"target": [], "time": []}}}, "displayed_time": "11.54", "trialTime": 13005, "trial_type": "mouselab-mdp", "trial_index": 16, "time_elapsed": 712446, "internal_node_id": "0.0-4.0-1.0-7.0"}}, {"uniqueid": "w21561113:a36980686", "current_trial": 17, "dateTime": 1664555791434, "trialdata": {"revealed_states": [], "num_clicks_accrued": [0, 0, 0, 0, 0, 0, 0, 0, 0, 0, 0, 0, 0], "stateRewards": ["", -4, 8, -24, -24, 2, 4, 48, 48, -2, 4, 24, -48], "withholdReward": false, "trial_id": "mdp_397308196941", "block": "test1", "trialIndex": 10, "score": 58.25, "costs": -0.75, "simulationMode": [null, null, null], "rewards": [2, 4, 48], "path": ["0", "0", "5", "6", "7"], "rt": [3320, 745, 1086], "actions": ["right", "right", "up"], "actionTimes": [4607, 5843, 7417], "queries": {"click": {"state": {"target": ["5", "1", "9"], "time": [2305, 2952, 3441]}, "edge": {"target": [], "time": []}}, "mouseover": {"state": {"target": ["5", "1", "9", "6"], "time": [1930, 2781, 3330, 3747]}, "edge": {"target": [], "time": []}}, "mouseout": {"state": {"target": ["0", "5", "1", "9", "5", "6", "8", "8"], "time": [1780, 2647, 3198, 3680, 3747, 3763, 9963, 11047]}, "edge": {"target": [], "time": []}}}, "displayed_time": "9.29", "trialTime": 11507, "trial_type": "mouselab-mdp", "trial_index": 17, "time_elapsed": 723989, "internal_node_id": "0.0-4.0-1.0-8.0"}}, {"uniqueid": "w21561113:a36980686", "current_trial": 18, "dateTime": 1664555803195, "trialdata": {"revealed_states": [], "num_clicks_accrued": [0, 0, 0, 0, 0, 0, 0, 0, 0, 0, 0, 0, 0], "stateRewards": ["", -2, -8, -24, -48, 4, -8, 48, 24, 2, 4, -48, -48], "withholdReward": true, "trial_id": "mdp_898082967464", "block": "test1", "trialIndex": 11, "score": -29, "costs": 0, "simulationMode": [null, null, null], "rewards": [-2, -8, -24], "path": ["0", "0", "1", "2", "3"], "rt": [1147, 450, 2813], "actions": ["up", "up", "right"], "actionTimes": [2618, 3555, 6867], "queries": {"click": {"state": {"target": [], "time": []}, "edge": {"target": [], "time": []}}, "mouseover": {"state": {"target": [], "time": []}, "edge": {"target": [], "time": []}}, "mouseout": {"state": {"target": ["0", "9", "0", "6"], "time": [887, 1136, 8387, 9070]}, "edge": {"target": [], "time": []}}}, "displayed_time": "8.47", "trialTime": 11725, "trial_type": "mouselab-mdp", "trial_index": 18, "time_elapsed": 735750, "internal_node_id": "0.0-4.0-1.0-9.0"}}, {"uniqueid": "w21561113:a36980686", "current_trial": 19, "dateTime": 1664555814755, "trialdata": {"revealed_states": [], "num_clicks_accrued": [0, 0, 0, 0, 0, 0, 0, 0, 0, 0, 0, 0, 0], "stateRewards": ["", 4, 4, 24, -24, -4, -8, 48, -24, 4, 4, 48, 24], "withholdReward": true, "trial_id": "mdp_822446942217", "block": "test1", "trialIndex": 12, "score": 36.25, "costs": -0.75, "simulationMode": [null, null, null], "rewards": [4, 4, 24], "path": ["0", "0", "1", "2", "3"], "rt": [6165, 422, 1237], "actions": ["up", "up", "right"], "actionTimes": [7332, 8254, 9987], "queries": {"click": {"state": {"target": ["1", "9", "5"], "time": [3836, 5330, 5839]}, "edge": {"target": [], "time": []}}, "mouseover": {"state": {"target": ["1", "0", "9", "0", "5"], "time": [1965, 4898, 5182, 5499, 5598]}, "edge": {"target": [], "time": []}}, "mouseout": {"state": {"target": ["0", "1", "0", "9", "0", "5"], "time": [1882, 4164, 4982, 5448, 5532, 6216]}, "edge": {"target": [], "time": []}}}, "displayed_time": "10.48", "trialTime": 11529, "trial_type": "mouselab-mdp", "trial_index": 19, "time_elapsed": 747310, "internal_node_id": "0.0-4.0-1.0-10.0"}}, {"uniqueid": "w21561113:a36980686", "current_trial": 20, "dateTime": 1664555824857, "trialdata": {"revealed_states": [], "num_clicks_accrued": [0, 0, 0, 0, 0, 0, 0, 0, 0, 0, 0, 0, 0], "stateRewards": ["", 4, 4, -48, -24, -2, -4, 48, 24, -4, 4, 24, -48], "withholdReward": true, "trial_id": "mdp_617383046444", "block": "test1", "trialIndex": 13, "score": -11.75, "costs": -0.75, "simulationMode": [null, null, null], "rewards": [4, 4, -24], "path": ["0", "0", "1", "2", "4"], "rt": [4124, 423, 153], "actions": ["up", "up", "left"], "actionTimes": [5660, 6573, 7236], "queries": {"click": {"state": {"target": ["9", "1", "5"], "time": [3026, 4102, 4552]}, "edge": {"target": [], "time": []}}, "mouseover": {"state": {"target": ["9", "1", "5"], "time": [2300, 3950, 4483]}, "edge": {"target": [], "time": []}}, "mouseout": {"state": {"target": ["5", "0", "0", "9", "1", "5"], "time": [800, 916, 2150, 3767, 4282, 4967]}, "edge": {"target": [], "time": []}}}, "displayed_time": "9.54", "trialTime": 10066, "trial_type": "mouselab-mdp", "trial_index": 20, "time_elapsed": 757411, "internal_node_id": "0.0-4.0-1.0-11.0"}}, {"uniqueid": "w21561113:a36980686", "current_trial": 21, "dateTime": 1664555836123, "trialdata": {"revealed_states": [], "num_clicks_accrued": [0, 0, 0, 0, 0, 0, 0, 0, 0, 0, 0, 0, 0], "stateRewards": ["", -2, 8, 48, 24, 2, -4, 48, -48, 2, 8, 24, -24], "withholdReward": false, "trial_id": "mdp_176207245985", "block": "test1", "trialIndex": 14, "score": -45.75, "costs": -0.75, "simulationMode": [null, null, null], "rewards": [2, -4, -48], "path": ["0", "0", "5", "6", "8"], "rt": [3564, 403, 362], "actions": ["right", "right", "down"], "actionTimes": [5814, 6702, 7561], "queries": {"click": {"state": {"target": ["1", "9", "5"], "time": [3414, 3872, 4430]}, "edge": {"target": [], "time": []}}, "mouseover": {"state": {"target": ["1", "9", "0", "5"], "time": [3183, 3717, 4067, 4267]}, "edge": {"target": [], "time": []}}, "mouseout": {"state": {"target": ["1", "0", "1", "9", "0"], "time": [1433, 3050, 3650, 4033, 4199]}, "edge": {"target": [], "time": []}}}, "displayed_time": "10.25", "trialTime": 11233, "trial_type": "mouselab-mdp", "trial_index": 21, "time_elapsed": 768678, "internal_node_id": "0.0-4.0-1.0-12.0"}}, {"uniqueid": "w21561113:a36980686", "current_trial": 22, "dateTime": 1664555848406, "trialdata": {"revealed_states": [], "num_clicks_accrued": [0, 0, 0, 0, 0, 0, 0, 0, 0, 0, 0, 0, 0], "stateRewards": ["", -4, -4, -48, 48, -4, -8, -24, -48, -2, 8, 48, 24], "withholdReward": true, "trial_id": "mdp_365393526663", "block": "test1", "trialIndex": 15, "score": 35, "costs": 0, "simulationMode": [null, null, null], "rewards": [-2, 8, 24], "path": ["0", "0", "9", "10", "12"], "rt": [1676, 489, 302], "actions": ["left", "left", "down"], "actionTimes": [3669, 4655, 5452], "queries": {"click": {"state": {"target": [], "time": []}, "edge": {"target": [], "time": []}}, "mouseover": {"state": {"target": [], "time": []}, "edge": {"target": [], "time": []}}, "mouseout": {"state": {"target": ["5", "0"], "time": [1699, 2250]}, "edge": {"target": [], "time": []}}}, "displayed_time": "10.99", "trialTime": 12248, "trial_type": "mouselab-mdp", "trial_index": 22, "time_elapsed": 780960, "internal_node_id": "0.0-4.0-1.0-13.0"}}, {"uniqueid": "w21561113:a36980686", "current_trial": 23, "dateTime": 1664555858620, "trialdata": {"revealed_states": [], "num_clicks_accrued": [0, 0, 0, 0, 0, 0, 0, 0, 0, 0, 0, 0, 0], "stateRewards": ["", 4, -4, 48, -48, 4, -4, 24, -24, 4, 8, -24, -48], "withholdReward": true, "trial_id": "mdp_433630527224", "block": "test1", "trialIndex": 16, "score": -8, "costs": -1, "simulationMode": [null, null, null], "rewards": [4, 8, -24], "path": ["0", "0", "9", "10", "11"], "rt": [5256, 308, 270], "actions": ["left", "left", "up"], "actionTimes": [6670, 7475, 8236], "queries": {"click": {"state": {"target": ["5", "1", "9", "10"], "time": [2889, 3835, 4491, 5553]}, "edge": {"target": [], "time": []}}, "mouseover": {"state": {"target": ["5", "5", "1", "9", "11", "10"], "time": [1699, 2482, 3566, 4283, 5000, 5283]}, "edge": {"target": [], "time": []}}, "mouseout": {"state": {"target": ["7", "5", "0", "5", "5", "1", "9", "11", "10", "9", "1"], "time": [866, 998, 1667, 2066, 3233, 4166, 4783, 5199, 5666, 5699, 9849]}, "edge": {"target": [], "time": []}}}, "displayed_time": "9.41", "trialTime": 10179, "trial_type": "mouselab-mdp", "trial_index": 23, "time_elapsed": 791175, "internal_node_id": "0.0-4.0-1.0-14.0"}}, {"uniqueid": "w21561113:a36980686", "current_trial": 24, "dateTime": 1664555868220, "trialdata": {"revealed_states": [], "num_clicks_accrued": [0, 0, 0, 0, 0, 0, 0, 0, 0, 0, 0, 0, 0], "stateRewards": ["", 2, 4, 48, -48, 2, 8, -24, 48, 4, 8, 48, -48], "withholdReward": true, "trial_id": "mdp_110142964375", "block": "test1", "trialIndex": 17, "score": 64.25, "costs": -0.75, "simulationMode": [null, null, null], "rewards": [4, 8, 48], "path": ["0", "0", "9", "10", "11"], "rt": [5274, 353, 226], "actions": ["left", "left", "up"], "actionTimes": [6294, 7136, 7858], "queries": {"click": {"state": {"target": ["5", "1", "9"], "time": [3832, 4723, 5221]}, "edge": {"target": [], "time": []}}, "mouseover": {"state": {"target": ["5", "1", "9"], "time": [3665, 4566, 4999]}, "edge": {"target": [], "time": []}}, "mouseout": {"state": {"target": ["5", "0", "5", "1", "9"], "time": [331, 3615, 4348, 4882, 5632]}, "edge": {"target": [], "time": []}}}, "displayed_time": "9.02", "trialTime": 9562, "trial_type": "mouselab-mdp", "trial_index": 24, "time_elapsed": 800774, "internal_node_id": "0.0-4.0-1.0-15.0"}}, {"uniqueid": "w21561113:a36980686", "current_trial": 25, "dateTime": 1664555877456, "trialdata": {"revealed_states": [], "num_clicks_accrued": [0, 0, 0, 0, 0, 0, 0, 0, 0, 0, 0, 0, 0], "stateRewards": ["", -2, 4, -24, 48, 4, -8, 48, -48, 2, -8, 48, 24], "withholdReward": true, "trial_id": "mdp_501111216502", "block": "test1", "trialIndex": 18, "score": 48.25, "costs": -0.75, "simulationMode": [null, null, null], "rewards": [4, -8, 48], "path": ["0", "0", "5", "6", "7"], "rt": [4239, 697, 249], "actions": ["right", "right", "up"], "actionTimes": [5748, 6932, 7667], "queries": {"click": {"state": {"target": ["5", "6", "7"], "time": [2957, 3560, 4589]}, "edge": {"target": [], "time": []}}, "mouseover": {"state": {"target": ["5", "6", "7", "7"], "time": [2384, 3368, 3934, 4309]}, "edge": {"target": [], "time": []}}, "mouseout": {"state": {"target": ["0", "5", "6", "7"], "time": [2334, 3301, 3901, 3968]}, "edge": {"target": [], "time": []}}}, "displayed_time": "8.51", "trialTime": 9200, "trial_type": "mouselab-mdp", "trial_index": 25, "time_elapsed": 810011, "internal_node_id": "0.0-4.0-1.0-16.0"}}, {"uniqueid": "w21561113:a36980686", "current_trial": 26, "dateTime": 1664555888776, "trialdata": {"revealed_states": [], "num_clicks_accrued": [0, 0, 0, 0, 0, 0, 0, 0, 0, 0, 0, 0, 0], "stateRewards": ["", 4, -8, 48, 24, 4, -4, 48, 48, -4, 8, -48, 24], "withholdReward": true, "trial_id": "mdp_303828806348", "block": "test1", "trialIndex": 19, "score": 48.25, "costs": -0.75, "simulationMode": [null, null, null], "rewards": [4, -8, 48], "path": ["0", "0", "1", "2", "3"], "rt": [5090, 314, 218], "actions": ["up", "up", "right"], "actionTimes": [6759, 7565, 8268], "queries": {"click": {"state": {"target": ["5", "1", "3"], "time": [3013, 4549, 5500]}, "edge": {"target": [], "time": []}}, "mouseover": {"state": {"target": ["5", "0", "1", "2", "3"], "time": [2867, 3868, 4368, 4984, 5350]}, "edge": {"target": [], "time": []}}, "mouseout": {"state": {"target": ["7", "5", "0", "5", "5", "0", "1", "2", "3"], "time": [1084, 1201, 2785, 3617, 3835, 3934, 4917, 5284, 5818]}, "edge": {"target": [], "time": []}}}, "displayed_time": "10.67", "trialTime": 11288, "trial_type": "mouselab-mdp", "trial_index": 26, "time_elapsed": 821331, "internal_node_id": "0.0-4.0-1.0-17.0"}}, {"uniqueid": "w21561113:a36980686", "current_trial": 27, "dateTime": 1664555899837, "trialdata": {"revealed_states": [], "num_clicks_accrued": [0, 0, 0, 0, 0, 0, 0, 0, 0, 0, 0, 0, 0], "stateRewards": ["", 2, -8, 24, 24, 4, -4, -24, -48, 4, 8, 24, 24], "withholdReward": false, "trial_id": "mdp_249803813713", "block": "test1", "trialIndex": 20, "score": -19.75, "costs": -0.75, "simulationMode": [null, null, null], "rewards": [4, -4, -24], "path": ["0", "0", "5", "6", "7"], "rt": [4010, 251, 329], "actions": ["right", "right", "up"], "actionTimes": [5434, 6182, 7008], "queries": {"click": {"state": {"target": ["1", "5", "8"], "time": [2071, 2925, 3810]}, "edge": {"target": [], "time": []}}, "mouseover": {"state": {"target": ["1", "5", "8", "6"], "time": [1880, 2746, 3397, 4463]}, "edge": {"target": [], "time": []}}, "mouseout": {"state": {"target": ["7", "9", "0", "1", "5", "8"], "time": [730, 947, 1747, 2646, 3330, 3980]}, "edge": {"target": [], "time": []}}}, "displayed_time": "10.42", "trialTime": 11027, "trial_type": "mouselab-mdp", "trial_index": 27, "time_elapsed": 832392, "internal_node_id": "0.0-4.0-1.0-18.0"}}, {"uniqueid": "w21561113:a36980686", "current_trial": 28, "dateTime": 1664555910217, "trialdata": {"revealed_states": [], "num_clicks_accrued": [0, 0, 0, 0, 0, 0, 0, 0, 0, 0, 0, 0, 0], "stateRewards": ["", -4, 8, 24, 24, 2, 4, -48, 24, -2, -4, -24, -24], "withholdReward": true, "trial_id": "mdp_752328329546", "block": "test1", "trialIndex": 21, "score": -37.75, "costs": -0.75, "simulationMode": [null, null, null], "rewards": [2, 4, -48], "path": ["0", "0", "5", "6", "7"], "rt": [4555, 306, 174], "actions": ["right", "right", "up"], "actionTimes": [6125, 6923, 7590], "queries": {"click": {"state": {"target": ["9", "11", "3"], "time": [2548, 3381, 4653]}, "edge": {"target": [], "time": []}}, "mouseover": {"state": {"target": ["9", "10", "11", "1", "3"], "time": [2283, 2999, 3183, 4134, 4300]}, "edge": {"target": [], "time": []}}, "mouseout": {"state": {"target": ["6", "5", "9", "10", "11", "1", "3"], "time": [917, 1134, 2916, 3100, 4016, 4200, 4867]}, "edge": {"target": [], "time": []}}}, "displayed_time": "9.57", "trialTime": 10345, "trial_type": "mouselab-mdp", "trial_index": 28, "time_elapsed": 842772, "internal_node_id": "0.0-4.0-1.0-19.0"}}, {"uniqueid": "w21561113:a36980686", "current_trial": 29, "dateTime": 1664555923052, "trialdata": {"revealed_states": [], "num_clicks_accrued": [0, 0, 0, 0, 0, 0, 0, 0, 0, 0, 0, 0, 0], "stateRewards": ["", -4, 8, 24, -24, 4, -8, -24, -24, -2, 8, -48, 24], "withholdReward": true, "trial_id": "mdp_240302100183", "block": "test1", "trialIndex": 22, "score": -15, "costs": 0, "simulationMode": [null, null, null], "rewards": [-4, 8, -24], "path": ["0", "0", "1", "2", "4"], "rt": [1129, 1098, 1725], "actions": ["up", "up", "left"], "actionTimes": [2941, 4534, 6760], "queries": {"click": {"state": {"target": [], "time": []}, "edge": {"target": [], "time": []}}, "mouseover": {"state": {"target": [], "time": []}, "edge": {"target": [], "time": []}}, "mouseout": {"state": {"target": ["7", "0"], "time": [984, 1962]}, "edge": {"target": [], "time": []}}}, "displayed_time": "10.81", "trialTime": 12798, "trial_type": "mouselab-mdp", "trial_index": 29, "time_elapsed": 855607, "internal_node_id": "0.0-4.0-1.0-20.0"}}, {"uniqueid": "w21561113:a36980686", "current_trial": 30, "dateTime": 1664555932013, "trialdata": {"revealed_states": [], "num_clicks_accrued": [0, 0, 0, 0, 0, 0, 0, 0, 0, 0, 0, 0, 0], "stateRewards": ["", -4, 8, 24, -24, 4, 8, -24, -48, 2, 4, 24, -24], "withholdReward": true, "trial_id": "mdp_782187007008", "block": "test1", "trialIndex": 23, "score": 34.25, "costs": -0.75, "simulationMode": [null, null, null], "rewards": [2, 4, 24], "path": ["0", "0", "9", "10", "11"], "rt": [4408, 398, 228], "actions": ["left", "left", "up"], "actionTimes": [5748, 6636, 7368], "queries": {"click": {"state": {"target": ["1", "4", "8"], "time": [2119, 2909, 4443]}, "edge": {"target": [], "time": []}}, "mouseover": {"state": {"target": ["1", "4", "5", "8"], "time": [1821, 2738, 4105, 4255]}, "edge": {"target": [], "time": []}}, "mouseout": {"state": {"target": ["0", "1", "4", "1", "5", "8"], "time": [1772, 2571, 3722, 4022, 4156, 4605]}, "edge": {"target": [], "time": []}}}, "displayed_time": "8.34", "trialTime": 8930, "trial_type": "mouselab-mdp", "trial_index": 30, "time_elapsed": 864568, "internal_node_id": "0.0-4.0-1.0-21.0"}}, {"uniqueid": "w21561113:a36980686", "current_trial": 31, "dateTime": 1664555943775, "trialdata": {"revealed_states": [], "num_clicks_accrued": [0, 0, 0, 0, 0, 0, 0, 0, 0, 0, 0, 0, 0], "stateRewards": ["", -2, -8, -24, -24, 4, -4, -48, 48, 2, 8, 48, -48], "withholdReward": true, "trial_id": "mdp_498095124548", "block": "test1", "trialIndex": 24, "score": 52.25, "costs": -0.75, "simulationMode": [null, null, null], "rewards": [4, -4, 48], "path": ["0", "0", "5", "6", "8"], "rt": [4820, 290, 206], "actions": ["right", "right", "down"], "actionTimes": [6867, 7650, 8367], "queries": {"click": {"state": {"target": ["4", "8", "12"], "time": [3677, 4767, 5720]}, "edge": {"target": [], "time": []}}, "mouseover": {"state": {"target": ["1", "4", "8", "12", "12"], "time": [2794, 3260, 4528, 5194, 5527]}, "edge": {"target": [], "time": []}}, "mouseout": {"state": {"target": ["5", "0", "1", "4", "8", "12", "12", "6"], "time": [1561, 2710, 2894, 4093, 4944, 5211, 5961, 10577]}, "edge": {"target": [], "time": []}}}, "displayed_time": "11.05", "trialTime": 11731, "trial_type": "mouselab-mdp", "trial_index": 31, "time_elapsed": 876330, "internal_node_id": "0.0-4.0-1.0-22.0"}}, {"uniqueid": "w21561113:a36980686", "current_trial": 32, "dateTime": 1664555953690, "trialdata": {"revealed_states": [], "num_clicks_accrued": [0, 0, 0, 0, 0, 0, 0, 0, 0, 0, 0, 0, 0], "stateRewards": ["", -2, -8, 24, -48, 4, 4, -24, -48, -2, -8, -48, 24], "withholdReward": false, "trial_id": "mdp_556006673466", "block": "test1", "trialIndex": 25, "score": -11.75, "costs": -0.75, "simulationMode": [null, null, null], "rewards": [4, 4, -24], "path": ["0", "0", "5", "6", "7"], "rt": [4399, 257, 192], "actions": ["right", "right", "up"], "actionTimes": [5288, 6033, 6734], "queries": {"click": {"state": {"target": ["8", "4", "3"], "time": [1775, 2846, 3597]}, "edge": {"target": [], "time": []}}, "mouseover": {"state": {"target": ["8", "5", "3", "2", "4", "1", "3"], "time": [1676, 2176, 2359, 2493, 2659, 3275, 3343]}, "edge": {"target": [], "time": []}}, "mouseout": {"state": {"target": ["6", "5", "0", "8", "5", "3", "2", "4", "1", "3", "8"], "time": [459, 493, 1292, 2109, 2193, 2393, 2543, 3076, 3309, 3809, 9410]}, "edge": {"target": [], "time": []}}}, "displayed_time": "8.89", "trialTime": 9877, "trial_type": "mouselab-mdp", "trial_index": 32, "time_elapsed": 886244, "internal_node_id": "0.0-4.0-1.0-23.0"}}, {"uniqueid": "w21561113:a36980686", "current_trial": 33, "dateTime": 1664555963945, "trialdata": {"revealed_states": [], "num_clicks_accrued": [0, 0, 0, 0, 0, 0, 0, 0, 0, 0, 0, 0, 0], "stateRewards": ["", -2, -4, -48, -48, 4, 8, 24, -48, 4, -8, 24, 24], "withholdReward": false, "trial_id": "mdp_749799219195", "block": "test1", "trialIndex": 26, "score": 24.25, "costs": -0.75, "simulationMode": [null, null, null], "rewards": [4, -8, 24], "path": ["0", "0", "9", "10", "12"], "rt": [4231, 433, 197], "actions": ["left", "left", "down"], "actionTimes": [5371, 6304, 7000], "queries": {"click": {"state": {"target": ["11", "3", "4"], "time": [2081, 3119, 4085]}, "edge": {"target": [], "time": []}}, "mouseover": {"state": {"target": ["9", "11", "9", "1", "3", "3", "2", "4", "7"], "time": [1719, 1886, 2503, 2552, 2636, 2953, 3636, 3886, 4402]}, "edge": {"target": [], "time": []}}, "mouseout": {"state": {"target": ["0", "9", "11", "9", "1", "3", "3", "2", "4", "7", "6"], "time": [1670, 1769, 2286, 2536, 2586, 2703, 3603, 3752, 4287, 4420, 9652]}, "edge": {"target": [], "time": []}}}, "displayed_time": "9.14", "trialTime": 10226, "trial_type": "mouselab-mdp", "trial_index": 33, "time_elapsed": 896500, "internal_node_id": "0.0-4.0-1.0-24.0"}}, {"uniqueid": "w21561113:a36980686", "current_trial": 34, "dateTime": 1664555975804, "trialdata": {"revealed_states": [], "num_clicks_accrued": [0, 0, 0, 0, 0, 0, 0, 0, 0, 0, 0, 0, 0], "stateRewards": ["", -4, 8, 24, -24, -2, 4, -24, 48, -2, 8, -48, -24], "withholdReward": true, "trial_id": "mdp_799359103169", "block": "test1", "trialIndex": 27, "score": -37.75, "costs": -0.75, "simulationMode": [null, null, null], "rewards": [-2, 8, -48], "path": ["0", "0", "9", "10", "11"], "rt": [3939, 341, 160], "actions": ["left", "left", "up"], "actionTimes": [4904, 5741, 6392], "queries": {"click": {"state": {"target": ["7", "4", "12"], "time": [2111, 2947, 3589]}, "edge": {"target": [], "time": []}}, "mouseover": {"state": {"target": ["5", "7", "4", "12"], "time": [1716, 1916, 2765, 3315]}, "edge": {"target": [], "time": []}}, "mouseout": {"state": {"target": ["0", "5", "7", "4", "12"], "time": [1648, 1782, 2565, 3181, 8299]}, "edge": {"target": [], "time": []}}}, "displayed_time": "9.96", "trialTime": 11832, "trial_type": "mouselab-mdp", "trial_index": 34, "time_elapsed": 908359, "internal_node_id": "0.0-4.0-1.0-25.0"}}, {"uniqueid": "w21561113:a36980686", "current_trial": 35, "dateTime": 1664555988787, "trialdata": {"revealed_states": [], "num_clicks_accrued": [0, 0, 0, 0, 0, 0, 0, 0, 0, 0, 0, 0, 0], "stateRewards": ["", 4, -4, 48, -48, -4, -4, 48, -48, 4, 4, -48, -24], "withholdReward": true, "trial_id": "mdp_490058671112", "block": "test1", "trialIndex": 28, "score": 52.25, "costs": -0.75, "simulationMode": [null, null, null], "rewards": [4, -4, 48], "path": ["0", "0", "1", "2", "3"], "rt": [3744, 337, 576], "actions": ["up", "up", "right"], "actionTimes": [5095, 5921, 6994], "queries": {"click": {"state": {"target": ["8", "11", "3"], "time": [2282, 3114, 4008]}, "edge": {"target": [], "time": []}}, "mouseover": {"state": {"target": ["8", "0", "11", "2", "3"], "time": [2051, 2750, 2867, 3501, 3818]}, "edge": {"target": [], "time": []}}, "mouseout": {"state": {"target": ["0", "8", "0", "11", "2", "3"], "time": [1767, 2684, 2784, 3400, 3583, 4334]}, "edge": {"target": [], "time": []}}}, "displayed_time": "11.35", "trialTime": 12950, "trial_type": "mouselab-mdp", "trial_index": 35, "time_elapsed": 921342, "internal_node_id": "0.0-4.0-1.0-26.0"}}, {"uniqueid": "w21561113:a36980686", "current_trial": 36, "dateTime": 1664555998435, "trialdata": {"revealed_states": [], "num_clicks_accrued": [0, 0, 0, 0, 0, 0, 0, 0, 0, 0, 0, 0, 0], "stateRewards": ["", -4, 4, -24, 24, -2, -4, 48, 24, 2, 8, -48, 24], "withholdReward": true, "trial_id": "mdp_150340189492", "block": "test1", "trialIndex": 29, "score": 22.25, "costs": -0.75, "simulationMode": [null, null, null], "rewards": [-2, -4, 24], "path": ["0", "0", "5", "6", "8"], "rt": [5069, 214, 149], "actions": ["right", "right", "down"], "actionTimes": [6103, 6812, 7465], "queries": {"click": {"state": {"target": ["8", "4", "12"], "time": [2416, 3589, 4390]}, "edge": {"target": [], "time": []}}, "mouseover": {"state": {"target": ["8", "5", "1", "4", "4", "10", "12"], "time": [2281, 2898, 2930, 2997, 3347, 4080, 4163]}, "edge": {"target": [], "time": []}}, "mouseout": {"state": {"target": ["9", "0", "8", "5", "1", "4", "4", "10", "12"], "time": [697, 1997, 2880, 2914, 2947, 3081, 3848, 4098, 8897]}, "edge": {"target": [], "time": []}}}, "displayed_time": "9.03", "trialTime": 9611, "trial_type": "mouselab-mdp", "trial_index": 36, "time_elapsed": 930990, "internal_node_id": "0.0-4.0-1.0-27.0"}}, {"uniqueid": "w21561113:a36980686", "current_trial": 37, "dateTime": 1664556009099, "trialdata": {"revealed_states": [], "num_clicks_accrued": [0, 0, 0, 0, 0, 0, 0, 0, 0, 0, 0, 0, 0], "stateRewards": ["", 2, 4, 48, 48, -2, 4, 48, -24, -4, 8, -48, 48], "withholdReward": true, "trial_id": "mdp_407586865939", "block": "test1", "trialIndex": 30, "score": 58.25, "costs": -0.75, "simulationMode": [null, null, null], "rewards": [2, 4, 48], "path": ["0", "0", "1", "2", "3"], "rt": [4031, 307, 208], "actions": ["up", "up", "right"], "actionTimes": [5114, 5912, 6628], "queries": {"click": {"state": {"target": ["7", "3", "12"], "time": [2066, 2999, 3926]}, "edge": {"target": [], "time": []}}, "mouseover": {"state": {"target": ["5", "7", "3", "1", "10", "12"], "time": [1486, 1878, 2820, 3370, 3554, 3619]}, "edge": {"target": [], "time": []}}, "mouseout": {"state": {"target": ["0", "5", "7", "3", "1", "10", "12"], "time": [1453, 1504, 2419, 3303, 3403, 3587, 8086]}, "edge": {"target": [], "time": []}}}, "displayed_time": "10.08", "trialTime": 10631, "trial_type": "mouselab-mdp", "trial_index": 37, "time_elapsed": 941653, "internal_node_id": "0.0-4.0-1.0-28.0"}}, {"uniqueid": "w21561113:a36980686", "current_trial": 38, "dateTime": 1664556018497, "trialdata": {"revealed_states": [], "num_clicks_accrued": [0, 0, 0, 0, 0, 0, 0, 0, 0, 0, 0, 0, 0], "stateRewards": ["", -4, 4, -48, -48, -2, -8, -48, -24, 4, 8, -24, 24], "withholdReward": true, "trial_id": "mdp_449260894259", "block": "test1", "trialIndex": 31, "score": -7.75, "costs": -0.75, "simulationMode": [null, null, null], "rewards": [4, 8, -24], "path": ["0", "0", "9", "10", "11"], "rt": [3440, 241, 186], "actions": ["left", "left", "up"], "actionTimes": [4226, 4969, 5647], "queries": {"click": {"state": {"target": ["4", "3", "8"], "time": [1659, 2469, 3175]}, "edge": {"target": [], "time": []}}, "mouseover": {"state": {"target": ["1", "4", "2", "3", "3", "8"], "time": [1111, 1410, 2061, 2127, 2299, 2877]}, "edge": {"target": [], "time": []}}, "mouseout": {"state": {"target": ["8", "0", "1", "4", "2", "3", "3", "8"], "time": [428, 1061, 1127, 2028, 2094, 2144, 2677, 3462]}, "edge": {"target": [], "time": []}}}, "displayed_time": "8.79", "trialTime": 9371, "trial_type": "mouselab-mdp", "trial_index": 38, "time_elapsed": 951052, "internal_node_id": "0.0-4.0-1.0-29.0"}}, {"uniqueid": "w21561113:a36980686", "current_trial": 39, "dateTime": 1664556028095, "trialdata": {"rt": 9596, "stimulus": "<h1> End of block! </h1>\n\nYou have reached the end of the block 1/4. If you need a short break, feel free to take one now before moving on.\n\n<br><br>\nIn the next block, you will complete another 30 rounds of this game.\n\n<br><br>\n<div style='text-align: center;'>Press <code>space</code> to begin.</div>\n<br><br>\n<div style='text-align: center;'>(If the experiment doesn't continue, try clicking on the text and then pressing <code>space</code>.)</div>", "response": " ", "trial_id": "mdp_ready_2", "trial_type": "html-keyboard-response", "trial_index": 39, "time_elapsed": 960650, "internal_node_id": "0.0-4.0-2.0"}}, {"uniqueid": "w21561113:a36980686", "current_trial": 40, "dateTime": 1664556039298, "trialdata": {"revealed_states": [], "num_clicks_accrued": [0, 0, 0, 0, 0, 0, 0, 0, 0, 0, 0, 0, 0], "stateRewards": ["", -2, -8, -24, 24, -2, -8, -48, 24, -2, -8, 24, 24], "withholdReward": false, "trial_id": "mdp_336617436097", "block": "test2", "trialIndex": 32, "score": 18.25, "costs": -0.75, "simulationMode": [null, null, null], "rewards": [-2, -8, 24], "path": ["0", "0", "9", "10", "12"], "rt": [6073, 273, 105], "actions": ["left", "left", "down"], "actionTimes": [7687, 8447, 9046], "queries": {"click": {"state": {"target": ["3", "12", "4"], "time": [4051, 5413, 6417]}, "edge": {"target": [], "time": []}}, "mouseover": {"state": {"target": ["3", "1", "10", "12", "10", "4"], "time": [3873, 4490, 4539, 4923, 5906, 6242]}, "edge": {"target": [], "time": []}}, "mouseout": {"state": {"target": ["6", "5", "0", "3", "1", "10", "12", "10", "4", "7"], "time": [1089, 1239, 3640, 4440, 4507, 4556, 5890, 5923, 10156, 10439]}, "edge": {"target": [], "time": []}}}, "displayed_time": "9.61", "trialTime": 11168, "trial_type": "mouselab-mdp", "trial_index": 40, "time_elapsed": 971853, "internal_node_id": "0.0-4.0-3.0-0.0"}}, {"uniqueid": "w21561113:a36980686", "current_trial": 41, "dateTime": 1664556050136, "trialdata": {"revealed_states": [], "num_clicks_accrued": [0, 0, 0, 0, 0, 0, 0, 0, 0, 0, 0, 0, 0], "stateRewards": ["", 4, 4, 48, -48, -2, -8, -48, -24, 2, 4, -24, -48], "withholdReward": false, "trial_id": "mdp_239929662917", "block": "test2", "trialIndex": 33, "score": 60.25, "costs": -0.75, "simulationMode": [null, null, null], "rewards": [4, 4, 48], "path": ["0", "0", "1", "2", "3"], "rt": [3928, 243, 179], "actions": ["up", "up", "right"], "actionTimes": [4767, 5511, 6197], "queries": {"click": {"state": {"target": ["7", "11", "3"], "time": [1680, 2575, 3654]}, "edge": {"target": [], "time": []}}, "mouseover": {"state": {"target": ["5", "6", "7", "11", "2", "3"], "time": [1235, 1317, 1535, 2401, 3168, 3451]}, "edge": {"target": [], "time": []}}, "mouseout": {"state": {"target": ["0", "5", "6", "7", "11", "2", "3", "7"], "time": [1168, 1284, 1368, 2018, 2851, 3218, 3917, 7650]}, "edge": {"target": [], "time": []}}}, "displayed_time": "9.84", "trialTime": 10800, "trial_type": "mouselab-mdp", "trial_index": 41, "time_elapsed": 982690, "internal_node_id": "0.0-4.0-3.0-1.0"}}, {"uniqueid": "w21561113:a36980686", "current_trial": 42, "dateTime": 1664556059602, "trialdata": {"revealed_states": [], "num_clicks_accrued": [0, 0, 0, 0, 0, 0, 0, 0, 0, 0, 0, 0, 0], "stateRewards": ["", 2, 8, 48, 24, 2, 8, 48, 48, -2, -4, -24, -48], "withholdReward": true, "trial_id": "mdp_717636349175", "block": "test2", "trialIndex": 34, "score": 62.25, "costs": -0.75, "simulationMode": [null, null, null], "rewards": [2, 8, 48], "path": ["0", "0", "5", "6", "8"], "rt": [3629, 249, 153], "actions": ["right", "right", "down"], "actionTimes": [4511, 5251, 5906], "queries": {"click": {"state": {"target": ["8", "4", "12"], "time": [1660, 2700, 3486]}, "edge": {"target": [], "time": []}}, "mouseover": {"state": {"target": ["0", "8", "1", "4", "12"], "time": [1169, 1469, 2203, 2436, 3352]}, "edge": {"target": [], "time": []}}, "mouseout": {"state": {"target": ["7", "0", "8", "1", "4", "12", "8"], "time": [419, 1219, 1868, 2319, 3069, 3685, 7469]}, "edge": {"target": [], "time": []}}}, "displayed_time": "8.88", "trialTime": 9435, "trial_type": "mouselab-mdp", "trial_index": 42, "time_elapsed": 992157, "internal_node_id": "0.0-4.0-3.0-2.0"}}, {"uniqueid": "w21561113:a36980686", "current_trial": 43, "dateTime": 1664556069449, "trialdata": {"revealed_states": [], "num_clicks_accrued": [0, 0, 0, 0, 0, 0, 0, 0, 0, 0, 0, 0, 0], "stateRewards": ["", 2, 8, -24, -48, -4, 8, -48, -48, -2, -8, -24, -24], "withholdReward": true, "trial_id": "mdp_978177451072", "block": "test2", "trialIndex": 35, "score": -39.75, "costs": -0.75, "simulationMode": [null, null, null], "rewards": [-4, 8, -48], "path": ["0", "0", "5", "6", "8"], "rt": [4394, 224, 143], "actions": ["right", "right", "down"], "actionTimes": [5693, 6413, 7047], "queries": {"click": {"state": {"target": ["4", "11", "7"], "time": [2255, 3698, 4526]}, "edge": {"target": [], "time": []}}, "mouseover": {"state": {"target": ["1", "4", "5", "5", "11", "9", "5", "7"], "time": [1721, 2054, 3071, 3305, 3455, 4005, 4121, 4337]}, "edge": {"target": [], "time": []}}, "mouseout": {"state": {"target": ["0", "1", "4", "5", "5", "11", "9", "5", "7", "8"], "time": [1654, 1754, 2538, 3088, 3321, 3938, 4038, 4238, 4738, 8422]}, "edge": {"target": [], "time": []}}}, "displayed_time": "9.30", "trialTime": 9817, "trial_type": "mouselab-mdp", "trial_index": 43, "time_elapsed": 1002003, "internal_node_id": "0.0-4.0-3.0-3.0"}}, {"uniqueid": "w21561113:a36980686", "current_trial": 44, "dateTime": 1664556079910, "trialdata": {"revealed_states": [], "num_clicks_accrued": [0, 0, 0, 0, 0, 0, 0, 0, 0, 0, 0, 0, 0], "stateRewards": ["", 2, -8, 24, 24, 2, 4, -48, -48, 4, 4, -24, 48], "withholdReward": true, "trial_id": "mdp_985707010949", "block": "test2", "trialIndex": 36, "score": 60.25, "costs": -0.75, "simulationMode": [null, null, null], "rewards": [4, 4, 48], "path": ["0", "0", "9", "10", "12"], "rt": [3854, 298, 108], "actions": ["left", "left", "down"], "actionTimes": [4756, 5553, 6148], "queries": {"click": {"state": {"target": ["4", "8", "11"], "time": [1815, 2652, 3356]}, "edge": {"target": [], "time": []}}, "mouseover": {"state": {"target": ["1", "4", "5", "8", "0", "11"], "time": [1355, 1622, 2322, 2522, 3056, 3123]}, "edge": {"target": [], "time": []}}, "mouseout": {"state": {"target": ["0", "1", "4", "5", "8", "0"], "time": [1288, 1389, 2106, 2355, 2939, 3072]}, "edge": {"target": [], "time": []}}}, "displayed_time": "9.90", "trialTime": 10430, "trial_type": "mouselab-mdp", "trial_index": 44, "time_elapsed": 1012465, "internal_node_id": "0.0-4.0-3.0-4.0"}}, {"uniqueid": "w21561113:a36980686", "current_trial": 45, "dateTime": 1664556089515, "trialdata": {"revealed_states": [], "num_clicks_accrued": [0, 0, 0, 0, 0, 0, 0, 0, 0, 0, 0, 0, 0], "stateRewards": ["", -4, 4, -24, 24, 2, 4, -24, 48, -4, 8, -48, 48], "withholdReward": true, "trial_id": "mdp_422109108860", "block": "test2", "trialIndex": 37, "score": 58.25, "costs": -0.75, "simulationMode": [null, null, null], "rewards": [2, 4, 48], "path": ["0", "0", "5", "6", "8"], "rt": [3614, 207, 369], "actions": ["right", "right", "down"], "actionTimes": [4640, 5336, 6214], "queries": {"click": {"state": {"target": ["4", "8", "7"], "time": [1948, 2805, 3513]}, "edge": {"target": [], "time": []}}, "mouseover": {"state": {"target": ["1", "4", "1", "5", "6", "8", "6", "7"], "time": [1495, 1710, 2311, 2361, 2378, 2694, 3161, 3261]}, "edge": {"target": [], "time": []}}, "mouseout": {"state": {"target": ["11", "0", "1", "4", "1", "5", "6", "8", "6", "7", "6", "8"], "time": [378, 1428, 1528, 2261, 2344, 2377, 2410, 3128, 3228, 7678, 7828, 7961]}, "edge": {"target": [], "time": []}}}, "displayed_time": "9.03", "trialTime": 9573, "trial_type": "mouselab-mdp", "trial_index": 45, "time_elapsed": 1022069, "internal_node_id": "0.0-4.0-3.0-5.0"}}, {"uniqueid": "w21561113:a36980686", "current_trial": 46, "dateTime": 1664556099146, "trialdata": {"revealed_states": [], "num_clicks_accrued": [0, 0, 0, 0, 0, 0, 0, 0, 0, 0, 0, 0, 0], "stateRewards": ["", 2, 8, -48, -24, 4, 4, 24, 48, 4, -4, -48, 48], "withholdReward": true, "trial_id": "mdp_665096999232", "block": "test2", "trialIndex": 38, "score": 60.25, "costs": -0.75, "simulationMode": [null, null, null], "rewards": [4, 4, 48], "path": ["0", "0", "5", "6", "8"], "rt": [5492, 230, 192], "actions": ["right", "right", "down"], "actionTimes": [6243, 6959, 7653], "queries": {"click": {"state": {"target": ["2", "8", "6"], "time": [1686, 3037, 5212]}, "edge": {"target": [], "time": []}}, "mouseover": {"state": {"target": ["1", "2", "3", "8", "12", "10", "9", "0", "5", "6"], "time": [1111, 1379, 2179, 2912, 3661, 4112, 4362, 4411, 4478, 4645]}, "edge": {"target": [], "time": []}}, "mouseout": {"state": {"target": ["0", "1", "2", "3", "8", "12", "10", "9", "0", "5", "6"], "time": [1062, 1179, 2045, 2278, 3295, 4062, 4345, 4395, 4429, 4562, 5512]}, "edge": {"target": [], "time": []}}}, "displayed_time": "8.75", "trialTime": 9606, "trial_type": "mouselab-mdp", "trial_index": 46, "time_elapsed": 1031701, "internal_node_id": "0.0-4.0-3.0-6.0"}}, {"uniqueid": "w21561113:a36980686", "current_trial": 47, "dateTime": 1664556110833, "trialdata": {"revealed_states": [], "num_clicks_accrued": [0, 0, 0, 0, 0, 0, 0, 0, 0, 0, 0, 0, 0], "stateRewards": ["", 2, 4, -48, -48, 4, 4, -48, -48, -2, -8, 48, -24], "withholdReward": false, "trial_id": "mdp_175327338412", "block": "test2", "trialIndex": 39, "score": 42.25, "costs": -0.75, "simulationMode": [null, null, null], "rewards": [-2, -8, 48], "path": ["0", "0", "9", "10", "11"], "rt": [4372, 285, 150], "actions": ["left", "left", "up"], "actionTimes": [7250, 8032, 8697], "queries": {"click": {"state": {"target": ["8", "4", "3"], "time": [4094, 5198, 6143]}, "edge": {"target": [], "time": []}}, "mouseover": {"state": {"target": ["5", "6", "8", "6", "2", "4", "2", "3", "7"], "time": [3597, 3864, 3931, 4548, 4814, 5030, 5763, 5930, 6481]}, "edge": {"target": [], "time": []}}, "mouseout": {"state": {"target": ["0", "5", "6", "8", "6", "2", "4", "2", "3", "7", "6"], "time": [3547, 3731, 3881, 4514, 4580, 4930, 5698, 5897, 6381, 10048, 10847]}, "edge": {"target": [], "time": []}}}, "displayed_time": "10.88", "trialTime": 11661, "trial_type": "mouselab-mdp", "trial_index": 47, "time_elapsed": 1043388, "internal_node_id": "0.0-4.0-3.0-7.0"}}, {"uniqueid": "w21561113:a36980686", "current_trial": 48, "dateTime": 1664556121373, "trialdata": {"revealed_states": [], "num_clicks_accrued": [0, 0, 0, 0, 0, 0, 0, 0, 0, 0, 0, 0, 0], "stateRewards": ["", 4, -8, 24, 48, 2, -4, 48, 48, 4, -8, 48, 48], "withholdReward": true, "trial_id": "mdp_962498334245", "block": "test2", "trialIndex": 40, "score": 48.25, "costs": -0.75, "simulationMode": [null, null, null], "rewards": [4, -8, 48], "path": ["0", "0", "9", "10", "12"], "rt": [4010, 167, 196], "actions": ["left", "left", "down"], "actionTimes": [5982, 6641, 7354], "queries": {"click": {"state": {"target": ["11", "7", "12"], "time": [2980, 3988, 4923]}, "edge": {"target": [], "time": []}}, "mouseover": {"state": {"target": ["9", "11", "9", "0", "6", "7", "5", "0", "12"], "time": [2592, 2808, 3308, 3391, 3674, 3909, 4525, 4541, 4659]}, "edge": {"target": [], "time": []}}, "mouseout": {"state": {"target": ["8", "0", "9", "11", "9", "0", "6", "7", "5", "0", "12"], "time": [474, 2525, 2625, 3241, 3375, 3425, 3724, 4325, 4541, 4558, 5158]}, "edge": {"target": [], "time": []}}}, "displayed_time": "9.97", "trialTime": 10513, "trial_type": "mouselab-mdp", "trial_index": 48, "time_elapsed": 1053928, "internal_node_id": "0.0-4.0-3.0-8.0"}}, {"uniqueid": "w21561113:a36980686", "current_trial": 49, "dateTime": 1664556131293, "trialdata": {"revealed_states": [], "num_clicks_accrued": [0, 0, 0, 0, 0, 0, 0, 0, 0, 0, 0, 0, 0], "stateRewards": ["", -2, -4, -24, -24, 4, 8, 24, 24, -2, 8, 48, 48], "withholdReward": true, "trial_id": "mdp_620787912291", "block": "test2", "trialIndex": 41, "score": 58.25, "costs": -0.75, "simulationMode": [null, null, null], "rewards": [-2, 8, 48], "path": ["0", "0", "9", "10", "11"], "rt": [3452, 163, 209], "actions": ["left", "left", "up"], "actionTimes": [4523, 5179, 5875], "queries": {"click": {"state": {"target": ["8", "7", "11"], "time": [1914, 2600, 3489]}, "edge": {"target": [], "time": []}}, "mouseover": {"state": {"target": ["5", "8", "7", "11"], "time": [1432, 1782, 2399, 3317]}, "edge": {"target": [], "time": []}}, "mouseout": {"state": {"target": ["0", "5", "8", "7", "11"], "time": [1399, 1533, 2199, 2999, 3716]}, "edge": {"target": [], "time": []}}}, "displayed_time": "9.07", "trialTime": 9891, "trial_type": "mouselab-mdp", "trial_index": 49, "time_elapsed": 1063848, "internal_node_id": "0.0-4.0-3.0-9.0"}}, {"uniqueid": "w21561113:a36980686", "current_trial": 50, "dateTime": 1664556143296, "trialdata": {"revealed_states": [], "num_clicks_accrued": [0, 0, 0, 0, 0, 0, 0, 0, 0, 0, 0, 0, 0], "stateRewards": ["", -2, -4, -24, 24, -2, 4, -24, -24, -4, 4, 24, -24], "withholdReward": true, "trial_id": "mdp_999419261719", "block": "test2", "trialIndex": 42, "score": 28.25, "costs": -0.75, "simulationMode": [null, null, null], "rewards": [-4, 4, 24], "path": ["0", "0", "9", "10", "11"], "rt": [3541, 950, 122], "actions": ["left", "left", "up"], "actionTimes": [4405, 5849, 6470], "queries": {"click": {"state": {"target": ["3", "4", "12"], "time": [1469, 2268, 3027]}, "edge": {"target": [], "time": []}}, "mouseover": {"state": {"target": ["3", "4", "10", "12"], "time": [1298, 2115, 2681, 2797]}, "edge": {"target": [], "time": []}}, "mouseout": {"state": {"target": ["0", "3", "4", "10", "12"], "time": [1047, 1882, 2515, 2715, 3331]}, "edge": {"target": [], "time": []}}}, "displayed_time": "10.87", "trialTime": 11976, "trial_type": "mouselab-mdp", "trial_index": 50, "time_elapsed": 1075851, "internal_node_id": "0.0-4.0-3.0-10.0"}}, {"uniqueid": "w21561113:a36980686", "current_trial": 51, "dateTime": 1664556154774, "trialdata": {"revealed_states": [], "num_clicks_accrued": [0, 0, 0, 0, 0, 0, 0, 0, 0, 0, 0, 0, 0], "stateRewards": ["", 2, 4, -48, 24, -4, -4, -24, 24, 2, -4, 24, -24], "withholdReward": true, "trial_id": "mdp_163600331068", "block": "test2", "trialIndex": 43, "score": 26.25, "costs": -0.75, "simulationMode": [null, null, null], "rewards": [2, -4, 24], "path": ["0", "0", "9", "10", "11"], "rt": [4268, 216, 100], "actions": ["left", "left", "up"], "actionTimes": [6134, 6841, 7459], "queries": {"click": {"state": {"target": ["4", "8", "11"], "time": [2756, 3939, 4790]}, "edge": {"target": [], "time": []}}, "mouseover": {"state": {"target": ["1", "4", "2", "7", "6", "8", "5", "11", "1", "7"], "time": [2276, 2609, 3160, 3343, 3426, 3676, 4242, 4575, 5009, 5093]}, "edge": {"target": [], "time": []}}, "mouseout": {"state": {"target": ["0", "1", "4", "2", "7", "6", "8", "5", "11", "1"], "time": [2243, 2326, 3126, 3193, 3376, 3476, 4159, 4260, 4976, 5025]}, "edge": {"target": [], "time": []}}}, "displayed_time": "10.87", "trialTime": 11449, "trial_type": "mouselab-mdp", "trial_index": 51, "time_elapsed": 1087329, "internal_node_id": "0.0-4.0-3.0-11.0"}}, {"uniqueid": "w21561113:a36980686", "current_trial": 52, "dateTime": 1664556165278, "trialdata": {"revealed_states": [], "num_clicks_accrued": [0, 0, 0, 0, 0, 0, 0, 0, 0, 0, 0, 0, 0], "stateRewards": ["", -4, 8, 24, 24, -2, 8, -48, 48, 4, -8, 48, -48], "withholdReward": false, "trial_id": "mdp_295249220524", "block": "test2", "trialIndex": 44, "score": 48.25, "costs": -0.75, "simulationMode": [null, null, null], "rewards": [4, -8, 48], "path": ["0", "0", "9", "10", "11"], "rt": [3812, 202, 161], "actions": ["left", "left", "up"], "actionTimes": [4637, 5340, 6000], "queries": {"click": {"state": {"target": ["4", "7", "11"], "time": [1507, 2581, 3513]}, "edge": {"target": [], "time": []}}, "mouseover": {"state": {"target": ["1", "4", "1", "7", "7", "5", "1", "11"], "time": [1154, 1338, 2004, 2221, 2438, 2938, 3122, 3337]}, "edge": {"target": [], "time": []}}, "mouseout": {"state": {"target": ["7", "0", "1", "4", "1", "7", "7", "5", "1", "11"], "time": [472, 1038, 1238, 1921, 2037, 2272, 2788, 3054, 3139, 4038]}, "edge": {"target": [], "time": []}}}, "displayed_time": "9.82", "trialTime": 10464, "trial_type": "mouselab-mdp", "trial_index": 52, "time_elapsed": 1097833, "internal_node_id": "0.0-4.0-3.0-12.0"}}, {"uniqueid": "w21561113:a36980686", "current_trial": 53, "dateTime": 1664556175865, "trialdata": {"revealed_states": [], "num_clicks_accrued": [0, 0, 0, 0, 0, 0, 0, 0, 0, 0, 0, 0, 0], "stateRewards": ["", 2, -4, 24, 24, 2, 4, 24, 24, -4, 8, 24, 48], "withholdReward": true, "trial_id": "mdp_268430387178", "block": "test2", "trialIndex": 45, "score": 26.25, "costs": -0.75, "simulationMode": [null, null, null], "rewards": [2, -4, 24], "path": ["0", "0", "1", "2", "3"], "rt": [3804, 255, 131], "actions": ["up", "up", "right"], "actionTimes": [4815, 5560, 6202], "queries": {"click": {"state": {"target": ["4", "3", "11"], "time": [1587, 2428, 3609]}, "edge": {"target": [], "time": []}}, "mouseover": {"state": {"target": ["4", "2", "3", "1", "11"], "time": [1439, 2056, 2238, 3238, 3422]}, "edge": {"target": [], "time": []}}, "mouseout": {"state": {"target": ["9", "0", "4", "2", "3", "1", "11", "2"], "time": [639, 1205, 2038, 2106, 3205, 3256, 4005, 7305]}, "edge": {"target": [], "time": []}}}, "displayed_time": "10.01", "trialTime": 10552, "trial_type": "mouselab-mdp", "trial_index": 53, "time_elapsed": 1108420, "internal_node_id": "0.0-4.0-3.0-13.0"}}, {"uniqueid": "w21561113:a36980686", "current_trial": 54, "dateTime": 1664556187287, "trialdata": {"revealed_states": [], "num_clicks_accrued": [0, 0, 0, 0, 0, 0, 0, 0, 0, 0, 0, 0, 0], "stateRewards": ["", -2, -4, 48, -24, -4, -4, -24, -24, -2, 4, -48, -24], "withholdReward": true, "trial_id": "mdp_410467837196", "block": "test2", "trialIndex": 46, "score": -17.75, "costs": -0.75, "simulationMode": [null, null, null], "rewards": [-2, 4, -24], "path": ["0", "0", "9", "10", "12"], "rt": [4213, 179, 151], "actions": ["left", "left", "down"], "actionTimes": [5906, 6582, 7221], "queries": {"click": {"state": {"target": ["4", "8", "7"], "time": [2727, 3588, 4310]}, "edge": {"target": [], "time": []}}, "mouseover": {"state": {"target": ["2", "4", "1", "5", "8", "6", "7"], "time": [2370, 2537, 3003, 3120, 3403, 4004, 4120]}, "edge": {"target": [], "time": []}}, "mouseout": {"state": {"target": ["5", "0", "0", "2", "4", "1", "5", "8", "6", "7", "8"], "time": [1070, 1137, 1971, 2403, 2936, 3070, 3187, 3970, 4070, 4554, 10170]}, "edge": {"target": [], "time": []}}}, "displayed_time": "10.69", "trialTime": 11390, "trial_type": "mouselab-mdp", "trial_index": 54, "time_elapsed": 1119842, "internal_node_id": "0.0-4.0-3.0-14.0"}}, {"uniqueid": "w21561113:a36980686", "current_trial": 55, "dateTime": 1664556196657, "trialdata": {"revealed_states": [], "num_clicks_accrued": [0, 0, 0, 0, 0, 0, 0, 0, 0, 0, 0, 0, 0], "stateRewards": ["", 4, -8, -48, 48, -2, 8, -48, 48, -2, -4, 24, -48], "withholdReward": true, "trial_id": "mdp_400558136089", "block": "test2", "trialIndex": 47, "score": 48.5, "costs": -0.5, "simulationMode": [null, null, null], "rewards": [4, -8, 48], "path": ["0", "0", "1", "2", "4"], "rt": [3143, 180, 94], "actions": ["up", "up", "left"], "actionTimes": [4018, 4694, 5275], "queries": {"click": {"state": {"target": ["4", "3"], "time": [1738, 2903]}, "edge": {"target": [], "time": []}}, "mouseover": {"state": {"target": ["1", "4", "3"], "time": [1280, 1530, 2563]}, "edge": {"target": [], "time": []}}, "mouseout": {"state": {"target": ["0", "1", "4", "3", "7", "6", "6"], "time": [1213, 1348, 2030, 3130, 6313, 6364, 6697]}, "edge": {"target": [], "time": []}}}, "displayed_time": "8.88", "trialTime": 9337, "trial_type": "mouselab-mdp", "trial_index": 55, "time_elapsed": 1129212, "internal_node_id": "0.0-4.0-3.0-15.0"}}, {"uniqueid": "w21561113:a36980686", "current_trial": 56, "dateTime": 1664556207531, "trialdata": {"revealed_states": [], "num_clicks_accrued": [0, 0, 0, 0, 0, 0, 0, 0, 0, 0, 0, 0, 0], "stateRewards": ["", -4, 8, -24, -48, 2, 8, -48, -24, -2, -4, 48, -48], "withholdReward": true, "trial_id": "mdp_599927291428", "block": "test2", "trialIndex": 48, "score": 46, "costs": -1, "simulationMode": [null, null, null], "rewards": [-2, -4, 48], "path": ["0", "0", "9", "10", "11"], "rt": [4556, 130, 126], "actions": ["left", "left", "up"], "actionTimes": [5902, 6525, 7154], "queries": {"click": {"state": {"target": ["4", "3", "8", "7"], "time": [2110, 3037, 4273, 4918]}, "edge": {"target": [], "time": []}}, "mouseover": {"state": {"target": ["1", "4", "3", "7", "6", "8", "6", "7", "6"], "time": [1729, 1928, 2862, 3512, 3612, 4145, 4628, 4712, 5229]}, "edge": {"target": [], "time": []}}, "mouseout": {"state": {"target": ["6", "5", "0", "1", "4", "3", "7", "6", "8", "6", "7", "6", "7", "7"], "time": [711, 979, 1639, 1779, 2545, 3428, 3579, 3945, 4612, 4678, 5163, 5293, 5345, 8362]}, "edge": {"target": [], "time": []}}}, "displayed_time": "10.35", "trialTime": 10843, "trial_type": "mouselab-mdp", "trial_index": 56, "time_elapsed": 1140086, "internal_node_id": "0.0-4.0-3.0-16.0"}}, {"uniqueid": "w21561113:a36980686", "current_trial": 57, "dateTime": 1664556217201, "trialdata": {"revealed_states": [], "num_clicks_accrued": [0, 0, 0, 0, 0, 0, 0, 0, 0, 0, 0, 0, 0], "stateRewards": ["", -4, 4, -48, -48, -4, 8, -24, 24, 2, -4, 48, 48], "withholdReward": true, "trial_id": "mdp_821566905048", "block": "test2", "trialIndex": 49, "score": 50.75, "costs": -0.25, "simulationMode": [null, null, null], "rewards": [2, -4, 48], "path": ["0", "0", "9", "10", "11"], "rt": [2005, 220, 160], "actions": ["left", "left", "up"], "actionTimes": [3094, 3802, 4457], "queries": {"click": {"state": {"target": ["11"], "time": [1920]}, "edge": {"target": [], "time": []}}, "mouseover": {"state": {"target": ["9", "11", "9"], "time": [1481, 1714, 2265]}, "edge": {"target": [], "time": []}}, "mouseout": {"state": {"target": ["6", "5", "0", "9", "11", "9"], "time": [598, 781, 1448, 1531, 2198, 2314]}, "edge": {"target": [], "time": []}}}, "displayed_time": "9.09", "trialTime": 9632, "trial_type": "mouselab-mdp", "trial_index": 57, "time_elapsed": 1149756, "internal_node_id": "0.0-4.0-3.0-17.0"}}, {"uniqueid": "w21561113:a36980686", "current_trial": 58, "dateTime": 1664556227511, "trialdata": {"revealed_states": [], "num_clicks_accrued": [0, 0, 0, 0, 0, 0, 0, 0, 0, 0, 0, 0, 0], "stateRewards": ["", -2, 8, -24, 48, -4, 4, -48, 24, 4, -8, 48, -24], "withholdReward": true, "trial_id": "mdp_425320427962", "block": "test2", "trialIndex": 50, "score": 58.75, "costs": -0.25, "simulationMode": [null, null, null], "rewards": [-2, 8, 48], "path": ["0", "0", "1", "2", "4"], "rt": [1669, 211, 86], "actions": ["up", "up", "left"], "actionTimes": [2391, 3090, 3681], "queries": {"click": {"state": {"target": ["4"], "time": [1343]}, "edge": {"target": [], "time": []}}, "mouseover": {"state": {"target": ["1", "4"], "time": [1012, 1195]}, "edge": {"target": [], "time": []}}, "mouseout": {"state": {"target": ["0", "1", "4", "7"], "time": [561, 1062, 4961, 5061]}, "edge": {"target": [], "time": []}}}, "displayed_time": "9.72", "trialTime": 10273, "trial_type": "mouselab-mdp", "trial_index": 58, "time_elapsed": 1160066, "internal_node_id": "0.0-4.0-3.0-18.0"}}, {"uniqueid": "w21561113:a36980686", "current_trial": 59, "dateTime": 1664556237992, "trialdata": {"revealed_states": [], "num_clicks_accrued": [0, 0, 0, 0, 0, 0, 0, 0, 0, 0, 0, 0, 0], "stateRewards": ["", -4, -4, 24, -48, 2, 4, -24, -48, -2, -8, -24, 24], "withholdReward": true, "trial_id": "mdp_565569130486", "block": "test2", "trialIndex": 51, "score": 18.25, "costs": -0.75, "simulationMode": [null, null, null], "rewards": [-2, -8, 24], "path": ["0", "0", "9", "10", "12"], "rt": [3527, 225, 109], "actions": ["left", "left", "down"], "actionTimes": [4442, 5163, 5763], "queries": {"click": {"state": {"target": ["8", "7", "4"], "time": [1616, 2523, 3359]}, "edge": {"target": [], "time": []}}, "mouseover": {"state": {"target": ["8", "6", "7", "2", "4"], "time": [1421, 2138, 2288, 3021, 3138]}, "edge": {"target": [], "time": []}}, "mouseout": {"state": {"target": ["7", "0", "8", "6", "7", "2", "4"], "time": [455, 1221, 2121, 2205, 2938, 3071, 6820]}, "edge": {"target": [], "time": []}}}, "displayed_time": "9.91", "trialTime": 10447, "trial_type": "mouselab-mdp", "trial_index": 59, "time_elapsed": 1170547, "internal_node_id": "0.0-4.0-3.0-19.0"}}, {"uniqueid": "w21561113:a36980686", "current_trial": 60, "dateTime": 1664556248966, "trialdata": {"revealed_states": [], "num_clicks_accrued": [0, 0, 0, 0, 0, 0, 0, 0, 0, 0, 0, 0, 0], "stateRewards": ["", 2, 4, 48, 48, -2, 4, 48, -24, -4, 8, -48, 48], "withholdReward": true, "trial_id": "mdp_407586865939", "block": "test2", "trialIndex": 52, "score": 54.75, "costs": -0.25, "simulationMode": [null, null, null], "rewards": [-2, 4, 48], "path": ["0", "0", "5", "6", "7"], "rt": [1990, 185, 119], "actions": ["right", "right", "up"], "actionTimes": [2770, 3456, 4073], "queries": {"click": {"state": {"target": ["7"], "time": [1546]}, "edge": {"target": [], "time": []}}, "mouseover": {"state": {"target": ["7"], "time": [1404]}, "edge": {"target": [], "time": []}}, "mouseout": {"state": {"target": ["0", "7", "7", "5"], "time": [1055, 5038, 10338, 10671]}, "edge": {"target": [], "time": []}}}, "displayed_time": "9.78", "trialTime": 10938, "trial_type": "mouselab-mdp", "trial_index": 60, "time_elapsed": 1181521, "internal_node_id": "0.0-4.0-3.0-20.0"}}, {"uniqueid": "w21561113:a36980686", "current_trial": 61, "dateTime": 1664556259647, "trialdata": {"revealed_states": [], "num_clicks_accrued": [0, 0, 0, 0, 0, 0, 0, 0, 0, 0, 0, 0, 0], "stateRewards": ["", -4, 8, 24, -24, -2, 4, -24, 48, -2, 8, -48, -24], "withholdReward": true, "trial_id": "mdp_799359103169", "block": "test2", "trialIndex": 53, "score": -13.75, "costs": -0.75, "simulationMode": [null, null, null], "rewards": [-2, 8, -24], "path": ["0", "0", "9", "10", "12"], "rt": [4551, 155, 90], "actions": ["left", "left", "down"], "actionTimes": [5243, 5887, 6471], "queries": {"click": {"state": {"target": ["7", "4", "11"], "time": [1511, 2467, 3333]}, "edge": {"target": [], "time": []}}, "mouseover": {"state": {"target": ["7", "7", "2", "4", "11", "1"], "time": [1132, 1398, 2064, 2297, 2964, 3731]}, "edge": {"target": [], "time": []}}, "mouseout": {"state": {"target": ["0", "7", "7", "2", "4", "11", "1", "0"], "time": [1065, 1198, 1898, 2131, 2915, 3648, 9348, 9481]}, "edge": {"target": [], "time": []}}}, "displayed_time": "9.69", "trialTime": 10646, "trial_type": "mouselab-mdp", "trial_index": 61, "time_elapsed": 1192202, "internal_node_id": "0.0-4.0-3.0-21.0"}}, {"uniqueid": "w21561113:a36980686", "current_trial": 62, "dateTime": 1664556269183, "trialdata": {"revealed_states": [], "num_clicks_accrued": [0, 0, 0, 0, 0, 0, 0, 0, 0, 0, 0, 0, 0], "stateRewards": ["", 4, -4, 48, 24, 2, -8, 24, -48, -2, -4, -48, -48], "withholdReward": false, "trial_id": "mdp_655302318695", "block": "test2", "trialIndex": 54, "score": 28.25, "costs": -0.75, "simulationMode": [null, null, null], "rewards": [4, -4, 24], "path": ["0", "0", "1", "2", "4"], "rt": [4188, 194, 30], "actions": ["up", "up", "left"], "actionTimes": [4982, 5666, 6202], "queries": {"click": {"state": {"target": ["4", "8", "11"], "time": [1618, 2820, 3759]}, "edge": {"target": [], "time": []}}, "mouseover": {"state": {"target": ["1", "4", "1", "6", "8", "5", "11", "1"], "time": [1157, 1456, 2256, 2406, 2539, 3223, 3490, 4273]}, "edge": {"target": [], "time": []}}, "mouseout": {"state": {"target": ["0", "1", "4", "1", "6", "8", "5", "11", "1", "0"], "time": [672, 1206, 2206, 2272, 2506, 3190, 3239, 4206, 7406, 7589]}, "edge": {"target": [], "time": []}}}, "displayed_time": "8.79", "trialTime": 9506, "trial_type": "mouselab-mdp", "trial_index": 62, "time_elapsed": 1201737, "internal_node_id": "0.0-4.0-3.0-22.0"}}, {"uniqueid": "w21561113:a36980686", "current_trial": 63, "dateTime": 1664556278602, "trialdata": {"revealed_states": [], "num_clicks_accrued": [0, 0, 0, 0, 0, 0, 0, 0, 0, 0, 0, 0, 0], "stateRewards": ["", 4, -8, -48, -24, 2, -8, -48, 48, -4, 8, 48, -48], "withholdReward": false, "trial_id": "mdp_605757196263", "block": "test2", "trialIndex": 55, "score": 46.5, "costs": -0.5, "simulationMode": [null, null, null], "rewards": [2, -8, 48], "path": ["0", "0", "5", "6", "8"], "rt": [3444, 217, 129], "actions": ["right", "right", "down"], "actionTimes": [4305, 5015, 5660], "queries": {"click": {"state": {"target": ["4", "8"], "time": [1909, 2770]}, "edge": {"target": [], "time": []}}, "mouseover": {"state": {"target": ["1", "2", "4", "1", "5", "8", "9"], "time": [1315, 1595, 1698, 2208, 2299, 2632, 3348]}, "edge": {"target": [], "time": []}}, "mouseout": {"state": {"target": ["0", "1", "2", "4", "1", "5", "8", "9"], "time": [1265, 1548, 1626, 2148, 2248, 2314, 3032, 3548]}, "edge": {"target": [], "time": []}}}, "displayed_time": "8.86", "trialTime": 9384, "trial_type": "mouselab-mdp", "trial_index": 63, "time_elapsed": 1211157, "internal_node_id": "0.0-4.0-3.0-23.0"}}, {"uniqueid": "w21561113:a36980686", "current_trial": 64, "dateTime": 1664556289089, "trialdata": {"revealed_states": [], "num_clicks_accrued": [0, 0, 0, 0, 0, 0, 0, 0, 0, 0, 0, 0, 0], "stateRewards": ["", 4, 4, -48, -24, -2, -4, 48, 24, -4, 4, 24, -48], "withholdReward": true, "trial_id": "mdp_617383046444", "block": "test2", "trialIndex": 56, "score": 22.25, "costs": -0.75, "simulationMode": [null, null, null], "rewards": [-2, -4, 24], "path": ["0", "0", "5", "6", "8"], "rt": [4768, 107, 40], "actions": ["right", "right", "down"], "actionTimes": [5704, 6308, 6841], "queries": {"click": {"state": {"target": ["8", "4", "3"], "time": [2000, 2906, 3586]}, "edge": {"target": [], "time": []}}, "mouseover": {"state": {"target": ["5", "8", "5", "1", "4", "2", "3"], "time": [1652, 1851, 2513, 2568, 2702, 3335, 3418]}, "edge": {"target": [], "time": []}}, "mouseout": {"state": {"target": ["5", "8", "5", "1", "4", "2", "3", "5"], "time": [1683, 2482, 2535, 2602, 3312, 3385, 8002, 9762]}, "edge": {"target": [], "time": []}}}, "displayed_time": "9.94", "trialTime": 10459, "trial_type": "mouselab-mdp", "trial_index": 64, "time_elapsed": 1221644, "internal_node_id": "0.0-4.0-3.0-24.0"}}, {"uniqueid": "w21561113:a36980686", "current_trial": 65, "dateTime": 1664556298803, "trialdata": {"revealed_states": [], "num_clicks_accrued": [0, 0, 0, 0, 0, 0, 0, 0, 0, 0, 0, 0, 0], "stateRewards": ["", 4, -8, 24, 48, 2, 4, 48, 48, 2, 8, -48, -48], "withholdReward": true, "trial_id": "mdp_783704746330", "block": "test2", "trialIndex": 57, "score": 58.5, "costs": -0.5, "simulationMode": [null, null, null], "rewards": [2, 4, 48], "path": ["0", "0", "5", "6", "8"], "rt": [3025, 231, 110], "actions": ["right", "right", "down"], "actionTimes": [3896, 4615, 5210], "queries": {"click": {"state": {"target": ["11", "8"], "time": [1696, 2693]}, "edge": {"target": [], "time": []}}, "mouseover": {"state": {"target": ["11", "9", "0", "8"], "time": [1466, 2083, 2166, 2384]}, "edge": {"target": [], "time": []}}, "mouseout": {"state": {"target": ["0", "11", "9", "0", "8"], "time": [1150, 1984, 2150, 2200, 3283]}, "edge": {"target": [], "time": []}}}, "displayed_time": "8.87", "trialTime": 9688, "trial_type": "mouselab-mdp", "trial_index": 65, "time_elapsed": 1231358, "internal_node_id": "0.0-4.0-3.0-25.0"}}, {"uniqueid": "w21561113:a36980686", "current_trial": 66, "dateTime": 1664556308120, "trialdata": {"revealed_states": [], "num_clicks_accrued": [0, 0, 0, 0, 0, 0, 0, 0, 0, 0, 0, 0, 0], "stateRewards": ["", -2, 8, -48, 48, -4, 8, -24, 24, 4, -4, 24, -48], "withholdReward": true, "trial_id": "mdp_904238083902", "block": "test2", "trialIndex": 58, "score": 58.75, "costs": -0.25, "simulationMode": [null, null, null], "rewards": [-2, 8, 48], "path": ["0", "0", "1", "2", "4"], "rt": [1697, 213, 148], "actions": ["up", "up", "left"], "actionTimes": [2466, 3180, 3816], "queries": {"click": {"state": {"target": ["4"], "time": [1466]}, "edge": {"target": [], "time": []}}, "mouseover": {"state": {"target": ["1", "4"], "time": [1150, 1317]}, "edge": {"target": [], "time": []}}, "mouseout": {"state": {"target": ["0", "1", "4"], "time": [1101, 1167, 5683]}, "edge": {"target": [], "time": []}}}, "displayed_time": "8.77", "trialTime": 9288, "trial_type": "mouselab-mdp", "trial_index": 66, "time_elapsed": 1240674, "internal_node_id": "0.0-4.0-3.0-26.0"}}, {"uniqueid": "w21561113:a36980686", "current_trial": 67, "dateTime": 1664556317496, "trialdata": {"revealed_states": [], "num_clicks_accrued": [0, 0, 0, 0, 0, 0, 0, 0, 0, 0, 0, 0, 0], "stateRewards": ["", -4, 4, 24, 24, -2, 8, 24, -48, 4, -8, -24, -48], "withholdReward": true, "trial_id": "mdp_651542905861", "block": "test2", "trialIndex": 59, "score": 28.25, "costs": -0.75, "simulationMode": [null, null, null], "rewards": [-4, 4, 24], "path": ["0", "0", "1", "2", "3"], "rt": [3699, 179, 127], "actions": ["up", "up", "right"], "actionTimes": [4552, 5229, 5860], "queries": {"click": {"state": {"target": ["3", "4", "8"], "time": [1686, 2510, 3401]}, "edge": {"target": [], "time": []}}, "mouseover": {"state": {"target": ["3", "2", "4", "1", "5", "8"], "time": [1550, 2217, 2333, 2950, 3049, 3149]}, "edge": {"target": [], "time": []}}, "mouseout": {"state": {"target": ["7", "3", "2", "4", "1", "5", "8"], "time": [433, 2183, 2266, 2900, 3000, 3067, 3650]}, "edge": {"target": [], "time": []}}}, "displayed_time": "8.85", "trialTime": 9348, "trial_type": "mouselab-mdp", "trial_index": 67, "time_elapsed": 1250051, "internal_node_id": "0.0-4.0-3.0-27.0"}}, {"uniqueid": "w21561113:a36980686", "current_trial": 68, "dateTime": 1664556327608, "trialdata": {"revealed_states": [], "num_clicks_accrued": [0, 0, 0, 0, 0, 0, 0, 0, 0, 0, 0, 0, 0], "stateRewards": ["", -4, -8, 48, -48, 2, -4, 48, -24, 2, -8, -48, -48], "withholdReward": false, "trial_id": "mdp_624553692913", "block": "test2", "trialIndex": 60, "score": 50.75, "costs": -0.25, "simulationMode": [null, null, null], "rewards": [2, -4, 48], "path": ["0", "0", "5", "6", "7"], "rt": [2035, 203, 138], "actions": ["right", "right", "up"], "actionTimes": [2892, 3587, 4222], "queries": {"click": {"state": {"target": ["7"], "time": [1620]}, "edge": {"target": [], "time": []}}, "mouseover": {"state": {"target": ["7"], "time": [1485]}, "edge": {"target": [], "time": []}}, "mouseout": {"state": {"target": ["6", "5", "0"], "time": [501, 618, 1101]}, "edge": {"target": [], "time": []}}}, "displayed_time": "8.86", "trialTime": 10078, "trial_type": "mouselab-mdp", "trial_index": 68, "time_elapsed": 1260163, "internal_node_id": "0.0-4.0-3.0-28.0"}}, {"uniqueid": "w21561113:a36980686", "current_trial": 69, "dateTime": 1664556338882, "trialdata": {"revealed_states": [], "num_clicks_accrued": [0, 0, 0, 0, 0, 0, 0, 0, 0, 0, 0, 0, 0], "stateRewards": ["", -2, -4, -48, -48, -2, -8, 48, -48, 4, -8, -48, 24], "withholdReward": false, "trial_id": "mdp_468495641521", "block": "test2", "trialIndex": 61, "score": 42.25, "costs": -0.75, "simulationMode": [null, null, null], "rewards": [-2, -8, 48], "path": ["0", "0", "5", "6", "7"], "rt": [3539, 157, 80], "actions": ["right", "right", "up"], "actionTimes": [4674, 5326, 5917], "queries": {"click": {"state": {"target": ["11", "12", "7"], "time": [1736, 2660, 3674]}, "edge": {"target": [], "time": []}}, "mouseover": {"state": {"target": ["9", "11", "10", "12", "0", "1", "7"], "time": [1386, 1619, 2186, 2436, 3236, 3302, 3503]}, "edge": {"target": [], "time": []}}, "mouseout": {"state": {"target": ["7", "5", "0", "9", "11", "10", "12", "0", "1", "7"], "time": [653, 836, 1302, 1419, 2136, 2320, 3085, 3252, 3319, 3852]}, "edge": {"target": [], "time": []}}}, "displayed_time": "10.14", "trialTime": 11236, "trial_type": "mouselab-mdp", "trial_index": 69, "time_elapsed": 1271437, "internal_node_id": "0.0-4.0-3.0-29.0"}}, {"uniqueid": "w21561113:a36980686", "current_trial": 70, "dateTime": 1664556340841, "trialdata": {"rt": 1957, "stimulus": "<h1> End of block! </h1>\n\nYou have reached the end of the block 2/4. If you need a short break, feel free to take one now before moving on.\n\n<br><br>\nIn the next block, you will complete another 30 rounds of this game.\n\n<br><br>\n<div style='text-align: center;'>Press <code>space</code> to begin.</div>\n<br><br>\n<div style='text-align: center;'>(If the experiment doesn't continue, try clicking on the text and then pressing <code>space</code>.)</div>", "response": " ", "trial_id": "mdp_ready_3", "trial_type": "html-keyboard-response", "trial_index": 70, "time_elapsed": 1273396, "internal_node_id": "0.0-4.0-4.0"}}, {"uniqueid": "w21561113:a36980686", "current_trial": 71, "dateTime": 1664556350692, "trialdata": {"revealed_states": [], "num_clicks_accrued": [0, 0, 0, 0, 0, 0, 0, 0, 0, 0, 0, 0, 0], "stateRewards": ["", 2, 4, -48, -24, 2, 8, 24, 48, -2, 4, 48, -48], "withholdReward": false, "trial_id": "mdp_551894842204", "block": "test3", "trialIndex": 62, "score": 62.5, "costs": -0.5, "simulationMode": [null, null, null], "rewards": [2, 8, 48], "path": ["0", "0", "5", "6", "8"], "rt": [3069, 156, 83], "actions": ["right", "right", "down"], "actionTimes": [4253, 4911, 5504], "queries": {"click": {"state": {"target": ["4", "8"], "time": [1926, 2998]}, "edge": {"target": [], "time": []}}, "mouseover": {"state": {"target": ["1", "4", "6", "8", "0"], "time": [1554, 1770, 2604, 2820, 3436]}, "edge": {"target": [], "time": []}}, "mouseout": {"state": {"target": ["7", "1", "4", "6", "8", "0", "0", "5"], "time": [620, 1637, 2321, 2704, 3320, 3470, 6470, 6520]}, "edge": {"target": [], "time": []}}}, "displayed_time": "9.18", "trialTime": 9814, "trial_type": "mouselab-mdp", "trial_index": 71, "time_elapsed": 1283247, "internal_node_id": "0.0-4.0-5.0-0.0"}}, {"uniqueid": "w21561113:a36980686", "current_trial": 72, "dateTime": 1664556360028, "trialdata": {"revealed_states": [], "num_clicks_accrued": [0, 0, 0, 0, 0, 0, 0, 0, 0, 0, 0, 0, 0], "stateRewards": ["", 2, 8, 24, 24, 2, -8, -24, -48, 2, 8, -48, 48], "withholdReward": true, "trial_id": "mdp_745175888812", "block": "test3", "trialIndex": 63, "score": 62.25, "costs": -0.75, "simulationMode": [null, null, null], "rewards": [2, 8, 48], "path": ["0", "0", "9", "10", "12"], "rt": [3764, 202, 67], "actions": ["left", "left", "down"], "actionTimes": [4540, 5241, 5807], "queries": {"click": {"state": {"target": ["3", "4", "12"], "time": [1598, 2379, 3516]}, "edge": {"target": [], "time": []}}, "mouseover": {"state": {"target": ["1", "3", "2", "4", "11", "10", "12", "9", "0"], "time": [1073, 1391, 2073, 2123, 2923, 3106, 3406, 3773, 3806]}, "edge": {"target": [], "time": []}}, "mouseout": {"state": {"target": ["5", "1", "3", "2", "4", "11", "10", "12", "9", "0", "8", "8"], "time": [473, 1106, 2056, 2107, 2657, 3073, 3156, 3706, 3789, 3840, 7040, 8623]}, "edge": {"target": [], "time": []}}}, "displayed_time": "8.78", "trialTime": 9304, "trial_type": "mouselab-mdp", "trial_index": 72, "time_elapsed": 1292583, "internal_node_id": "0.0-4.0-5.0-1.0"}}, {"uniqueid": "w21561113:a36980686", "current_trial": 73, "dateTime": 1664556369813, "trialdata": {"revealed_states": [], "num_clicks_accrued": [0, 0, 0, 0, 0, 0, 0, 0, 0, 0, 0, 0, 0], "stateRewards": ["", -4, -4, 24, -24, 4, 4, 24, 48, 4, -4, 48, -48], "withholdReward": false, "trial_id": "mdp_522385334882", "block": "test3", "trialIndex": 64, "score": 60.75, "costs": -0.25, "simulationMode": [null, null, null], "rewards": [4, 4, 48], "path": ["0", "0", "5", "6", "8"], "rt": [1771, 162, 122], "actions": ["right", "right", "down"], "actionTimes": [2687, 3337, 3947], "queries": {"click": {"state": {"target": ["8"], "time": [1495]}, "edge": {"target": [], "time": []}}, "mouseover": {"state": {"target": ["8", "6"], "time": [1323, 2107]}, "edge": {"target": [], "time": []}}, "mouseout": {"state": {"target": ["0", "8", "6"], "time": [1156, 2106, 5090]}, "edge": {"target": [], "time": []}}}, "displayed_time": "8.92", "trialTime": 9756, "trial_type": "mouselab-mdp", "trial_index": 73, "time_elapsed": 1302368, "internal_node_id": "0.0-4.0-5.0-2.0"}}, {"uniqueid": "w21561113:a36980686", "current_trial": 74, "dateTime": 1664556379699, "trialdata": {"revealed_states": [], "num_clicks_accrued": [0, 0, 0, 0, 0, 0, 0, 0, 0, 0, 0, 0, 0], "stateRewards": ["", -2, 4, -24, 48, 4, -8, 48, -48, 2, -8, 48, 24], "withholdReward": true, "trial_id": "mdp_501111216502", "block": "test3", "trialIndex": 65, "score": 48.75, "costs": -0.25, "simulationMode": [null, null, null], "rewards": [4, -8, 48], "path": ["0", "0", "5", "6", "7"], "rt": [1775, 144, 104], "actions": ["right", "right", "up"], "actionTimes": [2619, 3264, 3873], "queries": {"click": {"state": {"target": ["7"], "time": [1541]}, "edge": {"target": [], "time": []}}, "mouseover": {"state": {"target": ["7"], "time": [1420]}, "edge": {"target": [], "time": []}}, "mouseout": {"state": {"target": ["0", "7", "5"], "time": [1087, 9119, 9236]}, "edge": {"target": [], "time": []}}}, "displayed_time": "8.84", "trialTime": 9855, "trial_type": "mouselab-mdp", "trial_index": 74, "time_elapsed": 1312254, "internal_node_id": "0.0-4.0-5.0-3.0"}}, {"uniqueid": "w21561113:a36980686", "current_trial": 75, "dateTime": 1664556389465, "trialdata": {"revealed_states": [], "num_clicks_accrued": [0, 0, 0, 0, 0, 0, 0, 0, 0, 0, 0, 0, 0], "stateRewards": ["", -4, 4, 24, 24, 4, -8, 48, -48, -2, -8, 24, 24], "withholdReward": true, "trial_id": "mdp_395264223239", "block": "test3", "trialIndex": 66, "score": 48, "costs": -1, "simulationMode": [null, null, null], "rewards": [4, -8, 48], "path": ["0", "0", "5", "6", "7"], "rt": [5079, 146, 130], "actions": ["right", "right", "up"], "actionTimes": [6220, 6854, 7470], "queries": {"click": {"state": {"target": ["4", "3", "8", "7"], "time": [2079, 2948, 3890, 5225]}, "edge": {"target": [], "time": []}}, "mouseover": {"state": {"target": ["1", "4", "2", "3", "6", "8", "8", "6", "7"], "time": [1691, 1892, 2607, 2757, 3391, 3441, 3758, 4458, 4924]}, "edge": {"target": [], "time": []}}, "mouseout": {"state": {"target": ["0", "1", "4", "2", "3", "6", "8", "8", "6", "7"], "time": [1625, 1775, 2574, 2641, 3274, 3424, 3491, 4391, 4607, 9425]}, "edge": {"target": [], "time": []}}}, "displayed_time": "9.14", "trialTime": 9725, "trial_type": "mouselab-mdp", "trial_index": 75, "time_elapsed": 1322020, "internal_node_id": "0.0-4.0-5.0-4.0"}}, {"uniqueid": "w21561113:a36980686", "current_trial": 76, "dateTime": 1664556398911, "trialdata": {"revealed_states": [], "num_clicks_accrued": [0, 0, 0, 0, 0, 0, 0, 0, 0, 0, 0, 0, 0], "stateRewards": ["", -4, -8, -24, 24, 2, 8, 24, 48, 2, 4, 24, -48], "withholdReward": true, "trial_id": "mdp_122352383932", "block": "test3", "trialIndex": 67, "score": 38, "costs": -1, "simulationMode": [null, null, null], "rewards": [2, 8, 24], "path": ["0", "0", "5", "6", "7"], "rt": [4221, 175, 13], "actions": ["right", "right", "up"], "actionTimes": [5107, 5774, 6278], "queries": {"click": {"state": {"target": ["3", "7", "12", "11"], "time": [1633, 2294, 3178, 3934]}, "edge": {"target": [], "time": []}}, "mouseover": {"state": {"target": ["1", "3", "7", "9", "12", "10", "11", "1"], "time": [1165, 1465, 2132, 2799, 3082, 3682, 3749, 4198]}, "edge": {"target": [], "time": []}}, "mouseout": {"state": {"target": ["7", "0", "1", "3", "7", "9", "12", "10", "11", "1", "7"], "time": [449, 1099, 1248, 1849, 2566, 2832, 3648, 3732, 4165, 4215, 7799]}, "edge": {"target": [], "time": []}}}, "displayed_time": "8.89", "trialTime": 9413, "trial_type": "mouselab-mdp", "trial_index": 76, "time_elapsed": 1331466, "internal_node_id": "0.0-4.0-5.0-5.0"}}, {"uniqueid": "w21561113:a36980686", "current_trial": 77, "dateTime": 1664556408333, "trialdata": {"revealed_states": [], "num_clicks_accrued": [0, 0, 0, 0, 0, 0, 0, 0, 0, 0, 0, 0, 0], "stateRewards": ["", 4, -8, 48, 24, 4, -4, 48, 48, -4, 8, -48, 24], "withholdReward": true, "trial_id": "mdp_303828806348", "block": "test3", "trialIndex": 68, "score": 52.75, "costs": -0.25, "simulationMode": [null, null, null], "rewards": [4, -4, 48], "path": ["0", "0", "5", "6", "8"], "rt": [2112, 156, 75], "actions": ["right", "right", "down"], "actionTimes": [2977, 3622, 4208], "queries": {"click": {"state": {"target": ["8"], "time": [1671]}, "edge": {"target": [], "time": []}}, "mouseover": {"state": {"target": ["8"], "time": [1483]}, "edge": {"target": [], "time": []}}, "mouseout": {"state": {"target": ["6", "5", "0", "8"], "time": [449, 499, 1233, 2049]}, "edge": {"target": [], "time": []}}}, "displayed_time": "8.87", "trialTime": 9386, "trial_type": "mouselab-mdp", "trial_index": 77, "time_elapsed": 1340888, "internal_node_id": "0.0-4.0-5.0-6.0"}}, {"uniqueid": "w21561113:a36980686", "current_trial": 78, "dateTime": 1664556417677, "trialdata": {"revealed_states": [], "num_clicks_accrued": [0, 0, 0, 0, 0, 0, 0, 0, 0, 0, 0, 0, 0], "stateRewards": ["", -2, -4, -24, -48, 2, -8, -24, -24, 4, -8, 48, 48], "withholdReward": true, "trial_id": "mdp_950599994674", "block": "test3", "trialIndex": 69, "score": 48.5, "costs": -0.5, "simulationMode": [null, null, null], "rewards": [4, -8, 48], "path": ["0", "0", "9", "10", "11"], "rt": [3354, 191, 162], "actions": ["left", "left", "up"], "actionTimes": [4138, 4817, 5488], "queries": {"click": {"state": {"target": ["4", "11"], "time": [1510, 2468]}, "edge": {"target": [], "time": []}}, "mouseover": {"state": {"target": ["4", "11"], "time": [1359, 2025]}, "edge": {"target": [], "time": []}}, "mouseout": {"state": {"target": ["0", "4", "11", "1"], "time": [993, 1942, 2859, 6659]}, "edge": {"target": [], "time": []}}}, "displayed_time": "8.78", "trialTime": 9306, "trial_type": "mouselab-mdp", "trial_index": 78, "time_elapsed": 1350232, "internal_node_id": "0.0-4.0-5.0-7.0"}}, {"uniqueid": "w21561113:a36980686", "current_trial": 79, "dateTime": 1664556428124, "trialdata": {"revealed_states": [], "num_clicks_accrued": [0, 0, 0, 0, 0, 0, 0, 0, 0, 0, 0, 0, 0], "stateRewards": ["", 2, 8, 48, 24, -4, 4, -48, 24, 2, 8, 48, 48], "withholdReward": true, "trial_id": "mdp_367344599162", "block": "test3", "trialIndex": 70, "score": 62.75, "costs": -0.25, "simulationMode": [null, null, null], "rewards": [2, 8, 48], "path": ["0", "0", "9", "10", "11"], "rt": [1909, 161, 119], "actions": ["left", "left", "up"], "actionTimes": [2837, 3497, 4120], "queries": {"click": {"state": {"target": ["11"], "time": [1740]}, "edge": {"target": [], "time": []}}, "mouseover": {"state": {"target": ["11"], "time": [1602]}, "edge": {"target": [], "time": []}}, "mouseout": {"state": {"target": ["7", "11", "1", "7", "7"], "time": [369, 2152, 5052, 5119, 10318]}, "edge": {"target": [], "time": []}}}, "displayed_time": "9.93", "trialTime": 10412, "trial_type": "mouselab-mdp", "trial_index": 79, "time_elapsed": 1360679, "internal_node_id": "0.0-4.0-5.0-8.0"}}, {"uniqueid": "w21561113:a36980686", "current_trial": 80, "dateTime": 1664556437458, "trialdata": {"revealed_states": [], "num_clicks_accrued": [0, 0, 0, 0, 0, 0, 0, 0, 0, 0, 0, 0, 0], "stateRewards": ["", -4, -4, -24, 24, 4, 4, -24, -24, -4, 4, 24, 24], "withholdReward": true, "trial_id": "mdp_787781487383", "block": "test3", "trialIndex": 71, "score": 28, "costs": -1, "simulationMode": [null, null, null], "rewards": [-4, 4, 24], "path": ["0", "0", "9", "10", "11"], "rt": [5065, 159, 116], "actions": ["left", "left", "up"], "actionTimes": [5809, 6466, 7073], "queries": {"click": {"state": {"target": ["11", "7", "3", "4"], "time": [1515, 2502, 3165, 4002]}, "edge": {"target": [], "time": []}}, "mouseover": {"state": {"target": ["11", "1", "7", "3", "2", "4"], "time": [1373, 2157, 2340, 2973, 3707, 3790]}, "edge": {"target": [], "time": []}}, "mouseout": {"state": {"target": ["5", "0", "11", "1", "7", "3", "2", "4", "7", "5"], "time": [440, 1107, 2057, 2174, 2890, 3645, 3741, 4657, 9173, 9207]}, "edge": {"target": [], "time": []}}}, "displayed_time": "8.74", "trialTime": 9301, "trial_type": "mouselab-mdp", "trial_index": 80, "time_elapsed": 1370013, "internal_node_id": "0.0-4.0-5.0-9.0"}}, {"uniqueid": "w21561113:a36980686", "current_trial": 81, "dateTime": 1664556447868, "trialdata": {"revealed_states": [], "num_clicks_accrued": [0, 0, 0, 0, 0, 0, 0, 0, 0, 0, 0, 0, 0], "stateRewards": ["", 2, 4, 48, 24, -4, 8, 48, 48, 2, -4, -48, -24], "withholdReward": true, "trial_id": "mdp_822099887466", "block": "test3", "trialIndex": 72, "score": 56.25, "costs": -0.75, "simulationMode": [null, null, null], "rewards": [-4, 8, 48], "path": ["0", "0", "5", "6", "8"], "rt": [3566, 181, 116], "actions": ["right", "right", "down"], "actionTimes": [4440, 5121, 5722], "queries": {"click": {"state": {"target": ["11", "4", "8"], "time": [1578, 2588, 3393]}, "edge": {"target": [], "time": []}}, "mouseover": {"state": {"target": ["11", "4", "1", "5", "8"], "time": [1407, 2374, 2940, 3008, 3257]}, "edge": {"target": [], "time": []}}, "mouseout": {"state": {"target": ["0", "11", "4", "1", "5", "8"], "time": [1291, 2024, 2890, 2974, 3023, 3674]}, "edge": {"target": [], "time": []}}}, "displayed_time": "9.88", "trialTime": 10379, "trial_type": "mouselab-mdp", "trial_index": 81, "time_elapsed": 1380423, "internal_node_id": "0.0-4.0-5.0-10.0"}}, {"uniqueid": "w21561113:a36980686", "current_trial": 82, "dateTime": 1664556457256, "trialdata": {"revealed_states": [], "num_clicks_accrued": [0, 0, 0, 0, 0, 0, 0, 0, 0, 0, 0, 0, 0], "stateRewards": ["", -2, -8, 48, -24, 2, -4, -48, -24, -2, -4, -48, 48], "withholdReward": true, "trial_id": "mdp_143798438087", "block": "test3", "trialIndex": 73, "score": 46, "costs": -1, "simulationMode": [null, null, null], "rewards": [-2, -4, 48], "path": ["0", "0", "9", "10", "12"], "rt": [4435, 143, 65], "actions": ["left", "left", "down"], "actionTimes": [5256, 5884, 6440], "queries": {"click": {"state": {"target": ["8", "7", "11", "12"], "time": [1368, 2244, 3005, 4299]}, "edge": {"target": [], "time": []}}, "mouseover": {"state": {"target": ["0", "5", "8", "7", "1", "11", "12"], "time": [1042, 1109, 1209, 2108, 2625, 2892, 4009]}, "edge": {"target": [], "time": []}}, "mouseout": {"state": {"target": ["6", "5", "0", "5", "8", "7", "1", "11", "12"], "time": [459, 592, 1059, 1142, 1658, 2592, 2643, 3442, 4525]}, "edge": {"target": [], "time": []}}}, "displayed_time": "8.82", "trialTime": 9352, "trial_type": "mouselab-mdp", "trial_index": 82, "time_elapsed": 1389811, "internal_node_id": "0.0-4.0-5.0-11.0"}}, {"uniqueid": "w21561113:a36980686", "current_trial": 83, "dateTime": 1664556467015, "trialdata": {"revealed_states": [], "num_clicks_accrued": [0, 0, 0, 0, 0, 0, 0, 0, 0, 0, 0, 0, 0], "stateRewards": ["", -4, 8, 24, 24, -2, 8, -48, 48, 4, -8, 48, -48], "withholdReward": false, "trial_id": "mdp_295249220524", "block": "test3", "trialIndex": 74, "score": 48, "costs": -1, "simulationMode": [null, null, null], "rewards": [4, -8, 48], "path": ["0", "0", "9", "10", "11"], "rt": [4158, 160, 73], "actions": ["left", "left", "up"], "actionTimes": [5052, 5700, 6278], "queries": {"click": {"state": {"target": ["7", "4", "12", "11"], "time": [1513, 2314, 3200, 4030]}, "edge": {"target": [], "time": []}}, "mouseover": {"state": {"target": ["7", "4", "10", "12", "9", "11"], "time": [1356, 2139, 2805, 3072, 3472, 3822]}, "edge": {"target": [], "time": []}}, "mouseout": {"state": {"target": ["6", "5", "7", "4", "10", "12", "9", "11", "9"], "time": [539, 606, 1839, 2706, 2905, 3389, 3705, 4356, 7503]}, "edge": {"target": [], "time": []}}}, "displayed_time": "8.89", "trialTime": 9725, "trial_type": "mouselab-mdp", "trial_index": 83, "time_elapsed": 1399570, "internal_node_id": "0.0-4.0-5.0-12.0"}}, {"uniqueid": "w21561113:a36980686", "current_trial": 84, "dateTime": 1664556477853, "trialdata": {"revealed_states": [], "num_clicks_accrued": [0, 0, 0, 0, 0, 0, 0, 0, 0, 0, 0, 0, 0], "stateRewards": ["", 4, -4, 24, 48, 4, 8, -24, -24, -2, 4, 48, 48], "withholdReward": false, "trial_id": "mdp_624998450453", "block": "test3", "trialIndex": 75, "score": 54.5, "costs": -0.5, "simulationMode": [null, null, null], "rewards": [-2, 4, 48], "path": ["0", "0", "9", "10", "11"], "rt": [2750, 132, 60], "actions": ["left", "left", "up"], "actionTimes": [3803, 4427, 4988], "queries": {"click": {"state": {"target": ["8", "11"], "time": [1835, 2597]}, "edge": {"target": [], "time": []}}, "mouseover": {"state": {"target": ["8", "5", "11", "3"], "time": [1662, 2245, 2413, 3179]}, "edge": {"target": [], "time": []}}, "mouseout": {"state": {"target": ["0", "8", "5", "11", "3", "7"], "time": [1529, 2212, 2262, 3079, 3196, 10345]}, "edge": {"target": [], "time": []}}}, "displayed_time": "10.05", "trialTime": 10803, "trial_type": "mouselab-mdp", "trial_index": 84, "time_elapsed": 1410408, "internal_node_id": "0.0-4.0-5.0-13.0"}}, {"uniqueid": "w21561113:a36980686", "current_trial": 85, "dateTime": 1664556488228, "trialdata": {"revealed_states": [], "num_clicks_accrued": [0, 0, 0, 0, 0, 0, 0, 0, 0, 0, 0, 0, 0], "stateRewards": ["", -2, 4, -48, -48, 4, 4, 48, -48, 2, 8, 24, 48], "withholdReward": true, "trial_id": "mdp_686771069745", "block": "test3", "trialIndex": 76, "score": 60, "costs": -1, "simulationMode": [null, null, null], "rewards": [4, 4, 48], "path": ["0", "0", "5", "6", "7"], "rt": [4555, 143, 104], "actions": ["right", "right", "up"], "actionTimes": [5248, 5891, 6502], "queries": {"click": {"state": {"target": ["4", "3", "8", "7"], "time": [1519, 2257, 3171, 4176]}, "edge": {"target": [], "time": []}}, "mouseover": {"state": {"target": ["1", "4", "2", "3", "8", "7"], "time": [1082, 1281, 1981, 2014, 3031, 3864]}, "edge": {"target": [], "time": []}}, "mouseout": {"state": {"target": ["5", "1", "4", "2", "3", "8", "7"], "time": [431, 1130, 1965, 1998, 2514, 3431, 8597]}, "edge": {"target": [], "time": []}}}, "displayed_time": "9.69", "trialTime": 10347, "trial_type": "mouselab-mdp", "trial_index": 85, "time_elapsed": 1420783, "internal_node_id": "0.0-4.0-5.0-14.0"}}, {"uniqueid": "w21561113:a36980686", "current_trial": 86, "dateTime": 1664556498641, "trialdata": {"revealed_states": [], "num_clicks_accrued": [0, 0, 0, 0, 0, 0, 0, 0, 0, 0, 0, 0, 0], "stateRewards": ["", 2, 4, 48, -48, 2, -4, 48, 24, -2, -8, -24, 48], "withholdReward": true, "trial_id": "mdp_962424406744", "block": "test3", "trialIndex": 77, "score": 50.75, "costs": -0.25, "simulationMode": [null, null, null], "rewards": [2, -4, 48], "path": ["0", "0", "5", "6", "7"], "rt": [1716, 153, 64], "actions": ["right", "right", "up"], "actionTimes": [2612, 3253, 3829], "queries": {"click": {"state": {"target": ["7"], "time": [1489]}, "edge": {"target": [], "time": []}}, "mouseover": {"state": {"target": ["7"], "time": [1315]}, "edge": {"target": [], "time": []}}, "mouseout": {"state": {"target": ["6", "5", "0"], "time": [482, 648, 1216]}, "edge": {"target": [], "time": []}}}, "displayed_time": "9.90", "trialTime": 10378, "trial_type": "mouselab-mdp", "trial_index": 86, "time_elapsed": 1431196, "internal_node_id": "0.0-4.0-5.0-15.0"}}, {"uniqueid": "w21561113:a36980686", "current_trial": 87, "dateTime": 1664556509146, "trialdata": {"revealed_states": [], "num_clicks_accrued": [0, 0, 0, 0, 0, 0, 0, 0, 0, 0, 0, 0, 0], "stateRewards": ["", 2, -4, 24, 24, 2, 4, 24, 24, -4, 8, 24, 48], "withholdReward": false, "trial_id": "mdp_268430387178", "block": "test3", "trialIndex": 78, "score": 56.25, "costs": -0.75, "simulationMode": [null, null, null], "rewards": [-4, 8, 48], "path": ["0", "0", "9", "10", "12"], "rt": [3690, 130, 73], "actions": ["left", "left", "down"], "actionTimes": [4398, 5018, 5594], "queries": {"click": {"state": {"target": ["7", "11", "12"], "time": [1327, 2434, 3241]}, "edge": {"target": [], "time": []}}, "mouseover": {"state": {"target": ["7", "1", "11", "10", "12", "9"], "time": [1154, 1936, 2270, 2953, 3021, 3870]}, "edge": {"target": [], "time": []}}, "mouseout": {"state": {"target": ["7", "7", "1", "11", "10", "12", "9", "8", "8"], "time": [353, 1853, 1970, 2920, 3003, 3720, 8270, 8620, 9053]}, "edge": {"target": [], "time": []}}}, "displayed_time": "9.71", "trialTime": 10471, "trial_type": "mouselab-mdp", "trial_index": 87, "time_elapsed": 1441701, "internal_node_id": "0.0-4.0-5.0-16.0"}}, {"uniqueid": "w21561113:a36980686", "current_trial": 88, "dateTime": 1664556518615, "trialdata": {"revealed_states": [], "num_clicks_accrued": [0, 0, 0, 0, 0, 0, 0, 0, 0, 0, 0, 0, 0], "stateRewards": ["", 2, -4, 48, -24, 4, -8, -24, 48, -2, -4, 24, -48], "withholdReward": true, "trial_id": "mdp_357328205509", "block": "test3", "trialIndex": 79, "score": 48.5, "costs": -0.5, "simulationMode": [null, null, null], "rewards": [4, -8, 48], "path": ["0", "0", "5", "6", "8"], "rt": [3169, 165, 75], "actions": ["right", "right", "down"], "actionTimes": [3867, 4529, 5121], "queries": {"click": {"state": {"target": ["4", "8"], "time": [1549, 2446]}, "edge": {"target": [], "time": []}}, "mouseover": {"state": {"target": ["1", "4", "0", "8"], "time": [1164, 1363, 2013, 2297]}, "edge": {"target": [], "time": []}}, "mouseout": {"state": {"target": ["0", "1", "4", "0", "8"], "time": [1097, 1198, 1914, 2030, 3080]}, "edge": {"target": [], "time": []}}}, "displayed_time": "8.70", "trialTime": 9434, "trial_type": "mouselab-mdp", "trial_index": 88, "time_elapsed": 1451170, "internal_node_id": "0.0-4.0-5.0-17.0"}}, {"uniqueid": "w21561113:a36980686", "current_trial": 89, "dateTime": 1664556528051, "trialdata": {"revealed_states": [], "num_clicks_accrued": [0, 0, 0, 0, 0, 0, 0, 0, 0, 0, 0, 0, 0], "stateRewards": ["", 4, 8, 48, 48, 4, 4, -24, -48, 4, 8, -48, -48], "withholdReward": true, "trial_id": "mdp_984548726931", "block": "test3", "trialIndex": 80, "score": 64, "costs": -1, "simulationMode": [null, null, null], "rewards": [4, 8, 48], "path": ["0", "0", "1", "2", "3"], "rt": [5011, 179, 50], "actions": ["up", "up", "right"], "actionTimes": [5750, 6421, 6976], "queries": {"click": {"state": {"target": ["7", "8", "11", "3"], "time": [1733, 2438, 3356, 4696]}, "edge": {"target": [], "time": []}}, "mouseover": {"state": {"target": ["7", "6", "8", "11", "11", "4", "2", "3"], "time": [1574, 2158, 2242, 2892, 3258, 4075, 4291, 4425]}, "edge": {"target": [], "time": []}}, "mouseout": {"state": {"target": ["0", "7", "6", "8", "11", "11", "4", "2"], "time": [1142, 2142, 2191, 2775, 2974, 3825, 4258, 4375]}, "edge": {"target": [], "time": []}}}, "displayed_time": "8.74", "trialTime": 9398, "trial_type": "mouselab-mdp", "trial_index": 89, "time_elapsed": 1460606, "internal_node_id": "0.0-4.0-5.0-18.0"}}, {"uniqueid": "w21561113:a36980686", "current_trial": 90, "dateTime": 1664556538877, "trialdata": {"revealed_states": [], "num_clicks_accrued": [0, 0, 0, 0, 0, 0, 0, 0, 0, 0, 0, 0, 0], "stateRewards": ["", 4, 4, -24, -48, -4, 4, -48, 24, 4, -8, -48, 48], "withholdReward": false, "trial_id": "mdp_566768794366", "block": "test3", "trialIndex": 81, "score": 48, "costs": -1, "simulationMode": [null, null, null], "rewards": [4, -8, 48], "path": ["0", "0", "9", "10", "12"], "rt": [4950, 179, 94], "actions": ["left", "left", "down"], "actionTimes": [6042, 6718, 7317], "queries": {"click": {"state": {"target": ["4", "8", "3", "11"], "time": [1870, 2643, 3583, 4601]}, "edge": {"target": [], "time": []}}, "mouseover": {"state": {"target": ["1", "2", "4", "1", "5", "8", "3", "1", "11", "1"], "time": [1490, 1623, 1723, 2173, 2273, 2557, 3439, 4039, 4239, 5089]}, "edge": {"target": [], "time": []}}, "mouseout": {"state": {"target": ["3", "1", "0", "1", "2", "4", "1", "5", "8", "3", "1", "11", "1"], "time": [523, 706, 1440, 1556, 1673, 2123, 2223, 2306, 3039, 3989, 4073, 5056, 5106]}, "edge": {"target": [], "time": []}}}, "displayed_time": "10.09", "trialTime": 10789, "trial_type": "mouselab-mdp", "trial_index": 90, "time_elapsed": 1471432, "internal_node_id": "0.0-4.0-5.0-19.0"}}, {"uniqueid": "w21561113:a36980686", "current_trial": 91, "dateTime": 1664556550343, "trialdata