{"condition": 0, "counterbalance": 0, "assignmentId": "a28311492", "workerId": "w17040695", "hitId": "h63453704", "currenttrial": 977, "bonus": 0, "data": [{"uniqueid": "w17040695:a28311492", "current_trial": 0, "dateTime": 1664463910602, "trialdata": {"success": true, "trial_type": "fullscreen", "trial_index": 0, "time_elapsed": 4594, "internal_node_id": "0.0-0.0"}}, {"uniqueid": "w17040695:a28311492", "current_trial": 1, "dateTime": 1664463954902, "trialdata": {"view_history": [{"page_index": 0, "viewing_time": 44290}], "rt": 44292, "trial_id": "exp_instructions_distractor", "trial_type": "instructions", "trial_index": 1, "time_elapsed": 48896, "internal_node_id": "0.0-1.0"}}, {"uniqueid": "w17040695:a28311492", "current_trial": 2, "dateTime": 1664463990850, "trialdata": {"view_history": [{"page_index": 0, "viewing_time": 35945}], "rt": 35945, "trial_id": "color_game_instructions", "trial_type": "instructions", "trial_index": 2, "time_elapsed": 84844, "internal_node_id": "0.0-2.0"}}, {"uniqueid": "w17040695:a28311492", "current_trial": 3, "dateTime": 1664463993974, "trialdata": {"rt": 3121, "stimulus": "<h1> Get ready to start the game! </h1>\n\nThank you for reading the instructions. Get ready start with the first of 5 block(s) of this game.\n<br><br>\nIn this first block, you will complete 90 rounds of this game before moving on.\n<br><br>\nRemember, the better you perform, the bigger your bonus will be!\n<br><br>\n<div style='text-align: center;'>Press <code>space</code> to begin.</div>", "response": " ", "trial_id": "stroop_1_ready_1", "trial_type": "html-keyboard-response", "trial_index": 3, "time_elapsed": 87968, "internal_node_id": "0.0-3.0"}}, {"uniqueid": "w17040695:a28311492", "current_trial": 4, "dateTime": 1664463997201, "trialdata": {"rt": 3220, "stimulus": "<p id='stroop-text' class='stroop-yellow'>BLUE</p>", "response": "y", "stimulus-type": "incongruent", "word": "blue", "color": "yellow", "correct_response": "y", "trial_id": "stroop-trial-1-incongruent-8", "trial_type": "html-keyboard-response", "trial_index": 4, "time_elapsed": 91194, "internal_node_id": "0.0-4.0-0.0"}}, {"uniqueid": "w17040695:a28311492", "current_trial": 5, "dateTime": 1664463999388, "trialdata": {"rt": 1684, "stimulus": "<p id='stroop-text' class='stroop-yellow'>CHAIR</p>", "response": "y", "stimulus-type": "unrelated", "word": "CHAIR", "color": "yellow", "correct_response": "y", "trial_id": "stroop-trial-1-unrelated-17", "trial_type": "html-keyboard-response", "trial_index": 5, "time_elapsed": 93381, "internal_node_id": "0.0-4.0-1.0"}}, {"uniqueid": "w17040695:a28311492", "current_trial": 6, "dateTime": 1664464001223, "trialdata": {"rt": 1332, "stimulus": "<p id='stroop-text' class='stroop-yellow'>FORK</p>", "response": "y", "stimulus-type": "unrelated", "word": "FORK", "color": "yellow", "correct_response": "y", "trial_id": "stroop-trial-1-unrelated-23", "trial_type": "html-keyboard-response", "trial_index": 6, "time_elapsed": 95217, "internal_node_id": "0.0-4.0-2.0"}}, {"uniqueid": "w17040695:a28311492", "current_trial": 7, "dateTime": 1664464002845, "trialdata": {"rt": 1119, "stimulus": "<p id='stroop-text' class='stroop-yellow'>YELLOW</p>", "response": "y", "stimulus-type": "congruent", "word": "yellow", "color": "yellow", "correct_response": "y", "trial_id": "stroop-trial-1-congruent-5", "trial_type": "html-keyboard-response", "trial_index": 7, "time_elapsed": 96838, "internal_node_id": "0.0-4.0-3.0"}}, {"uniqueid": "w17040695:a28311492", "current_trial": 8, "dateTime": 1664464005305, "trialdata": {"rt": 1956, "stimulus": "<p id='stroop-text' class='stroop-blue'>DOG</p>", "response": "b", "stimulus-type": "unrelated", "word": "DOG", "color": "blue", "correct_response": "b", "trial_id": "stroop-trial-1-unrelated-9", "trial_type": "html-keyboard-response", "trial_index": 8, "time_elapsed": 99298, "internal_node_id": "0.0-4.0-4.0"}}, {"uniqueid": "w17040695:a28311492", "current_trial": 9, "dateTime": 1664464006982, "trialdata": {"rt": 1173, "stimulus": "<p id='stroop-text' class='stroop-green'>SHIP</p>", "response": "g", "stimulus-type": "unrelated", "word": "SHIP", "color": "green", "correct_response": "g", "trial_id": "stroop-trial-1-unrelated-25", "trial_type": "html-keyboard-response", "trial_index": 9, "time_elapsed": 100975, "internal_node_id": "0.0-4.0-5.0"}}, {"uniqueid": "w17040695:a28311492", "current_trial": 10, "dateTime": 1664464008572, "trialdata": {"rt": 1088, "stimulus": "<p id='stroop-text' class='stroop-blue'>RED</p>", "response": "b", "stimulus-type": "incongruent", "word": "red", "color": "blue", "correct_response": "b", "trial_id": "stroop-trial-1-incongruent-25", "trial_type": "html-keyboard-response", "trial_index": 10, "time_elapsed": 102566, "internal_node_id": "0.0-4.0-6.0"}}, {"uniqueid": "w17040695:a28311492", "current_trial": 11, "dateTime": 1664464010210, "trialdata": {"rt": 1132, "stimulus": "<p id='stroop-text' class='stroop-yellow'>YELLOW</p>", "response": "y", "stimulus-type": "congruent", "word": "yellow", "color": "yellow", "correct_response": "y", "trial_id": "stroop-trial-1-congruent-2", "trial_type": "html-keyboard-response", "trial_index": 11, "time_elapsed": 104203, "internal_node_id": "0.0-4.0-7.0"}}, {"uniqueid": "w17040695:a28311492", "current_trial": 12, "dateTime": 1664464011678, "trialdata": {"rt": 965, "stimulus": "<p id='stroop-text' class='stroop-yellow'>WINDOW</p>", "response": "y", "stimulus-type": "unrelated", "word": "WINDOW", "color": "yellow", "correct_response": "y", "trial_id": "stroop-trial-1-unrelated-20", "trial_type": "html-keyboard-response", "trial_index": 12, "time_elapsed": 105671, "internal_node_id": "0.0-4.0-8.0"}}, {"uniqueid": "w17040695:a28311492", "current_trial": 13, "dateTime": 1664464013444, "trialdata": {"rt": 1264, "stimulus": "<p id='stroop-text' class='stroop-green'>BLUE</p>", "response": "g", "stimulus-type": "incongruent", "word": "blue", "color": "green", "correct_response": "g", "trial_id": "stroop-trial-1-incongruent-11", "trial_type": "html-keyboard-response", "trial_index": 13, "time_elapsed": 107437, "internal_node_id": "0.0-4.0-9.0"}}, {"uniqueid": "w17040695:a28311492", "current_trial": 14, "dateTime": 1664464014896, "trialdata": {"rt": 950, "stimulus": "<p id='stroop-text' class='stroop-yellow'>YELLOW</p>", "response": "y", "stimulus-type": "congruent", "word": "yellow", "color": "yellow", "correct_response": "y", "trial_id": "stroop-trial-1-congruent-14", "trial_type": "html-keyboard-response", "trial_index": 14, "time_elapsed": 108890, "internal_node_id": "0.0-4.0-10.0"}}, {"uniqueid": "w17040695:a28311492", "current_trial": 15, "dateTime": 1664464016289, "trialdata": {"rt": 888, "stimulus": "<p id='stroop-text' class='stroop-yellow'>BOTTLE</p>", "response": "y", "stimulus-type": "unrelated", "word": "BOTTLE", "color": "yellow", "correct_response": "y", "trial_id": "stroop-trial-1-unrelated-4", "trial_type": "html-keyboard-response", "trial_index": 15, "time_elapsed": 110283, "internal_node_id": "0.0-4.0-11.0"}}, {"uniqueid": "w17040695:a28311492", "current_trial": 16, "dateTime": 1664464017499, "trialdata": {"rt": 707, "stimulus": "<p id='stroop-text' class='stroop-yellow'>BOTTLE</p>", "response": "y", "stimulus-type": "unrelated", "word": "BOTTLE", "color": "yellow", "correct_response": "y", "trial_id": "stroop-trial-1-unrelated-24", "trial_type": "html-keyboard-response", "trial_index": 16, "time_elapsed": 111493, "internal_node_id": "0.0-4.0-12.0"}}, {"uniqueid": "w17040695:a28311492", "current_trial": 17, "dateTime": 1664464020359, "trialdata": {"rt": 2356, "stimulus": "<p id='stroop-text' class='stroop-blue'>GREEN</p>", "response": "b", "stimulus-type": "incongruent", "word": "green", "color": "blue", "correct_response": "b", "trial_id": "stroop-trial-1-incongruent-7", "trial_type": "html-keyboard-response", "trial_index": 17, "time_elapsed": 114353, "internal_node_id": "0.0-4.0-13.0"}}, {"uniqueid": "w17040695:a28311492", "current_trial": 18, "dateTime": 1664464022058, "trialdata": {"rt": 1195, "stimulus": "<p id='stroop-text' class='stroop-green'>BRAIN</p>", "response": "g", "stimulus-type": "unrelated", "word": "BRAIN", "color": "green", "correct_response": "g", "trial_id": "stroop-trial-1-unrelated-21", "trial_type": "html-keyboard-response", "trial_index": 18, "time_elapsed": 116052, "internal_node_id": "0.0-4.0-14.0"}}, {"uniqueid": "w17040695:a28311492", "current_trial": 19, "dateTime": 1664464023425, "trialdata": {"rt": 864, "stimulus": "<p id='stroop-text' class='stroop-yellow'>YELLOW</p>", "response": "y", "stimulus-type": "congruent", "word": "yellow", "color": "yellow", "correct_response": "y", "trial_id": "stroop-trial-1-congruent-20", "trial_type": "html-keyboard-response", "trial_index": 19, "time_elapsed": 117418, "internal_node_id": "0.0-4.0-15.0"}}, {"uniqueid": "w17040695:a28311492", "current_trial": 20, "dateTime": 1664464025885, "trialdata": {"rt": 1955, "stimulus": "<p id='stroop-text' class='stroop-yellow'>BLUE</p>", "response": "y", "stimulus-type": "incongruent", "word": "blue", "color": "yellow", "correct_response": "y", "trial_id": "stroop-trial-1-incongruent-5", "trial_type": "html-keyboard-response", "trial_index": 20, "time_elapsed": 119878, "internal_node_id": "0.0-4.0-16.0"}}, {"uniqueid": "w17040695:a28311492", "current_trial": 21, "dateTime": 1664464028012, "trialdata": {"rt": 1624, "stimulus": "<p id='stroop-text' class='stroop-red'>RED</p>", "response": "r", "stimulus-type": "congruent", "word": "red", "color": "red", "correct_response": "r", "trial_id": "stroop-trial-1-congruent-25", "trial_type": "html-keyboard-response", "trial_index": 21, "time_elapsed": 122006, "internal_node_id": "0.0-4.0-17.0"}}, {"uniqueid": "w17040695:a28311492", "current_trial": 22, "dateTime": 1664464029494, "trialdata": {"rt": 977, "stimulus": "<p id='stroop-text' class='stroop-yellow'>WINDOW</p>", "response": "y", "stimulus-type": "unrelated", "word": "WINDOW", "color": "yellow", "correct_response": "y", "trial_id": "stroop-trial-1-unrelated-26", "trial_type": "html-keyboard-response", "trial_index": 22, "time_elapsed": 123487, "internal_node_id": "0.0-4.0-18.0"}}, {"uniqueid": "w17040695:a28311492", "current_trial": 23, "dateTime": 1664464030714, "trialdata": {"rt": 716, "stimulus": "<p id='stroop-text' class='stroop-yellow'>BRIDGE</p>", "response": "y", "stimulus-type": "unrelated", "word": "BRIDGE", "color": "yellow", "correct_response": "y", "trial_id": "stroop-trial-1-unrelated-6", "trial_type": "html-keyboard-response", "trial_index": 23, "time_elapsed": 124708, "internal_node_id": "0.0-4.0-19.0"}}, {"uniqueid": "w17040695:a28311492", "current_trial": 24, "dateTime": 1664464032840, "trialdata": {"rt": 1622, "stimulus": "<p id='stroop-text' class='stroop-blue'>GREEN</p>", "response": "b", "stimulus-type": "incongruent", "word": "green", "color": "blue", "correct_response": "b", "trial_id": "stroop-trial-1-incongruent-26", "trial_type": "html-keyboard-response", "trial_index": 24, "time_elapsed": 126833, "internal_node_id": "0.0-4.0-20.0"}}, {"uniqueid": "w17040695:a28311492", "current_trial": 25, "dateTime": 1664464034179, "trialdata": {"rt": 837, "stimulus": "<p id='stroop-text' class='stroop-blue'>RED</p>", "response": "b", "stimulus-type": "incongruent", "word": "red", "color": "blue", "correct_response": "b", "trial_id": "stroop-trial-1-incongruent-4", "trial_type": "html-keyboard-response", "trial_index": 25, "time_elapsed": 128173, "internal_node_id": "0.0-4.0-21.0"}}, {"uniqueid": "w17040695:a28311492", "current_trial": 26, "dateTime": 1664464035744, "trialdata": {"rt": 1063, "stimulus": "<p id='stroop-text' class='stroop-red'>GREEN</p>", "response": "r", "stimulus-type": "incongruent", "word": "green", "color": "red", "correct_response": "r", "trial_id": "stroop-trial-1-incongruent-27", "trial_type": "html-keyboard-response", "trial_index": 26, "time_elapsed": 129738, "internal_node_id": "0.0-4.0-22.0"}}, {"uniqueid": "w17040695:a28311492", "current_trial": 27, "dateTime": 1664464037149, "trialdata": {"rt": 901, "stimulus": "<p id='stroop-text' class='stroop-yellow'>BRAIN</p>", "response": "y", "stimulus-type": "unrelated", "word": "BRAIN", "color": "yellow", "correct_response": "y", "trial_id": "stroop-trial-1-unrelated-10", "trial_type": "html-keyboard-response", "trial_index": 27, "time_elapsed": 131143, "internal_node_id": "0.0-4.0-23.0"}}, {"uniqueid": "w17040695:a28311492", "current_trial": 28, "dateTime": 1664464038357, "trialdata": {"rt": 704, "stimulus": "<p id='stroop-text' class='stroop-yellow'>YELLOW</p>", "response": "y", "stimulus-type": "congruent", "word": "yellow", "color": "yellow", "correct_response": "y", "trial_id": "stroop-trial-1-congruent-11", "trial_type": "html-keyboard-response", "trial_index": 28, "time_elapsed": 132351, "internal_node_id": "0.0-4.0-24.0"}}, {"uniqueid": "w17040695:a28311492", "current_trial": 29, "dateTime": 1664464040949, "trialdata": {"rt": 2089, "stimulus": "<p id='stroop-text' class='stroop-blue'>BLUE</p>", "response": "b", "stimulus-type": "congruent", "word": "blue", "color": "blue", "correct_response": "b", "trial_id": "stroop-trial-1-congruent-17", "trial_type": "html-keyboard-response", "trial_index": 29, "time_elapsed": 134943, "internal_node_id": "0.0-4.0-25.0"}}, {"uniqueid": "w17040695:a28311492", "current_trial": 30, "dateTime": 1664464042848, "trialdata": {"rt": 1397, "stimulus": "<p id='stroop-text' class='stroop-blue'>GREEN</p>", "response": "b", "stimulus-type": "incongruent", "word": "green", "color": "blue", "correct_response": "b", "trial_id": "stroop-trial-1-incongruent-21", "trial_type": "html-keyboard-response", "trial_index": 30, "time_elapsed": 136842, "internal_node_id": "0.0-4.0-26.0"}}, {"uniqueid": "w17040695:a28311492", "current_trial": 31, "dateTime": 1664464044779, "trialdata": {"rt": 1425, "stimulus": "<p id='stroop-text' class='stroop-blue'>STONE</p>", "response": "b", "stimulus-type": "unrelated", "word": "STONE", "color": "blue", "correct_response": "b", "trial_id": "stroop-trial-1-unrelated-15", "trial_type": "html-keyboard-response", "trial_index": 31, "time_elapsed": 138772, "internal_node_id": "0.0-4.0-27.0"}}, {"uniqueid": "w17040695:a28311492", "current_trial": 32, "dateTime": 1664464046475, "trialdata": {"rt": 1193, "stimulus": "<p id='stroop-text' class='stroop-green'>YELLOW</p>", "response": "g", "stimulus-type": "incongruent", "word": "yellow", "color": "green", "correct_response": "g", "trial_id": "stroop-trial-1-incongruent-28", "trial_type": "html-keyboard-response", "trial_index": 32, "time_elapsed": 140469, "internal_node_id": "0.0-4.0-28.0"}}, {"uniqueid": "w17040695:a28311492", "current_trial": 33, "dateTime": 1664464047880, "trialdata": {"rt": 902, "stimulus": "<p id='stroop-text' class='stroop-red'>STONE</p>", "response": "r", "stimulus-type": "unrelated", "word": "STONE", "color": "red", "correct_response": "r", "trial_id": "stroop-trial-1-unrelated-2", "trial_type": "html-keyboard-response", "trial_index": 33, "time_elapsed": 141873, "internal_node_id": "0.0-4.0-29.0"}}, {"uniqueid": "w17040695:a28311492", "current_trial": 34, "dateTime": 1664464049391, "trialdata": {"rt": 1007, "stimulus": "<p id='stroop-text' class='stroop-green'>BRAIN</p>", "response": "g", "stimulus-type": "unrelated", "word": "BRAIN", "color": "green", "correct_response": "g", "trial_id": "stroop-trial-1-unrelated-19", "trial_type": "html-keyboard-response", "trial_index": 34, "time_elapsed": 143385, "internal_node_id": "0.0-4.0-30.0"}}, {"uniqueid": "w17040695:a28311492", "current_trial": 35, "dateTime": 1664464050854, "trialdata": {"rt": 957, "stimulus": "<p id='stroop-text' class='stroop-green'>MONKEY</p>", "response": "g", "stimulus-type": "unrelated", "word": "MONKEY", "color": "green", "correct_response": "g", "trial_id": "stroop-trial-1-unrelated-13", "trial_type": "html-keyboard-response", "trial_index": 35, "time_elapsed": 144847, "internal_node_id": "0.0-4.0-31.0"}}, {"uniqueid": "w17040695:a28311492", "current_trial": 36, "dateTime": 1664464051987, "trialdata": {"rt": 628, "stimulus": "<p id='stroop-text' class='stroop-green'>FORK</p>", "response": "g", "stimulus-type": "unrelated", "word": "FORK", "color": "green", "correct_response": "g", "trial_id": "stroop-trial-1-unrelated-1", "trial_type": "html-keyboard-response", "trial_index": 36, "time_elapsed": 145981, "internal_node_id": "0.0-4.0-32.0"}}, {"uniqueid": "w17040695:a28311492", "current_trial": 37, "dateTime": 1664464053279, "trialdata": {"rt": 788, "stimulus": "<p id='stroop-text' class='stroop-yellow'>BRIDGE</p>", "response": "y", "stimulus-type": "unrelated", "word": "BRIDGE", "color": "yellow", "correct_response": "y", "trial_id": "stroop-trial-1-unrelated-16", "trial_type": "html-keyboard-response", "trial_index": 37, "time_elapsed": 147273, "internal_node_id": "0.0-4.0-33.0"}}, {"uniqueid": "w17040695:a28311492", "current_trial": 38, "dateTime": 1664464054547, "trialdata": {"rt": 764, "stimulus": "<p id='stroop-text' class='stroop-yellow'>BLUE</p>", "response": "y", "stimulus-type": "incongruent", "word": "blue", "color": "yellow", "correct_response": "y", "trial_id": "stroop-trial-1-incongruent-16", "trial_type": "html-keyboard-response", "trial_index": 38, "time_elapsed": 148541, "internal_node_id": "0.0-4.0-34.0"}}, {"uniqueid": "w17040695:a28311492", "current_trial": 39, "dateTime": 1664464055900, "trialdata": {"rt": 849, "stimulus": "<p id='stroop-text' class='stroop-green'>GREEN</p>", "response": "g", "stimulus-type": "congruent", "word": "green", "color": "green", "correct_response": "g", "trial_id": "stroop-trial-1-congruent-18", "trial_type": "html-keyboard-response", "trial_index": 39, "time_elapsed": 149894, "internal_node_id": "0.0-4.0-35.0"}}, {"uniqueid": "w17040695:a28311492", "current_trial": 40, "dateTime": 1664464057169, "trialdata": {"rt": 766, "stimulus": "<p id='stroop-text' class='stroop-yellow'>YELLOW</p>", "response": "y", "stimulus-type": "congruent", "word": "yellow", "color": "yellow", "correct_response": "y", "trial_id": "stroop-trial-1-congruent-1", "trial_type": "html-keyboard-response", "trial_index": 40, "time_elapsed": 151163, "internal_node_id": "0.0-4.0-36.0"}}, {"uniqueid": "w17040695:a28311492", "current_trial": 41, "dateTime": 1664464058571, "trialdata": {"rt": 899, "stimulus": "<p id='stroop-text' class='stroop-yellow'>RED</p>", "response": "r", "stimulus-type": "incongruent", "word": "red", "color": "yellow", "correct_response": "y", "trial_id": "stroop-trial-1-incongruent-2", "trial_type": "html-keyboard-response", "trial_index": 41, "time_elapsed": 152565, "internal_node_id": "0.0-4.0-37.0"}}, {"uniqueid": "w17040695:a28311492", "current_trial": 42, "dateTime": 1664464061106, "trialdata": {"rt": 2032, "stimulus": "<p id='stroop-text' class='stroop-green'>WINDOW</p>", "response": "g", "stimulus-type": "unrelated", "word": "WINDOW", "color": "green", "correct_response": "g", "trial_id": "stroop-trial-1-unrelated-7", "trial_type": "html-keyboard-response", "trial_index": 42, "time_elapsed": 155099, "internal_node_id": "0.0-4.0-38.0"}}, {"uniqueid": "w17040695:a28311492", "current_trial": 43, "dateTime": 1664464062467, "trialdata": {"rt": 856, "stimulus": "<p id='stroop-text' class='stroop-green'>GREEN</p>", "response": "g", "stimulus-type": "congruent", "word": "green", "color": "green", "correct_response": "g", "trial_id": "stroop-trial-1-congruent-22", "trial_type": "html-keyboard-response", "trial_index": 43, "time_elapsed": 156461, "internal_node_id": "0.0-4.0-39.0"}}, {"uniqueid": "w17040695:a28311492", "current_trial": 44, "dateTime": 1664464065010, "trialdata": {"rt": 2040, "stimulus": "<p id='stroop-text' class='stroop-blue'>GREEN</p>", "response": "b", "stimulus-type": "incongruent", "word": "green", "color": "blue", "correct_response": "b", "trial_id": "stroop-trial-1-incongruent-12", "trial_type": "html-keyboard-response", "trial_index": 44, "time_elapsed": 159004, "internal_node_id": "0.0-4.0-40.0"}}, {"uniqueid": "w17040695:a28311492", "current_trial": 45, "dateTime": 1664464066222, "trialdata": {"rt": 710, "stimulus": "<p id='stroop-text' class='stroop-blue'>RED</p>", "response": "b", "stimulus-type": "incongruent", "word": "red", "color": "blue", "correct_response": "b", "trial_id": "stroop-trial-1-incongruent-30", "trial_type": "html-keyboard-response", "trial_index": 45, "time_elapsed": 160216, "internal_node_id": "0.0-4.0-41.0"}}, {"uniqueid": "w17040695:a28311492", "current_trial": 46, "dateTime": 1664464067842, "trialdata": {"rt": 1116, "stimulus": "<p id='stroop-text' class='stroop-yellow'>BLUE</p>", "response": "y", "stimulus-type": "incongruent", "word": "blue", "color": "yellow", "correct_response": "y", "trial_id": "stroop-trial-1-incongruent-22", "trial_type": "html-keyboard-response", "trial_index": 46, "time_elapsed": 161835, "internal_node_id": "0.0-4.0-42.0"}}, {"uniqueid": "w17040695:a28311492", "current_trial": 47, "dateTime": 1664464069031, "trialdata": {"rt": 686, "stimulus": "<p id='stroop-text' class='stroop-yellow'>YELLOW</p>", "response": "y", "stimulus-type": "congruent", "word": "yellow", "color": "yellow", "correct_response": "y", "trial_id": "stroop-trial-1-congruent-10", "trial_type": "html-keyboard-response", "trial_index": 47, "time_elapsed": 163024, "internal_node_id": "0.0-4.0-43.0"}}, {"uniqueid": "w17040695:a28311492", "current_trial": 48, "dateTime": 1664464070872, "trialdata": {"rt": 1338, "stimulus": "<p id='stroop-text' class='stroop-blue'>RED</p>", "response": "b", "stimulus-type": "incongruent", "word": "red", "color": "blue", "correct_response": "b", "trial_id": "stroop-trial-1-incongruent-10", "trial_type": "html-keyboard-response", "trial_index": 48, "time_elapsed": 164866, "internal_node_id": "0.0-4.0-44.0"}}, {"uniqueid": "w17040695:a28311492", "current_trial": 49, "dateTime": 1664464072763, "trialdata": {"rt": 1388, "stimulus": "<p id='stroop-text' class='stroop-green'>GREEN</p>", "response": "g", "stimulus-type": "congruent", "word": "green", "color": "green", "correct_response": "g", "trial_id": "stroop-trial-1-congruent-6", "trial_type": "html-keyboard-response", "trial_index": 49, "time_elapsed": 166757, "internal_node_id": "0.0-4.0-45.0"}}, {"uniqueid": "w17040695:a28311492", "current_trial": 50, "dateTime": 1664464074186, "trialdata": {"rt": 920, "stimulus": "<p id='stroop-text' class='stroop-blue'>BLUE</p>", "response": "b", "stimulus-type": "congruent", "word": "blue", "color": "blue", "correct_response": "b", "trial_id": "stroop-trial-1-congruent-3", "trial_type": "html-keyboard-response", "trial_index": 50, "time_elapsed": 168180, "internal_node_id": "0.0-4.0-46.0"}}, {"uniqueid": "w17040695:a28311492", "current_trial": 51, "dateTime": 1664464075303, "trialdata": {"rt": 614, "stimulus": "<p id='stroop-text' class='stroop-blue'>BLUE</p>", "response": "b", "stimulus-type": "congruent", "word": "blue", "color": "blue", "correct_response": "b", "trial_id": "stroop-trial-1-congruent-15", "trial_type": "html-keyboard-response", "trial_index": 51, "time_elapsed": 169296, "internal_node_id": "0.0-4.0-47.0"}}, {"uniqueid": "w17040695:a28311492", "current_trial": 52, "dateTime": 1664464076681, "trialdata": {"rt": 874, "stimulus": "<p id='stroop-text' class='stroop-red'>GREEN</p>", "response": "r", "stimulus-type": "incongruent", "word": "green", "color": "red", "correct_response": "r", "trial_id": "stroop-trial-1-incongruent-19", "trial_type": "html-keyboard-response", "trial_index": 52, "time_elapsed": 170674, "internal_node_id": "0.0-4.0-48.0"}}, {"uniqueid": "w17040695:a28311492", "current_trial": 53, "dateTime": 1664464078184, "trialdata": {"rt": 1000, "stimulus": "<p id='stroop-text' class='stroop-yellow'>RED</p>", "response": "y", "stimulus-type": "incongruent", "word": "red", "color": "yellow", "correct_response": "y", "trial_id": "stroop-trial-1-incongruent-6", "trial_type": "html-keyboard-response", "trial_index": 53, "time_elapsed": 172178, "internal_node_id": "0.0-4.0-49.0"}}, {"uniqueid": "w17040695:a28311492", "current_trial": 54, "dateTime": 1664464079298, "trialdata": {"rt": 610, "stimulus": "<p id='stroop-text' class='stroop-yellow'>YELLOW</p>", "response": "y", "stimulus-type": "congruent", "word": "yellow", "color": "yellow", "correct_response": "y", "trial_id": "stroop-trial-1-congruent-12", "trial_type": "html-keyboard-response", "trial_index": 54, "time_elapsed": 173292, "internal_node_id": "0.0-4.0-50.0"}}, {"uniqueid": "w17040695:a28311492", "current_trial": 55, "dateTime": 1664464080291, "trialdata": {"rt": 488, "stimulus": "<p id='stroop-text' class='stroop-yellow'>GREEN</p>", "response": "y", "stimulus-type": "incongruent", "word": "green", "color": "yellow", "correct_response": "y", "trial_id": "stroop-trial-1-incongruent-13", "trial_type": "html-keyboard-response", "trial_index": 55, "time_elapsed": 174285, "internal_node_id": "0.0-4.0-51.0"}}, {"uniqueid": "w17040695:a28311492", "current_trial": 56, "dateTime": 1664464081770, "trialdata": {"rt": 974, "stimulus": "<p id='stroop-text' class='stroop-green'>GREEN</p>", "response": "g", "stimulus-type": "congruent", "word": "green", "color": "green", "correct_response": "g", "trial_id": "stroop-trial-1-congruent-28", "trial_type": "html-keyboard-response", "trial_index": 56, "time_elapsed": 175764, "internal_node_id": "0.0-4.0-52.0"}}, {"uniqueid": "w17040695:a28311492", "current_trial": 57, "dateTime": 1664464083082, "trialdata": {"rt": 809, "stimulus": "<p id='stroop-text' class='stroop-red'>BOAT</p>", "response": "r", "stimulus-type": "unrelated", "word": "BOAT", "color": "red", "correct_response": "r", "trial_id": "stroop-trial-1-unrelated-18", "trial_type": "html-keyboard-response", "trial_index": 57, "time_elapsed": 177076, "internal_node_id": "0.0-4.0-53.0"}}, {"uniqueid": "w17040695:a28311492", "current_trial": 58, "dateTime": 1664464084514, "trialdata": {"rt": 929, "stimulus": "<p id='stroop-text' class='stroop-blue'>BLUE</p>", "response": "b", "stimulus-type": "congruent", "word": "blue", "color": "blue", "correct_response": "b", "trial_id": "stroop-trial-1-congruent-30", "trial_type": "html-keyboard-response", "trial_index": 58, "time_elapsed": 178508, "internal_node_id": "0.0-4.0-54.0"}}, {"uniqueid": "w17040695:a28311492", "current_trial": 59, "dateTime": 1664464086170, "trialdata": {"rt": 1153, "stimulus": "<p id='stroop-text' class='stroop-green'>BLUE</p>", "response": "g", "stimulus-type": "incongruent", "word": "blue", "color": "green", "correct_response": "g", "trial_id": "stroop-trial-1-incongruent-20", "trial_type": "html-keyboard-response", "trial_index": 59, "time_elapsed": 180164, "internal_node_id": "0.0-4.0-55.0"}}, {"uniqueid": "w17040695:a28311492", "current_trial": 60, "dateTime": 1664464087407, "trialdata": {"rt": 734, "stimulus": "<p id='stroop-text' class='stroop-blue'>BLUE</p>", "response": "b", "stimulus-type": "congruent", "word": "blue", "color": "blue", "correct_response": "b", "trial_id": "stroop-trial-1-congruent-21", "trial_type": "html-keyboard-response", "trial_index": 60, "time_elapsed": 181400, "internal_node_id": "0.0-4.0-56.0"}}, {"uniqueid": "w17040695:a28311492", "current_trial": 61, "dateTime": 1664464088812, "trialdata": {"rt": 902, "stimulus": "<p id='stroop-text' class='stroop-green'>BOTTLE</p>", "response": "g", "stimulus-type": "unrelated", "word": "BOTTLE", "color": "green", "correct_response": "g", "trial_id": "stroop-trial-1-unrelated-5", "trial_type": "html-keyboard-response", "trial_index": 61, "time_elapsed": 182806, "internal_node_id": "0.0-4.0-57.0"}}, {"uniqueid": "w17040695:a28311492", "current_trial": 62, "dateTime": 1664464090133, "trialdata": {"rt": 818, "stimulus": "<p id='stroop-text' class='stroop-green'>DOG</p>", "response": "g", "stimulus-type": "unrelated", "word": "DOG", "color": "green", "correct_response": "g", "trial_id": "stroop-trial-1-unrelated-3", "trial_type": "html-keyboard-response", "trial_index": 62, "time_elapsed": 184127, "internal_node_id": "0.0-4.0-58.0"}}, {"uniqueid": "w17040695:a28311492", "current_trial": 63, "dateTime": 1664464091680, "trialdata": {"rt": 1041, "stimulus": "<p id='stroop-text' class='stroop-blue'>MONKEY</p>", "response": "b", "stimulus-type": "unrelated", "word": "MONKEY", "color": "blue", "correct_response": "b", "trial_id": "stroop-trial-1-unrelated-28", "trial_type": "html-keyboard-response", "trial_index": 63, "time_elapsed": 185673, "internal_node_id": "0.0-4.0-59.0"}}, {"uniqueid": "w17040695:a28311492", "current_trial": 64, "dateTime": 1664464093277, "trialdata": {"rt": 1094, "stimulus": "<p id='stroop-text' class='stroop-red'>BLUE</p>", "response": "r", "stimulus-type": "incongruent", "word": "blue", "color": "red", "correct_response": "r", "trial_id": "stroop-trial-1-incongruent-15", "trial_type": "html-keyboard-response", "trial_index": 64, "time_elapsed": 187271, "internal_node_id": "0.0-4.0-60.0"}}, {"uniqueid": "w17040695:a28311492", "current_trial": 65, "dateTime": 1664464095496, "trialdata": {"rt": 1715, "stimulus": "<p id='stroop-text' class='stroop-blue'>YELLOW</p>", "response": "b", "stimulus-type": "incongruent", "word": "yellow", "color": "blue", "correct_response": "b", "trial_id": "stroop-trial-1-incongruent-29", "trial_type": "html-keyboard-response", "trial_index": 65, "time_elapsed": 189489, "internal_node_id": "0.0-4.0-61.0"}}, {"uniqueid": "w17040695:a28311492", "current_trial": 66, "dateTime": 1664464096545, "trialdata": {"rt": 545, "stimulus": "<p id='stroop-text' class='stroop-blue'>BLUE</p>", "response": "b", "stimulus-type": "congruent", "word": "blue", "color": "blue", "correct_response": "b", "trial_id": "stroop-trial-1-congruent-7", "trial_type": "html-keyboard-response", "trial_index": 66, "time_elapsed": 190539, "internal_node_id": "0.0-4.0-62.0"}}, {"uniqueid": "w17040695:a28311492", "current_trial": 67, "dateTime": 1664464097752, "trialdata": {"rt": 702, "stimulus": "<p id='stroop-text' class='stroop-yellow'>YELLOW</p>", "response": "y", "stimulus-type": "congruent", "word": "yellow", "color": "yellow", "correct_response": "y", "trial_id": "stroop-trial-1-congruent-24", "trial_type": "html-keyboard-response", "trial_index": 67, "time_elapsed": 191746, "internal_node_id": "0.0-4.0-63.0"}}, {"uniqueid": "w17040695:a28311492", "current_trial": 68, "dateTime": 1664464099132, "trialdata": {"rt": 877, "stimulus": "<p id='stroop-text' class='stroop-green'>GREEN</p>", "response": "g", "stimulus-type": "congruent", "word": "green", "color": "green", "correct_response": "g", "trial_id": "stroop-trial-1-congruent-8", "trial_type": "html-keyboard-response", "trial_index": 68, "time_elapsed": 193126, "internal_node_id": "0.0-4.0-64.0"}}, {"uniqueid": "w17040695:a28311492", "current_trial": 69, "dateTime": 1664464100776, "trialdata": {"rt": 1142, "stimulus": "<p id='stroop-text' class='stroop-yellow'>BLUE</p>", "response": "y", "stimulus-type": "incongruent", "word": "blue", "color": "yellow", "correct_response": "y", "trial_id": "stroop-trial-1-incongruent-9", "trial_type": "html-keyboard-response", "trial_index": 69, "time_elapsed": 194770, "internal_node_id": "0.0-4.0-65.0"}}, {"uniqueid": "w17040695:a28311492", "current_trial": 70, "dateTime": 1664464102501, "trialdata": {"rt": 1222, "stimulus": "<p id='stroop-text' class='stroop-blue'>MONKEY</p>", "response": "b", "stimulus-type": "unrelated", "word": "MONKEY", "color": "blue", "correct_response": "b", "trial_id": "stroop-trial-1-unrelated-29", "trial_type": "html-keyboard-response", "trial_index": 70, "time_elapsed": 196495, "internal_node_id": "0.0-4.0-66.0"}}, {"uniqueid": "w17040695:a28311492", "current_trial": 71, "dateTime": 1664464103710, "trialdata": {"rt": 706, "stimulus": "<p id='stroop-text' class='stroop-red'>RED</p>", "response": "r", "stimulus-type": "congruent", "word": "red", "color": "red", "correct_response": "r", "trial_id": "stroop-trial-1-congruent-4", "trial_type": "html-keyboard-response", "trial_index": 71, "time_elapsed": 197704, "internal_node_id": "0.0-4.0-67.0"}}, {"uniqueid": "w17040695:a28311492", "current_trial": 72, "dateTime": 1664464104818, "trialdata": {"rt": 603, "stimulus": "<p id='stroop-text' class='stroop-red'>BRIDGE</p>", "response": "r", "stimulus-type": "unrelated", "word": "BRIDGE", "color": "red", "correct_response": "r", "trial_id": "stroop-trial-1-unrelated-11", "trial_type": "html-keyboard-response", "trial_index": 72, "time_elapsed": 198812, "internal_node_id": "0.0-4.0-68.0"}}, {"uniqueid": "w17040695:a28311492", "current_trial": 73, "dateTime": 1664464106132, "trialdata": {"rt": 809, "stimulus": "<p id='stroop-text' class='stroop-green'>WINDOW</p>", "response": "g", "stimulus-type": "unrelated", "word": "WINDOW", "color": "green", "correct_response": "g", "trial_id": "stroop-trial-1-unrelated-30", "trial_type": "html-keyboard-response", "trial_index": 73, "time_elapsed": 200126, "internal_node_id": "0.0-4.0-69.0"}}, {"uniqueid": "w17040695:a28311492", "current_trial": 74, "dateTime": 1664464107926, "trialdata": {"rt": 1290, "stimulus": "<p id='stroop-text' class='stroop-red'>YELLOW</p>", "response": "r", "stimulus-type": "incongruent", "word": "yellow", "color": "red", "correct_response": "r", "trial_id": "stroop-trial-1-incongruent-3", "trial_type": "html-keyboard-response", "trial_index": 74, "time_elapsed": 201920, "internal_node_id": "0.0-4.0-70.0"}}, {"uniqueid": "w17040695:a28311492", "current_trial": 75, "dateTime": 1664464109271, "trialdata": {"rt": 841, "stimulus": "<p id='stroop-text' class='stroop-yellow'>YELLOW</p>", "response": "y", "stimulus-type": "congruent", "word": "yellow", "color": "yellow", "correct_response": "y", "trial_id": "stroop-trial-1-congruent-9", "trial_type": "html-keyboard-response", "trial_index": 75, "time_elapsed": 203265, "internal_node_id": "0.0-4.0-71.0"}}, {"uniqueid": "w17040695:a28311492", "current_trial": 76, "dateTime": 1664464110638, "trialdata": {"rt": 863, "stimulus": "<p id='stroop-text' class='stroop-yellow'>RED</p>", "response": "y", "stimulus-type": "incongruent", "word": "red", "color": "yellow", "correct_response": "y", "trial_id": "stroop-trial-1-incongruent-18", "trial_type": "html-keyboard-response", "trial_index": 76, "time_elapsed": 204632, "internal_node_id": "0.0-4.0-72.0"}}, {"uniqueid": "w17040695:a28311492", "current_trial": 77, "dateTime": 1664464111732, "trialdata": {"rt": 588, "stimulus": "<p id='stroop-text' class='stroop-yellow'>YELLOW</p>", "response": "y", "stimulus-type": "congruent", "word": "yellow", "color": "yellow", "correct_response": "y", "trial_id": "stroop-trial-1-congruent-13", "trial_type": "html-keyboard-response", "trial_index": 77, "time_elapsed": 205725, "internal_node_id": "0.0-4.0-73.0"}}, {"uniqueid": "w17040695:a28311492", "current_trial": 78, "dateTime": 1664464113043, "trialdata": {"rt": 806, "stimulus": "<p id='stroop-text' class='stroop-blue'>STONE</p>", "response": "b", "stimulus-type": "unrelated", "word": "STONE", "color": "blue", "correct_response": "b", "trial_id": "stroop-trial-1-unrelated-14", "trial_type": "html-keyboard-response", "trial_index": 78, "time_elapsed": 207036, "internal_node_id": "0.0-4.0-74.0"}}, {"uniqueid": "w17040695:a28311492", "current_trial": 79, "dateTime": 1664464114720, "trialdata": {"rt": 1174, "stimulus": "<p id='stroop-text' class='stroop-red'>RED</p>", "response": "r", "stimulus-type": "congruent", "word": "red", "color": "red", "correct_response": "r", "trial_id": "stroop-trial-1-congruent-27", "trial_type": "html-keyboard-response", "trial_index": 79, "time_elapsed": 208713, "internal_node_id": "0.0-4.0-75.0"}}, {"uniqueid": "w17040695:a28311492", "current_trial": 80, "dateTime": 1664464116015, "trialdata": {"rt": 792, "stimulus": "<p id='stroop-text' class='stroop-yellow'>BLUE</p>", "response": "y", "stimulus-type": "incongruent", "word": "blue", "color": "yellow", "correct_response": "y", "trial_id": "stroop-trial-1-incongruent-23", "trial_type": "html-keyboard-response", "trial_index": 80, "time_elapsed": 210009, "internal_node_id": "0.0-4.0-76.0"}}, {"uniqueid": "w17040695:a28311492", "current_trial": 81, "dateTime": 1664464117406, "trialdata": {"rt": 888, "stimulus": "<p id='stroop-text' class='stroop-red'>GREEN</p>", "response": "r", "stimulus-type": "incongruent", "word": "green", "color": "red", "correct_response": "r", "trial_id": "stroop-trial-1-incongruent-14", "trial_type": "html-keyboard-response", "trial_index": 81, "time_elapsed": 211399, "internal_node_id": "0.0-4.0-77.0"}}, {"uniqueid": "w17040695:a28311492", "current_trial": 82, "dateTime": 1664464118847, "trialdata": {"rt": 936, "stimulus": "<p id='stroop-text' class='stroop-green'>GREEN</p>", "response": "g", "stimulus-type": "congruent", "word": "green", "color": "green", "correct_response": "g", "trial_id": "stroop-trial-1-congruent-26", "trial_type": "html-keyboard-response", "trial_index": 82, "time_elapsed": 212840, "internal_node_id": "0.0-4.0-78.0"}}, {"uniqueid": "w17040695:a28311492", "current_trial": 83, "dateTime": 1664464120164, "trialdata": {"rt": 814, "stimulus": "<p id='stroop-text' class='stroop-yellow'>RED</p>", "response": "y", "stimulus-type": "incongruent", "word": "red", "color": "yellow", "correct_response": "y", "trial_id": "stroop-trial-1-incongruent-24", "trial_type": "html-keyboard-response", "trial_index": 83, "time_elapsed": 214158, "internal_node_id": "0.0-4.0-79.0"}}, {"uniqueid": "w17040695:a28311492", "current_trial": 84, "dateTime": 1664464121350, "trialdata": {"rt": 682, "stimulus": "<p id='stroop-text' class='stroop-yellow'>BOTTLE</p>", "response": "y", "stimulus-type": "unrelated", "word": "BOTTLE", "color": "yellow", "correct_response": "y", "trial_id": "stroop-trial-1-unrelated-12", "trial_type": "html-keyboard-response", "trial_index": 84, "time_elapsed": 215344, "internal_node_id": "0.0-4.0-80.0"}}, {"uniqueid": "w17040695:a28311492", "current_trial": 85, "dateTime": 1664464123505, "trialdata": {"rt": 1652, "stimulus": "<p id='stroop-text' class='stroop-green'>BLUE</p>", "response": "g", "stimulus-type": "incongruent", "word": "blue", "color": "green", "correct_response": "g", "trial_id": "stroop-trial-1-incongruent-1", "trial_type": "html-keyboard-response", "trial_index": 85, "time_elapsed": 217499, "internal_node_id": "0.0-4.0-81.0"}}, {"uniqueid": "w17040695:a28311492", "current_trial": 86, "dateTime": 1664464124898, "trialdata": {"rt": 888, "stimulus": "<p id='stroop-text' class='stroop-red'>MONKEY</p>", "response": "r", "stimulus-type": "unrelated", "word": "MONKEY", "color": "red", "correct_response": "r", "trial_id": "stroop-trial-1-unrelated-27", "trial_type": "html-keyboard-response", "trial_index": 86, "time_elapsed": 218892, "internal_node_id": "0.0-4.0-82.0"}}, {"uniqueid": "w17040695:a28311492", "current_trial": 87, "dateTime": 1664464126341, "trialdata": {"rt": 938, "stimulus": "<p id='stroop-text' class='stroop-blue'>BLUE</p>", "response": "b", "stimulus-type": "congruent", "word": "blue", "color": "blue", "correct_response": "b", "trial_id": "stroop-trial-1-congruent-19", "trial_type": "html-keyboard-response", "trial_index": 87, "time_elapsed": 220335, "internal_node_id": "0.0-4.0-83.0"}}, {"uniqueid": "w17040695:a28311492", "current_trial": 88, "dateTime": 1664464127909, "trialdata": {"rt": 1065, "stimulus": "<p id='stroop-text' class='stroop-green'>RED</p>", "response": "g", "stimulus-type": "incongruent", "word": "red", "color": "green", "correct_response": "g", "trial_id": "stroop-trial-1-incongruent-17", "trial_type": "html-keyboard-response", "trial_index": 88, "time_elapsed": 221903, "internal_node_id": "0.0-4.0-84.0"}}, {"uniqueid": "w17040695:a28311492", "current_trial": 89, "dateTime": 1664464129250, "trialdata": {"rt": 837, "stimulus": "<p id='stroop-text' class='stroop-yellow'>YELLOW</p>", "response": "y", "stimulus-type": "congruent", "word": "yellow", "color": "yellow", "correct_response": "y", "trial_id": "stroop-trial-1-congruent-29", "trial_type": "html-keyboard-response", "trial_index": 89, "time_elapsed": 223244, "internal_node_id": "0.0-4.0-85.0"}}, {"uniqueid": "w17040695:a28311492", "current_trial": 90, "dateTime": 1664464130795, "trialdata": {"rt": 1040, "stimulus": "<p id='stroop-text' class='stroop-blue'>BLUE</p>", "response": "b", "stimulus-type": "congruent", "word": "blue", "color": "blue", "correct_response": "b", "trial_id": "stroop-trial-1-congruent-23", "trial_type": "html-keyboard-response", "trial_index": 90, "time_elapsed": 224789, "internal_node_id": "0.0-4.0-86.0"}}, {"uniqueid": "w17040695:a28311492", "current_trial": 91, "dateTime": 1664464131934, "trialdata": {"rt": 637, "stimulus": "<p id='stroop-text' class='stroop-red'>RED</p>", "response": "r", "stimulus-type": "congruent", "word": "red", "color": "red", "correct_response": "r", "trial_id": "stroop-trial-1-congruent-16", "trial_type": "html-keyboard-response", "trial_index": 91, "time_elapsed": 225928, "internal_node_id": "0.0-4.0-87.0"}}, {"uniqueid": "w17040695:a28311492", "current_trial": 92, "dateTime": 1664464133269, "trialdata": {"rt": 832, "stimulus": "<p id='stroop-text' class='stroop-blue'>BRAIN</p>", "response": "b", "stimulus-type": "unrelated", "word": "BRAIN", "color": "blue", "correct_response": "b", "trial_id": "stroop-trial-1-unrelated-8", "trial_type": "html-keyboard-response", "trial_index": 92, "time_elapsed": 227263, "internal_node_id": "0.0-4.0-88.0"}}, {"uniqueid": "w17040695:a28311492", "current_trial": 93, "dateTime": 1664464134601, "trialdata": {"rt": 826, "stimulus": "<p id='stroop-text' class='stroop-red'>FORK</p>", "response": "r", "stimulus-type": "unrelated", "word": "FORK", "color": "red", "correct_response": "r", "trial_id": "stroop-trial-1-unrelated-22", "trial_type": "html-keyboard-response", "trial_index": 93, "time_elapsed": 228594, "internal_node_id": "0.0-4.0-89.0"}}, {"uniqueid": "w17040695:a28311492", "current_trial": 94, "dateTime": 1664464145248, "trialdata": {"rt": 10141, "stimulus": "  <h1> End of block! </h1>\n\n  You have reached the end of the block 1/5. If you need a short break, feel free to take one now before moving on.\n\n  <br><br>\n  In the next block, you will complete another 90 rounds of this game.\n\n  <br><br>\n  <div style='text-align: center;'>Press <code>space</code> to begin.</div>\n  <br><br>\n<div style='text-align: center;'>(If the experiment doesn't continue, try clicking on the text and then pressing <code>space</code>.)</div>", "response": " ", "trial_id": "stroop_1_ready_2", "trial_type": "html-keyboard-response", "trial_index": 94, "time_elapsed": 239242, "internal_node_id": "0.0-5.0"}}, {"uniqueid": "w17040695:a28311492", "current_trial": 95, "dateTime": 1664464146103, "trialdata": {"rt": 851, "stimulus": "<p id='stroop-text' class='stroop-yellow'>YELLOW</p>", "response": "y", "stimulus-type": "congruent", "word": "yellow", "color": "yellow", "correct_response": "y", "trial_id": "stroop-trial-1-congruent-9", "trial_type": "html-keyboard-response", "trial_index": 95, "time_elapsed": 240097, "internal_node_id": "0.0-6.0-0.0"}}, {"uniqueid": "w17040695:a28311492", "current_trial": 96, "dateTime": 1664464147301, "trialdata": {"rt": 692, "stimulus": "<p id='stroop-text' class='stroop-yellow'>MONKEY</p>", "response": "y", "stimulus-type": "unrelated", "word": "MONKEY", "color": "yellow", "correct_response": "y", "trial_id": "stroop-trial-1-unrelated-11", "trial_type": "html-keyboard-response", "trial_index": 96, "time_elapsed": 241294, "internal_node_id": "0.0-6.0-1.0"}}, {"uniqueid": "w17040695:a28311492", "current_trial": 97, "dateTime": 1664464148247, "trialdata": {"rt": 443, "stimulus": "<p id='stroop-text' class='stroop-yellow'>YELLOW</p>", "response": "y", "stimulus-type": "congruent", "word": "yellow", "color": "yellow", "correct_response": "y", "trial_id": "stroop-trial-1-congruent-21", "trial_type": "html-keyboard-response", "trial_index": 97, "time_elapsed": 242241, "internal_node_id": "0.0-6.0-2.0"}}, {"uniqueid": "w17040695:a28311492", "current_trial": 98, "dateTime": 1664464149516, "trialdata": {"rt": 764, "stimulus": "<p id='stroop-text' class='stroop-blue'>BLUE</p>", "response": "b", "stimulus-type": "congruent", "word": "blue", "color": "blue", "correct_response": "b", "trial_id": "stroop-trial-1-congruent-17", "trial_type": "html-keyboard-response", "trial_index": 98, "time_elapsed": 243510, "internal_node_id": "0.0-6.0-3.0"}}, {"uniqueid": "w17040695:a28311492", "current_trial": 99, "dateTime": 1664464151248, "trialdata": {"rt": 1229, "stimulus": "<p id='stroop-text' class='stroop-red'>BOTTLE</p>", "response": "r", "stimulus-type": "unrelated", "word": "BOTTLE", "color": "red", "correct_response": "r", "trial_id": "stroop-trial-1-unrelated-21", "trial_type": "html-keyboard-response", "trial_index": 99, "time_elapsed": 245242, "internal_node_id": "0.0-6.0-4.0"}}, {"uniqueid": "w17040695:a28311492", "current_trial": 100, "dateTime": 1664464153466, "trialdata": {"rt": 1714, "stimulus": "<p id='stroop-text' class='stroop-red'>GREEN</p>", "response": "r", "stimulus-type": "incongruent", "word": "green", "color": "red", "correct_response": "r", "trial_id": "stroop-trial-1-incongruent-11", "trial_type": "html-keyboard-response", "trial_index": 100, "time_elapsed": 247459, "internal_node_id": "0.0-6.0-5.0"}}, {"uniqueid": "w17040695:a28311492", "current_trial": 101, "dateTime": 1664464155238, "trialdata": {"rt": 1267, "stimulus": "<p id='stroop-text' class='stroop-green'>GREEN</p>", "response": "g", "stimulus-type": "congruent", "word": "green", "color": "green", "correct_response": "g", "trial_id": "stroop-trial-1-congruent-7", "trial_type": "html-keyboard-response", "trial_index": 101, "time_elapsed": 249232, "internal_node_id": "0.0-6.0-6.0"}}, {"uniqueid": "w17040695:a28311492", "current_trial": 102, "dateTime": 1664464157046, "trialdata": {"rt": 1304, "stimulus": "<p id='stroop-text' class='stroop-yellow'>BLUE</p>", "response": "y", "stimulus-type": "incongruent", "word": "blue", "color": "yellow", "correct_response": "y", "trial_id": "stroop-trial-1-incongruent-19", "trial_type": "html-keyboard-response", "trial_index": 102, "time_elapsed": 251039, "internal_node_id": "0.0-6.0-7.0"}}, {"uniqueid": "w17040695:a28311492", "current_trial": 103, "dateTime": 1664464158318, "trialdata": {"rt": 768, "stimulus": "<p id='stroop-text' class='stroop-yellow'>BLUE</p>", "response": "y", "stimulus-type": "incongruent", "word": "blue", "color": "yellow", "correct_response": "y", "trial_id": "stroop-trial-1-incongruent-1", "trial_type": "html-keyboard-response", "trial_index": 103, "time_elapsed": 252312, "internal_node_id": "0.0-6.0-8.0"}}, {"uniqueid": "w17040695:a28311492", "current_trial": 104, "dateTime": 1664464159559, "trialdata": {"rt": 737, "stimulus": "<p id='stroop-text' class='stroop-red'>STONE</p>", "response": "r", "stimulus-type": "unrelated", "word": "STONE", "color": "red", "correct_response": "r", "trial_id": "stroop-trial-1-unrelated-4", "trial_type": "html-keyboard-response", "trial_index": 104, "time_elapsed": 253552, "internal_node_id": "0.0-6.0-9.0"}}, {"uniqueid": "w17040695:a28311492", "current_trial": 105, "dateTime": 1664464160658, "trialdata": {"rt": 594, "stimulus": "<p id='stroop-text' class='stroop-yellow'>YELLOW</p>", "response": "y", "stimulus-type": "congruent", "word": "yellow", "color": "yellow", "correct_response": "y", "trial_id": "stroop-trial-1-congruent-27", "trial_type": "html-keyboard-response", "trial_index": 105, "time_elapsed": 254651, "internal_node_id": "0.0-6.0-10.0"}}, {"uniqueid": "w17040695:a28311492", "current_trial": 106, "dateTime": 1664464162586, "trialdata": {"rt": 1424, "stimulus": "<p id='stroop-text' class='stroop-blue'>BOAT</p>", "response": "b", "stimulus-type": "unrelated", "word": "BOAT", "color": "blue", "correct_response": "b", "trial_id": "stroop-trial-1-unrelated-19", "trial_type": "html-keyboard-response", "trial_index": 106, "time_elapsed": 256580, "internal_node_id": "0.0-6.0-11.0"}}, {"uniqueid": "w17040695:a28311492", "current_trial": 107, "dateTime": 1664464163684, "trialdata": {"rt": 594, "stimulus": "<p id='stroop-text' class='stroop-red'>RED</p>", "response": "r", "stimulus-type": "congruent", "word": "red", "color": "red", "correct_response": "r", "trial_id": "stroop-trial-1-congruent-8", "trial_type": "html-keyboard-response", "trial_index": 107, "time_elapsed": 257678, "internal_node_id": "0.0-6.0-12.0"}}, {"uniqueid": "w17040695:a28311492", "current_trial": 108, "dateTime": 1664464164891, "trialdata": {"rt": 701, "stimulus": "<p id='stroop-text' class='stroop-blue'>BLUE</p>", "response": "b", "stimulus-type": "congruent", "word": "blue", "color": "blue", "correct_response": "b", "trial_id": "stroop-trial-1-congruent-3", "trial_type": "html-keyboard-response", "trial_index": 108, "time_elapsed": 258884, "internal_node_id": "0.0-6.0-13.0"}}, {"uniqueid": "w17040695:a28311492", "current_trial": 109, "dateTime": 1664464166349, "trialdata": {"rt": 953, "stimulus": "<p id='stroop-text' class='stroop-blue'>GREEN</p>", "response": "b", "stimulus-type": "incongruent", "word": "green", "color": "blue", "correct_response": "b", "trial_id": "stroop-trial-1-incongruent-26", "trial_type": "html-keyboard-response", "trial_index": 109, "time_elapsed": 260342, "internal_node_id": "0.0-6.0-14.0"}}, {"uniqueid": "w17040695:a28311492", "current_trial": 110, "dateTime": 1664464168003, "trialdata": {"rt": 1151, "stimulus": "<p id='stroop-text' class='stroop-red'>FORK</p>", "response": "r", "stimulus-type": "unrelated", "word": "FORK", "color": "red", "correct_response": "r", "trial_id": "stroop-trial-1-unrelated-13", "trial_type": "html-keyboard-response", "trial_index": 110, "time_elapsed": 261996, "internal_node_id": "0.0-6.0-15.0"}}, {"uniqueid": "w17040695:a28311492", "current_trial": 111, "dateTime": 1664464169907, "trialdata": {"rt": 1399, "stimulus": "<p id='stroop-text' class='stroop-green'>GREEN</p>", "response": "g", "stimulus-type": "congruent", "word": "green", "color": "green", "correct_response": "g", "trial_id": "stroop-trial-1-congruent-15", "trial_type": "html-keyboard-response", "trial_index": 111, "time_elapsed": 263901, "internal_node_id": "0.0-6.0-16.0"}}, {"uniqueid": "w17040695:a28311492", "current_trial": 112, "dateTime": 1664464171351, "trialdata": {"rt": 940, "stimulus": "<p id='stroop-text' class='stroop-red'>BRAIN</p>", "response": "r", "stimulus-type": "unrelated", "word": "BRAIN", "color": "red", "correct_response": "r", "trial_id": "stroop-trial-1-unrelated-5", "trial_type": "html-keyboard-response", "trial_index": 112, "time_elapsed": 265345, "internal_node_id": "0.0-6.0-17.0"}}, {"uniqueid": "w17040695:a28311492", "current_trial": 113, "dateTime": 1664464172529, "trialdata": {"rt": 674, "stimulus": "<p id='stroop-text' class='stroop-blue'>BLUE</p>", "response": "b", "stimulus-type": "congruent", "word": "blue", "color": "blue", "correct_response": "b", "trial_id": "stroop-trial-1-congruent-30", "trial_type": "html-keyboard-response", "trial_index": 113, "time_elapsed": 266523, "internal_node_id": "0.0-6.0-18.0"}}, {"uniqueid": "w17040695:a28311492", "current_trial": 114, "dateTime": 1664464173737, "trialdata": {"rt": 702, "stimulus": "<p id='stroop-text' class='stroop-yellow'>BLUE</p>", "response": "y", "stimulus-type": "incongruent", "word": "blue", "color": "yellow", "correct_response": "y", "trial_id": "stroop-trial-1-incongruent-29", "trial_type": "html-keyboard-response", "trial_index": 114, "time_elapsed": 267731, "internal_node_id": "0.0-6.0-19.0"}}, {"uniqueid": "w17040695:a28311492", "current_trial": 115, "dateTime": 1664464175558, "trialdata": {"rt": 1314, "stimulus": "<p id='stroop-text' class='stroop-red'>WINDOW</p>", "response": "r", "stimulus-type": "unrelated", "word": "WINDOW", "color": "red", "correct_response": "r", "trial_id": "stroop-trial-1-unrelated-2", "trial_type": "html-keyboard-response", "trial_index": 115, "time_elapsed": 269552, "internal_node_id": "0.0-6.0-20.0"}}, {"uniqueid": "w17040695:a28311492", "current_trial": 116, "dateTime": 1664464176844, "trialdata": {"rt": 782, "stimulus": "<p id='stroop-text' class='stroop-yellow'>YELLOW</p>", "response": "y", "stimulus-type": "congruent", "word": "yellow", "color": "yellow", "correct_response": "y", "trial_id": "stroop-trial-1-congruent-20", "trial_type": "html-keyboard-response", "trial_index": 116, "time_elapsed": 270838, "internal_node_id": "0.0-6.0-21.0"}}, {"uniqueid": "w17040695:a28311492", "current_trial": 117, "dateTime": 1664464178825, "trialdata": {"rt": 1477, "stimulus": "<p id='stroop-text' class='stroop-blue'>RED</p>", "response": "b", "stimulus-type": "incongruent", "word": "red", "color": "blue", "correct_response": "b", "trial_id": "stroop-trial-1-incongruent-8", "trial_type": "html-keyboard-response", "trial_index": 117, "time_elapsed": 272818, "internal_node_id": "0.0-6.0-22.0"}}, {"uniqueid": "w17040695:a28311492", "current_trial": 118, "dateTime": 1664464180139, "trialdata": {"rt": 809, "stimulus": "<p id='stroop-text' class='stroop-yellow'>RED</p>", "response": "y", "stimulus-type": "incongruent", "word": "red", "color": "yellow", "correct_response": "y", "trial_id": "stroop-trial-1-incongruent-14", "trial_type": "html-keyboard-response", "trial_index": 118, "time_elapsed": 274133, "internal_node_id": "0.0-6.0-23.0"}}, {"uniqueid": "w17040695:a28311492", "current_trial": 119, "dateTime": 1664464181735, "trialdata": {"rt": 1093, "stimulus": "<p id='stroop-text' class='stroop-blue'>GREEN</p>", "response": "b", "stimulus-type": "incongruent", "word": "green", "color": "blue", "correct_response": "b", "trial_id": "stroop-trial-1-incongruent-30", "trial_type": "html-keyboard-response", "trial_index": 119, "time_elapsed": 275728, "internal_node_id": "0.0-6.0-24.0"}}, {"uniqueid": "w17040695:a28311492", "current_trial": 120, "dateTime": 1664464182983, "trialdata": {"rt": 743, "stimulus": "<p id='stroop-text' class='stroop-red'>RED</p>", "response": "r", "stimulus-type": "congruent", "word": "red", "color": "red", "correct_response": "r", "trial_id": "stroop-trial-1-congruent-29", "trial_type": "html-keyboard-response", "trial_index": 120, "time_elapsed": 276977, "internal_node_id": "0.0-6.0-25.0"}}, {"uniqueid": "w17040695:a28311492", "current_trial": 121, "dateTime": 1664464184025, "trialdata": {"rt": 538, "stimulus": "<p id='stroop-text' class='stroop-red'>RED</p>", "response": "r", "stimulus-type": "congruent", "word": "red", "color": "red", "correct_response": "r", "trial_id": "stroop-trial-1-congruent-28", "trial_type": "html-keyboard-response", "trial_index": 121, "time_elapsed": 278019, "internal_node_id": "0.0-6.0-26.0"}}, {"uniqueid": "w17040695:a28311492", "current_trial": 122, "dateTime": 1664464186113, "trialdata": {"rt": 1584, "stimulus": "<p id='stroop-text' class='stroop-yellow'>GREEN</p>", "response": "y", "stimulus-type": "incongruent", "word": "green", "color": "yellow", "correct_response": "y", "trial_id": "stroop-trial-1-incongruent-2", "trial_type": "html-keyboard-response", "trial_index": 122, "time_elapsed": 280107, "internal_node_id": "0.0-6.0-27.0"}}, {"uniqueid": "w17040695:a28311492", "current_trial": 123, "dateTime": 1664464187505, "trialdata": {"rt": 888, "stimulus": "<p id='stroop-text' class='stroop-yellow'>DOG</p>", "response": "y", "stimulus-type": "unrelated", "word": "DOG", "color": "yellow", "correct_response": "y", "trial_id": "stroop-trial-1-unrelated-14", "trial_type": "html-keyboard-response", "trial_index": 123, "time_elapsed": 281498, "internal_node_id": "0.0-6.0-28.0"}}, {"uniqueid": "w17040695:a28311492", "current_trial": 124, "dateTime": 1664464188891, "trialdata": {"rt": 812, "stimulus": "<p id='stroop-text' class='stroop-red'>BRAIN</p>", "response": "r", "stimulus-type": "unrelated", "word": "BRAIN", "color": "red", "correct_response": "r", "trial_id": "stroop-trial-1-unrelated-7", "trial_type": "html-keyboard-response", "trial_index": 124, "time_elapsed": 282884, "internal_node_id": "0.0-6.0-29.0"}}, {"uniqueid": "w17040695:a28311492", "current_trial": 125, "dateTime": 1664464190564, "trialdata": {"rt": 1170, "stimulus": "<p id='stroop-text' class='stroop-green'>RED</p>", "response": "g", "stimulus-type": "incongruent", "word": "red", "color": "green", "correct_response": "g", "trial_id": "stroop-trial-1-incongruent-13", "trial_type": "html-keyboard-response", "trial_index": 125, "time_elapsed": 284558, "internal_node_id": "0.0-6.0-30.0"}}, {"uniqueid": "w17040695:a28311492", "current_trial": 126, "dateTime": 1664464191817, "trialdata": {"rt": 747, "stimulus": "<p id='stroop-text' class='stroop-yellow'>STONE</p>", "response": "y", "stimulus-type": "unrelated", "word": "STONE", "color": "yellow", "correct_response": "y", "trial_id": "stroop-trial-1-unrelated-30", "trial_type": "html-keyboard-response", "trial_index": 126, "time_elapsed": 285811, "internal_node_id": "0.0-6.0-31.0"}}, {"uniqueid": "w17040695:a28311492", "current_trial": 127, "dateTime": 1664464193085, "trialdata": {"rt": 765, "stimulus": "<p id='stroop-text' class='stroop-yellow'>BLUE</p>", "response": "y", "stimulus-type": "incongruent", "word": "blue", "color": "yellow", "correct_response": "y", "trial_id": "stroop-trial-1-incongruent-10", "trial_type": "html-keyboard-response", "trial_index": 127, "time_elapsed": 287079, "internal_node_id": "0.0-6.0-32.0"}}, {"uniqueid": "w17040695:a28311492", "current_trial": 128, "dateTime": 1664464194754, "trialdata": {"rt": 1166, "stimulus": "<p id='stroop-text' class='stroop-blue'>DOG</p>", "response": "b", "stimulus-type": "unrelated", "word": "DOG", "color": "blue", "correct_response": "b", "trial_id": "stroop-trial-1-unrelated-17", "trial_type": "html-keyboard-response", "trial_index": 128, "time_elapsed": 288747, "internal_node_id": "0.0-6.0-33.0"}}, {"uniqueid": "w17040695:a28311492", "current_trial": 129, "dateTime": 1664464195960, "trialdata": {"rt": 701, "stimulus": "<p id='stroop-text' class='stroop-yellow'>RED</p>", "response": "y", "stimulus-type": "incongruent", "word": "red", "color": "yellow", "correct_response": "y", "trial_id": "stroop-trial-1-incongruent-20", "trial_type": "html-keyboard-response", "trial_index": 129, "time_elapsed": 289953, "internal_node_id": "0.0-6.0-34.0"}}, {"uniqueid": "w17040695:a28311492", "current_trial": 130, "dateTime": 1664464197072, "trialdata": {"rt": 608, "stimulus": "<p id='stroop-text' class='stroop-yellow'>RED</p>", "response": "y", "stimulus-type": "incongruent", "word": "red", "color": "yellow", "correct_response": "y", "trial_id": "stroop-trial-1-incongruent-3", "trial_type": "html-keyboard-response", "trial_index": 130, "time_elapsed": 291066, "internal_node_id": "0.0-6.0-35.0"}}, {"uniqueid": "w17040695:a28311492", "current_trial": 131, "dateTime": 1664464198062, "trialdata": {"rt": 485, "stimulus": "<p id='stroop-text' class='stroop-yellow'>GREEN</p>", "response": "y", "stimulus-type": "incongruent", "word": "green", "color": "yellow", "correct_response": "y", "trial_id": "stroop-trial-1-incongruent-12", "trial_type": "html-keyboard-response", "trial_index": 131, "time_elapsed": 292056, "internal_node_id": "0.0-6.0-36.0"}}, {"uniqueid": "w17040695:a28311492", "current_trial": 132, "dateTime": 1664464199002, "trialdata": {"rt": 436, "stimulus": "<p id='stroop-text' class='stroop-yellow'>BOTTLE</p>", "response": "y", "stimulus-type": "unrelated", "word": "BOTTLE", "color": "yellow", "correct_response": "y", "trial_id": "stroop-trial-1-unrelated-22", "trial_type": "html-keyboard-response", "trial_index": 132, "time_elapsed": 292996, "internal_node_id": "0.0-6.0-37.0"}}, {"uniqueid": "w17040695:a28311492", "current_trial": 133, "dateTime": 1664464200274, "trialdata": {"rt": 767, "stimulus": "<p id='stroop-text' class='stroop-green'>GREEN</p>", "response": "g", "stimulus-type": "congruent", "word": "green", "color": "green", "correct_response": "g", "trial_id": "stroop-trial-1-congruent-24", "trial_type": "html-keyboard-response", "trial_index": 133, "time_elapsed": 294268, "internal_node_id": "0.0-6.0-38.0"}}, {"uniqueid": "w17040695:a28311492", "current_trial": 134, "dateTime": 1664464201605, "trialdata": {"rt": 826, "stimulus": "<p id='stroop-text' class='stroop-green'>YELLOW</p>", "response": "g", "stimulus-type": "incongruent", "word": "yellow", "color": "green", "correct_response": "g", "trial_id": "stroop-trial-1-incongruent-21", "trial_type": "html-keyboard-response", "trial_index": 134, "time_elapsed": 295598, "internal_node_id": "0.0-6.0-39.0"}}, {"uniqueid": "w17040695:a28311492", "current_trial": 135, "dateTime": 1664464202872, "trialdata": {"rt": 761, "stimulus": "<p id='stroop-text' class='stroop-yellow'>BOTTLE</p>", "response": "y", "stimulus-type": "unrelated", "word": "BOTTLE", "color": "yellow", "correct_response": "y", "trial_id": "stroop-trial-1-unrelated-29", "trial_type": "html-keyboard-response", "trial_index": 135, "time_elapsed": 296866, "internal_node_id": "0.0-6.0-40.0"}}, {"uniqueid": "w17040695:a28311492", "current_trial": 136, "dateTime": 1664464204078, "trialdata": {"rt": 702, "stimulus": "<p id='stroop-text' class='stroop-green'>FORK</p>", "response": "g", "stimulus-type": "unrelated", "word": "FORK", "color": "green", "correct_response": "g", "trial_id": "stroop-trial-1-unrelated-15", "trial_type": "html-keyboard-response", "trial_index": 136, "time_elapsed": 298072, "internal_node_id": "0.0-6.0-41.0"}}, {"uniqueid": "w17040695:a28311492", "current_trial": 137, "dateTime": 1664464205268, "trialdata": {"rt": 684, "stimulus": "<p id='stroop-text' class='stroop-blue'>YELLOW</p>", "response": "b", "stimulus-type": "incongruent", "word": "yellow", "color": "blue", "correct_response": "b", "trial_id": "stroop-trial-1-incongruent-17", "trial_type": "html-keyboard-response", "trial_index": 137, "time_elapsed": 299262, "internal_node_id": "0.0-6.0-42.0"}}, {"uniqueid": "w17040695:a28311492", "current_trial": 138, "dateTime": 1664464206485, "trialdata": {"rt": 714, "stimulus": "<p id='stroop-text' class='stroop-yellow'>YELLOW</p>", "response": "y", "stimulus-type": "congruent", "word": "yellow", "color": "yellow", "correct_response": "y", "trial_id": "stroop-trial-1-congruent-10", "trial_type": "html-keyboard-response", "trial_index": 138, "time_elapsed": 300479, "internal_node_id": "0.0-6.0-43.0"}}, {"uniqueid": "w17040695:a28311492", "current_trial": 139, "dateTime": 1664464207837, "trialdata": {"rt": 847, "stimulus": "<p id='stroop-text' class='stroop-yellow'>DOG</p>", "response": "y", "stimulus-type": "unrelated", "word": "DOG", "color": "yellow", "correct_response": "y", "trial_id": "stroop-trial-1-unrelated-18", "trial_type": "html-keyboard-response", "trial_index": 139, "time_elapsed": 301831, "internal_node_id": "0.0-6.0-44.0"}}, {"uniqueid": "w17040695:a28311492", "current_trial": 140, "dateTime": 1664464208823, "trialdata": {"rt": 480, "stimulus": "<p id='stroop-text' class='stroop-yellow'>YELLOW</p>", "response": "y", "stimulus-type": "congruent", "word": "yellow", "color": "yellow", "correct_response": "y", "trial_id": "stroop-trial-1-congruent-22", "trial_type": "html-keyboard-response", "trial_index": 140, "time_elapsed": 302816, "internal_node_id": "0.0-6.0-45.0"}}, {"uniqueid": "w17040695:a28311492", "current_trial": 141, "dateTime": 1664464210039, "trialdata": {"rt": 713, "stimulus": "<p id='stroop-text' class='stroop-red'>RED</p>", "response": "r", "stimulus-type": "congruent", "word": "red", "color": "red", "correct_response": "r", "trial_id": "stroop-trial-1-congruent-19", "trial_type": "html-keyboard-response", "trial_index": 141, "time_elapsed": 304033, "internal_node_id": "0.0-6.0-46.0"}}, {"uniqueid": "w17040695:a28311492", "current_trial": 142, "dateTime": 1664464211571, "trialdata": {"rt": 1028, "stimulus": "<p id='stroop-text' class='stroop-blue'>DOG</p>", "response": "b", "stimulus-type": "unrelated", "word": "DOG", "color": "blue", "correct_response": "b", "trial_id": "stroop-trial-1-unrelated-6", "trial_type": "html-keyboard-response", "trial_index": 142, "time_elapsed": 305564, "internal_node_id": "0.0-6.0-47.0"}}, {"uniqueid": "w17040695:a28311492", "current_trial": 143, "dateTime": 1664464212725, "trialdata": {"rt": 650, "stimulus": "<p id='stroop-text' class='stroop-blue'>GREEN</p>", "response": "b", "stimulus-type": "incongruent", "word": "green", "color": "blue", "correct_response": "b", "trial_id": "stroop-trial-1-incongruent-15", "trial_type": "html-keyboard-response", "trial_index": 143, "time_elapsed": 306719, "internal_node_id": "0.0-6.0-48.0"}}, {"uniqueid": "w17040695:a28311492", "current_trial": 144, "dateTime": 1664464213968, "trialdata": {"rt": 738, "stimulus": "<p id='stroop-text' class='stroop-red'>BLUE</p>", "response": "r", "stimulus-type": "incongruent", "word": "blue", "color": "red", "correct_response": "r", "trial_id": "stroop-trial-1-incongruent-5", "trial_type": "html-keyboard-response", "trial_index": 144, "time_elapsed": 307962, "internal_node_id": "0.0-6.0-49.0"}}, {"uniqueid": "w17040695:a28311492", "current_trial": 145, "dateTime": 1664464215221, "trialdata": {"rt": 748, "stimulus": "<p id='stroop-text' class='stroop-yellow'>FORK</p>", "response": "y", "stimulus-type": "unrelated", "word": "FORK", "color": "yellow", "correct_response": "y", "trial_id": "stroop-trial-1-unrelated-23", "trial_type": "html-keyboard-response", "trial_index": 145, "time_elapsed": 309215, "internal_node_id": "0.0-6.0-50.0"}}, {"uniqueid": "w17040695:a28311492", "current_trial": 146, "dateTime": 1664464216703, "trialdata": {"rt": 978, "stimulus": "<p id='stroop-text' class='stroop-blue'>YELLOW</p>", "response": "b", "stimulus-type": "incongruent", "word": "yellow", "color": "blue", "correct_response": "b", "trial_id": "stroop-trial-1-incongruent-25", "trial_type": "html-keyboard-response", "trial_index": 146, "time_elapsed": 310696, "internal_node_id": "0.0-6.0-51.0"}}, {"uniqueid": "w17040695:a28311492", "current_trial": 147, "dateTime": 1664464218443, "trialdata": {"rt": 1237, "stimulus": "<p id='stroop-text' class='stroop-green'>GREEN</p>", "response": "g", "stimulus-type": "congruent", "word": "green", "color": "green", "correct_response": "g", "trial_id": "stroop-trial-1-congruent-25", "trial_type": "html-keyboard-response", "trial_index": 147, "time_elapsed": 312437, "internal_node_id": "0.0-6.0-52.0"}}, {"uniqueid": "w17040695:a28311492", "current_trial": 148, "dateTime": 1664464219723, "trialdata": {"rt": 775, "stimulus": "<p id='stroop-text' class='stroop-yellow'>BLUE</p>", "response": "y", "stimulus-type": "incongruent", "word": "blue", "color": "yellow", "correct_response": "y", "trial_id": "stroop-trial-1-incongruent-6", "trial_type": "html-keyboard-response", "trial_index": 148, "time_elapsed": 313717, "internal_node_id": "0.0-6.0-53.0"}}, {"uniqueid": "w17040695:a28311492", "current_trial": 149, "dateTime": 1664464220945, "trialdata": {"rt": 718, "stimulus": "<p id='stroop-text' class='stroop-yellow'>STONE</p>", "response": "y", "stimulus-type": "unrelated", "word": "STONE", "color": "yellow", "correct_response": "y", "trial_id": "stroop-trial-1-unrelated-16", "trial_type": "html-keyboard-response", "trial_index": 149, "time_elapsed": 314939, "internal_node_id": "0.0-6.0-54.0"}}, {"uniqueid": "w17040695:a28311492", "current_trial": 150, "dateTime": 1664464222081, "trialdata": {"rt": 631, "stimulus": "<p id='stroop-text' class='stroop-red'>RED</p>", "response": "r", "stimulus-type": "congruent", "word": "red", "color": "red", "correct_response": "r", "trial_id": "stroop-trial-1-congruent-18", "trial_type": "html-keyboard-response", "trial_index": 150, "time_elapsed": 316075, "internal_node_id": "0.0-6.0-55.0"}}, {"uniqueid": "w17040695:a28311492", "current_trial": 151, "dateTime": 1664464223606, "trialdata": {"rt": 1022, "stimulus": "<p id='stroop-text' class='stroop-green'>RED</p>", "response": "g", "stimulus-type": "incongruent", "word": "red", "color": "green", "correct_response": "g", "trial_id": "stroop-trial-1-incongruent-23", "trial_type": "html-keyboard-response", "trial_index": 151, "time_elapsed": 317599, "internal_node_id": "0.0-6.0-56.0"}}, {"uniqueid": "w17040695:a28311492", "current_trial": 152, "dateTime": 1664464224795, "trialdata": {"rt": 684, "stimulus": "<p id='stroop-text' class='stroop-blue'>BLUE</p>", "response": "b", "stimulus-type": "congruent", "word": "blue", "color": "blue", "correct_response": "b", "trial_id": "stroop-trial-1-congruent-2", "trial_type": "html-keyboard-response", "trial_index": 152, "time_elapsed": 318789, "internal_node_id": "0.0-6.0-57.0"}}, {"uniqueid": "w17040695:a28311492", "current_trial": 153, "dateTime": 1664464226075, "trialdata": {"rt": 775, "stimulus": "<p id='stroop-text' class='stroop-red'>BOTTLE</p>", "response": "r", "stimulus-type": "unrelated", "word": "BOTTLE", "color": "red", "correct_response": "r", "trial_id": "stroop-trial-1-unrelated-12", "trial_type": "html-keyboard-response", "trial_index": 153, "time_elapsed": 320068, "internal_node_id": "0.0-6.0-58.0"}}, {"uniqueid": "w17040695:a28311492", "current_trial": 154, "dateTime": 1664464227243, "trialdata": {"rt": 665, "stimulus": "<p id='stroop-text' class='stroop-yellow'>YELLOW</p>", "response": "y", "stimulus-type": "congruent", "word": "yellow", "color": "yellow", "correct_response": "y", "trial_id": "stroop-trial-1-congruent-13", "trial_type": "html-keyboard-response", "trial_index": 154, "time_elapsed": 321237, "internal_node_id": "0.0-6.0-59.0"}}, {"uniqueid": "w17040695:a28311492", "current_trial": 155, "dateTime": 1664464229478, "trialdata": {"rt": 1730, "stimulus": "<p id='stroop-text' class='stroop-red'>FORK</p>", "response": "r", "stimulus-type": "unrelated", "word": "FORK", "color": "red", "correct_response": "r", "trial_id": "stroop-trial-1-unrelated-10", "trial_type": "html-keyboard-response", "trial_index": 155, "time_elapsed": 323472, "internal_node_id": "0.0-6.0-60.0"}}, {"uniqueid": "w17040695:a28311492", "current_trial": 156, "dateTime": 1664464231420, "trialdata": {"rt": 1438, "stimulus": "<p id='stroop-text' class='stroop-green'>BLUE</p>", "response": "g", "stimulus-type": "incongruent", "word": "blue", "color": "green", "correct_response": "g", "trial_id": "stroop-trial-1-incongruent-7", "trial_type": "html-keyboard-response", "trial_index": 156, "time_elapsed": 325414, "internal_node_id": "0.0-6.0-61.0"}}, {"uniqueid": "w17040695:a28311492", "current_trial": 157, "dateTime": 1664464232651, "trialdata": {"rt": 726, "stimulus": "<p id='stroop-text' class='stroop-yellow'>YELLOW</p>", "response": "y", "stimulus-type": "congruent", "word": "yellow", "color": "yellow", "correct_response": "y", "trial_id": "stroop-trial-1-congruent-23", "trial_type": "html-keyboard-response", "trial_index": 157, "time_elapsed": 326645, "internal_node_id": "0.0-6.0-62.0"}}, {"uniqueid": "w17040695:a28311492", "current_trial": 158, "dateTime": 1664464234143, "trialdata": {"rt": 987, "stimulus": "<p id='stroop-text' class='stroop-red'>GREEN</p>", "response": "r", "stimulus-type": "incongruent", "word": "green", "color": "red", "correct_response": "r", "trial_id": "stroop-trial-1-incongruent-16", "trial_type": "html-keyboard-response", "trial_index": 158, "time_elapsed": 328136, "internal_node_id": "0.0-6.0-63.0"}}, {"uniqueid": "w17040695:a28311492", "current_trial": 159, "dateTime": 1664464235422, "trialdata": {"rt": 775, "stimulus": "<p id='stroop-text' class='stroop-blue'>MONKEY</p>", "response": "g", "stimulus-type": "unrelated", "word": "MONKEY", "color": "blue", "correct_response": "b", "trial_id": "stroop-trial-1-unrelated-26", "trial_type": "html-keyboard-response", "trial_index": 159, "time_elapsed": 329415, "internal_node_id": "0.0-6.0-64.0"}}, {"uniqueid": "w17040695:a28311492", "current_trial": 160, "dateTime": 1664464237349, "trialdata": {"rt": 1423, "stimulus": "<p id='stroop-text' class='stroop-green'>CHAIR</p>", "response": "g", "stimulus-type": "unrelated", "word": "CHAIR", "color": "green", "correct_response": "g", "trial_id": "stroop-trial-1-unrelated-9", "trial_type": "html-keyboard-response", "trial_index": 160, "time_elapsed": 331343, "internal_node_id": "0.0-6.0-65.0"}}, {"uniqueid": "w17040695:a28311492", "current_trial": 161, "dateTime": 1664464238773, "trialdata": {"rt": 919, "stimulus": "<p id='stroop-text' class='stroop-blue'>BLUE</p>", "response": "b", "stimulus-type": "congruent", "word": "blue", "color": "blue", "correct_response": "b", "trial_id": "stroop-trial-1-congruent-26", "trial_type": "html-keyboard-response", "trial_index": 161, "time_elapsed": 332766, "internal_node_id": "0.0-6.0-66.0"}}, {"uniqueid": "w17040695:a28311492", "current_trial": 162, "dateTime": 1664464239944, "trialdata": {"rt": 666, "stimulus": "<p id='stroop-text' class='stroop-red'>RED</p>", "response": "r", "stimulus-type": "congruent", "word": "red", "color": "red", "correct_response": "r", "trial_id": "stroop-trial-1-congruent-16", "trial_type": "html-keyboard-response", "trial_index": 162, "time_elapsed": 333937, "internal_node_id": "0.0-6.0-67.0"}}, {"uniqueid": "w17040695:a28311492", "current_trial": 163, "dateTime": 1664464241450, "trialdata": {"rt": 1002, "stimulus": "<p id='stroop-text' class='stroop-blue'>SHIP</p>", "response": "b", "stimulus-type": "unrelated", "word": "SHIP", "color": "blue", "correct_response": "b", "trial_id": "stroop-trial-1-unrelated-27", "trial_type": "html-keyboard-response", "trial_index": 163, "time_elapsed": 335444, "internal_node_id": "0.0-6.0-68.0"}}, {"uniqueid": "w17040695:a28311492", "current_trial": 164, "dateTime": 1664464243035, "trialdata": {"rt": 1081, "stimulus": "<p id='stroop-text' class='stroop-red'>BLUE</p>", "response": "r", "stimulus-type": "incongruent", "word": "blue", "color": "red", "correct_response": "r", "trial_id": "stroop-trial-1-incongruent-28", "trial_type": "html-keyboard-response", "trial_index": 164, "time_elapsed": 337029, "internal_node_id": "0.0-6.0-69.0"}}, {"uniqueid": "w17040695:a28311492", "current_trial": 165, "dateTime": 1664464244385, "trialdata": {"rt": 846, "stimulus": "<p id='stroop-text' class='stroop-red'>RED</p>", "response": "r", "stimulus-type": "congruent", "word": "red", "color": "red", "correct_response": "r", "trial_id": "stroop-trial-1-congruent-12", "trial_type": "html-keyboard-response", "trial_index": 165, "time_elapsed": 338379, "internal_node_id": "0.0-6.0-70.0"}}, {"uniqueid": "w17040695:a28311492", "current_trial": 166, "dateTime": 1664464246149, "trialdata": {"rt": 1259, "stimulus": "<p id='stroop-text' class='stroop-blue'>RED</p>", "response": "b", "stimulus-type": "incongruent", "word": "red", "color": "blue", "correct_response": "b", "trial_id": "stroop-trial-1-incongruent-22", "trial_type": "html-keyboard-response", "trial_index": 166, "time_elapsed": 340143, "internal_node_id": "0.0-6.0-71.0"}}, {"uniqueid": "w17040695:a28311492", "current_trial": 167, "dateTime": 1664464247298, "trialdata": {"rt": 643, "stimulus": "<p id='stroop-text' class='stroop-blue'>GREEN</p>", "response": "b", "stimulus-type": "incongruent", "word": "green", "color": "blue", "correct_response": "b", "trial_id": "stroop-trial-1-incongruent-4", "trial_type": "html-keyboard-response", "trial_index": 167, "time_elapsed": 341292, "internal_node_id": "0.0-6.0-72.0"}}, {"uniqueid": "w17040695:a28311492", "current_trial": 168, "dateTime": 1664464248418, "trialdata": {"rt": 616, "stimulus": "<p id='stroop-text' class='stroop-red'>RED</p>", "response": "r", "stimulus-type": "congruent", "word": "red", "color": "red", "correct_response": "r", "trial_id": "stroop-trial-1-congruent-11", "trial_type": "html-keyboard-response", "trial_index": 168, "time_elapsed": 342411, "internal_node_id": "0.0-6.0-73.0"}}, {"uniqueid": "w17040695:a28311492", "current_trial": 169, "dateTime": 1664464249607, "trialdata": {"rt": 687, "stimulus": "<p id='stroop-text' class='stroop-red'>CHAIR</p>", "response": "r", "stimulus-type": "unrelated", "word": "CHAIR", "color": "red", "correct_response": "r", "trial_id": "stroop-trial-1-unrelated-28", "trial_type": "html-keyboard-response", "trial_index": 169, "time_elapsed": 343601, "internal_node_id": "0.0-6.0-74.0"}}, {"uniqueid": "w17040695:a28311492", "current_trial": 170, "dateTime": 1664464250513, "trialdata": {"rt": 402, "stimulus": "<p id='stroop-text' class='stroop-red'>STONE</p>", "response": "r", "stimulus-type": "unrelated", "word": "STONE", "color": "red", "correct_response": "r", "trial_id": "stroop-trial-1-unrelated-25", "trial_type": "html-keyboard-response", "trial_index": 170, "time_elapsed": 344507, "internal_node_id": "0.0-6.0-75.0"}}, {"uniqueid": "w17040695:a28311492", "current_trial": 171, "dateTime": 1664464251398, "trialdata": {"rt": 380, "stimulus": "<p id='stroop-text' class='stroop-red'>BOAT</p>", "response": "r", "stimulus-type": "unrelated", "word": "BOAT", "color": "red", "correct_response": "r", "trial_id": "stroop-trial-1-unrelated-20", "trial_type": "html-keyboard-response", "trial_index": 171, "time_elapsed": 345391, "internal_node_id": "0.0-6.0-76.0"}}, {"uniqueid": "w17040695:a28311492", "current_trial": 172, "dateTime": 1664464252301, "trialdata": {"rt": 398, "stimulus": "<p id='stroop-text' class='stroop-red'>YELLOW</p>", "response": "r", "stimulus-type": "incongruent", "word": "yellow", "color": "red", "correct_response": "r", "trial_id": "stroop-trial-1-incongruent-24", "trial_type": "html-keyboard-response", "trial_index": 172, "time_elapsed": 346295, "internal_node_id": "0.0-6.0-77.0"}}, {"uniqueid": "w17040695:a28311492", "current_trial": 173, "dateTime": 1664464253614, "trialdata": {"rt": 808, "stimulus": "<p id='stroop-text' class='stroop-green'>BOTTLE</p>", "response": "g", "stimulus-type": "unrelated", "word": "BOTTLE", "color": "green", "correct_response": "g", "trial_id": "stroop-trial-1-unrelated-24", "trial_type": "html-keyboard-response", "trial_index": 173, "time_elapsed": 347607, "internal_node_id": "0.0-6.0-78.0"}}, {"uniqueid": "w17040695:a28311492", "current_trial": 174, "dateTime": 1664464254831, "trialdata": {"rt": 714, "stimulus": "<p id='stroop-text' class='stroop-green'>RED</p>", "response": "g", "stimulus-type": "incongruent", "word": "red", "color": "green", "correct_response": "g", "trial_id": "stroop-trial-1-incongruent-18", "trial_type": "html-keyboard-response", "trial_index": 174, "time_elapsed": 348825, "internal_node_id": "0.0-6.0-79.0"}}, {"uniqueid": "w17040695:a28311492", "current_trial": 175, "dateTime": 1664464255709, "trialdata": {"rt": 373, "stimulus": "<p id='stroop-text' class='stroop-green'>GREEN</p>", "response": "g", "stimulus-type": "congruent", "word": "green", "color": "green", "correct_response": "g", "trial_id": "stroop-trial-1-congruent-1", "trial_type": "html-keyboard-response", "trial_index": 175, "time_elapsed": 349702, "internal_node_id": "0.0-6.0-80.0"}}, {"uniqueid": "w17040695:a28311492", "current_trial": 176, "dateTime": 1664464256971, "trialdata": {"rt": 757, "stimulus": "<p id='stroop-text' class='stroop-blue'>BRIDGE</p>", "response": "b", "stimulus-type": "unrelated", "word": "BRIDGE", "color": "blue", "correct_response": "b", "trial_id": "stroop-trial-1-unrelated-3", "trial_type": "html-keyboard-response", "trial_index": 176, "time_elapsed": 350964, "internal_node_id": "0.0-6.0-81.0"}}, {"uniqueid": "w17040695:a28311492", "current_trial": 177, "dateTime": 1664464258348, "trialdata": {"rt": 872, "stimulus": "<p id='stroop-text' class='stroop-yellow'>YELLOW</p>", "response": "y", "stimulus-type": "congruent", "word": "yellow", "color": "yellow", "correct_response": "y", "trial_id": "stroop-trial-1-congruent-14", "trial_type": "html-keyboard-response", "trial_index": 177, "time_elapsed": 352342, "internal_node_id": "0.0-6.0-82.0"}}, {"uniqueid": "w17040695:a28311492", "current_trial": 178, "dateTime": 1664464259773, "trialdata": {"rt": 920, "stimulus": "<p id='stroop-text' class='stroop-green'>WINDOW</p>", "response": "g", "stimulus-type": "unrelated", "word": "WINDOW", "color": "green", "correct_response": "g", "trial_id": "stroop-trial-1-unrelated-8", "trial_type": "html-keyboard-response", "trial_index": 178, "time_elapsed": 353766, "internal_node_id": "0.0-6.0-83.0"}}, {"uniqueid": "w17040695:a28311492", "current_trial": 179, "dateTime": 1664464261477, "trialdata": {"rt": 1200, "stimulus": "<p id='stroop-text' class='stroop-yellow'>BLUE</p>", "response": "y", "stimulus-type": "incongruent", "word": "blue", "color": "yellow", "correct_response": "y", "trial_id": "stroop-trial-1-incongruent-9", "trial_type": "html-keyboard-response", "trial_index": 179, "time_elapsed": 355471, "internal_node_id": "0.0-6.0-84.0"}}, {"uniqueid": "w17040695:a28311492", "current_trial": 180, "dateTime": 1664464262810, "trialdata": {"rt": 829, "stimulus": "<p id='stroop-text' class='stroop-green'>BRIDGE</p>", "response": "g", "stimulus-type": "unrelated", "word": "BRIDGE", "color": "green", "correct_response": "g", "trial_id": "stroop-trial-1-unrelated-1", "trial_type": "html-keyboard-response", "trial_index": 180, "time_elapsed": 356803, "internal_node_id": "0.0-6.0-85.0"}}, {"uniqueid": "w17040695:a28311492", "current_trial": 181, "dateTime": 1664464263906, "trialdata": {"rt": 592, "stimulus": "<p id='stroop-text' class='stroop-red'>RED</p>", "response": "r", "stimulus-type": "congruent", "word": "red", "color": "red", "correct_response": "r", "trial_id": "stroop-trial-1-congruent-6", "trial_type": "html-keyboard-response", "trial_index": 181, "time_elapsed": 357900, "internal_node_id": "0.0-6.0-86.0"}}, {"uniqueid": "w17040695:a28311492", "current_trial": 182, "dateTime": 1664464265546, "trialdata": {"rt": 1135, "stimulus": "<p id='stroop-text' class='stroop-red'>RED</p>", "response": "r", "stimulus-type": "congruent", "word": "red", "color": "red", "correct_response": "r", "trial_id": "stroop-trial-1-congruent-4", "trial_type": "html-keyboard-response", "trial_index": 182, "time_elapsed": 359540, "internal_node_id": "0.0-6.0-87.0"}}, {"uniqueid": "w17040695:a28311492", "current_trial": 183, "dateTime": 1664464267159, "trialdata": {"rt": 1109, "stimulus": "<p id='stroop-text' class='stroop-yellow'>YELLOW</p>", "response": "y", "stimulus-type": "congruent", "word": "yellow", "color": "yellow", "correct_response": "y", "trial_id": "stroop-trial-1-congruent-5", "trial_type": "html-keyboard-response", "trial_index": 183, "time_elapsed": 361153, "internal_node_id": "0.0-6.0-88.0"}}, {"uniqueid": "w17040695:a28311492", "current_trial": 184, "dateTime": 1664464268860, "trialdata": {"rt": 1197, "stimulus": "<p id='stroop-text' class='stroop-green'>RED</p>", "response": "g", "stimulus-type": "incongruent", "word": "red", "color": "green", "correct_response": "g", "trial_id": "stroop-trial-1-incongruent-27", "trial_type": "html-keyboard-response", "trial_index": 184, "time_elapsed": 362854, "internal_node_id": "0.0-6.0-89.0"}}, {"uniqueid": "w17040695:a28311492", "current_trial": 185, "dateTime": 1664464281061, "trialdata": {"rt": 11695, "stimulus": "  <h1> End of block! </h1>\n\n  You have reached the end of the block 2/5. If you need a short break, feel free to take one now before moving on.\n\n  <br><br>\n  In the next block, you will complete another 90 rounds of this game.\n\n  <br><br>\n  <div style='text-align: center;'>Press <code>space</code> to begin.</div>\n  <br><br>\n<div style='text-align: center;'>(If the experiment doesn't continue, try clicking on the text and then pressing <code>space</code>.)</div>", "response": " ", "trial_id": "stroop_1_ready_3", "trial_type": "html-keyboard-response", "trial_index": 185, "time_elapsed": 375055, "internal_node_id": "0.0-7.0"}}, {"uniqueid": "w17040695:a28311492", "current_trial": 186, "dateTime": 1664464282273, "trialdata": {"rt": 1207, "stimulus": "<p id='stroop-text' class='stroop-blue'>YELLOW</p>", "response": "b", "stimulus-type": "incongruent", "word": "yellow", "color": "blue", "correct_response": "b", "trial_id": "stroop-trial-1-incongruent-19", "trial_type": "html-keyboard-response", "trial_index": 186, "time_elapsed": 376266, "internal_node_id": "0.0-8.0-0.0"}}, {"uniqueid": "w17040695:a28311492", "current_trial": 187, "dateTime": 1664464283817, "trialdata": {"rt": 1039, "stimulus": "<p id='stroop-text' class='stroop-red'>RED</p>", "response": "r", "stimulus-type": "congruent", "word": "red", "color": "red", "correct_response": "r", "trial_id": "stroop-trial-1-congruent-4", "trial_type": "html-keyboard-response", "trial_index": 187, "time_elapsed": 377810, "internal_node_id": "0.0-8.0-1.0"}}, {"uniqueid": "w17040695:a28311492", "current_trial": 188, "dateTime": 1664464285060, "trialdata": {"rt": 737, "stimulus": "<p id='stroop-text' class='stroop-red'>GREEN</p>", "response": "r", "stimulus-type": "incongruent", "word": "green", "color": "red", "correct_response": "r", "trial_id": "stroop-trial-1-incongruent-8", "trial_type": "html-keyboard-response", "trial_index": 188, "time_elapsed": 379054, "internal_node_id": "0.0-8.0-2.0"}}, {"uniqueid": "w17040695:a28311492", "current_trial": 189, "dateTime": 1664464286473, "trialdata": {"rt": 909, "stimulus": "<p id='stroop-text' class='stroop-green'>YELLOW</p>", "response": "g", "stimulus-type": "incongruent", "word": "yellow", "color": "green", "correct_response": "g", "trial_id": "stroop-trial-1-incongruent-13", "trial_type": "html-keyboard-response", "trial_index": 189, "time_elapsed": 380466, "internal_node_id": "0.0-8.0-3.0"}}, {"uniqueid": "w17040695:a28311492", "current_trial": 190, "dateTime": 1664464287559, "trialdata": {"rt": 582, "stimulus": "<p id='stroop-text' class='stroop-green'>GREEN</p>", "response": "g", "stimulus-type": "congruent", "word": "green", "color": "green", "correct_response": "g", "trial_id": "stroop-trial-1-congruent-14", "trial_type": "html-keyboard-response", "trial_index": 190, "time_elapsed": 381553, "internal_node_id": "0.0-8.0-4.0"}}, {"uniqueid": "w17040695:a28311492", "current_trial": 191, "dateTime": 1664464288806, "trialdata": {"rt": 741, "stimulus": "<p id='stroop-text' class='stroop-red'>RED</p>", "response": "r", "stimulus-type": "congruent", "word": "red", "color": "red", "correct_response": "r", "trial_id": "stroop-trial-1-congruent-3", "trial_type": "html-keyboard-response", "trial_index": 191, "time_elapsed": 382799, "internal_node_id": "0.0-8.0-5.0"}}, {"uniqueid": "w17040695:a28311492", "current_trial": 192, "dateTime": 1664464290483, "trialdata": {"rt": 1173, "stimulus": "<p id='stroop-text' class='stroop-green'>BLUE</p>", "response": "g", "stimulus-type": "incongruent", "word": "blue", "color": "green", "correct_response": "g", "trial_id": "stroop-trial-1-incongruent-27", "trial_type": "html-keyboard-response", "trial_index": 192, "time_elapsed": 384477, "internal_node_id": "0.0-8.0-6.0"}}, {"uniqueid": "w17040695:a28311492", "current_trial": 193, "dateTime": 1664464292413, "trialdata": {"rt": 1424, "stimulus": "<p id='stroop-text' class='stroop-red'>BLUE</p>", "response": "r", "stimulus-type": "incongruent", "word": "blue", "color": "red", "correct_response": "r", "trial_id": "stroop-trial-1-incongruent-25", "trial_type": "html-keyboard-response", "trial_index": 193, "time_elapsed": 386406, "internal_node_id": "0.0-8.0-7.0"}}, {"uniqueid": "w17040695:a28311492", "current_trial": 194, "dateTime": 1664464294564, "trialdata": {"rt": 1646, "stimulus": "<p id='stroop-text' class='stroop-green'>BRIDGE</p>", "response": "g", "stimulus-type": "unrelated", "word": "BRIDGE", "color": "green", "correct_response": "g", "trial_id": "stroop-trial-1-unrelated-5", "trial_type": "html-keyboard-response", "trial_index": 194, "time_elapsed": 388557, "internal_node_id": "0.0-8.0-8.0"}}, {"uniqueid": "w17040695:a28311492", "current_trial": 195, "dateTime": 1664464295606, "trialdata": {"rt": 538, "stimulus": "<p id='stroop-text' class='stroop-green'>GREEN</p>", "response": "g", "stimulus-type": "congruent", "word": "green", "color": "green", "correct_response": "g", "trial_id": "stroop-trial-1-congruent-9", "trial_type": "html-keyboard-response", "trial_index": 195, "time_elapsed": 389600, "internal_node_id": "0.0-8.0-9.0"}}, {"uniqueid": "w17040695:a28311492", "current_trial": 196, "dateTime": 1664464296794, "trialdata": {"rt": 683, "stimulus": "<p id='stroop-text' class='stroop-yellow'>MONKEY</p>", "response": "y", "stimulus-type": "unrelated", "word": "MONKEY", "color": "yellow", "correct_response": "y", "trial_id": "stroop-trial-1-unrelated-12", "trial_type": "html-keyboard-response", "trial_index": 196, "time_elapsed": 390788, "internal_node_id": "0.0-8.0-10.0"}}, {"uniqueid": "w17040695:a28311492", "current_trial": 197, "dateTime": 1664464298114, "trialdata": {"rt": 815, "stimulus": "<p id='stroop-text' class='stroop-red'>MONKEY</p>", "response": "r", "stimulus-type": "unrelated", "word": "MONKEY", "color": "red", "correct_response": "r", "trial_id": "stroop-trial-1-unrelated-1", "trial_type": "html-keyboard-response", "trial_index": 197, "time_elapsed": 392108, "internal_node_id": "0.0-8.0-11.0"}}, {"uniqueid": "w17040695:a28311492", "current_trial": 198, "dateTime": 1664464298978, "trialdata": {"rt": 359, "stimulus": "<p id='stroop-text' class='stroop-red'>YELLOW</p>", "response": "r", "stimulus-type": "incongruent", "word": "yellow", "color": "red", "correct_response": "r", "trial_id": "stroop-trial-1-incongruent-3", "trial_type": "html-keyboard-response", "trial_index": 198, "time_elapsed": 392972, "internal_node_id": "0.0-8.0-12.0"}}, {"uniqueid": "w17040695:a28311492", "current_trial": 199, "dateTime": 1664464299952, "trialdata": {"rt": 469, "stimulus": "<p id='stroop-text' class='stroop-yellow'>BOTTLE</p>", "response": "y", "stimulus-type": "unrelated", "word": "BOTTLE", "color": "yellow", "correct_response": "y", "trial_id": "stroop-trial-1-unrelated-13", "trial_type": "html-keyboard-response", "trial_index": 199, "time_elapsed": 393946, "internal_node_id": "0.0-8.0-13.0"}}, {"uniqueid": "w17040695:a28311492", "current_trial": 200, "dateTime": 1664464301233, "trialdata": {"rt": 776, "stimulus": "<p id='stroop-text' class='stroop-red'>BOTTLE</p>", "response": "r", "stimulus-type": "unrelated", "word": "BOTTLE", "color": "red", "correct_response": "r", "trial_id": "stroop-trial-1-unrelated-8", "trial_type": "html-keyboard-response", "trial_index": 200, "time_elapsed": 395227, "internal_node_id": "0.0-8.0-14.0"}}, {"uniqueid": "w17040695:a28311492", "current_trial": 201, "dateTime": 1664464302625, "trialdata": {"rt": 888, "stimulus": "<p id='stroop-text' class='stroop-green'>YELLOW</p>", "response": "g", "stimulus-type": "incongruent", "word": "yellow", "color": "green", "correct_response": "g", "trial_id": "stroop-trial-1-incongruent-20", "trial_type": "html-keyboard-response", "trial_index": 201, "time_elapsed": 396619, "internal_node_id": "0.0-8.0-15.0"}}, {"uniqueid": "w17040695:a28311492", "current_trial": 202, "dateTime": 1664464303861, "trialdata": {"rt": 731, "stimulus": "<p id='stroop-text' class='stroop-blue'>YELLOW</p>", "response": "b", "stimulus-type": "incongruent", "word": "yellow", "color": "blue", "correct_response": "b", "trial_id": "stroop-trial-1-incongruent-9", "trial_type": "html-keyboard-response", "trial_index": 202, "time_elapsed": 397855, "internal_node_id": "0.0-8.0-16.0"}}, {"uniqueid": "w17040695:a28311492", "current_trial": 203, "dateTime": 1664464305035, "trialdata": {"rt": 670, "stimulus": "<p id='stroop-text' class='stroop-green'>GREEN</p>", "response": "g", "stimulus-type": "congruent", "word": "green", "color": "green", "correct_response": "g", "trial_id": "stroop-trial-1-congruent-8", "trial_type": "html-keyboard-response", "trial_index": 203, "time_elapsed": 399029, "internal_node_id": "0.0-8.0-17.0"}}, {"uniqueid": "w17040695:a28311492", "current_trial": 204, "dateTime": 1664464306105, "trialdata": {"rt": 564, "stimulus": "<p id='stroop-text' class='stroop-green'>GREEN</p>", "response": "g", "stimulus-type": "congruent", "word": "green", "color": "green", "correct_response": "g", "trial_id": "stroop-trial-1-congruent-20", "trial_type": "html-keyboard-response", "trial_index": 204, "time_elapsed": 400099, "internal_node_id": "0.0-8.0-18.0"}}, {"uniqueid": "w17040695:a28311492", "current_trial": 205, "dateTime": 1664464307398, "trialdata": {"rt": 788, "stimulus": "<p id='stroop-text' class='stroop-blue'>BOTTLE</p>", "response": "b", "stimulus-type": "unrelated", "word": "BOTTLE", "color": "blue", "correct_response": "b", "trial_id": "stroop-trial-1-unrelated-4", "trial_type": "html-keyboard-response", "trial_index": 205, "time_elapsed": 401392, "internal_node_id": "0.0-8.0-19.0"}}, {"uniqueid": "w17040695:a28311492", "current_trial": 206, "dateTime": 1664464308379, "trialdata": {"rt": 476, "stimulus": "<p id='stroop-text' class='stroop-red'>RED</p>", "response": "r", "stimulus-type": "congruent", "word": "red", "color": "red", "correct_response": "r", "trial_id": "stroop-trial-1-congruent-16", "trial_type": "html-keyboard-response", "trial_index": 206, "time_elapsed": 402372, "internal_node_id": "0.0-8.0-20.0"}}, {"uniqueid": "w17040695:a28311492", "current_trial": 207, "dateTime": 1664464309843, "trialdata": {"rt": 959, "stimulus": "<p id='stroop-text' class='stroop-yellow'>BLUE</p>", "response": "y", "stimulus-type": "incongruent", "word": "blue", "color": "yellow", "correct_response": "y", "trial_id": "stroop-trial-1-incongruent-14", "trial_type": "html-keyboard-response", "trial_index": 207, "time_elapsed": 403836, "internal_node_id": "0.0-8.0-21.0"}}, {"uniqueid": "w17040695:a28311492", "current_trial": 208, "dateTime": 1664464311230, "trialdata": {"rt": 883, "stimulus": "<p id='stroop-text' class='stroop-yellow'>GREEN</p>", "response": "y", "stimulus-type": "incongruent", "word": "green", "color": "yellow", "correct_response": "y", "trial_id": "stroop-trial-1-incongruent-29", "trial_type": "html-keyboard-response", "trial_index": 208, "time_elapsed": 405224, "internal_node_id": "0.0-8.0-22.0"}}, {"uniqueid": "w17040695:a28311492", "current_trial": 209, "dateTime": 1664464312358, "trialdata": {"rt": 623, "stimulus": "<p id='stroop-text' class='stroop-red'>RED</p>", "response": "r", "stimulus-type": "congruent", "word": "red", "color": "red", "correct_response": "r", "trial_id": "stroop-trial-1-congruent-22", "trial_type": "html-keyboard-response", "trial_index": 209, "time_elapsed": 406351, "internal_node_id": "0.0-8.0-23.0"}}, {"uniqueid": "w17040695:a28311492", "current_trial": 210, "dateTime": 1664464313524, "trialdata": {"rt": 661, "stimulus": "<p id='stroop-text' class='stroop-yellow'>GREEN</p>", "response": "y", "stimulus-type": "incongruent", "word": "green", "color": "yellow", "correct_response": "y", "trial_id": "stroop-trial-1-incongruent-15", "trial_type": "html-keyboard-response", "trial_index": 210, "time_elapsed": 407518, "internal_node_id": "0.0-8.0-24.0"}}, {"uniqueid": "w17040695:a28311492", "current_trial": 211, "dateTime": 1664464314535, "trialdata": {"rt": 506, "stimulus": "<p id='stroop-text' class='stroop-yellow'>YELLOW</p>", "response": "y", "stimulus-type": "congruent", "word": "yellow", "color": "yellow", "correct_response": "y", "trial_id": "stroop-trial-1-congruent-24", "trial_type": "html-keyboard-response", "trial_index": 211, "time_elapsed": 408528, "internal_node_id": "0.0-8.0-25.0"}}, {"uniqueid": "w17040695:a28311492", "current_trial": 212, "dateTime": 1664464315548, "trialdata": {"rt": 509, "stimulus": "<p id='stroop-text' class='stroop-green'>GREEN</p>", "response": "r", "stimulus-type": "congruent", "word": "green", "color": "green", "correct_response": "g", "trial_id": "stroop-trial-1-congruent-19", "trial_type": "html-keyboard-response", "trial_index": 212, "time_elapsed": 409542, "internal_node_id": "0.0-8.0-26.0"}}, {"uniqueid": "w17040695:a28311492", "current_trial": 213, "dateTime": 1664464317875, "trialdata": {"rt": 1823, "stimulus": "<p id='stroop-text' class='stroop-yellow'>WINDOW</p>", "response": "y", "stimulus-type": "unrelated", "word": "WINDOW", "color": "yellow", "correct_response": "y", "trial_id": "stroop-trial-1-unrelated-19", "trial_type": "html-keyboard-response", "trial_index": 213, "time_elapsed": 411869, "internal_node_id": "0.0-8.0-27.0"}}, {"uniqueid": "w17040695:a28311492", "current_trial": 214, "dateTime": 1664464319418, "trialdata": {"rt": 1038, "stimulus": "<p id='stroop-text' class='stroop-blue'>GREEN</p>", "response": "b", "stimulus-type": "incongruent", "word": "green", "color": "blue", "correct_response": "b", "trial_id": "stroop-trial-1-incongruent-23", "trial_type": "html-keyboard-response", "trial_index": 214, "time_elapsed": 413411, "internal_node_id": "0.0-8.0-28.0"}}, {"uniqueid": "w17040695:a28311492", "current_trial": 215, "dateTime": 1664464320686, "trialdata": {"rt": 764, "stimulus": "<p id='stroop-text' class='stroop-yellow'>CHAIR</p>", "response": "y", "stimulus-type": "unrelated", "word": "CHAIR", "color": "yellow", "correct_response": "y", "trial_id": "stroop-trial-1-unrelated-17", "trial_type": "html-keyboard-response", "trial_index": 215, "time_elapsed": 414680, "internal_node_id": "0.0-8.0-29.0"}}, {"uniqueid": "w17040695:a28311492", "current_trial": 216, "dateTime": 1664464322145, "trialdata": {"rt": 954, "stimulus": "<p id='stroop-text' class='stroop-red'>BRAIN</p>", "response": "r", "stimulus-type": "unrelated", "word": "BRAIN", "color": "red", "correct_response": "r", "trial_id": "stroop-trial-1-unrelated-24", "trial_type": "html-keyboard-response", "trial_index": 216, "time_elapsed": 416139, "internal_node_id": "0.0-8.0-30.0"}}, {"uniqueid": "w17040695:a28311492", "current_trial": 217, "dateTime": 1664464323199, "trialdata": {"rt": 549, "stimulus": "<p id='stroop-text' class='stroop-red'>GREEN</p>", "response": "r", "stimulus-type": "incongruent", "word": "green", "color": "red", "correct_response": "r", "trial_id": "stroop-trial-1-incongruent-10", "trial_type": "html-keyboard-response", "trial_index": 217, "time_elapsed": 417193, "internal_node_id": "0.0-8.0-31.0"}}, {"uniqueid": "w17040695:a28311492", "current_trial": 218, "dateTime": 1664464324159, "trialdata": {"rt": 456, "stimulus": "<p id='stroop-text' class='stroop-red'>RED</p>", "response": "r", "stimulus-type": "congruent", "word": "red", "color": "red", "correct_response": "r", "trial_id": "stroop-trial-1-congruent-10", "trial_type": "html-keyboard-response", "trial_index": 218, "time_elapsed": 418153, "internal_node_id": "0.0-8.0-32.0"}}, {"uniqueid": "w17040695:a28311492", "current_trial": 219, "dateTime": 1664464325479, "trialdata": {"rt": 815, "stimulus": "<p id='stroop-text' class='stroop-blue'>GREEN</p>", "response": "b", "stimulus-type": "incongruent", "word": "green", "color": "blue", "correct_response": "b", "trial_id": "stroop-trial-1-incongruent-21", "trial_type": "html-keyboard-response", "trial_index": 219, "time_elapsed": 419473, "internal_node_id": "0.0-8.0-33.0"}}, {"uniqueid": "w17040695:a28311492", "current_trial": 220, "dateTime": 1664464326348, "trialdata": {"rt": 364, "stimulus": "<p id='stroop-text' class='stroop-blue'>RED</p>", "response": "b", "stimulus-type": "incongruent", "word": "red", "color": "blue", "correct_response": "b", "trial_id": "stroop-trial-1-incongruent-30", "trial_type": "html-keyboard-response", "trial_index": 220, "time_elapsed": 420342, "internal_node_id": "0.0-8.0-34.0"}}, {"uniqueid": "w17040695:a28311492", "current_trial": 221, "dateTime": 1664464327185, "trialdata": {"rt": 332, "stimulus": "<p id='stroop-text' class='stroop-blue'>BLUE</p>", "response": "b", "stimulus-type": "congruent", "word": "blue", "color": "blue", "correct_response": "b", "trial_id": "stroop-trial-1-congruent-18", "trial_type": "html-keyboard-response", "trial_index": 221, "time_elapsed": 421178, "internal_node_id": "0.0-8.0-35.0"}}, {"uniqueid": "w17040695:a28311492", "current_trial": 222, "dateTime": 1664464328527, "trialdata": {"rt": 838, "stimulus": "<p id='stroop-text' class='stroop-green'>BRAIN</p>", "response": "g", "stimulus-type": "unrelated", "word": "BRAIN", "color":