{"condition": 0, "counterbalance": 0, "assignmentId": "a51050649", "workerId": "w14814420", "hitId": "h72090629", "currenttrial": 965, "bonus": 0, "data": [{"uniqueid": "w14814420:a51050649", "current_trial": 0, "dateTime": 1664555138640, "trialdata": {"success": true, "trial_type": "fullscreen", "trial_index": 0, "time_elapsed": 10730, "internal_node_id": "0.0-0.0"}}, {"uniqueid": "w14814420:a51050649", "current_trial": 1, "dateTime": 1664555185482, "trialdata": {"view_history": [{"page_index": 0, "viewing_time": 46837}], "rt": 46838, "trial_id": "exp_instructions_distractor", "trial_type": "instructions", "trial_index": 1, "time_elapsed": 57572, "internal_node_id": "0.0-1.0"}}, {"uniqueid": "w14814420:a51050649", "current_trial": 2, "dateTime": 1664555222669, "trialdata": {"view_history": [{"page_index": 0, "viewing_time": 37186}], "rt": 37186, "trial_id": "color_game_instructions", "trial_type": "instructions", "trial_index": 2, "time_elapsed": 94759, "internal_node_id": "0.0-2.0"}}, {"uniqueid": "w14814420:a51050649", "current_trial": 3, "dateTime": 1664555238924, "trialdata": {"rt": 16253, "stimulus": "<h1> Get ready to start the game! </h1>\n\nThank you for reading the instructions. Get ready start with the first of 5 block(s) of this game.\n<br><br>\nIn this first block, you will complete 90 rounds of this game before moving on.\n<br><br>\nRemember, the better you perform, the bigger your bonus will be!\n<br><br>\n<div style='text-align: center;'>Press <code>space</code> to begin.</div>", "response": " ", "trial_id": "stroop_1_ready_1", "trial_type": "html-keyboard-response", "trial_index": 3, "time_elapsed": 111014, "internal_node_id": "0.0-3.0"}}, {"uniqueid": "w14814420:a51050649", "current_trial": 4, "dateTime": 1664555239604, "trialdata": {"rt": 674, "stimulus": "<p id='stroop-text' class='stroop-red'>YELLOW</p>", "response": "y", "stimulus-type": "incongruent", "word": "yellow", "color": "red", "correct_response": "r", "trial_id": "stroop-trial-1-incongruent-19", "trial_type": "html-keyboard-response", "trial_index": 4, "time_elapsed": 111693, "internal_node_id": "0.0-4.0-0.0"}}, {"uniqueid": "w14814420:a51050649", "current_trial": 5, "dateTime": 1664555240968, "trialdata": {"rt": 862, "stimulus": "<p id='stroop-text' class='stroop-blue'>BLUE</p>", "response": "b", "stimulus-type": "congruent", "word": "blue", "color": "blue", "correct_response": "b", "trial_id": "stroop-trial-1-congruent-24", "trial_type": "html-keyboard-response", "trial_index": 5, "time_elapsed": 113058, "internal_node_id": "0.0-4.0-1.0"}}, {"uniqueid": "w14814420:a51050649", "current_trial": 6, "dateTime": 1664555243132, "trialdata": {"rt": 1659, "stimulus": "<p id='stroop-text' class='stroop-yellow'>GREEN</p>", "response": "y", "stimulus-type": "incongruent", "word": "green", "color": "yellow", "correct_response": "y", "trial_id": "stroop-trial-1-incongruent-21", "trial_type": "html-keyboard-response", "trial_index": 6, "time_elapsed": 115222, "internal_node_id": "0.0-4.0-2.0"}}, {"uniqueid": "w14814420:a51050649", "current_trial": 7, "dateTime": 1664555245249, "trialdata": {"rt": 1612, "stimulus": "<p id='stroop-text' class='stroop-green'>BOAT</p>", "response": "g", "stimulus-type": "unrelated", "word": "BOAT", "color": "green", "correct_response": "g", "trial_id": "stroop-trial-1-unrelated-27", "trial_type": "html-keyboard-response", "trial_index": 7, "time_elapsed": 117338, "internal_node_id": "0.0-4.0-3.0"}}, {"uniqueid": "w14814420:a51050649", "current_trial": 8, "dateTime": 1664555246678, "trialdata": {"rt": 925, "stimulus": "<p id='stroop-text' class='stroop-blue'>SHIP</p>", "response": "b", "stimulus-type": "unrelated", "word": "SHIP", "color": "blue", "correct_response": "b", "trial_id": "stroop-trial-1-unrelated-20", "trial_type": "html-keyboard-response", "trial_index": 8, "time_elapsed": 118768, "internal_node_id": "0.0-4.0-4.0"}}, {"uniqueid": "w14814420:a51050649", "current_trial": 9, "dateTime": 1664555248231, "trialdata": {"rt": 1041, "stimulus": "<p id='stroop-text' class='stroop-yellow'>RED</p>", "response": "y", "stimulus-type": "incongruent", "word": "red", "color": "yellow", "correct_response": "y", "trial_id": "stroop-trial-1-incongruent-20", "trial_type": "html-keyboard-response", "trial_index": 9, "time_elapsed": 120320, "internal_node_id": "0.0-4.0-5.0"}}, {"uniqueid": "w14814420:a51050649", "current_trial": 10, "dateTime": 1664555250224, "trialdata": {"rt": 1488, "stimulus": "<p id='stroop-text' class='stroop-green'>GREEN</p>", "response": "g", "stimulus-type": "congruent", "word": "green", "color": "green", "correct_response": "g", "trial_id": "stroop-trial-1-congruent-15", "trial_type": "html-keyboard-response", "trial_index": 10, "time_elapsed": 122313, "internal_node_id": "0.0-4.0-6.0"}}, {"uniqueid": "w14814420:a51050649", "current_trial": 11, "dateTime": 1664555251595, "trialdata": {"rt": 868, "stimulus": "<p id='stroop-text' class='stroop-blue'>CHAIR</p>", "response": "b", "stimulus-type": "unrelated", "word": "CHAIR", "color": "blue", "correct_response": "b", "trial_id": "stroop-trial-1-unrelated-8", "trial_type": "html-keyboard-response", "trial_index": 11, "time_elapsed": 123685, "internal_node_id": "0.0-4.0-7.0"}}, {"uniqueid": "w14814420:a51050649", "current_trial": 12, "dateTime": 1664555253003, "trialdata": {"rt": 892, "stimulus": "<p id='stroop-text' class='stroop-red'>RED</p>", "response": "r", "stimulus-type": "congruent", "word": "red", "color": "red", "correct_response": "r", "trial_id": "stroop-trial-1-congruent-3", "trial_type": "html-keyboard-response", "trial_index": 12, "time_elapsed": 125093, "internal_node_id": "0.0-4.0-8.0"}}, {"uniqueid": "w14814420:a51050649", "current_trial": 13, "dateTime": 1664555255007, "trialdata": {"rt": 1500, "stimulus": "<p id='stroop-text' class='stroop-green'>MONKEY</p>", "response": "g", "stimulus-type": "unrelated", "word": "MONKEY", "color": "green", "correct_response": "g", "trial_id": "stroop-trial-1-unrelated-15", "trial_type": "html-keyboard-response", "trial_index": 13, "time_elapsed": 127096, "internal_node_id": "0.0-4.0-9.0"}}, {"uniqueid": "w14814420:a51050649", "current_trial": 14, "dateTime": 1664555256149, "trialdata": {"rt": 639, "stimulus": "<p id='stroop-text' class='stroop-blue'>CHAIR</p>", "response": "b", "stimulus-type": "unrelated", "word": "CHAIR", "color": "blue", "correct_response": "b", "trial_id": "stroop-trial-1-unrelated-23", "trial_type": "html-keyboard-response", "trial_index": 14, "time_elapsed": 128239, "internal_node_id": "0.0-4.0-10.0"}}, {"uniqueid": "w14814420:a51050649", "current_trial": 15, "dateTime": 1664555257341, "trialdata": {"rt": 690, "stimulus": "<p id='stroop-text' class='stroop-yellow'>RED</p>", "response": "y", "stimulus-type": "incongruent", "word": "red", "color": "yellow", "correct_response": "y", "trial_id": "stroop-trial-1-incongruent-4", "trial_type": "html-keyboard-response", "trial_index": 15, "time_elapsed": 129431, "internal_node_id": "0.0-4.0-11.0"}}, {"uniqueid": "w14814420:a51050649", "current_trial": 16, "dateTime": 1664555258423, "trialdata": {"rt": 578, "stimulus": "<p id='stroop-text' class='stroop-blue'>BLUE</p>", "response": "b", "stimulus-type": "congruent", "word": "blue", "color": "blue", "correct_response": "b", "trial_id": "stroop-trial-1-congruent-17", "trial_type": "html-keyboard-response", "trial_index": 16, "time_elapsed": 130513, "internal_node_id": "0.0-4.0-12.0"}}, {"uniqueid": "w14814420:a51050649", "current_trial": 17, "dateTime": 1664555259476, "trialdata": {"rt": 550, "stimulus": "<p id='stroop-text' class='stroop-blue'>RED</p>", "response": "b", "stimulus-type": "incongruent", "word": "red", "color": "blue", "correct_response": "b", "trial_id": "stroop-trial-1-incongruent-23", "trial_type": "html-keyboard-response", "trial_index": 17, "time_elapsed": 131565, "internal_node_id": "0.0-4.0-13.0"}}, {"uniqueid": "w14814420:a51050649", "current_trial": 18, "dateTime": 1664555260759, "trialdata": {"rt": 779, "stimulus": "<p id='stroop-text' class='stroop-yellow'>GREEN</p>", "response": "g", "stimulus-type": "incongruent", "word": "green", "color": "yellow", "correct_response": "y", "trial_id": "stroop-trial-1-incongruent-12", "trial_type": "html-keyboard-response", "trial_index": 18, "time_elapsed": 132848, "internal_node_id": "0.0-4.0-14.0"}}, {"uniqueid": "w14814420:a51050649", "current_trial": 19, "dateTime": 1664555262281, "trialdata": {"rt": 1004, "stimulus": "<p id='stroop-text' class='stroop-red'>RED</p>", "response": "r", "stimulus-type": "congruent", "word": "red", "color": "red", "correct_response": "r", "trial_id": "stroop-trial-1-congruent-14", "trial_type": "html-keyboard-response", "trial_index": 19, "time_elapsed": 134371, "internal_node_id": "0.0-4.0-15.0"}}, {"uniqueid": "w14814420:a51050649", "current_trial": 20, "dateTime": 1664555263578, "trialdata": {"rt": 795, "stimulus": "<p id='stroop-text' class='stroop-yellow'>CHAIR</p>", "response": "y", "stimulus-type": "unrelated", "word": "CHAIR", "color": "yellow", "correct_response": "y", "trial_id": "stroop-trial-1-unrelated-14", "trial_type": "html-keyboard-response", "trial_index": 20, "time_elapsed": 135668, "internal_node_id": "0.0-4.0-16.0"}}, {"uniqueid": "w14814420:a51050649", "current_trial": 21, "dateTime": 1664555265370, "trialdata": {"rt": 1287, "stimulus": "<p id='stroop-text' class='stroop-blue'>GREEN</p>", "response": "b", "stimulus-type": "incongruent", "word": "green", "color": "blue", "correct_response": "b", "trial_id": "stroop-trial-1-incongruent-30", "trial_type": "html-keyboard-response", "trial_index": 21, "time_elapsed": 137460, "internal_node_id": "0.0-4.0-17.0"}}, {"uniqueid": "w14814420:a51050649", "current_trial": 22, "dateTime": 1664555266480, "trialdata": {"rt": 606, "stimulus": "<p id='stroop-text' class='stroop-yellow'>YELLOW</p>", "response": "y", "stimulus-type": "congruent", "word": "yellow", "color": "yellow", "correct_response": "y", "trial_id": "stroop-trial-1-congruent-26", "trial_type": "html-keyboard-response", "trial_index": 22, "time_elapsed": 138569, "internal_node_id": "0.0-4.0-18.0"}}, {"uniqueid": "w14814420:a51050649", "current_trial": 23, "dateTime": 1664555267718, "trialdata": {"rt": 733, "stimulus": "<p id='stroop-text' class='stroop-yellow'>BLUE</p>", "response": "b", "stimulus-type": "incongruent", "word": "blue", "color": "yellow", "correct_response": "y", "trial_id": "stroop-trial-1-incongruent-8", "trial_type": "html-keyboard-response", "trial_index": 23, "time_elapsed": 139808, "internal_node_id": "0.0-4.0-19.0"}}, {"uniqueid": "w14814420:a51050649", "current_trial": 24, "dateTime": 1664555269979, "trialdata": {"rt": 1749, "stimulus": "<p id='stroop-text' class='stroop-red'>BOTTLE</p>", "response": "r", "stimulus-type": "unrelated", "word": "BOTTLE", "color": "red", "correct_response": "r", "trial_id": "stroop-trial-1-unrelated-17", "trial_type": "html-keyboard-response", "trial_index": 24, "time_elapsed": 142068, "internal_node_id": "0.0-4.0-20.0"}}, {"uniqueid": "w14814420:a51050649", "current_trial": 25, "dateTime": 1664555271400, "trialdata": {"rt": 917, "stimulus": "<p id='stroop-text' class='stroop-blue'>BLUE</p>", "response": "b", "stimulus-type": "congruent", "word": "blue", "color": "blue", "correct_response": "b", "trial_id": "stroop-trial-1-congruent-2", "trial_type": "html-keyboard-response", "trial_index": 25, "time_elapsed": 143490, "internal_node_id": "0.0-4.0-21.0"}}, {"uniqueid": "w14814420:a51050649", "current_trial": 26, "dateTime": 1664555273427, "trialdata": {"rt": 1523, "stimulus": "<p id='stroop-text' class='stroop-red'>WINDOW</p>", "response": "r", "stimulus-type": "unrelated", "word": "WINDOW", "color": "red", "correct_response": "r", "trial_id": "stroop-trial-1-unrelated-26", "trial_type": "html-keyboard-response", "trial_index": 26, "time_elapsed": 145517, "internal_node_id": "0.0-4.0-22.0"}}, {"uniqueid": "w14814420:a51050649", "current_trial": 27, "dateTime": 1664555274890, "trialdata": {"rt": 959, "stimulus": "<p id='stroop-text' class='stroop-yellow'>BLUE</p>", "response": "y", "stimulus-type": "incongruent", "word": "blue", "color": "yellow", "correct_response": "y", "trial_id": "stroop-trial-1-incongruent-2", "trial_type": "html-keyboard-response", "trial_index": 27, "time_elapsed": 146980, "internal_node_id": "0.0-4.0-23.0"}}, {"uniqueid": "w14814420:a51050649", "current_trial": 28, "dateTime": 1664555276295, "trialdata": {"rt": 901, "stimulus": "<p id='stroop-text' class='stroop-red'>BLUE</p>", "response": "r", "stimulus-type": "incongruent", "word": "blue", "color": "red", "correct_response": "r", "trial_id": "stroop-trial-1-incongruent-3", "trial_type": "html-keyboard-response", "trial_index": 28, "time_elapsed": 148385, "internal_node_id": "0.0-4.0-24.0"}}, {"uniqueid": "w14814420:a51050649", "current_trial": 29, "dateTime": 1664555277819, "trialdata": {"rt": 1019, "stimulus": "<p id='stroop-text' class='stroop-green'>RED</p>", "response": "g", "stimulus-type": "incongruent", "word": "red", "color": "green", "correct_response": "g", "trial_id": "stroop-trial-1-incongruent-18", "trial_type": "html-keyboard-response", "trial_index": 29, "time_elapsed": 149908, "internal_node_id": "0.0-4.0-25.0"}}, {"uniqueid": "w14814420:a51050649", "current_trial": 30, "dateTime": 1664555278990, "trialdata": {"rt": 667, "stimulus": "<p id='stroop-text' class='stroop-green'>BRIDGE</p>", "response": "g", "stimulus-type": "unrelated", "word": "BRIDGE", "color": "green", "correct_response": "g", "trial_id": "stroop-trial-1-unrelated-11", "trial_type": "html-keyboard-response", "trial_index": 30, "time_elapsed": 151080, "internal_node_id": "0.0-4.0-26.0"}}, {"uniqueid": "w14814420:a51050649", "current_trial": 31, "dateTime": 1664555279957, "trialdata": {"rt": 464, "stimulus": "<p id='stroop-text' class='stroop-yellow'>YELLOW</p>", "response": "y", "stimulus-type": "congruent", "word": "yellow", "color": "yellow", "correct_response": "y", "trial_id": "stroop-trial-1-congruent-29", "trial_type": "html-keyboard-response", "trial_index": 31, "time_elapsed": 152047, "internal_node_id": "0.0-4.0-27.0"}}, {"uniqueid": "w14814420:a51050649", "current_trial": 32, "dateTime": 1664555281937, "trialdata": {"rt": 1479, "stimulus": "<p id='stroop-text' class='stroop-green'>YELLOW</p>", "response": "g", "stimulus-type": "incongruent", "word": "yellow", "color": "green", "correct_response": "g", "trial_id": "stroop-trial-1-incongruent-22", "trial_type": "html-keyboard-response", "trial_index": 32, "time_elapsed": 154027, "internal_node_id": "0.0-4.0-28.0"}}, {"uniqueid": "w14814420:a51050649", "current_trial": 33, "dateTime": 1664555283425, "trialdata": {"rt": 985, "stimulus": "<p id='stroop-text' class='stroop-yellow'>YELLOW</p>", "response": "y", "stimulus-type": "congruent", "word": "yellow", "color": "yellow", "correct_response": "y", "trial_id": "stroop-trial-1-congruent-20", "trial_type": "html-keyboard-response", "trial_index": 33, "time_elapsed": 155514, "internal_node_id": "0.0-4.0-29.0"}}, {"uniqueid": "w14814420:a51050649", "current_trial": 34, "dateTime": 1664555284538, "trialdata": {"rt": 612, "stimulus": "<p id='stroop-text' class='stroop-red'>RED</p>", "response": "r", "stimulus-type": "congruent", "word": "red", "color": "red", "correct_response": "r", "trial_id": "stroop-trial-1-congruent-11", "trial_type": "html-keyboard-response", "trial_index": 34, "time_elapsed": 156628, "internal_node_id": "0.0-4.0-30.0"}}, {"uniqueid": "w14814420:a51050649", "current_trial": 35, "dateTime": 1664555286282, "trialdata": {"rt": 1242, "stimulus": "<p id='stroop-text' class='stroop-green'>GREEN</p>", "response": "g", "stimulus-type": "congruent", "word": "green", "color": "green", "correct_response": "g", "trial_id": "stroop-trial-1-congruent-4", "trial_type": "html-keyboard-response", "trial_index": 35, "time_elapsed": 158372, "internal_node_id": "0.0-4.0-31.0"}}, {"uniqueid": "w14814420:a51050649", "current_trial": 36, "dateTime": 1664555287383, "trialdata": {"rt": 596, "stimulus": "<p id='stroop-text' class='stroop-blue'>BLUE</p>", "response": "b", "stimulus-type": "congruent", "word": "blue", "color": "blue", "correct_response": "b", "trial_id": "stroop-trial-1-congruent-16", "trial_type": "html-keyboard-response", "trial_index": 36, "time_elapsed": 159472, "internal_node_id": "0.0-4.0-32.0"}}, {"uniqueid": "w14814420:a51050649", "current_trial": 37, "dateTime": 1664555288532, "trialdata": {"rt": 645, "stimulus": "<p id='stroop-text' class='stroop-green'>DOG</p>", "response": "g", "stimulus-type": "unrelated", "word": "DOG", "color": "green", "correct_response": "g", "trial_id": "stroop-trial-1-unrelated-18", "trial_type": "html-keyboard-response", "trial_index": 37, "time_elapsed": 160621, "internal_node_id": "0.0-4.0-33.0"}}, {"uniqueid": "w14814420:a51050649", "current_trial": 38, "dateTime": 1664555289623, "trialdata": {"rt": 587, "stimulus": "<p id='stroop-text' class='stroop-yellow'>BLUE</p>", "response": "y", "stimulus-type": "incongruent", "word": "blue", "color": "yellow", "correct_response": "y", "trial_id": "stroop-trial-1-incongruent-27", "trial_type": "html-keyboard-response", "trial_index": 38, "time_elapsed": 161712, "internal_node_id": "0.0-4.0-34.0"}}, {"uniqueid": "w14814420:a51050649", "current_trial": 39, "dateTime": 1664555290987, "trialdata": {"rt": 857, "stimulus": "<p id='stroop-text' class='stroop-blue'>BLUE</p>", "response": "b", "stimulus-type": "congruent", "word": "blue", "color": "blue", "correct_response": "b", "trial_id": "stroop-trial-1-congruent-7", "trial_type": "html-keyboard-response", "trial_index": 39, "time_elapsed": 163076, "internal_node_id": "0.0-4.0-35.0"}}, {"uniqueid": "w14814420:a51050649", "current_trial": 40, "dateTime": 1664555292422, "trialdata": {"rt": 931, "stimulus": "<p id='stroop-text' class='stroop-green'>BLUE</p>", "response": "g", "stimulus-type": "incongruent", "word": "blue", "color": "green", "correct_response": "g", "trial_id": "stroop-trial-1-incongruent-16", "trial_type": "html-keyboard-response", "trial_index": 40, "time_elapsed": 164511, "internal_node_id": "0.0-4.0-36.0"}}, {"uniqueid": "w14814420:a51050649", "current_trial": 41, "dateTime": 1664555293774, "trialdata": {"rt": 842, "stimulus": "<p id='stroop-text' class='stroop-red'>WINDOW</p>", "response": "r", "stimulus-type": "unrelated", "word": "WINDOW", "color": "red", "correct_response": "r", "trial_id": "stroop-trial-1-unrelated-5", "trial_type": "html-keyboard-response", "trial_index": 41, "time_elapsed": 165864, "internal_node_id": "0.0-4.0-37.0"}}, {"uniqueid": "w14814420:a51050649", "current_trial": 42, "dateTime": 1664555295196, "trialdata": {"rt": 920, "stimulus": "<p id='stroop-text' class='stroop-blue'>BOAT</p>", "response": "b", "stimulus-type": "unrelated", "word": "BOAT", "color": "blue", "correct_response": "b", "trial_id": "stroop-trial-1-unrelated-22", "trial_type": "html-keyboard-response", "trial_index": 42, "time_elapsed": 167286, "internal_node_id": "0.0-4.0-38.0"}}, {"uniqueid": "w14814420:a51050649", "current_trial": 43, "dateTime": 1664555296514, "trialdata": {"rt": 814, "stimulus": "<p id='stroop-text' class='stroop-red'>SHIP</p>", "response": "r", "stimulus-type": "unrelated", "word": "SHIP", "color": "red", "correct_response": "r", "trial_id": "stroop-trial-1-unrelated-9", "trial_type": "html-keyboard-response", "trial_index": 43, "time_elapsed": 168604, "internal_node_id": "0.0-4.0-39.0"}}, {"uniqueid": "w14814420:a51050649", "current_trial": 44, "dateTime": 1664555297777, "trialdata": {"rt": 759, "stimulus": "<p id='stroop-text' class='stroop-yellow'>DOG</p>", "response": "y", "stimulus-type": "unrelated", "word": "DOG", "color": "yellow", "correct_response": "y", "trial_id": "stroop-trial-1-unrelated-6", "trial_type": "html-keyboard-response", "trial_index": 44, "time_elapsed": 169867, "internal_node_id": "0.0-4.0-40.0"}}, {"uniqueid": "w14814420:a51050649", "current_trial": 45, "dateTime": 1664555298946, "trialdata": {"rt": 667, "stimulus": "<p id='stroop-text' class='stroop-blue'>BLUE</p>", "response": "b", "stimulus-type": "congruent", "word": "blue", "color": "blue", "correct_response": "b", "trial_id": "stroop-trial-1-congruent-10", "trial_type": "html-keyboard-response", "trial_index": 45, "time_elapsed": 171036, "internal_node_id": "0.0-4.0-41.0"}}, {"uniqueid": "w14814420:a51050649", "current_trial": 46, "dateTime": 1664555300063, "trialdata": {"rt": 602, "stimulus": "<p id='stroop-text' class='stroop-red'>RED</p>", "response": "r", "stimulus-type": "congruent", "word": "red", "color": "red", "correct_response": "r", "trial_id": "stroop-trial-1-congruent-13", "trial_type": "html-keyboard-response", "trial_index": 46, "time_elapsed": 172152, "internal_node_id": "0.0-4.0-42.0"}}, {"uniqueid": "w14814420:a51050649", "current_trial": 47, "dateTime": 1664555301549, "trialdata": {"rt": 981, "stimulus": "<p id='stroop-text' class='stroop-blue'>RED</p>", "response": "y", "stimulus-type": "incongruent", "word": "red", "color": "blue", "correct_response": "b", "trial_id": "stroop-trial-1-incongruent-13", "trial_type": "html-keyboard-response", "trial_index": 47, "time_elapsed": 173638, "internal_node_id": "0.0-4.0-43.0"}}, {"uniqueid": "w14814420:a51050649", "current_trial": 48, "dateTime": 1664555303305, "trialdata": {"rt": 1251, "stimulus": "<p id='stroop-text' class='stroop-yellow'>FORK</p>", "response": "y", "stimulus-type": "unrelated", "word": "FORK", "color": "yellow", "correct_response": "y", "trial_id": "stroop-trial-1-unrelated-19", "trial_type": "html-keyboard-response", "trial_index": 48, "time_elapsed": 175394, "internal_node_id": "0.0-4.0-44.0"}}, {"uniqueid": "w14814420:a51050649", "current_trial": 49, "dateTime": 1664555304271, "trialdata": {"rt": 462, "stimulus": "<p id='stroop-text' class='stroop-yellow'>YELLOW</p>", "response": "y", "stimulus-type": "congruent", "word": "yellow", "color": "yellow", "correct_response": "y", "trial_id": "stroop-trial-1-congruent-12", "trial_type": "html-keyboard-response", "trial_index": 49, "time_elapsed": 176361, "internal_node_id": "0.0-4.0-45.0"}}, {"uniqueid": "w14814420:a51050649", "current_trial": 50, "dateTime": 1664555305623, "trialdata": {"rt": 849, "stimulus": "<p id='stroop-text' class='stroop-red'>CHAIR</p>", "response": "r", "stimulus-type": "unrelated", "word": "CHAIR", "color": "red", "correct_response": "r", "trial_id": "stroop-trial-1-unrelated-29", "trial_type": "html-keyboard-response", "trial_index": 50, "time_elapsed": 177712, "internal_node_id": "0.0-4.0-46.0"}}, {"uniqueid": "w14814420:a51050649", "current_trial": 51, "dateTime": 1664555306973, "trialdata": {"rt": 848, "stimulus": "<p id='stroop-text' class='stroop-red'>GREEN</p>", "response": "r", "stimulus-type": "incongruent", "word": "green", "color": "red", "correct_response": "r", "trial_id": "stroop-trial-1-incongruent-7", "trial_type": "html-keyboard-response", "trial_index": 51, "time_elapsed": 179063, "internal_node_id": "0.0-4.0-47.0"}}, {"uniqueid": "w14814420:a51050649", "current_trial": 52, "dateTime": 1664555308060, "trialdata": {"rt": 581, "stimulus": "<p id='stroop-text' class='stroop-green'>GREEN</p>", "response": "g", "stimulus-type": "congruent", "word": "green", "color": "green", "correct_response": "g", "trial_id": "stroop-trial-1-congruent-9", "trial_type": "html-keyboard-response", "trial_index": 52, "time_elapsed": 180149, "internal_node_id": "0.0-4.0-48.0"}}, {"uniqueid": "w14814420:a51050649", "current_trial": 53, "dateTime": 1664555309337, "trialdata": {"rt": 772, "stimulus": "<p id='stroop-text' class='stroop-red'>RED</p>", "response": "r", "stimulus-type": "congruent", "word": "red", "color": "red", "correct_response": "r", "trial_id": "stroop-trial-1-congruent-5", "trial_type": "html-keyboard-response", "trial_index": 53, "time_elapsed": 181426, "internal_node_id": "0.0-4.0-49.0"}}, {"uniqueid": "w14814420:a51050649", "current_trial": 54, "dateTime": 1664555310642, "trialdata": {"rt": 800, "stimulus": "<p id='stroop-text' class='stroop-yellow'>BOTTLE</p>", "response": "y", "stimulus-type": "unrelated", "word": "BOTTLE", "color": "yellow", "correct_response": "y", "trial_id": "stroop-trial-1-unrelated-13", "trial_type": "html-keyboard-response", "trial_index": 54, "time_elapsed": 182731, "internal_node_id": "0.0-4.0-50.0"}}, {"uniqueid": "w14814420:a51050649", "current_trial": 55, "dateTime": 1664555311799, "trialdata": {"rt": 653, "stimulus": "<p id='stroop-text' class='stroop-red'>STONE</p>", "response": "r", "stimulus-type": "unrelated", "word": "STONE", "color": "red", "correct_response": "r", "trial_id": "stroop-trial-1-unrelated-10", "trial_type": "html-keyboard-response", "trial_index": 55, "time_elapsed": 183888, "internal_node_id": "0.0-4.0-51.0"}}, {"uniqueid": "w14814420:a51050649", "current_trial": 56, "dateTime": 1664555313100, "trialdata": {"rt": 797, "stimulus": "<p id='stroop-text' class='stroop-green'>CHAIR</p>", "response": "g", "stimulus-type": "unrelated", "word": "CHAIR", "color": "green", "correct_response": "g", "trial_id": "stroop-trial-1-unrelated-30", "trial_type": "html-keyboard-response", "trial_index": 56, "time_elapsed": 185189, "internal_node_id": "0.0-4.0-52.0"}}, {"uniqueid": "w14814420:a51050649", "current_trial": 57, "dateTime": 1664555314287, "trialdata": {"rt": 682, "stimulus": "<p id='stroop-text' class='stroop-green'>GREEN</p>", "response": "g", "stimulus-type": "congruent", "word": "green", "color": "green", "correct_response": "g", "trial_id": "stroop-trial-1-congruent-30", "trial_type": "html-keyboard-response", "trial_index": 57, "time_elapsed": 186377, "internal_node_id": "0.0-4.0-53.0"}}, {"uniqueid": "w14814420:a51050649", "current_trial": 58, "dateTime": 1664555315897, "trialdata": {"rt": 1106, "stimulus": "<p id='stroop-text' class='stroop-red'>BLUE</p>", "response": "r", "stimulus-type": "incongruent", "word": "blue", "color": "red", "correct_response": "r", "trial_id": "stroop-trial-1-incongruent-14", "trial_type": "html-keyboard-response", "trial_index": 58, "time_elapsed": 187986, "internal_node_id": "0.0-4.0-54.0"}}, {"uniqueid": "w14814420:a51050649", "current_trial": 59, "dateTime": 1664555317048, "trialdata": {"rt": 648, "stimulus": "<p id='stroop-text' class='stroop-green'>DOG</p>", "response": "g", "stimulus-type": "unrelated", "word": "DOG", "color": "green", "correct_response": "g", "trial_id": "stroop-trial-1-unrelated-21", "trial_type": "html-keyboard-response", "trial_index": 59, "time_elapsed": 189138, "internal_node_id": "0.0-4.0-55.0"}}, {"uniqueid": "w14814420:a51050649", "current_trial": 60, "dateTime": 1664555318720, "trialdata": {"rt": 1168, "stimulus": "<p id='stroop-text' class='stroop-red'>BLUE</p>", "response": "r", "stimulus-type": "incongruent", "word": "blue", "color": "red", "correct_response": "r", "trial_id": "stroop-trial-1-incongruent-5", "trial_type": "html-keyboard-response", "trial_index": 60, "time_elapsed": 190810, "internal_node_id": "0.0-4.0-56.0"}}, {"uniqueid": "w14814420:a51050649", "current_trial": 61, "dateTime": 1664555320076, "trialdata": {"rt": 851, "stimulus": "<p id='stroop-text' class='stroop-yellow'>BLUE</p>", "response": "y", "stimulus-type": "incongruent", "word": "blue", "color": "yellow", "correct_response": "y", "trial_id": "stroop-trial-1-incongruent-6", "trial_type": "html-keyboard-response", "trial_index": 61, "time_elapsed": 192166, "internal_node_id": "0.0-4.0-57.0"}}, {"uniqueid": "w14814420:a51050649", "current_trial": 62, "dateTime": 1664555321269, "trialdata": {"rt": 689, "stimulus": "<p id='stroop-text' class='stroop-green'>GREEN</p>", "response": "g", "stimulus-type": "congruent", "word": "green", "color": "green", "correct_response": "g", "trial_id": "stroop-trial-1-congruent-6", "trial_type": "html-keyboard-response", "trial_index": 62, "time_elapsed": 193359, "internal_node_id": "0.0-4.0-58.0"}}, {"uniqueid": "w14814420:a51050649", "current_trial": 63, "dateTime": 1664555322292, "trialdata": {"rt": 519, "stimulus": "<p id='stroop-text' class='stroop-yellow'>BOTTLE</p>", "response": "y", "stimulus-type": "unrelated", "word": "BOTTLE", "color": "yellow", "correct_response": "y", "trial_id": "stroop-trial-1-unrelated-2", "trial_type": "html-keyboard-response", "trial_index": 63, "time_elapsed": 194382, "internal_node_id": "0.0-4.0-59.0"}}, {"uniqueid": "w14814420:a51050649", "current_trial": 64, "dateTime": 1664555323420, "trialdata": {"rt": 623, "stimulus": "<p id='stroop-text' class='stroop-blue'>BLUE</p>", "response": "b", "stimulus-type": "congruent", "word": "blue", "color": "blue", "correct_response": "b", "trial_id": "stroop-trial-1-congruent-21", "trial_type": "html-keyboard-response", "trial_index": 64, "time_elapsed": 195510, "internal_node_id": "0.0-4.0-60.0"}}, {"uniqueid": "w14814420:a51050649", "current_trial": 65, "dateTime": 1664555325221, "trialdata": {"rt": 1295, "stimulus": "<p id='stroop-text' class='stroop-yellow'>SHIP</p>", "response": "y", "stimulus-type": "unrelated", "word": "SHIP", "color": "yellow", "correct_response": "y", "trial_id": "stroop-trial-1-unrelated-24", "trial_type": "html-keyboard-response", "trial_index": 65, "time_elapsed": 197310, "internal_node_id": "0.0-4.0-61.0"}}, {"uniqueid": "w14814420:a51050649", "current_trial": 66, "dateTime": 1664555326711, "trialdata": {"rt": 986, "stimulus": "<p id='stroop-text' class='stroop-green'>BLUE</p>", "response": "g", "stimulus-type": "incongruent", "word": "blue", "color": "green", "correct_response": "g", "trial_id": "stroop-trial-1-incongruent-25", "trial_type": "html-keyboard-response", "trial_index": 66, "time_elapsed": 198801, "internal_node_id": "0.0-4.0-62.0"}}, {"uniqueid": "w14814420:a51050649", "current_trial": 67, "dateTime": 1664555327995, "trialdata": {"rt": 780, "stimulus": "<p id='stroop-text' class='stroop-blue'>WINDOW</p>", "response": "b", "stimulus-type": "unrelated", "word": "WINDOW", "color": "blue", "correct_response": "b", "trial_id": "stroop-trial-1-unrelated-25", "trial_type": "html-keyboard-response", "trial_index": 67, "time_elapsed": 200084, "internal_node_id": "0.0-4.0-63.0"}}, {"uniqueid": "w14814420:a51050649", "current_trial": 68, "dateTime": 1664555329262, "trialdata": {"rt": 763, "stimulus": "<p id='stroop-text' class='stroop-yellow'>BLUE</p>", "response": "y", "stimulus-type": "incongruent", "word": "blue", "color": "yellow", "correct_response": "y", "trial_id": "stroop-trial-1-incongruent-26", "trial_type": "html-keyboard-response", "trial_index": 68, "time_elapsed": 201351, "internal_node_id": "0.0-4.0-64.0"}}, {"uniqueid": "w14814420:a51050649", "current_trial": 69, "dateTime": 1664555330421, "trialdata": {"rt": 656, "stimulus": "<p id='stroop-text' class='stroop-red'>GREEN</p>", "response": "r", "stimulus-type": "incongruent", "word": "green", "color": "red", "correct_response": "r", "trial_id": "stroop-trial-1-incongruent-10", "trial_type": "html-keyboard-response", "trial_index": 69, "time_elapsed": 202510, "internal_node_id": "0.0-4.0-65.0"}}, {"uniqueid": "w14814420:a51050649", "current_trial": 70, "dateTime": 1664555331469, "trialdata": {"rt": 544, "stimulus": "<p id='stroop-text' class='stroop-blue'>BLUE</p>", "response": "b", "stimulus-type": "congruent", "word": "blue", "color": "blue", "correct_response": "b", "trial_id": "stroop-trial-1-congruent-18", "trial_type": "html-keyboard-response", "trial_index": 70, "time_elapsed": 203559, "internal_node_id": "0.0-4.0-66.0"}}, {"uniqueid": "w14814420:a51050649", "current_trial": 71, "dateTime": 1664555332680, "trialdata": {"rt": 705, "stimulus": "<p id='stroop-text' class='stroop-blue'>YELLOW</p>", "response": "b", "stimulus-type": "incongruent", "word": "yellow", "color": "blue", "correct_response": "b", "trial_id": "stroop-trial-1-incongruent-15", "trial_type": "html-keyboard-response", "trial_index": 71, "time_elapsed": 204769, "internal_node_id": "0.0-4.0-67.0"}}, {"uniqueid": "w14814420:a51050649", "current_trial": 72, "dateTime": 1664555333933, "trialdata": {"rt": 748, "stimulus": "<p id='stroop-text' class='stroop-green'>GREEN</p>", "response": "g", "stimulus-type": "congruent", "word": "green", "color": "green", "correct_response": "g", "trial_id": "stroop-trial-1-congruent-22", "trial_type": "html-keyboard-response", "trial_index": 72, "time_elapsed": 206022, "internal_node_id": "0.0-4.0-68.0"}}, {"uniqueid": "w14814420:a51050649", "current_trial": 73, "dateTime": 1664555335040, "trialdata": {"rt": 605, "stimulus": "<p id='stroop-text' class='stroop-blue'>YELLOW</p>", "response": "y", "stimulus-type": "incongruent", "word": "yellow", "color": "blue", "correct_response": "b", "trial_id": "stroop-trial-1-incongruent-1", "trial_type": "html-keyboard-response", "trial_index": 73, "time_elapsed": 207129, "internal_node_id": "0.0-4.0-69.0"}}, {"uniqueid": "w14814420:a51050649", "current_trial": 74, "dateTime": 1664555336780, "trialdata": {"rt": 1233, "stimulus": "<p id='stroop-text' class='stroop-yellow'>CHAIR</p>", "response": "y", "stimulus-type": "unrelated", "word": "CHAIR", "color": "yellow", "correct_response": "y", "trial_id": "stroop-trial-1-unrelated-28", "trial_type": "html-keyboard-response", "trial_index": 74, "time_elapsed": 208870, "internal_node_id": "0.0-4.0-70.0"}}, {"uniqueid": "w14814420:a51050649", "current_trial": 75, "dateTime": 1664555337760, "trialdata": {"rt": 475, "stimulus": "<p id='stroop-text' class='stroop-yellow'>STONE</p>", "response": "y", "stimulus-type": "unrelated", "word": "STONE", "color": "yellow", "correct_response": "y", "trial_id": "stroop-trial-1-unrelated-12", "trial_type": "html-keyboard-response", "trial_index": 75, "time_elapsed": 209850, "internal_node_id": "0.0-4.0-71.0"}}, {"uniqueid": "w14814420:a51050649", "current_trial": 76, "dateTime": 1664555338971, "trialdata": {"rt": 705, "stimulus": "<p id='stroop-text' class='stroop-green'>BLUE</p>", "response": "b", "stimulus-type": "incongruent", "word": "blue", "color": "green", "correct_response": "g", "trial_id": "stroop-trial-1-incongruent-24", "trial_type": "html-keyboard-response", "trial_index": 76, "time_elapsed": 211061, "internal_node_id": "0.0-4.0-72.0"}}, {"uniqueid": "w14814420:a51050649", "current_trial": 77, "dateTime": 1664555340277, "trialdata": {"rt": 803, "stimulus": "<p id='stroop-text' class='stroop-green'>GREEN</p>", "response": "g", "stimulus-type": "congruent", "word": "green", "color": "green", "correct_response": "g", "trial_id": "stroop-trial-1-congruent-27", "trial_type": "html-keyboard-response", "trial_index": 77, "time_elapsed": 212367, "internal_node_id": "0.0-4.0-73.0"}}, {"uniqueid": "w14814420:a51050649", "current_trial": 78, "dateTime": 1664555341298, "trialdata": {"rt": 516, "stimulus": "<p id='stroop-text' class='stroop-green'>GREEN</p>", "response": "g", "stimulus-type": "congruent", "word": "green", "color": "green", "correct_response": "g", "trial_id": "stroop-trial-1-congruent-25", "trial_type": "html-keyboard-response", "trial_index": 78, "time_elapsed": 213387, "internal_node_id": "0.0-4.0-74.0"}}, {"uniqueid": "w14814420:a51050649", "current_trial": 79, "dateTime": 1664555342232, "trialdata": {"rt": 430, "stimulus": "<p id='stroop-text' class='stroop-green'>GREEN</p>", "response": "g", "stimulus-type": "congruent", "word": "green", "color": "green", "correct_response": "g", "trial_id": "stroop-trial-1-congruent-8", "trial_type": "html-keyboard-response", "trial_index": 79, "time_elapsed": 214322, "internal_node_id": "0.0-4.0-75.0"}}, {"uniqueid": "w14814420:a51050649", "current_trial": 80, "dateTime": 1664555343225, "trialdata": {"rt": 491, "stimulus": "<p id='stroop-text' class='stroop-yellow'>YELLOW</p>", "response": "y", "stimulus-type": "congruent", "word": "yellow", "color": "yellow", "correct_response": "y", "trial_id": "stroop-trial-1-congruent-23", "trial_type": "html-keyboard-response", "trial_index": 80, "time_elapsed": 215315, "internal_node_id": "0.0-4.0-76.0"}}, {"uniqueid": "w14814420:a51050649", "current_trial": 81, "dateTime": 1664555344411, "trialdata": {"rt": 681, "stimulus": "<p id='stroop-text' class='stroop-blue'>BOTTLE</p>", "response": "b", "stimulus-type": "unrelated", "word": "BOTTLE", "color": "blue", "correct_response": "b", "trial_id": "stroop-trial-1-unrelated-4", "trial_type": "html-keyboard-response", "trial_index": 81, "time_elapsed": 216501, "internal_node_id": "0.0-4.0-77.0"}}, {"uniqueid": "w14814420:a51050649", "current_trial": 82, "dateTime": 1664555345504, "trialdata": {"rt": 589, "stimulus": "<p id='stroop-text' class='stroop-green'>GREEN</p>", "response": "g", "stimulus-type": "congruent", "word": "green", "color": "green", "correct_response": "g", "trial_id": "stroop-trial-1-congruent-19", "trial_type": "html-keyboard-response", "trial_index": 82, "time_elapsed": 217594, "internal_node_id": "0.0-4.0-78.0"}}, {"uniqueid": "w14814420:a51050649", "current_trial": 83, "dateTime": 1664555346710, "trialdata": {"rt": 704, "stimulus": "<p id='stroop-text' class='stroop-red'>DOG</p>", "response": "r", "stimulus-type": "unrelated", "word": "DOG", "color": "red", "correct_response": "r", "trial_id": "stroop-trial-1-unrelated-7", "trial_type": "html-keyboard-response", "trial_index": 83, "time_elapsed": 218799, "internal_node_id": "0.0-4.0-79.0"}}, {"uniqueid": "w14814420:a51050649", "current_trial": 84, "dateTime": 1664555347767, "trialdata": {"rt": 552, "stimulus": "<p id='stroop-text' class='stroop-red'>CHAIR</p>", "response": "r", "stimulus-type": "unrelated", "word": "CHAIR", "color": "red", "correct_response": "r", "trial_id": "stroop-trial-1-unrelated-1", "trial_type": "html-keyboard-response", "trial_index": 84, "time_elapsed": 219857, "internal_node_id": "0.0-4.0-80.0"}}, {"uniqueid": "w14814420:a51050649", "current_trial": 85, "dateTime": 1664555349339, "trialdata": {"rt": 1067, "stimulus": "<p id='stroop-text' class='stroop-blue'>WINDOW</p>", "response": "b", "stimulus-type": "unrelated", "word": "WINDOW", "color": "blue", "correct_response": "b", "trial_id": "stroop-trial-1-unrelated-3", "trial_type": "html-keyboard-response", "trial_index": 85, "time_elapsed": 221428, "internal_node_id": "0.0-4.0-81.0"}}, {"uniqueid": "w14814420:a51050649", "current_trial": 86, "dateTime": 1664555350663, "trialdata": {"rt": 817, "stimulus": "<p id='stroop-text' class='stroop-green'>GREEN</p>", "response": "g", "stimulus-type": "congruent", "word": "green", "color": "green", "correct_response": "g", "trial_id": "stroop-trial-1-congruent-1", "trial_type": "html-keyboard-response", "trial_index": 86, "time_elapsed": 222753, "internal_node_id": "0.0-4.0-82.0"}}, {"uniqueid": "w14814420:a51050649", "current_trial": 87, "dateTime": 1664555352334, "trialdata": {"rt": 1168, "stimulus": "<p id='stroop-text' class='stroop-red'>YELLOW</p>", "response": "r", "stimulus-type": "incongruent", "word": "yellow", "color": "red", "correct_response": "r", "trial_id": "stroop-trial-1-incongruent-17", "trial_type": "html-keyboard-response", "trial_index": 87, "time_elapsed": 224423, "internal_node_id": "0.0-4.0-83.0"}}, {"uniqueid": "w14814420:a51050649", "current_trial": 88, "dateTime": 1664555353778, "trialdata": {"rt": 941, "stimulus": "<p id='stroop-text' class='stroop-red'>BRAIN</p>", "response": "r", "stimulus-type": "unrelated", "word": "BRAIN", "color": "red", "correct_response": "r", "trial_id": "stroop-trial-1-unrelated-16", "trial_type": "html-keyboard-response", "trial_index": 88, "time_elapsed": 225868, "internal_node_id": "0.0-4.0-84.0"}}, {"uniqueid": "w14814420:a51050649", "current_trial": 89, "dateTime": 1664555355314, "trialdata": {"rt": 1034, "stimulus": "<p id='stroop-text' class='stroop-green'>BLUE</p>", "response": "g", "stimulus-type": "incongruent", "word": "blue", "color": "green", "correct_response": "g", "trial_id": "stroop-trial-1-incongruent-28", "trial_type": "html-keyboard-response", "trial_index": 89, "time_elapsed": 227404, "internal_node_id": "0.0-4.0-85.0"}}, {"uniqueid": "w14814420:a51050649", "current_trial": 90, "dateTime": 1664555356566, "trialdata": {"rt": 748, "stimulus": "<p id='stroop-text' class='stroop-green'>GREEN</p>", "response": "g", "stimulus-type": "congruent", "word": "green", "color": "green", "correct_response": "g", "trial_id": "stroop-trial-1-congruent-28", "trial_type": "html-keyboard-response", "trial_index": 90, "time_elapsed": 228656, "internal_node_id": "0.0-4.0-86.0"}}, {"uniqueid": "w14814420:a51050649", "current_trial": 91, "dateTime": 1664555357826, "trialdata": {"rt": 754, "stimulus": "<p id='stroop-text' class='stroop-blue'>RED</p>", "response": "b", "stimulus-type": "incongruent", "word": "red", "color": "blue", "correct_response": "b", "trial_id": "stroop-trial-1-incongruent-9", "trial_type": "html-keyboard-response", "trial_index": 91, "time_elapsed": 229916, "internal_node_id": "0.0-4.0-87.0"}}, {"uniqueid": "w14814420:a51050649", "current_trial": 92, "dateTime": 1664555359786, "trialdata": {"rt": 1454, "stimulus": "<p id='stroop-text' class='stroop-red'>BLUE</p>", "response": "y", "stimulus-type": "incongruent", "word": "blue", "color": "red", "correct_response": "r", "trial_id": "stroop-trial-1-incongruent-11", "trial_type": "html-keyboard-response", "trial_index": 92, "time_elapsed": 231875, "internal_node_id": "0.0-4.0-88.0"}}, {"uniqueid": "w14814420:a51050649", "current_trial": 93, "dateTime": 1664555362064, "trialdata": {"rt": 1774, "stimulus": "<p id='stroop-text' class='stroop-green'>RED</p>", "response": "g", "stimulus-type": "incongruent", "word": "red", "color": "green", "correct_response": "g", "trial_id": "stroop-trial-1-incongruent-29", "trial_type": "html-keyboard-response", "trial_index": 93, "time_elapsed": 234153, "internal_node_id": "0.0-4.0-89.0"}}, {"uniqueid": "w14814420:a51050649", "current_trial": 94, "dateTime": 1664555435316, "trialdata": {"rt": 72744, "stimulus": "  <h1> End of block! </h1>\n\n  You have reached the end of the block 1/5. If you need a short break, feel free to take one now before moving on.\n\n  <br><br>\n  In the next block, you will complete another 90 rounds of this game.\n\n  <br><br>\n  <div style='text-align: center;'>Press <code>space</code> to begin.</div>\n  <br><br>\n<div style='text-align: center;'>(If the experiment doesn't continue, try clicking on the text and then pressing <code>space</code>.)</div>", "response": " ", "trial_id": "stroop_1_ready_2", "trial_type": "html-keyboard-response", "trial_index": 94, "time_elapsed": 307406, "internal_node_id": "0.0-5.0"}}, {"uniqueid": "w14814420:a51050649", "current_trial": 95, "dateTime": 1664555436059, "trialdata": {"rt": 738, "stimulus": "<p id='stroop-text' class='stroop-yellow'>YELLOW</p>", "response": "y", "stimulus-type": "congruent", "word": "yellow", "color": "yellow", "correct_response": "y", "trial_id": "stroop-trial-1-congruent-20", "trial_type": "html-keyboard-response", "trial_index": 95, "time_elapsed": 308149, "internal_node_id": "0.0-6.0-0.0"}}, {"uniqueid": "w14814420:a51050649", "current_trial": 96, "dateTime": 1664555437928, "trialdata": {"rt": 1365, "stimulus": "<p id='stroop-text' class='stroop-red'>GREEN</p>", "response": "g", "stimulus-type": "incongruent", "word": "green", "color": "red", "correct_response": "r", "trial_id": "stroop-trial-1-incongruent-26", "trial_type": "html-keyboard-response", "trial_index": 96, "time_elapsed": 310017, "internal_node_id": "0.0-6.0-1.0"}}, {"uniqueid": "w14814420:a51050649", "current_trial": 97, "dateTime": 1664555439312, "trialdata": {"rt": 880, "stimulus": "<p id='stroop-text' class='stroop-yellow'>BRAIN</p>", "response": "y", "stimulus-type": "unrelated", "word": "BRAIN", "color": "yellow", "correct_response": "y", "trial_id": "stroop-trial-1-unrelated-2", "trial_type": "html-keyboard-response", "trial_index": 97, "time_elapsed": 311402, "internal_node_id": "0.0-6.0-2.0"}}, {"uniqueid": "w14814420:a51050649", "current_trial": 98, "dateTime": 1664555440452, "trialdata": {"rt": 637, "stimulus": "<p id='stroop-text' class='stroop-red'>RED</p>", "response": "r", "stimulus-type": "congruent", "word": "red", "color": "red", "correct_response": "r", "trial_id": "stroop-trial-1-congruent-14", "trial_type": "html-keyboard-response", "trial_index": 98, "time_elapsed": 312542, "internal_node_id": "0.0-6.0-3.0"}}, {"uniqueid": "w14814420:a51050649", "current_trial": 99, "dateTime": 1664555441461, "trialdata": {"rt": 505, "stimulus": "<p id='stroop-text' class='stroop-yellow'>YELLOW</p>", "response": "y", "stimulus-type": "congruent", "word": "yellow", "color": "yellow", "correct_response": "y", "trial_id": "stroop-trial-1-congruent-3", "trial_type": "html-keyboard-response", "trial_index": 99, "time_elapsed": 313551, "internal_node_id": "0.0-6.0-4.0"}}, {"uniqueid": "w14814420:a51050649", "current_trial": 100, "dateTime": 1664555442716, "trialdata": {"rt": 750, "stimulus": "<p id='stroop-text' class='stroop-green'>GREEN</p>", "response": "g", "stimulus-type": "congruent", "word": "green", "color": "green", "correct_response": "g", "trial_id": "stroop-trial-1-congruent-19", "trial_type": "html-keyboard-response", "trial_index": 100, "time_elapsed": 314806, "internal_node_id": "0.0-6.0-5.0"}}, {"uniqueid": "w14814420:a51050649", "current_trial": 101, "dateTime": 1664555443715, "trialdata": {"rt": 497, "stimulus": "<p id='stroop-text' class='stroop-yellow'>YELLOW</p>", "response": "y", "stimulus-type": "congruent", "word": "yellow", "color": "yellow", "correct_response": "y", "trial_id": "stroop-trial-1-congruent-17", "trial_type": "html-keyboard-response", "trial_index": 101, "time_elapsed": 315805, "internal_node_id": "0.0-6.0-6.0"}}, {"uniqueid": "w14814420:a51050649", "current_trial": 102, "dateTime": 1664555444910, "trialdata": {"rt": 690, "stimulus": "<p id='stroop-text' class='stroop-red'>RED</p>", "response": "r", "stimulus-type": "congruent", "word": "red", "color": "red", "correct_response": "r", "trial_id": "stroop-trial-1-congruent-2", "trial_type": "html-keyboard-response", "trial_index": 102, "time_elapsed": 317000, "internal_node_id": "0.0-6.0-7.0"}}, {"uniqueid": "w14814420:a51050649", "current_trial": 103, "dateTime": 1664555446084, "trialdata": {"rt": 669, "stimulus": "<p id='stroop-text' class='stroop-red'>MONKEY</p>", "response": "r", "stimulus-type": "unrelated", "word": "MONKEY", "color": "red", "correct_response": "r", "trial_id": "stroop-trial-1-unrelated-1", "trial_type": "html-keyboard-response", "trial_index": 103, "time_elapsed": 318174, "internal_node_id": "0.0-6.0-8.0"}}, {"uniqueid": "w14814420:a51050649", "current_trial": 104, "dateTime": 1664555447365, "trialdata": {"rt": 776, "stimulus": "<p id='stroop-text' class='stroop-yellow'>SHIP</p>", "response": "y", "stimulus-type": "unrelated", "word": "SHIP", "color": "yellow", "correct_response": "y", "trial_id": "stroop-trial-1-unrelated-27", "trial_type": "html-keyboard-response", "trial_index": 104, "time_elapsed": 319454, "internal_node_id": "0.0-6.0-9.0"}}, {"uniqueid": "w14814420:a51050649", "current_trial": 105, "dateTime": 1664555448462, "trialdata": {"rt": 592, "stimulus": "<p id='stroop-text' class='stroop-yellow'>YELLOW</p>", "response": "y", "stimulus-type": "congruent", "word": "yellow", "color": "yellow", "correct_response": "y", "trial_id": "stroop-trial-1-congruent-26", "trial_type": "html-keyboard-response", "trial_index": 105, "time_elapsed": 320551, "internal_node_id": "0.0-6.0-10.0"}}, {"uniqueid": "w14814420:a51050649", "current_trial": 106, "dateTime": 1664555449494, "trialdata": {"rt": 526, "stimulus": "<p id='stroop-text' class='stroop-blue'>STONE</p>", "response": "b", "stimulus-type": "unrelated", "word": "STONE", "color": "blue", "correct_response": "b", "trial_id": "stroop-trial-1-unrelated-17", "trial_type": "html-keyboard-response", "trial_index": 106, "time_elapsed": 321583, "internal_node_id": "0.0-6.0-11.0"}}, {"uniqueid": "w14814420:a51050649", "current_trial": 107, "dateTime": 1664555450542, "trialdata": {"rt": 543, "stimulus": "<p id='stroop-text' class='stroop-blue'>WINDOW</p>", "response": "b", "stimulus-type": "unrelated", "word": "WINDOW", "color": "blue", "correct_response": "b", "trial_id": "stroop-trial-1-unrelated-8", "trial_type": "html-keyboard-response", "trial_index": 107, "time_elapsed": 322632, "internal_node_id": "0.0-6.0-12.0"}}, {"uniqueid": "w14814420:a51050649", "current_trial": 108, "dateTime": 1664555451629, "trialdata": {"rt": 582, "stimulus": "<p id='stroop-text' class='stroop-yellow'>BOTTLE</p>", "response": "y", "stimulus-type": "unrelated", "word": "BOTTLE", "color": "yellow", "correct_response": "y", "trial_id": "stroop-trial-1-unrelated-30", "trial_type": "html-keyboard-response", "trial_index": 108, "time_elapsed": 323718, "internal_node_id": "0.0-6.0-13.0"}}, {"uniqueid": "w14814420:a51050649", "current_trial": 109, "dateTime": 1664555452731, "trialdata": {"rt": 587, "stimulus": "<p id='stroop-text' class='stroop-red'>RED</p>", "response": "r", "stimulus-type": "congruent", "word": "red", "color": "red", "correct_response": "r", "trial_id": "stroop-trial-1-congruent-15", "trial_type": "html-keyboard-response", "trial_index": 109, "time_elapsed": 324820, "internal_node_id": "0.0-6.0-14.0"}}, {"uniqueid": "w14814420:a51050649", "current_trial": 110, "dateTime": 1664555453999, "trialdata": {"rt": 763, "stimulus": "<p id='stroop-text' class='stroop-blue'>BLUE</p>", "response": "b", "stimulus-type": "congruent", "word": "blue", "color": "blue", "correct_response": "b", "trial_id": "stroop-trial-1-congruent-12", "trial_type": "html-keyboard-response", "trial_index": 110, "time_elapsed": 326088, "internal_node_id": "0.0-6.0-15.0"}}, {"uniqueid": "w14814420:a51050649", "current_trial": 111, "dateTime": 1664555455068, "trialdata": {"rt": 564, "stimulus": "<p id='stroop-text' class='stroop-yellow'>MONKEY</p>", "response": "y", "stimulus-type": "unrelated", "word": "MONKEY", "color": "yellow", "correct_response": "y", "trial_id": "stroop-trial-1-unrelated-24", "trial_type": "html-keyboard-response", "trial_index": 111, "time_elapsed": 327158, "internal_node_id": "0.0-6.0-16.0"}}, {"uniqueid": "w14814420:a51050649", "current_trial": 112, "dateTime": 1664555456230, "trialdata": {"rt": 657, "stimulus": "<p id='stroop-text' class='stroop-blue'>BLUE</p>", "response": "b", "stimulus-type": "congruent", "word": "blue", "color": "blue", "correct_response": "b", "trial_id": "stroop-trial-1-congruent-10", "trial_type": "html-keyboard-response", "trial_index": 112, "time_elapsed": 328320, "internal_node_id": "0.0-6.0-17.0"}}, {"uniqueid": "w14814420:a51050649", "current_trial": 113, "dateTime": 1664555457219, "trialdata": {"rt": 484, "stimulus": "<p id='stroop-text' class='stroop-blue'>BOTTLE</p>", "response": "b", "stimulus-type": "unrelated", "word": "BOTTLE", "color": "blue", "correct_response": "b", "trial_id": "stroop-trial-1-unrelated-29", "trial_type": "html-keyboard-response", "trial_index": 113, "time_elapsed": 329309, "internal_node_id": "0.0-6.0-18.0"}}, {"uniqueid": "w14814420:a51050649", "current_trial": 114, "dateTime": 1664555458522, "trialdata": {"rt": 798, "stimulus": "<p id='stroop-text' class='stroop-blue'>RED</p>", "response": "b", "stimulus-type": "incongruent", "word": "red", "color": "blue", "correct_response": "b", "trial_id": "stroop-trial-1-incongruent-10", "trial_type": "html-keyboard-response", "trial_index": 114, "time_elapsed": 330611, "internal_node_id": "0.0-6.0-19.0"}}, {"uniqueid": "w14814420:a51050649", "current_trial": 115, "dateTime": 1664555459616, "trialdata": {"rt": 589, "stimulus": "<p id='stroop-text' class='stroop-green'>GREEN</p>", "response": "g", "stimulus-type": "congruent", "word": "green", "color": "green", "correct_response": "g", "trial_id": "stroop-trial-1-congruent-13", "trial_type": "html-keyboard-response", "trial_index": 115, "time_elapsed": 331705, "internal_node_id": "0.0-6.0-20.0"}}, {"uniqueid": "w14814420:a51050649", "current_trial": 116, "dateTime": 1664555460662, "trialdata": {"rt": 542, "stimulus": "<p id='stroop-text' class='stroop-yellow'>YELLOW</p>", "response": "y", "stimulus-type": "congruent", "word": "yellow", "color": "yellow", "correct_response": "y", "trial_id": "stroop-trial-1-congruent-8", "trial_type": "html-keyboard-response", "trial_index": 116, "time_elapsed": 332752, "internal_node_id": "0.0-6.0-21.0"}}, {"uniqueid": "w14814420:a51050649", "current_trial": 117, "dateTime": 1664555461820, "trialdata": {"rt": 655, "stimulus": "<p id='stroop-text' class='stroop-blue'>YELLOW</p>", "response": "y", "stimulus-type": "incongruent", "word": "yellow", "color": "blue", "correct_response": "b", "trial_id": "stroop-trial-1-incongruent-30", "trial_type": "html-keyboard-response", "trial_index": 117, "time_elapsed": 333910, "internal_node_id": "0.0-6.0-22.0"}}, {"uniqueid": "w14814420:a51050649", "current_trial": 118, "dateTime": 1664555463664, "trialdata": {"rt": 1341, "stimulus": "<p id='stroop-text' class='stroop-blue'>RED</p>", "response": "b", "stimulus-type": "incongruent", "word": "red", "color": "blue", "correct_response": "b", "trial_id": "stroop-trial-1-incongruent-23", "trial_type": "html-keyboard-response", "trial_index": 118, "time_elapsed": 335754, "internal_node_id": "0.0-6.0-23.0"}}, {"uniqueid": "w14814420:a51050649", "current_trial": 119, "dateTime": 1664555466957, "trialdata": {"rt": 2790, "stimulus": "<p id='stroop-text' class='stroop-green'>RED</p>", "response": "g", "stimulus-type": "incongruent", "word": "red", "color": "green", "correct_response": "g", "trial_id": "stroop-trial-1-incongruent-7", "trial_type": "html-keyboard-response", "trial_index": 119, "time_elapsed": 339046, "internal_node_id": "0.0-6.0-24.0"}}, {"uniqueid": "w14814420:a51050649", "current_trial": 120, "dateTime": 1664555467989, "trialdata": {"rt": 528, "stimulus": "<p id='stroop-text' class='stroop-yellow'>YELLOW</p>", "response": "y", "stimulus-type": "congruent", "word": "yellow", "color": "yellow", "correct_response": "y", "trial_id": "stroop-trial-1-congruent-11", "trial_type": "html-keyboard-response", "trial_index": 120, "time_elapsed": 340079, "internal_node_id": "0.0-6.0-25.0"}}, {"uniqueid": "w14814420:a51050649", "current_trial": 121, "dateTime": 1664555469085, "trialdata": {"rt": 576, "stimulus": "<p id='stroop-text' class='stroop-blue'>BLUE</p>", "response": "b", "stimulus-type": "congruent", "word": "blue", "color": "blue", "correct_response": "b", "trial_id": "stroop-trial-1-congruent-28", "trial_type": "html-keyboard-response", "trial_index": 121, "time_elapsed": 341174, "internal_node_id": "0.0-6.0-26.0"}}, {"uniqueid": "w14814420:a51050649", "current_trial": 122, "dateTime": 1664555470728, "trialdata": {"rt": 1139, "stimulus": "<p id='stroop-text' class='stroop-green'>YELLOW</p>", "response": "g", "stimulus-type": "incongruent", "word": "yellow", "color": "green", "correct_response": "g", "trial_id": "stroop-trial-1-incongruent-25", "trial_type": "html-keyboard-response", "trial_index": 122, "time_elapsed": 342818, "internal_node_id": "0.0-6.0-27.0"}}, {"uniqueid": "w14814420:a51050649", "current_trial": 123, "dateTime": 1664555472349, "trialdata": {"rt": 1116, "stimulus": "<p id='stroop-text' class='stroop-red'>BLUE</p>", "response": "r", "stimulus-type": "incongruent", "word": "blue", "color": "red", "correct_response": "r", "trial_id": "stroop-trial-1-incongruent-6", "trial_type": "html-keyboard-response", "trial_index": 123, "time_elapsed": 344438, "internal_node_id": "0.0-6.0-28.0"}}, {"uniqueid": "w14814420:a51050649", "current_trial": 124, "dateTime": 1664555474237, "trialdata": {"rt": 1370, "stimulus": "<p id='stroop-text' class='stroop-green'>RED</p>", "response": "g", "stimulus-type": "incongruent", "word": "red", "color": "green", "correct_response": "g", "trial_id": "stroop-trial-1-incongruent-11", "trial_type": "html-keyboard-response", "trial_index": 124, "time_elapsed": 346326, "internal_node_id": "0.0-6.0-29.0"}}, {"uniqueid": "w14814420:a51050649", "current_trial": 125, "dateTime": 1664555475281, "trialdata": {"rt": 541, "stimulus": "<p id='stroop-text' class='stroop-red'>YELLOW</p>", "response": "y", "stimulus-type": "incongruent", "word": "yellow", "color": "red", "correct_response": "r", "trial_id": "stroop-trial-1-incongruent-22", "trial_type": "html-keyboard-response", "trial_index": 125, "time_elapsed": 347371, "internal_node_id": "0.0-6.0-30.0"}}, {"uniqueid": "w14814420:a51050649", "current_trial": 126, "dateTime": 1664555477740, "trialdata": {"rt": 1956, "stimulus": "<p id='stroop-text' class='stroop-red'>RED</p>", "response": "r", "stimulus-type": "congruent", "word": "red", "color": "red", "correct_response": "r", "trial_id": "stroop-trial-1-congruent-18", "trial_type": "html-keyboard-response", "trial_index": 126, "time_elapsed": 349829, "internal_node_id": "0.0-6.0-31.0"}}, {"uniqueid": "w14814420:a51050649", "current_trial": 127, "dateTime": 1664555479271, "trialdata": {"rt": 1027, "stimulus": "<p id='stroop-text' class='stroop-green'>YELLOW</p>", "response": "g", "stimulus-type": "incongruent", "word": "yellow", "color": "green", "correct_response": "g", "trial_id": "stroop-trial-1-incongruent-28", "trial_type": "html-keyboard-response", "trial_index": 127, "time_elapsed": 351361, "internal_node_id": "0.0-6.0-32.0"}}, {"uniqueid": "w14814420:a51050649", "current_trial": 128, "dateTime": 1664555481072, "trialdata": {"rt": 1297, "stimulus": "<p id='stroop-text' class='stroop-yellow'>GREEN</p>", "response": "y", "stimulus-type": "incongruent", "word": "green", "color": "yellow", "correct_response": "y", "trial_id": "stroop-trial-1-incongruent-18", "trial_type": "html-keyboard-response", "trial_index": 128, "time_elapsed": 353161, "internal_node_id": "0.0-6.0-33.0"}}, {"uniqueid": "w14814420:a51050649", "current_trial": 129, "dateTime": 1664555482293, "trialdata": {"rt": 715, "stimulus": "<p id='stroop-text' class='stroop-green'>GREEN</p>", "response": "g", "stimulus-type": "congruent", "word": "green", "color": "green", "correct_response": "g", "trial_id": "stroop-trial-1-congruent-22", "trial_type": "html-keyboard-response", "trial_index": 129, "time_elapsed": 354383, "internal_node_id": "0.0-6.0-34.0"}}, {"uniqueid": "w14814420:a51050649", "current_trial": 130, "dateTime": 1664555483390, "trialdata": {"rt": 592, "stimulus": "<p id='stroop-text' class='stroop-blue'>RED</p>", "response": "b", "stimulus-type": "incongruent", "word": "red", "color": "blue", "correct_response": "b", "trial_id": "stroop-trial-1-incongruent-3", "trial_type": "html-keyboard-response", "trial_index": 130, "time_elapsed": 355480, "internal_node_id": "0.0-6.0-35.0"}}, {"uniqueid": "w14814420:a51050649", "current_trial": 131, "dateTime": 1664555485021, "trialdata": {"rt": 1127, "stimulus": "<p id='stroop-text' class='stroop-green'>BLUE</p>", "response": "g", "stimulus-type": "incongruent", "word": "blue", "color": "green", "correct_response": "g", "trial_id": "stroop-trial-1-incongruent-15", "trial_type": "html-keyboard-response", "trial_index": 131, "time_elapsed": 357111, "internal_node_id": "0.0-6.0-36.0"}}, {"uniqueid": "w14814420:a51050649", "current_trial": 132, "dateTime": 1664555486123, "trialdata": {"rt": 596, "stimulus": "<p id='stroop-text' class='stroop-yellow'>BRAIN</p>", "response": "y", "stimulus-type": "unrelated", "word": "BRAIN", "color": "yellow", "correct_response": "y", "trial_id": "stroop-trial-1-unrelated-28", "trial_type": "html-keyboard-response", "trial_index": 132, "time_elapsed": 358212, "internal_node_id": "0.0-6.0-37.0"}}, {"uniqueid": "w14814420:a51050649", "current_trial": 133, "dateTime": 1664555487405, "trialdata": {"rt": 776, "stimulus": "<p id='stroop-text' class='stroop-yellow'>RED</p>", "response": "r", "stimulus-type": "incongruent", "word": "red", "color": "yellow", "correct_response": "y", "trial_id": "stroop-trial-1-incongruent-16", "trial_type": "html-keyboard-response", "trial_index": 133, "time_elapsed": 359494, "internal_node_id": "0.0-6.0-38.0"}}, {"uniqueid": "w14814420:a51050649", "current_trial": 134, "dateTime": 1664555489056, "trialdata": {"rt": 1146, "stimulus": "<p id='stroop-text' class='stroop-green'>STONE</p>", "response": "g", "stimulus-type": "unrelated", "word": "STONE", "color": "green", "correct_response": "g", "trial_id": "stroop-trial-1-unrelated-10", "trial_type": "html-keyboard-response", "trial_index": 134, "time_elapsed": 361146, "internal_node_id": "0.0-6.0-39.0"}}, {"uniqueid": "w14814420:a51050649", "current_trial": 135, "dateTime": 1664555490158, "trialdata": {"rt": 597, "stimulus": "<p id='stroop-text' class='stroop-blue'>BLUE</p>", "response": "b", "stimulus-type": "congruent", "word": "blue", "color": "blue", "correct_response": "b", "trial_id": "stroop-trial-1-congruent-6", "trial_type": "html-keyboard-response", "trial_index": 135, "time_elapsed": 362247, "internal_node_id": "0.0-6.0-40.0"}}, {"uniqueid": "w14814420:a51050649", "current_trial": 136, "dateTime": 1664555491280, "trialdata": {"rt": 619, "stimulus": "<p id='stroop-text' class='stroop-blue'>BOTTLE</p>", "response": "b", "stimulus-type": "unrelated", "word": "BOTTLE", "color": "blue", "correct_response": "b", "trial_id": "stroop-trial-1-unrelated-14", "trial_type": "html-keyboard-response", "trial_index": 136, "time_elapsed": 363369, "internal_node_id": "0.0-6.0-41.0"}}, {"uniqueid": "w14814420:a51050649", "current_trial": 137, "dateTime": 1664555492309, "trialdata": {"rt": 525, "stimulus": "<p id='stroop-text' class='stroop-blue'>YELLOW</p>", "response": "b", "stimulus-type": "incongruent", "word": "yellow", "color": "blue", "correct_response": "b", "trial_id": "stroop-trial-1-incongruent-8", "trial_type": "html-keyboard-response", "trial_index": 137, "time_elapsed": 364399, "internal_node_id": "0.0-6.0-42.0"}}, {"uniqueid": "w14814420:a51050649", "current_trial": 138, "dateTime": 1664555493251, "trialdata": {"rt": 439, "stimulus": "<p id='stroop-text' class='stroop-blue'>YELLOW</p>", "response": "b", "stimulus-type": "incongruent", "word": "yellow", "color": "blue", "correct_response": "b", "trial_id": "stroop-trial-1-incongruent-1", "trial_type": "html-keyboard-response", "trial_index": 138, "time_elapsed": 365341, "internal_node_id": "0.0-6.0-43.0"}}, {"uniqueid": "w14814420:a51050649", "current_trial": 139, "dateTime": 1664555494456, "trialdata": {"rt": 702, "stimulus": "<p id='stroop-text' class='stroop-green'>YELLOW</p>", "response": "g", "stimulus-type": "incongruent", "word": "yellow", "color": "green", "correct_response": "g", "trial_id": "stroop-trial-1-incongruent-24", "trial_type": "html-keyboard-response", "trial_index": 139, "time_elapsed": 366545, "internal_node_id": "0.0-6.0-44.0"}}, {"uniqueid": "w14814420:a51050649", "current_trial": 140, "dateTime": 1664555495711, "trialdata": {"rt": 749, "stimulus": "<p id='stroop-text' class='stroop-green'>STONE</p>", "response": "g", "stimulus-type": "unrelated", "word": "STONE", "color": "green", "correct_response": "g", "trial_id": "stroop-trial-1-unrelated-26", "trial_type": "html-keyboard-response", "trial_index": 140, "time_elapsed": 367801, "internal_node_id": "0.0-6.0-45.0"}}, {"uniqueid": "w14814420:a51050649", "current_trial": 141, "dateTime": 1664555496816, "trialdata": {"rt": 599, "stimulus": "<p id='stroop-text' class='stroop-blue'>SHIP</p>", "response": "b", "stimulus-type": "unrelated", "word": "SHIP", "color": "blue", "correct_response": "b", "trial_id": "stroop-trial-1-unrelated-16", "trial_type": "html-keyboard-response", "trial_index": 141, "time_elapsed": 368905, "internal_node_id": "0.0-6.0-46.0"}}, {"uniqueid": "w14814420:a51050649", "current_trial": 142, "dateTime": 1664555497879, "trialdata": {"rt": 558, "stimulus": "<p id='stroop-text' class='stroop-red'>RED</p>", "response": "r", "stimulus-type": "congruent", "word": "red", "color": "red", "correct_response": "r", "trial_id": "stroop-trial-1-congruent-30", "trial_type": "html-keyboard-response", "trial_index": 142, "time_elapsed": 369968, "internal_node_id": "0.0-6.0-47.0"}}, {"uniqueid": "w14814420:a51050649", "current_trial": 143, "dateTime": 1664555499161, "trialdata": {"rt": 780, "stimulus": "<p id='stroop-text' class='stroop-yellow'>WINDOW</p>", "response": "y", "stimulus-type": "unrelated", "word": "WINDOW", "color": "yellow", "correct_response": "y", "trial_id": "stroop-trial-1-unrelated-9", "trial_type": "html-keyboard-response", "trial_index": 143, "time_elapsed": 371250, "internal_node_id": "0.0-6.0-48.0"}}, {"uniqueid": "w14814420:a51050649", "current_trial": 144, "dateTime": 1664555500335, "trialdata": {"rt": 668, "stimulus": "<p id='stroop-text' class='stroop-green'>MONKEY</p>", "response": "g", "stimulus-type": "unrelated", "word": "MONKEY", "color": "green", "correct_response": "g", "trial_id": "stroop-trial-1-unrelated-19", "trial_type": "html-keyboard-response", "trial_index": 144, "time_elapsed": 372425, "internal_node_id": "0.0-6.0-49.0"}}, {"uniqueid": "w14814420:a51050649", "current_trial": 145, "dateTime": 1664555501772, "trialdata": {"rt": 931, "stimulus": "<p id='stroop-text' class='stroop-blue'>RED</p>", "response": "b", "stimulus-type": "incongruent", "word": "red", "color": "blue", "correct_response": "b", "trial_id": "stroop-trial-1-incongruent-20", "trial_type": "html-keyboard-response", "trial_index": 145, "time_elapsed": 373861, "internal_node_id": "0.0-6.0-50.0"}}, {"uniqueid": "w14814420:a51050649", "current_trial": 146, "dateTime": 1664555503038, "trialdata": {"rt": 762, "stimulus": "<p id='stroop-text' class='stroop-yellow'>BRIDGE</p>", "response": "y", "stimulus-type": "unrelated", "word": "BRIDGE", "color": "yellow", "correct_response": "y", "trial_id": "stroop-trial-1-unrelated-15", "trial_type": "html-keyboard-response", "trial_index": 146, "time_elapsed": 375128, "internal_node_id": "0.0-6.0-51.0"}}, {"uniqueid": "w14814420:a51050649", "current_trial": 147, "dateTime": 1664555504047, "trialdata": {"rt": 504, "stimulus": "<p id='stroop-text' class='stroop-yellow'>YELLOW</p>", "response": "y", "stimulus-type": "congruent", "word": "yellow", "color": "yellow", "correct_response": "y", "trial_id": "stroop-trial-1-congruent-21", "trial_type": "html-keyboard-response", "trial_index": 147, "time_elapsed": 376137, "internal_node_id": "0.0-6.0-52.0"}}, {"uniqueid": "w14814420:a51050649", "current_trial": 148, "dateTime": 1664555505140, "trialdata": {"rt": 590, "stimulus": "<p id='stroop-text' class='stroop-blue'>BLUE</p>", "response": "b", "stimulus-type": "congruent", "word": "blue", "color": "blue", "correct_response": "b", "trial_id": "stroop-trial-1-congruent-1", "trial_type": "html-keyboard-response", "trial_index": 148, "time_elapsed": 377230, "internal_node_id": "0.0-6.0-53.0"}}, {"uniqueid": "w14814420:a51050649", "current_trial": 149, "dateTime": 1664555506311, "trialdata": {"rt": 667, "stimulus": "<p id='stroop-text' class='stroop-red'>STONE</p>", "response": "r", "stimulus-type": "unrelated", "word": "STONE", "color": "red", "correct_response": "r", "trial_id": "stroop-trial-1-unrelated-18", "trial_type": "html-keyboard-response", "trial_index": 149, "time_elapsed": 378401, "internal_node_id": "0.0-6.0-54.0"}}, {"uniqueid": "w14814420:a51050649", "current_trial": 150, "dateTime": 1664555507363, "trialdata": {"rt": 548, "stimulus": "<p id='stroop-text' class='stroop-yellow'>YELLOW</p>", "response": "y", "stimulus-type": "congruent", "word": "yellow", "color": "yellow", "correct_response": "y", "trial_id": "stroop-trial-1-congruent-5", "trial_type": "html-keyboard-response", "trial_index": 150, "time_elapsed": 379452, "internal_node_id": "0.0-6.0-55.0"}}, {"uniqueid": "w14814420:a51050649", "current_trial": 151, "dateTime": 1664555508705, "trialdata": {"rt": 838, "stimulus": "<p id='stroop-text' class='stroop-blue'>BLUE</p>", "response": "b", "stimulus-type": "congruent", "word": "blue", "color": "blue", "correct_response": "b", "trial_id": "stroop-trial-1-congruent-4", "trial_type": "html-keyboard-response", "trial_index": 151, "time_elapsed": 380794, "internal_node_id": "0.0-6.0-56.0"}}, {"uniqueid": "w14814420:a51050649", "current_trial": 152, "dateTime": 1664555509751, "trialdata": {"rt": 539, "stimulus": "<p id='stroop-text' class='stroop-blue'>BOTTLE</p>", "response": "b", "stimulus-type": "unrelated", "word": "BOTTLE", "color": "blue", "correct_response": "b", "trial_id": "stroop-trial-1-unrelated-20", "trial_type": "html-keyboard-response", "trial_index": 152, "time_elapsed": 381841, "internal_node_id": "0.0-6.0-57.0"}}, {"uniqueid": "w14814420:a51050649", "current_trial": 153, "dateTime": 1664555510897, "trialdata": {"rt": 644, "stimulus": "<p id='stroop-text' class='stroop-yellow'>RED</p>", "response": "y", "stimulus-type": "incongruent", "word": "red", "color": "yellow", "correct_response": "y", "trial_id": "stroop-trial-1-incongruent-17", "trial_type": "html-keyboard-response", "trial_index": 153, "time_elapsed": 382987, "internal_node_id": "0.0-6.0-58.0"}}, {"uniqueid": "w14814420:a51050649", "current_trial": 154, "dateTime": 1664555512520, "trialdata": {"rt": 1120, "stimulus": "<p id='stroop-text' class='stroop-blue'>BLUE</p>", "response": "b", "stimulus-type": "congruent", "word": "blue", "color": "blue", "correct_response": "b", "trial_id": "stroop-trial-1-congruent-16", "trial_type": "html-keyboard-response", "trial_index": 154, "time_elapsed": 384609, "internal_node_id": "0.0-6.0-59.0"}}, {"uniqueid": "w14814420:a51050649", "current_trial": 155, "dateTime": 1664555513776, "trialdata": {"rt": 751, "stimulus": "<p id='stroop-text' class='stroop-red'>CHAIR</p>", "response": "r", "stimulus-type": "unrelated", "word": "CHAIR", "color": "red", "correct_response": "r", "trial_id": "stroop-trial-1-unrelated-4", "trial_type": "html-keyboard-response", "trial_index": 155, "time_elapsed": 385865, "internal_node_id": "0.0-6.0-60.0"}}, {"uniqueid": "w14814420:a51050649", "current_trial": 156, "dateTime": 1664555514898, "trialdata": {"rt": 616, "stimulus": "<p id='stroop-text' class='stroop-yellow'>BRAIN</p>", "response": "y", "stimulus-type": "unrelated", "word": "BRAIN", "color": "yellow", "correct_response": "y", "trial_id": "stroop-trial-1-unrelated-11", "trial_type": "html-keyboard-response", "trial_index": 156, "time_elapsed": 386988, "internal_node_id": "0.0-6.0-61.0"}}, {"uniqueid": "w14814420:a51050649", "current_trial": 157, "dateTime": 1664555515934, "trialdata": {"rt": 520, "stimulus": "<p id='stroop-text' class='stroop-green'>WINDOW</p>", "response": "g", "stimulus-type": "unrelated", "word": "WINDOW", "color": "green", "correct_response": "g", "trial_id": "stroop-trial-1-unrelated-25", "trial_type": "html-keyboard-response", "trial_index": 157, "time_elapsed": 388024, "internal_node_id": "0.0-6.0-62.0"}}, {"uniqueid": "w14814420:a51050649", "current_trial": 158, "dateTime": 1664555517120, "trialdata": {"rt": 681, "stimulus": "<p id='stroop-text' class='stroop-blue'>BLUE</p>", "response": "b", "stimulus-type": "congruent", "word": "blue", "color": "blue", "correct_response": "b", "trial_id": "stroop-trial-1-congruent-7", "trial_type": "html-keyboard-response", "trial_index": 158, "time_elapsed": 389210, "internal_node_id": "0.0-6.0-63.0"}}, {"uniqueid": "w14814420:a51050649", "current_trial": 159, "dateTime": 1664555518621, "trialdata": {"rt": 997, "stimulus": "<p id='stroop-text' class='stroop-red'>BLUE</p>", "response": "r", "stimulus-type": "incongruent", "word": "blue", "color": "red", "correct_response": "r", "trial_id": "stroop-trial-1-incongruent-14", "trial_type": "html-keyboard-response", "trial_index": 159, "time_elapsed": 390711, "internal_node_id": "0.0-6.0-64.0"}}, {"uniqueid": "w14814420:a51050649", "current_trial": 160, "dateTime": 1664555519746, "trialdata": {"rt": 617, "stimulus": "<p id='stroop-text' class='stroop-red'>BRAIN</p>", "response": "r", "stimulus-type": "unrelated", "word": "BRAIN", "color": "red", "correct_response": "r", "trial_id": "stroop-trial-1-unrelated-12", "trial_type": "html-keyboard-response", "trial_index": 160, "time_elapsed": 391835, "internal_node_id": "0.0-6.0-65.0"}}, {"uniqueid": "w14814420:a51050649", "current_trial": 161, "dateTime": 1664555520839, "trialdata": {"rt": 589, "stimulus": "<p id='stroop-text' class='stroop-green'>RED</p>", "response": "g", "stimulus-type": "incongruent", "word": "red", "color": "green", "correct_response": "g", "trial_id": "stroop-trial-1-incongruent-13", "trial_type": "html-keyboard-response", "trial_index": 161, "time_elapsed": 392929, "internal_node_id": "0.0-6.0-66.0"}}, {"uniqueid": "w14814420:a51050649", "current_trial": 162, "dateTime": 1664555521900, "trialdata": {"rt": 555, "stimulus": "<p id='stroop-text' class='stroop-blue'>BOTTLE</p>", "response": "b", "stimulus-type": "unrelated", "word": "BOTTLE", "color": "blue", "correct_response": "b", "trial_id": "stroop-trial-1-unrelated-23", "trial_type": "html-keyboard-response", "trial_index": 162, "time_elapsed": 393990, "internal_node_id": "0.0-6.0-67.0"}}, {"uniqueid": "w14814420:a51050649", "current_trial": 163, "dateTime": 1664555523357, "trialdata": {"rt": 949, "stimulus": "<p id='stroop-text' class='stroop-red'>BRIDGE</p>", "response": "r", "stimulus-type": "unrelated", "word": "BRIDGE", "color": "red", "correct_response": "r", "trial_id": "stroop-trial-1-unrelated-22", "trial_type": "html-keyboard-response", "trial_index": 163, "time_elapsed": 395446, "internal_node_id": "0.0-6.0-68.0"}}, {"uniqueid": "w14814420:a51050649", "current_trial": 164, "dateTime": 1664555524812, "trialdata": {"rt": 950, "stimulus": "<p id='stroop-text' class='stroop-yellow'>GREEN</p>", "response": "y", "stimulus-type": "incongruent", "word": "green", "color": "yellow", "correct_response": "y", "trial_id": "stroop-trial-1-incongruent-12", "trial_type": "html-keyboard-response", "trial_index": 164, "time_elapsed": 396901, "internal_node_id": "0.0-6.0-69.0"}}, {"uniqueid": "w14814420:a51050649", "current_trial": 165, "dateTime": 1664555525941, "trialdata": {"rt": 625, "stimulus": "<p id='stroop-text' class='stroop-green'>GREEN</p>", "response": "g", "stimulus-type": "congruent", "word": "green", "color": "green", "correct_response": "g", "trial_id": "stroop-trial-1-congruent-23", "trial_type": "html-keyboard-response", "trial_index": 165, "time_elapsed": 398031, "internal_node_id": "0.0-6.0-70.0"}}, {"uniqueid": "w14814420:a51050649", "current_trial": 166, "dateTime": 1664555527100, "trialdata": {"rt": 656, "stimulus": "<p id='stroop-text' class='stroop-red'>STONE</p>", "response": "r", "stimulus-type": "unrelated", "word": "STONE", "color": "red", "correct_response": "r", "trial_id": "stroop-trial-1-unrelated-7", "trial_type": "html-keyboard-response", "trial_index": 166, "time_elapsed": 399190, "internal_node_id": "0.0-6.0-71.0"}}, {"uniqueid": "w14814420:a51050649", "current_trial": 167, "dateTime": 1664555528117, "trialdata": {"rt": 514, "stimulus": "<p id='stroop-text' class='stroop-yellow'>YELLOW</p>", "response": "y", "stimulus-type": "congruent", "word": "yellow", "color": "yellow", "correct_response": "y", "trial_id": "stroop-trial-1-congruent-27", "trial_type": "html-keyboard-response", "trial_index": 167, "time_elapsed": 400207, "internal_node_id": "0.0-6.0-72.0"}}, {"uniqueid": "w14814420:a51050649", "current_trial": 168, "dateTime": 1664555529546, "trialdata": {"rt": 925, "stimulus": "<p id='stroop-text' class='stroop-green'>RED</p>", "response": "g", "stimulus-type": "incongruent", "word": "red", "color": "green", "correct_response": "g", "trial_id": "stroop-trial-1-incongruent-5", "trial_type": "html-keyboard-response", "trial_index": 168, "time_elapsed": 401635, "internal_node_id": "0.0-6.0-73.0"}}, {"uniqueid": "w14814420:a51050649", "current_trial": 169, "dateTime": 1664555530516, "trialdata": {"rt": 466, "stimulus": "<p id='stroop-text' class='stroop-green'>RED</p>", "response": "g", "stimulus-type": "incongruent", "word": "red", "color": "green", "correct_response": "g", "trial_id": "stroop-trial-1-incongruent-4", "trial_type": "html-keyboard-response", "trial_index": 169, "time_elapsed": 402606, "internal_node_id": "0.0-6.0-74.0"}}, {"uniqueid": "w14814420:a51050649", "current_trial": 170, "dateTime": 1664555531577, "trialdata": {"rt": 558, "stimulus": "<p id='stroop-text' class='stroop-yellow'>YELLOW</p>", "response": "y", "stimulus-type": "congruent", "word": "yellow", "color": "yellow", "correct_response": "y", "trial_id": "stroop-trial-1-congruent-25", "trial_type": "html-keyboard-response", "trial_index": 170, "time_elapsed": 403667, "internal_node_id": "0.0-6.0-75.0"}}, {"uniqueid": "w14814420:a51050649", "current_trial": 171, "dateTime": 1664555532618, "trialdata": {"rt": 536, "stimulus": "<p id='stroop-text' class='stroop-green'>YELLOW</p>", "response": "y", "stimulus-type": "incongruent", "word": "yellow", "color": "green", "correct_response": "g", "trial_id": "stroop-trial-1-incongruent-21", "trial_type": "html-keyboard-response", "trial_index": 171, "time_elapsed": 404707, "internal_node_id": "0.0-6.0-76.0"}}, {"uniqueid": "w14814420:a51050649", "current_trial": 172, "dateTime": 1664555533838, "trialdata": {"rt": 717, "stimulus": "<p id='stroop-text' class='stroop-green'>BOTTLE</p>", "response": "g", "stimulus-type": "unrelated", "word": "BOTTLE", "color": "green", "correct_response": "g", "trial_id": "stroop-trial-1-unrelated-6", "trial_type": "html-keyboard-response", "trial_index": 172, "time_elapsed": 405928, "internal_node_id": "0.0-6.0-77.0"}}, {"uniqueid": "w14814420:a51050649", "current_trial": 173, "dateTime": 1664555535034, "trialdata": {"rt": 692, "stimulus": "<p id='stroop-text' class='stroop-blue'>RED</p>", "response": "b", "stimulus-type": "incongruent", "word": "red", "color": "blue", "correct_response": "b", "trial_id": "stroop-trial-1-incongruent-9", "trial_type": "html-keyboard-response", "trial_index": 173, "time_elapsed": 407123, "internal_node_id": "0.0-6.0-78.0"}}, {"uniqueid": "w14814420:a51050649", "current_trial": 174, "dateTime": 1664555536862, "trialdata": {"rt": 1327, "stimulus": "<p id='stroop-text' class='stroop-green'>RED</p>", "response": "g", "stimulus-type": "incongruent", "word": "red", "color": "green", "correct_response": "g", "trial_id": "stroop-trial-1-incongruent-27", "trial_type": "html-keyboard-response", "trial_index": 174, "time_elapsed": 408952, "internal_node_id": "0.0-6.0-79.0"}}, {"uniqueid": "w14814420:a51050649", "current_trial": 175, "dateTime": 1664555538005, "trialdata": {"rt": 640, "stimulus": "<p id='stroop-text' class='stroop-yellow'>STONE</p>", "response": "y", "stimulus-type": "unrelated", "word": "STONE", "color": "yellow", "correct_response": "y", "trial_id": "stroop-trial-1-unrelated-5", "trial_type": "html-keyboard-response", "trial_index": 175, "time_elapsed": 410094, "internal_node_id": "0.0-6.0-80.0"}}, {"uniqueid": "w14814420:a51050649", "current_trial": 176, "dateTime": 1664555539453, "trialdata": {"rt": 946, "stimulus": "<p id='stroop-text' class='stroop-red'>GREEN</p>", "response": "r", "stimulus-type": "incongruent", "word": "green", "color": "red", "correct_response": "r", "trial_id": "stroop-trial-1-incongruent-19", "trial_type": "html-keyboard-response", "trial_index": 176, "time_elapsed": 411543, "internal_node_id": "0.0-6.0-81.0"}}, {"uniqueid": "w14814420:a51050649", "current_trial": 177, "dateTime": 1664555540996, "trialdata": {"rt": 1036, "stimulus": "<p id='stroop-text' class='stroop-blue'>STONE</p>", "response": "b", "stimulus-type": "unrelated", "word": "STONE", "color": "blue", "correct_response": "b", "trial_id": "stroop-trial-1-unrelated-13", "trial_type": "html-keyboard-response", "trial_index": 177, "time_elapsed": 413086, "internal_node_id": "0.0-6.0-82.0"}}, {"uniqueid": "w14814420:a51050649", "current_trial": 178, "dateTime": 1664555542137, "trialdata": {"rt": 633, "stimulus": "<p id='stroop-text' class='stroop-blue'>GREEN</p>", "response": "b", "stimulus-type": "incongruent", "word": "green", "color": "blue", "correct_response": "b", "trial_id": "stroop-trial-1-incongruent-29", "trial_type": "html-keyboard-response", "trial_index": 178, "time_elapsed": 414226, "internal_node_id": "0.0-6.0-83.0"}}, {"uniqueid": "w14814420:a51050649", "current_trial": 179, "dateTime": 1664555543085, "trialdata": {"rt": 444, "stimulus": "<p id='stroop-text' class='stroop-blue'>BLUE</p>", "response": "b", "stimulus-type": "congruent", "word": "blue", "color": "blue", "correct_response": "b", "trial_id": "stroop-trial-1-congruent-9", "trial_type": "html-keyboard-response", "trial_index": 179, "time_elapsed": 415174, "internal_node_id": "0.0-6.0-84.0"}}, {"uniqueid": "w14814420:a51050649", "current_trial": 180, "dateTime": 1664555543980, "trialdata": {"rt": 389, "stimulus": "<p id='stroop-text' class='stroop-blue'>BLUE</p>", "response": "b", "stimulus-type": "congruent", "word": "blue", "color": "blue", "correct_response": "b", "trial_id": "stroop-trial-1-congruent-29", "trial_type": "html-keyboard-response", "trial_index": 180, "time_elapsed": 416069, "internal_node_id": "0.0-6.0-85.0"}}, {"uniqueid": "w14814420:a51050649", "current_trial": 181, "dateTime": 1664555545047, "trialdata": {"rt": 565, "stimulus": "<p id='stroop-text' class='stroop-yellow'>YELLOW</p>", "response": "y", "stimulus-type": "congruent", "word": "yellow", "color": "yellow", "correct_response": "y", "trial_id": "stroop-trial-1-congruent-24", "trial_type": "html-keyboard-response", "trial_index": 181, "time_elapsed": 417137, "internal_node_id": "0.0-6.0-86.0"}}, {"uniqueid": "w14814420:a51050649", "current_trial": 182, "dateTime": 1664555546364, "trialdata": {"rt": 812, "stimulus": "<p id='stroop-text' class='stroop-blue'>BOAT</p>", "response": "b", "stimulus-type": "unrelated", "word": "BOAT", "color": "blue", "correct_response": "b", "trial_id": "stroop-trial-1-unrelated-3", "trial_type": "html-keyboard-response", "trial_index": 182, "time_elapsed": 418453, "internal_node_id": "0.0-6.0-87.0"}}, {"uniqueid": "w14814420:a51050649", "current_trial": 183, "dateTime": 1664555547693, "trialdata": {"rt": 823, "stimulus": "<p id='stroop-text' class='stroop-green'>FORK</p>", "response": "g", "stimulus-type": "unrelated", "word": "FORK", "color": "green", "correct_response": "g", "trial_id": "stroop-trial-1-unrelated-21", "trial_type": "html-keyboard-response", "trial_index": 183, "time_elapsed": 419781, "internal_node_id": "0.0-6.0-88.0"}}, {"uniqueid": "w14814420:a51050649", "current_trial": 184, "dateTime": 1664555548677, "trialdata": {"rt": 478, "stimulus": "<p id='stroop-text' class='stroop-green'>YELLOW</p>", "response": "g", "stimulus-type": "incongruent", "word": "yellow", "color": "green", "correct_response": "g", "trial_id": "stroop-trial-1-incongruent-2", "trial_type": "html-keyboard-response", "trial_index": 184, "time_elapsed": 420767, "internal_node_id": "0.0-6.0-89.0"}}, {"uniqueid": "w14814420:a51050649", "current_trial": 185, "dateTime": 1664555556165, "trialdata": {"rt": 6980, "stimulus": "  <h1> End of block! </h1>\n\n  You have reached the end of the block 2/5. If you need a short break, feel free to take one now before moving on.\n\n  <br><br>\n  In the next block, you will complete another 90 rounds of this game.\n\n  <br><br>\n  <div style='text-align: center;'>Press <code>space</code> to begin.</div>\n  <br><br>\n<div style='text-align: center;'>(If the experiment doesn't continue, try clicking on the text and then pressing <code>space</code>.)</div>", "response": " ", "trial_id": "stroop_1_ready_3", "trial_type": "html-keyboard-response", "trial_index": 185, "time_elapsed": 428255, "internal_node_id": "0.0-7.0"}}, {"uniqueid": "w14814420:a51050649", "current_trial": 186, "dateTime": 1664555557292, "trialdata": {"rt": 1122, "stimulus": "<p id='stroop-text' class='stroop-green'>BLUE</p>", "response": "g", "stimulus-type": "incongruent", "word": "blue", "color": "green", "correct_response": "g", "trial_id": "stroop-trial-1-incongruent-27", "trial_type": "html-keyboard-response", "trial_index": 186, "time_elapsed": 429381, "internal_node_id": "0.0-8.0-0.0"}}, {"uniqueid": "w14814420:a51050649", "current_trial": 187, "dateTime": 1664555558452, "trialdata": {"rt": 657, "stimulus": "<p id='stroop-text' class='stroop-blue'>BLUE</p>", "response": "b", "stimulus-type": "congruent", "word": "blue", "color": "blue", "correct_response": "b", "trial_id": "stroop-trial-1-congruent-25", "trial_type": "html-keyboard-response", "trial_index": 187, "time_elapsed": 430541, "internal_node_id": "0.0-8.0-1.0"}}, {"uniqueid": "w14814420:a51050649", "current_trial": 188, "dateTime": 1664555559646, "trialdata": {"rt": 688, "stimulus": "<p id='stroop-text' class='stroop-yellow'>BOTTLE</p>", "response": "y", "stimulus-type": "unrelated", "word": "BOTTLE", "color": "yellow", "correct_response": "y", "trial_id": "stroop-trial-1-unrelated-8", "trial_type": "html-keyboard-response", "trial_index": 188, "time_elapsed": 431736, "internal_node_id": "0.0-8.0-2.0"}}, {"uniqueid": "w14814420:a51050649", "current_trial": 189, "dateTime": 1664555561535, "trialdata": {"rt": 1384, "stimulus": "<p id='stroop-text' class='stroop-blue'>GREEN</p>", "response": "b", "stimulus-type": "incongruent", "word": "green", "color": "blue", "correct_response": "b", "trial_id": "stroop-trial-1-incongruent-5", "trial_type": "html-keyboard-response", "trial_index": 189, "time_elapsed": 433625, "internal_node_id": "0.0-8.0-3.0"}}, {"uniqueid": "w14814420:a51050649", "current_trial": 190, "dateTime": 1664555562554, "trialdata": {"rt": 511, "stimulus": "<p id='stroop-text' class='stroop-yellow'>YELLOW</p>", "response": "y", "stimulus-type": "congruent", "word": "yellow", "color": "yellow", "correct_response": "y", "trial_id": "stroop-trial-1-congruent-21", "trial_type": "html-keyboard-response", "trial_index": 190, "time_elapsed": 434643, "internal_node_id": "0.0-8.0-4.0"}}, {"uniqueid": "w14814420:a51050649", "current_trial": 191, "dateTime": 1664555563594, "trialdata": {"rt": 536, "stimulus": "<p id='stroop-text' class='stroop-blue'>CHAIR</p>", "response": "b", "stimulus-type": "unrelated", "word": "CHAIR", "color": "blue", "correct_response": "b", "trial_id": "stroop-trial-1-unrelated-6", "trial_type": "html-keyboard-response", "trial_index": 191, "time_elapsed": 435684, "internal_node_id": "0.0-8.0-5.0"}}, {"uniqueid": "w14814420:a51050649", "current_trial": 192, "dateTime": 1664555564662, "trialdata": {"rt": 562, "stimulus": "<p id='stroop-text' class='stroop-red'>STONE</p>", "response": "r", "stimulus-type": "unrelated", "word": "STONE", "color": "red", "correct_response": "r", "trial_id": "stroop-trial-1-unrelated-3", "trial_type": "html-keyboard-response", "trial_index": 192, "time_elapsed": 436751, "internal_node_id": "0.0-8.0-6.0"}}, {"uniqueid": "w14814420:a51050649", "current_trial": 193, "dateTime": 1664555566181, "trialdata": {"rt": 1017, "stimulus": "<p id='stroop-text' class='stroop-green'>YELLOW</p>", "response": "g", "stimulus-type": "incongruent", "word": "yellow", "color": "green", "correct_response": "g", "trial_id": "stroop-trial-1-incongruent-20", "trial_type": "html-keyboard-response", "trial_index": 193, "time_elapsed": 438271, "internal_node_id": "0.0-8.0-7.0"}}, {"uniqueid": "w14814420:a51050649", "current_trial": 194, "dateTime": 1664555567485, "trialdata": {"rt": 800, "stimulus": "<p id='stroop-text' class='stroop-red'>YELLOW</p>", "response": "r", "stimulus-type": "incongruent", "word": "yellow", "color": "red", "correct_response": "r", "trial_id": "stroop-trial-1-incongruent-3", "trial_type": "html-keyboard-response", "trial_index": 194, "time_elapsed": 439575, "internal_node_id": "0.0-8.0-8.0"}}, {"uniqueid": "w14814420:a51050649", "current_trial": 195, "dateTime": 1664555568573, "trialdata": {"rt": 585, "stimulus": "<p id='stroop-text' class='stroop-red'>RED</p>", "response": "r", "stimulus-type": "congruent", "word": "red", "color": "red", "correct_response": "r", "trial_id": "stroop-trial-1-congruent-15", "trial_type": "html-keyboard-response", "trial_index": 195, "time_elapsed": 440663, "internal_node_id": "0.0-8.0-9.0"}}, {"uniqueid": "w14814420:a51050649", "current_trial": 196, "dateTime": 1664555570145, "trialdata": {"rt": 1070, "stimulus": "<p id='stroop-text' class='stroop-blue'>BRAIN</p>", "response": "b", "stimulus-type": "unrelated", "word": "BRAIN", "color": "blue", "correct_response": "b", "trial_id": "stroop-trial-1-unrelated-10", "trial_type": "html-keyboard-response", "trial_index": 196, "time_elapsed": 442235, "internal_node_id": "0.0-8.0-10.0"}}, {"uniqueid": "w14814420:a51050649", "current_trial": 197, "dateTime": 1664555571349, "trialdata": {"rt": 701, "stimulus": "<p id='stroop-text' class='stroop-green'>GREEN</p>", "response": "g", "stimulus-type": "congruent", "word": "green", "color": "green", "correct_response": "g", "trial_id": "stroop-trial-1-congruent-18", "trial_type": "html-keyboard-response", "trial_index": 197, "time_elapsed": 443439, "internal_node_id": "0.0-8.0-11.0"}}, {"uniqueid": "w14814420:a51050649", "current_trial": 198, "dateTime": 1664555572342, "trialdata": {"rt": 487, "stimulus": "<p id='stroop-text' class='stroop-green'>GREEN</p>", "response": "g", "stimulus-type": "congruent", "word": "green", "color": "green", "correct_response": "g", "trial_id": "stroop-trial-1-congruent-8", "trial_type": "html-keyboard-response", "trial_index": 198, "time_elapsed": 444431, "internal_node_id": "0.0-8.0-12.0"}}, {"uniqueid": "w14814420:a51050649", "current_trial": 199, "dateTime": 1664555573228, "trialdata": {"rt": 381, "stimulus": "<p id='stroop-text' class='stroop-green'>BLUE</p>", "response": "g", "stimulus-type": "incongruent", "word": "blue", "color": "green", "correct_response": "g", "trial_id": "stroop-trial-1-incongruent-29", "trial_type": "html-keyboard-response", "trial_index": 199, "time_elapsed": 445317, "internal_node_id": "0.0-8.0-13.0"}}, {"uniqueid": "w14814420:a51050649", "current_trial": 200, "dateTime": 1664555574347, "trialdata": {"rt": 616, "stimulus": "<p id='stroop-text' class='stroop-red'>WINDOW</p>", "response": "r", "stimulus-type": "unrelated", "word": "WINDOW", "color": "red", "correct_response": "r", "trial_id": "stroop-trial-1-unrelated-29", "trial_type": "html-keyboard-response", "trial_index": 200, "time_elapsed": 446436, "internal_node_id": "0.0-8.0-14.0"}}, {"uniqueid": "w14814420:a51050649", "current_trial": 201, "dateTime": 1664555575539, "trialdata": {"rt": 691, "stimulus": "<p id='stroop-text' class='stroop-red'>MONKEY</p>", "response": "r", "stimulus-type": "unrelated", "word": "MONKEY", "color": "red", "correct_response": "r", "trial_id": "stroop-trial-1-unrelated-14", "trial_type": "html-keyboard-response", "trial_index": 201, "time_elapsed": 447629, "internal_node_id": "0.0-8.0-15.0"}}, {"uniqueid": "w14814420:a51050649", "current_trial": 202, "dateTime": 1664555576564, "trialdata": {"rt": 521, "stimulus": "<p id='stroop-text' class='stroop-red'>BLUE</p>", "response": "r", "stimulus-type": "incongruent", "word": "blue", "color": "red", "correct_response": "r", "trial_id": "stroop-trial-1-incongruent-4", "trial_type": "html-keyboard-response", "trial_index": 202, "time_elapsed": 448653, "internal_node_id": "0.0-8.0-16.0"}}, {"uniqueid": "w14814420:a51050649", "current_trial": 203, "dateTime": 1664555577503, "trialdata": {"rt": 433, "stimulus": "<p id='stroop-text' class='stroop-red'>YELLOW</p>", "response": "r", "stimulus-type": "incongruent", "word": "yellow", "color": "red", "correct_response": "r", "trial_id": "stroop-trial-1-incongruent-22", "trial_type": "html-keyboard-response", "trial_index": 203, "time_elapsed": 449592, "internal_node_id": "0.0-8.0-17.0"}}, {"uniqueid": "w14814420:a51050649", "current_trial": 204, "dateTime": 1664555578447, "trialdata": {"rt": 439, "stimulus": "<p id='stroop-text' class='stroop-yellow'>YELLOW</p>", "response": "y", "stimulus-type": "congruent", "word": "yellow", "color": "yellow", "correct_response": "y", "trial_id": "stroop-trial-1-congruent-24", "trial_type": "html-keyboard-response", "trial_index": 204, "time_elapsed": 450537, "internal_node_id": "0.0-8.0-18.0"}}, {"uniqueid": "w14814420:a51050649", "current_trial": 205, "dateTime": 1664555579675, "trialdata": {"rt": 719, "stimulus": "<p id='stroop-text' class='stroop-blue'>BOAT</p>", "response": "b", "stimulus-type": "unrelated", "word": "BOAT", "color": "blue", "correct_response": "b", "trial_id": "stroop-trial-1-unrelated-1", "trial_type": "html-keyboard-response", "trial_index": 205, "time_elapsed": 451764, "internal_node_id": "0.0-8.0-19.0"}}, {"uniqueid": "w14814420:a51050649", "current_trial": 206, "dateTime": 1664555580678, "trialdata": {"rt": 497, "stimulus": "<p id='stroop-text' class='stroop-green'>RED</p>", "response": "g", "stimulus-type": "incongruent", "word": "red", "color": "green", "correct_response": "g", "trial_id": "stroop-trial-1-incongruent-17", "trial_type": "html-keyboard-response", "trial_index": 206, "time_elapsed": 452767, "internal_node_id": "0.0-8.0-20.0"}}, {"uniqueid": "w14814420:a51050649", "current_trial": 207, "dateTime": 1664555581588, "trialdata": {"rt": 407, "stimulus": "<p id='stroop-text' class='stroop-green'>BRIDGE</p>", "response": "g", "stimulus-type": "unrelated", "word": "BRIDGE", "color": "green", "correct_response": "g", "trial_id": "stroop-trial-1-unrelated-2", "trial_type": "html-keyboard-response", "trial_index": 207, "time_elapsed": 453677, "internal_node_id": "0.0-8.0-21.0"}}, {"uniqueid": "w14814420:a51050649", "current_trial": 208, "dateTime": 1664555582664, "trialdata": {"rt": 569, "stimulus": "<p id='stroop-text' class='stroop-yellow'>BRIDGE</p>", "response": "y", "stimulus-type": "unrelated", "word": "BRIDGE", "color": "yellow", "correct_response": "y", "trial_id": "stroop-trial-1-unrelated-11", "trial_type": "html-keyboard-response", "trial_index": 208, "time_elapsed": 454753, "internal_node_id": "0.0-8.0-22.0"}}, {"uniqueid": "w14814420:a51050649", "current_trial": 209, "dateTime": 1664555584509, "trialdata": {"rt": 1339, "stimulus": "<p id='stroop-text' class='stroop-green'>RED</p>", "response": "g", "stimulus-type": "incongruent", "word": "red", "color": "green", "correct_response": "g", "trial_id": "stroop-trial-1-incongruent-9", "trial_type": "html-keyboard-response", "trial_index": 209, "time_elapsed": 456599, "internal_node_id": "0.0-8.0-23.0"}}, {"uniqueid": "w14814420:a51050649", "current_trial": 210, "dateTime": 1664555586114, "trialdata": {"rt": 1101, "stimulus": "<p id='stroop-text' class='stroop-blue'>BLUE</p>", "response": "b", "stimulus-type": "congruent", "word": "blue", "color": "blue", "correct_response": "b", "trial_id": "stroop-trial-1-congruent-6", "trial_type": "html-keyboard-response", "trial_index": 210, "time_elapsed": 458204, "internal_node_id": "0.0-8.0-24.0"}}, {"uniqueid": "w14814420:a51050649", "current_trial": 211, "dateTime": 1664555588175, "trialdata": {"rt": 1556, "stimulus": "<p id='stroop-text' class='stroop-red'>GREEN</p>", "response": "r", "stimulus-type": "incongruent", "word": "green", "color": "red", "correct_response": "r", "trial_id": "stroop-trial-1-incongruent-23", "trial_type": "html-keyboard-response", "trial_index": 211, "time_elapsed": 460264, "internal_node_id": "0.0-8.0-25.0"}}, {"uniqueid": "w14814420:a51050649", "current_trial": 212, "dateTime": 1664555589322, "trialdata": {"rt": 643, "stimulus": "<p id='stroop-text' class='stroop-yellow'>BOAT</p>", "response": "y", "stimulus-type": "unrelated", "word": "BOAT", "color": "yellow", "correct_response": "y", "trial_id": "stroop-trial-1-unrelated-18", "trial_type": "html-keyboard-response", "trial_index": 212, "time_elapsed": 461412, "internal_node_id": "0.0-8.0-26.0"}}, {"uniqueid": "w14814420:a51050649", "current_trial": 213, "dateTime": 1664555590423, "trialdata": {"rt": 595, "stimulus": "<p id='stroop-text' class='stroop-green'>GREEN</p>", "response": "g", "stimulus-type": "congruent", "word": "green", "color": "green", "correct_response": "g", "trial_id": "stroop-trial-1-congruent-7", "trial_type": "html-keyboard-response", "trial_index": 213, "time_elapsed": 462513, "internal_node_id": "0.0-8.0-27.0"}}, {"uniqueid": "w14814420:a51050649", "current_trial": 214, "dateTime": 1664555591521, "trialdata": {"rt": 595, "stimulus": "<p id='stroop-text' class='stroop-green'>GREEN</p>", "response": "g", "stimulus-type": "congruent", "word": "green", "color": "green", "correct_response": "g", "trial_id": "stroop-trial-1-congruent-10", "trial_type": "html-keyboard-response", "trial_index": 214, "time_elapsed": 463611, "internal_node_id": "0.0-8.0-28.0"}}, {"uniqueid": "w14814420:a51050649", "current_trial": 215, "dateTime": 1664555592962, "trialdata": {"rt": 937, "stimulus": "<p id='stroop-text' class='stroop-blue'>RED</p>", "response": "b", "stimulus-type": "incongruent", "word": "red", "color": "blue", "correct_response": "b", "trial_id": "stroop-trial-1-incongruent-21", "trial_type": "html-keyboard-response", "trial_index": 215, "time_elapsed": 465052, "internal_node_id": "0.0-8.0-29.0"}}, {"uniqueid": "w14814420:a51050649", "current_trial": 216, "dateTime": 1664555594181, "trialdata": {"rt": 713, "stimulus": "<p id='stroop-text' class='stroop-red'>GREEN</p>", "response": "r", "stimulus-type": "incongruent", "word": "green", "color": "red", "correct_response": "r", "trial_id": "stroop-trial-1-incongruent-16", "trial_type": "html-keyboard-response", "trial_index": 216, "time_elapsed": 466270, "internal_node_id": "0.0-8.0-30.0"}}, {"uniqueid": "w14814420:a51050649", "current_trial": 217, "dateTime": 1664555595351, "trialdata": {"rt": 665, "stimulus": "<p id='stroop-text' class='stroop-red'>YELLOW</p>", "response": "r", "stimulus-type": "incongruent", "word": "yellow", "color": "red", "correct_response": "r", "trial_id": "stroop-trial-1-incongruent-12", "trial_type": "html-keyboard-response", "trial_index": 217, "time_elapsed": 467441, "internal_node_id": "0.0-8.0-31.0"}}, {"uniqueid": "w14814420:a51050649", "current_trial": 218, "dateTime": 1664555596317, "trialdata": {"rt": 462, "stimulus": "<p id='stroop-text' class='stroop-red'>RED</p>", "response": "r", "stimulus-type": "congruent", "word": "red", "color": "red", "correct_response": "r", "trial_id": "stroop-trial-1-congruent-4", "trial_type": "html-keyboard-response", "trial_index": 218, "time_elapsed": 468407, "internal_node_id": "0.0-8.0-32.0"}}, {"uniqueid": "w14814420:a51050649", "current_trial": 219, "dateTime": 1664555597198, "trialdata": {"rt": 377, "stimulus": "<p id='stroop-text' class='stroop-red'>DOG</p>", "response": "r", "stimulus-type": "unrelated", "word": "DOG", "color": "red", "correct_response": "r", "trial_id": "stroop-trial-1-unrelated-26", "trial_type": "html-keyboard-response", "trial_index": 219, "time_elapsed": 469288, "internal_node_id": "0.0-8.0-33.0"}}, {"uniqueid": "w14814420:a51050649", "current_trial": 220, "dateTime": 1664555598208, "trialdata": {"rt": 503, "stimulus": "<p id='stroop-text' class='stroop-yellow'>MONKEY</p>", "response": "y", "stimulus-type": "unrelated", "word": "MONKEY", "color": "yellow", "correct_response": "y", "trial_id": "stroop-trial-1-unrelated-27", "trial_type": "html-keyboard-response", "trial_index": 220, "time_elapsed": 470297, "internal_node_id": "0.0-8.0-34.0"}}, {"uniqueid": "w14814420:a51050649", "current_trial": 221, "dateTime": 1664555599224, "trialdata": {"rt": 508, "stimulus": "<p id='stroop-text' class='stroop-red'>BOTTLE</p>", "response": "r", "stimulus-type": "unrelated", "word": "BOTTLE", "color": "red", "correct_response": "r", "trial_id": "stroop-trial-1-unrelated-23", "trial_type": "html-keyboard-response", "trial_index": 221, "time_elapsed": 471313, "internal_node_id": "0.0-8.0-35.0"}}, {"uniqueid": "w14814420:a51050649", "current_trial": 222, "dateTime": 1664555600446, "trialdata": {"rt": 715, "stimulus": "<p id='stroop-text' class='stroop-blue'>BRIDGE</p>", "response": "b", "stimulus-type": "unrelated", "word": "BRIDGE", "color": "blue", "correct_response": "b", "trial_id": "stroop-trial-1-unrel