{"condition": 0, "counterbalance": 0, "assignmentId": "a19762613", "workerId": "w45334183", "hitId": "h47311942", "currenttrial": 959, "bonus": 0, "data": [{"uniqueid": "w45334183:a19762613", "current_trial": 0, "dateTime": 1664555133278, "trialdata": {"success": true, "trial_type": "fullscreen", "trial_index": 0, "time_elapsed": 3877, "internal_node_id": "0.0-0.0"}}, {"uniqueid": "w45334183:a19762613", "current_trial": 1, "dateTime": 1664555159492, "trialdata": {"view_history": [{"page_index": 0, "viewing_time": 26202}], "rt": 26204, "trial_id": "exp_instructions_distractor", "trial_type": "instructions", "trial_index": 1, "time_elapsed": 30092, "internal_node_id": "0.0-1.0"}}, {"uniqueid": "w45334183:a19762613", "current_trial": 2, "dateTime": 1664555307836, "trialdata": {"view_history": [{"page_index": 0, "viewing_time": 148338}], "rt": 148338, "trial_id": "color_game_instructions", "trial_type": "instructions", "trial_index": 2, "time_elapsed": 178436, "internal_node_id": "0.0-2.0"}}, {"uniqueid": "w45334183:a19762613", "current_trial": 3, "dateTime": 1664555314687, "trialdata": {"rt": 6846, "stimulus": "<h1> Get ready to start the game! </h1>\n\nThank you for reading the instructions. Get ready start with the first of 5 block(s) of this game.\n<br><br>\nIn this first block, you will complete 90 rounds of this game before moving on.\n<br><br>\nRemember, the better you perform, the bigger your bonus will be!\n<br><br>\n<div style='text-align: center;'>Press <code>space</code> to begin.</div>", "response": " ", "trial_id": "stroop_1_ready_1", "trial_type": "html-keyboard-response", "trial_index": 3, "time_elapsed": 185287, "internal_node_id": "0.0-3.0"}}, {"uniqueid": "w45334183:a19762613", "current_trial": 4, "dateTime": 1664555315824, "trialdata": {"rt": 1063, "stimulus": "<p id='stroop-text' class='stroop-red'>GREEN</p>", "response": "g", "stimulus-type": "incongruent", "word": "green", "color": "red", "correct_response": "r", "trial_id": "stroop-trial-1-incongruent-8", "trial_type": "html-keyboard-response", "trial_index": 4, "time_elapsed": 186423, "internal_node_id": "0.0-4.0-0.0"}}, {"uniqueid": "w45334183:a19762613", "current_trial": 5, "dateTime": 1664555318508, "trialdata": {"rt": 2175, "stimulus": "<p id='stroop-text' class='stroop-green'>DOG</p>", "response": "g", "stimulus-type": "unrelated", "word": "DOG", "color": "green", "correct_response": "g", "trial_id": "stroop-trial-1-unrelated-22", "trial_type": "html-keyboard-response", "trial_index": 5, "time_elapsed": 189107, "internal_node_id": "0.0-4.0-1.0"}}, {"uniqueid": "w45334183:a19762613", "current_trial": 6, "dateTime": 1664555320037, "trialdata": {"rt": 1016, "stimulus": "<p id='stroop-text' class='stroop-red'>YELLOW</p>", "response": "r", "stimulus-type": "incongruent", "word": "yellow", "color": "red", "correct_response": "r", "trial_id": "stroop-trial-1-incongruent-16", "trial_type": "html-keyboard-response", "trial_index": 6, "time_elapsed": 190636, "internal_node_id": "0.0-4.0-2.0"}}, {"uniqueid": "w45334183:a19762613", "current_trial": 7, "dateTime": 1664555321384, "trialdata": {"rt": 841, "stimulus": "<p id='stroop-text' class='stroop-green'>GREEN</p>", "response": "g", "stimulus-type": "congruent", "word": "green", "color": "green", "correct_response": "g", "trial_id": "stroop-trial-1-congruent-28", "trial_type": "html-keyboard-response", "trial_index": 7, "time_elapsed": 191983, "internal_node_id": "0.0-4.0-3.0"}}, {"uniqueid": "w45334183:a19762613", "current_trial": 8, "dateTime": 1664555322848, "trialdata": {"rt": 956, "stimulus": "<p id='stroop-text' class='stroop-green'>BRIDGE</p>", "response": "g", "stimulus-type": "unrelated", "word": "BRIDGE", "color": "green", "correct_response": "g", "trial_id": "stroop-trial-1-unrelated-17", "trial_type": "html-keyboard-response", "trial_index": 8, "time_elapsed": 193448, "internal_node_id": "0.0-4.0-4.0"}}, {"uniqueid": "w45334183:a19762613", "current_trial": 9, "dateTime": 1664555325121, "trialdata": {"rt": 1769, "stimulus": "<p id='stroop-text' class='stroop-blue'>RED</p>", "response": "b", "stimulus-type": "incongruent", "word": "red", "color": "blue", "correct_response": "b", "trial_id": "stroop-trial-1-incongruent-15", "trial_type": "html-keyboard-response", "trial_index": 9, "time_elapsed": 195720, "internal_node_id": "0.0-4.0-5.0"}}, {"uniqueid": "w45334183:a19762613", "current_trial": 10, "dateTime": 1664555327602, "trialdata": {"rt": 1974, "stimulus": "<p id='stroop-text' class='stroop-green'>YELLOW</p>", "response": "g", "stimulus-type": "incongruent", "word": "yellow", "color": "green", "correct_response": "g", "trial_id": "stroop-trial-1-incongruent-14", "trial_type": "html-keyboard-response", "trial_index": 10, "time_elapsed": 198202, "internal_node_id": "0.0-4.0-6.0"}}, {"uniqueid": "w45334183:a19762613", "current_trial": 11, "dateTime": 1664555329012, "trialdata": {"rt": 899, "stimulus": "<p id='stroop-text' class='stroop-red'>RED</p>", "response": "r", "stimulus-type": "congruent", "word": "red", "color": "red", "correct_response": "r", "trial_id": "stroop-trial-1-congruent-20", "trial_type": "html-keyboard-response", "trial_index": 11, "time_elapsed": 199612, "internal_node_id": "0.0-4.0-7.0"}}, {"uniqueid": "w45334183:a19762613", "current_trial": 12, "dateTime": 1664555330043, "trialdata": {"rt": 523, "stimulus": "<p id='stroop-text' class='stroop-red'>RED</p>", "response": "r", "stimulus-type": "congruent", "word": "red", "color": "red", "correct_response": "r", "trial_id": "stroop-trial-1-congruent-17", "trial_type": "html-keyboard-response", "trial_index": 12, "time_elapsed": 200643, "internal_node_id": "0.0-4.0-8.0"}}, {"uniqueid": "w45334183:a19762613", "current_trial": 13, "dateTime": 1664555331119, "trialdata": {"rt": 555, "stimulus": "<p id='stroop-text' class='stroop-red'>RED</p>", "response": "r", "stimulus-type": "congruent", "word": "red", "color": "red", "correct_response": "r", "trial_id": "stroop-trial-1-congruent-15", "trial_type": "html-keyboard-response", "trial_index": 13, "time_elapsed": 201718, "internal_node_id": "0.0-4.0-9.0"}}, {"uniqueid": "w45334183:a19762613", "current_trial": 14, "dateTime": 1664555332899, "trialdata": {"rt": 1276, "stimulus": "<p id='stroop-text' class='stroop-red'>YELLOW</p>", "response": "r", "stimulus-type": "incongruent", "word": "yellow", "color": "red", "correct_response": "r", "trial_id": "stroop-trial-1-incongruent-13", "trial_type": "html-keyboard-response", "trial_index": 14, "time_elapsed": 203499, "internal_node_id": "0.0-4.0-10.0"}}, {"uniqueid": "w45334183:a19762613", "current_trial": 15, "dateTime": 1664555334559, "trialdata": {"rt": 1152, "stimulus": "<p id='stroop-text' class='stroop-green'>BLUE</p>", "response": "g", "stimulus-type": "incongruent", "word": "blue", "color": "green", "correct_response": "g", "trial_id": "stroop-trial-1-incongruent-5", "trial_type": "html-keyboard-response", "trial_index": 15, "time_elapsed": 205158, "internal_node_id": "0.0-4.0-11.0"}}, {"uniqueid": "w45334183:a19762613", "current_trial": 16, "dateTime": 1664555336004, "trialdata": {"rt": 940, "stimulus": "<p id='stroop-text' class='stroop-yellow'>WINDOW</p>", "response": "y", "stimulus-type": "unrelated", "word": "WINDOW", "color": "yellow", "correct_response": "y", "trial_id": "stroop-trial-1-unrelated-3", "trial_type": "html-keyboard-response", "trial_index": 16, "time_elapsed": 206604, "internal_node_id": "0.0-4.0-12.0"}}, {"uniqueid": "w45334183:a19762613", "current_trial": 17, "dateTime": 1664555337072, "trialdata": {"rt": 562, "stimulus": "<p id='stroop-text' class='stroop-yellow'>BRIDGE</p>", "response": "y", "stimulus-type": "unrelated", "word": "BRIDGE", "color": "yellow", "correct_response": "y", "trial_id": "stroop-trial-1-unrelated-6", "trial_type": "html-keyboard-response", "trial_index": 17, "time_elapsed": 207671, "internal_node_id": "0.0-4.0-13.0"}}, {"uniqueid": "w45334183:a19762613", "current_trial": 18, "dateTime": 1664555338278, "trialdata": {"rt": 688, "stimulus": "<p id='stroop-text' class='stroop-yellow'>RED</p>", "response": "r", "stimulus-type": "incongruent", "word": "red", "color": "yellow", "correct_response": "y", "trial_id": "stroop-trial-1-incongruent-6", "trial_type": "html-keyboard-response", "trial_index": 18, "time_elapsed": 208878, "internal_node_id": "0.0-4.0-14.0"}}, {"uniqueid": "w45334183:a19762613", "current_trial": 19, "dateTime": 1664555339796, "trialdata": {"rt": 1012, "stimulus": "<p id='stroop-text' class='stroop-red'>MONKEY</p>", "response": "r", "stimulus-type": "unrelated", "word": "MONKEY", "color": "red", "correct_response": "r", "trial_id": "stroop-trial-1-unrelated-27", "trial_type": "html-keyboard-response", "trial_index": 19, "time_elapsed": 210396, "internal_node_id": "0.0-4.0-15.0"}}, {"uniqueid": "w45334183:a19762613", "current_trial": 20, "dateTime": 1664555341375, "trialdata": {"rt": 1075, "stimulus": "<p id='stroop-text' class='stroop-green'>YELLOW</p>", "response": "g", "stimulus-type": "incongruent", "word": "yellow", "color": "green", "correct_response": "g", "trial_id": "stroop-trial-1-incongruent-22", "trial_type": "html-keyboard-response", "trial_index": 20, "time_elapsed": 211975, "internal_node_id": "0.0-4.0-16.0"}}, {"uniqueid": "w45334183:a19762613", "current_trial": 21, "dateTime": 1664555342674, "trialdata": {"rt": 788, "stimulus": "<p id='stroop-text' class='stroop-blue'>BLUE</p>", "response": "b", "stimulus-type": "congruent", "word": "blue", "color": "blue", "correct_response": "b", "trial_id": "stroop-trial-1-congruent-26", "trial_type": "html-keyboard-response", "trial_index": 21, "time_elapsed": 213274, "internal_node_id": "0.0-4.0-17.0"}}, {"uniqueid": "w45334183:a19762613", "current_trial": 22, "dateTime": 1664555344061, "trialdata": {"rt": 873, "stimulus": "<p id='stroop-text' class='stroop-yellow'>BLUE</p>", "response": "y", "stimulus-type": "incongruent", "word": "blue", "color": "yellow", "correct_response": "y", "trial_id": "stroop-trial-1-incongruent-25", "trial_type": "html-keyboard-response", "trial_index": 22, "time_elapsed": 214661, "internal_node_id": "0.0-4.0-18.0"}}, {"uniqueid": "w45334183:a19762613", "current_trial": 23, "dateTime": 1664555346015, "trialdata": {"rt": 1449, "stimulus": "<p id='stroop-text' class='stroop-yellow'>BLUE</p>", "response": "y", "stimulus-type": "incongruent", "word": "blue", "color": "yellow", "correct_response": "y", "trial_id": "stroop-trial-1-incongruent-2", "trial_type": "html-keyboard-response", "trial_index": 23, "time_elapsed": 216615, "internal_node_id": "0.0-4.0-19.0"}}, {"uniqueid": "w45334183:a19762613", "current_trial": 24, "dateTime": 1664555347120, "trialdata": {"rt": 588, "stimulus": "<p id='stroop-text' class='stroop-red'>RED</p>", "response": "r", "stimulus-type": "congruent", "word": "red", "color": "red", "correct_response": "r", "trial_id": "stroop-trial-1-congruent-4", "trial_type": "html-keyboard-response", "trial_index": 24, "time_elapsed": 217720, "internal_node_id": "0.0-4.0-20.0"}}, {"uniqueid": "w45334183:a19762613", "current_trial": 25, "dateTime": 1664555348523, "trialdata": {"rt": 899, "stimulus": "<p id='stroop-text' class='stroop-red'>GREEN</p>", "response": "r", "stimulus-type": "incongruent", "word": "green", "color": "red", "correct_response": "r", "trial_id": "stroop-trial-1-incongruent-23", "trial_type": "html-keyboard-response", "trial_index": 25, "time_elapsed": 219123, "internal_node_id": "0.0-4.0-21.0"}}, {"uniqueid": "w45334183:a19762613", "current_trial": 26, "dateTime": 1664555349689, "trialdata": {"rt": 656, "stimulus": "<p id='stroop-text' class='stroop-green'>GREEN</p>", "response": "g", "stimulus-type": "congruent", "word": "green", "color": "green", "correct_response": "g", "trial_id": "stroop-trial-1-congruent-25", "trial_type": "html-keyboard-response", "trial_index": 26, "time_elapsed": 220288, "internal_node_id": "0.0-4.0-22.0"}}, {"uniqueid": "w45334183:a19762613", "current_trial": 27, "dateTime": 1664555350993, "trialdata": {"rt": 796, "stimulus": "<p id='stroop-text' class='stroop-yellow'>RED</p>", "response": "y", "stimulus-type": "incongruent", "word": "red", "color": "yellow", "correct_response": "y", "trial_id": "stroop-trial-1-incongruent-12", "trial_type": "html-keyboard-response", "trial_index": 27, "time_elapsed": 221593, "internal_node_id": "0.0-4.0-23.0"}}, {"uniqueid": "w45334183:a19762613", "current_trial": 28, "dateTime": 1664555351868, "trialdata": {"rt": 362, "stimulus": "<p id='stroop-text' class='stroop-red'>RED</p>", "response": "r", "stimulus-type": "congruent", "word": "red", "color": "red", "correct_response": "r", "trial_id": "stroop-trial-1-congruent-13", "trial_type": "html-keyboard-response", "trial_index": 28, "time_elapsed": 222468, "internal_node_id": "0.0-4.0-24.0"}}, {"uniqueid": "w45334183:a19762613", "current_trial": 29, "dateTime": 1664555353629, "trialdata": {"rt": 1250, "stimulus": "<p id='stroop-text' class='stroop-blue'>YELLOW</p>", "response": "b", "stimulus-type": "incongruent", "word": "yellow", "color": "blue", "correct_response": "b", "trial_id": "stroop-trial-1-incongruent-18", "trial_type": "html-keyboard-response", "trial_index": 29, "time_elapsed": 224228, "internal_node_id": "0.0-4.0-25.0"}}, {"uniqueid": "w45334183:a19762613", "current_trial": 30, "dateTime": 1664555354741, "trialdata": {"rt": 603, "stimulus": "<p id='stroop-text' class='stroop-blue'>BLUE</p>", "response": "b", "stimulus-type": "congruent", "word": "blue", "color": "blue", "correct_response": "b", "trial_id": "stroop-trial-1-congruent-8", "trial_type": "html-keyboard-response", "trial_index": 30, "time_elapsed": 225341, "internal_node_id": "0.0-4.0-26.0"}}, {"uniqueid": "w45334183:a19762613", "current_trial": 31, "dateTime": 1664555355864, "trialdata": {"rt": 610, "stimulus": "<p id='stroop-text' class='stroop-red'>BLUE</p>", "response": "r", "stimulus-type": "incongruent", "word": "blue", "color": "red", "correct_response": "r", "trial_id": "stroop-trial-1-incongruent-27", "trial_type": "html-keyboard-response", "trial_index": 31, "time_elapsed": 226463, "internal_node_id": "0.0-4.0-27.0"}}, {"uniqueid": "w45334183:a19762613", "current_trial": 32, "dateTime": 1664555357269, "trialdata": {"rt": 893, "stimulus": "<p id='stroop-text' class='stroop-green'>GREEN</p>", "response": "g", "stimulus-type": "congruent", "word": "green", "color": "green", "correct_response": "g", "trial_id": "stroop-trial-1-congruent-2", "trial_type": "html-keyboard-response", "trial_index": 32, "time_elapsed": 227868, "internal_node_id": "0.0-4.0-28.0"}}, {"uniqueid": "w45334183:a19762613", "current_trial": 33, "dateTime": 1664555358255, "trialdata": {"rt": 481, "stimulus": "<p id='stroop-text' class='stroop-red'>WINDOW</p>", "response": "r", "stimulus-type": "unrelated", "word": "WINDOW", "color": "red", "correct_response": "r", "trial_id": "stroop-trial-1-unrelated-8", "trial_type": "html-keyboard-response", "trial_index": 33, "time_elapsed": 228855, "internal_node_id": "0.0-4.0-29.0"}}, {"uniqueid": "w45334183:a19762613", "current_trial": 34, "dateTime": 1664555359675, "trialdata": {"rt": 897, "stimulus": "<p id='stroop-text' class='stroop-green'>BRAIN</p>", "response": "g", "stimulus-type": "unrelated", "word": "BRAIN", "color": "green", "correct_response": "g", "trial_id": "stroop-trial-1-unrelated-13", "trial_type": "html-keyboard-response", "trial_index": 34, "time_elapsed": 230274, "internal_node_id": "0.0-4.0-30.0"}}, {"uniqueid": "w45334183:a19762613", "current_trial": 35, "dateTime": 1664555360703, "trialdata": {"rt": 519, "stimulus": "<p id='stroop-text' class='stroop-yellow'>BOAT</p>", "response": "y", "stimulus-type": "unrelated", "word": "BOAT", "color": "yellow", "correct_response": "y", "trial_id": "stroop-trial-1-unrelated-4", "trial_type": "html-keyboard-response", "trial_index": 35, "time_elapsed": 231302, "internal_node_id": "0.0-4.0-31.0"}}, {"uniqueid": "w45334183:a19762613", "current_trial": 36, "dateTime": 1664555361779, "trialdata": {"rt": 569, "stimulus": "<p id='stroop-text' class='stroop-yellow'>RED</p>", "response": "r", "stimulus-type": "incongruent", "word": "red", "color": "yellow", "correct_response": "y", "trial_id": "stroop-trial-1-incongruent-4", "trial_type": "html-keyboard-response", "trial_index": 36, "time_elapsed": 232378, "internal_node_id": "0.0-4.0-32.0"}}, {"uniqueid": "w45334183:a19762613", "current_trial": 37, "dateTime": 1664555363356, "trialdata": {"rt": 1072, "stimulus": "<p id='stroop-text' class='stroop-yellow'>STONE</p>", "response": "y", "stimulus-type": "unrelated", "word": "STONE", "color": "yellow", "correct_response": "y", "trial_id": "stroop-trial-1-unrelated-23", "trial_type": "html-keyboard-response", "trial_index": 37, "time_elapsed": 233955, "internal_node_id": "0.0-4.0-33.0"}}, {"uniqueid": "w45334183:a19762613", "current_trial": 38, "dateTime": 1664555364484, "trialdata": {"rt": 620, "stimulus": "<p id='stroop-text' class='stroop-green'>GREEN</p>", "response": "g", "stimulus-type": "congruent", "word": "green", "color": "green", "correct_response": "g", "trial_id": "stroop-trial-1-congruent-29", "trial_type": "html-keyboard-response", "trial_index": 38, "time_elapsed": 235083, "internal_node_id": "0.0-4.0-34.0"}}, {"uniqueid": "w45334183:a19762613", "current_trial": 39, "dateTime": 1664555365559, "trialdata": {"rt": 567, "stimulus": "<p id='stroop-text' class='stroop-blue'>BLUE</p>", "response": "b", "stimulus-type": "congruent", "word": "blue", "color": "blue", "correct_response": "b", "trial_id": "stroop-trial-1-congruent-7", "trial_type": "html-keyboard-response", "trial_index": 39, "time_elapsed": 236159, "internal_node_id": "0.0-4.0-35.0"}}, {"uniqueid": "w45334183:a19762613", "current_trial": 40, "dateTime": 1664555366714, "trialdata": {"rt": 641, "stimulus": "<p id='stroop-text' class='stroop-blue'>CHAIR</p>", "response": "b", "stimulus-type": "unrelated", "word": "CHAIR", "color": "blue", "correct_response": "b", "trial_id": "stroop-trial-1-unrelated-2", "trial_type": "html-keyboard-response", "trial_index": 40, "time_elapsed": 237313, "internal_node_id": "0.0-4.0-36.0"}}, {"uniqueid": "w45334183:a19762613", "current_trial": 41, "dateTime": 1664555368035, "trialdata": {"rt": 811, "stimulus": "<p id='stroop-text' class='stroop-yellow'>BRAIN</p>", "response": "y", "stimulus-type": "unrelated", "word": "BRAIN", "color": "yellow", "correct_response": "y", "trial_id": "stroop-trial-1-unrelated-30", "trial_type": "html-keyboard-response", "trial_index": 41, "time_elapsed": 238634, "internal_node_id": "0.0-4.0-37.0"}}, {"uniqueid": "w45334183:a19762613", "current_trial": 42, "dateTime": 1664555369024, "trialdata": {"rt": 484, "stimulus": "<p id='stroop-text' class='stroop-yellow'>BRAIN</p>", "response": "y", "stimulus-type": "unrelated", "word": "BRAIN", "color": "yellow", "correct_response": "y", "trial_id": "stroop-trial-1-unrelated-11", "trial_type": "html-keyboard-response", "trial_index": 42, "time_elapsed": 239624, "internal_node_id": "0.0-4.0-38.0"}}, {"uniqueid": "w45334183:a19762613", "current_trial": 43, "dateTime": 1664555370235, "trialdata": {"rt": 704, "stimulus": "<p id='stroop-text' class='stroop-red'>RED</p>", "response": "r", "stimulus-type": "congruent", "word": "red", "color": "red", "correct_response": "r", "trial_id": "stroop-trial-1-congruent-11", "trial_type": "html-keyboard-response", "trial_index": 43, "time_elapsed": 240835, "internal_node_id": "0.0-4.0-39.0"}}, {"uniqueid": "w45334183:a19762613", "current_trial": 44, "dateTime": 1664555371525, "trialdata": {"rt": 785, "stimulus": "<p id='stroop-text' class='stroop-blue'>RED</p>", "response": "b", "stimulus-type": "incongruent", "word": "red", "color": "blue", "correct_response": "b", "trial_id": "stroop-trial-1-incongruent-3", "trial_type": "html-keyboard-response", "trial_index": 44, "time_elapsed": 242124, "internal_node_id": "0.0-4.0-40.0"}}, {"uniqueid": "w45334183:a19762613", "current_trial": 45, "dateTime": 1664555372738, "trialdata": {"rt": 707, "stimulus": "<p id='stroop-text' class='stroop-red'>YELLOW</p>", "response": "r", "stimulus-type": "incongruent", "word": "yellow", "color": "red", "correct_response": "r", "trial_id": "stroop-trial-1-incongruent-11", "trial_type": "html-keyboard-response", "trial_index": 45, "time_elapsed": 243338, "internal_node_id": "0.0-4.0-41.0"}}, {"uniqueid": "w45334183:a19762613", "current_trial": 46, "dateTime": 1664555373954, "trialdata": {"rt": 702, "stimulus": "<p id='stroop-text' class='stroop-yellow'>BLUE</p>", "response": "b", "stimulus-type": "incongruent", "word": "blue", "color": "yellow", "correct_response": "y", "trial_id": "stroop-trial-1-incongruent-1", "trial_type": "html-keyboard-response", "trial_index": 46, "time_elapsed": 244554, "internal_node_id": "0.0-4.0-42.0"}}, {"uniqueid": "w45334183:a19762613", "current_trial": 47, "dateTime": 1664555375469, "trialdata": {"rt": 1004, "stimulus": "<p id='stroop-text' class='stroop-yellow'>BRAIN</p>", "response": "y", "stimulus-type": "unrelated", "word": "BRAIN", "color": "yellow", "correct_response": "y", "trial_id": "stroop-trial-1-unrelated-9", "trial_type": "html-keyboard-response", "trial_index": 47, "time_elapsed": 246068, "internal_node_id": "0.0-4.0-43.0"}}, {"uniqueid": "w45334183:a19762613", "current_trial": 48, "dateTime": 1664555376553, "trialdata": {"rt": 570, "stimulus": "<p id='stroop-text' class='stroop-blue'>BLUE</p>", "response": "b", "stimulus-type": "congruent", "word": "blue", "color": "blue", "correct_response": "b", "trial_id": "stroop-trial-1-congruent-1", "trial_type": "html-keyboard-response", "trial_index": 48, "time_elapsed": 247153, "internal_node_id": "0.0-4.0-44.0"}}, {"uniqueid": "w45334183:a19762613", "current_trial": 49, "dateTime": 1664555377675, "trialdata": {"rt": 609, "stimulus": "<p id='stroop-text' class='stroop-yellow'>RED</p>", "response": "r", "stimulus-type": "incongruent", "word": "red", "color": "yellow", "correct_response": "y", "trial_id": "stroop-trial-1-incongruent-24", "trial_type": "html-keyboard-response", "trial_index": 49, "time_elapsed": 248274, "internal_node_id": "0.0-4.0-45.0"}}, {"uniqueid": "w45334183:a19762613", "current_trial": 50, "dateTime": 1664555379529, "trialdata": {"rt": 1340, "stimulus": "<p id='stroop-text' class='stroop-blue'>FORK</p>", "response": "b", "stimulus-type": "unrelated", "word": "FORK", "color": "blue", "correct_response": "b", "trial_id": "stroop-trial-1-unrelated-7", "trial_type": "html-keyboard-response", "trial_index": 50, "time_elapsed": 250129, "internal_node_id": "0.0-4.0-46.0"}}, {"uniqueid": "w45334183:a19762613", "current_trial": 51, "dateTime": 1664555381405, "trialdata": {"rt": 1372, "stimulus": "<p id='stroop-text' class='stroop-red'>MONKEY</p>", "response": "r", "stimulus-type": "unrelated", "word": "MONKEY", "color": "red", "correct_response": "r", "trial_id": "stroop-trial-1-unrelated-19", "trial_type": "html-keyboard-response", "trial_index": 51, "time_elapsed": 252005, "internal_node_id": "0.0-4.0-47.0"}}, {"uniqueid": "w45334183:a19762613", "current_trial": 52, "dateTime": 1664555382959, "trialdata": {"rt": 1049, "stimulus": "<p id='stroop-text' class='stroop-blue'>YELLOW</p>", "response": "b", "stimulus-type": "incongruent", "word": "yellow", "color": "blue", "correct_response": "b", "trial_id": "stroop-trial-1-incongruent-26", "trial_type": "html-keyboard-response", "trial_index": 52, "time_elapsed": 253558, "internal_node_id": "0.0-4.0-48.0"}}, {"uniqueid": "w45334183:a19762613", "current_trial": 53, "dateTime": 1664555384547, "trialdata": {"rt": 1078, "stimulus": "<p id='stroop-text' class='stroop-yellow'>RED</p>", "response": "y", "stimulus-type": "incongruent", "word": "red", "color": "yellow", "correct_response": "y", "trial_id": "stroop-trial-1-incongruent-29", "trial_type": "html-keyboard-response", "trial_index": 53, "time_elapsed": 255147, "internal_node_id": "0.0-4.0-49.0"}}, {"uniqueid": "w45334183:a19762613", "current_trial": 54, "dateTime": 1664555385787, "trialdata": {"rt": 734, "stimulus": "<p id='stroop-text' class='stroop-green'>RED</p>", "response": "g", "stimulus-type": "incongruent", "word": "red", "color": "green", "correct_response": "g", "trial_id": "stroop-trial-1-incongruent-10", "trial_type": "html-keyboard-response", "trial_index": 54, "time_elapsed": 256387, "internal_node_id": "0.0-4.0-50.0"}}, {"uniqueid": "w45334183:a19762613", "current_trial": 55, "dateTime": 1664555386958, "trialdata": {"rt": 660, "stimulus": "<p id='stroop-text' class='stroop-yellow'>YELLOW</p>", "response": "y", "stimulus-type": "congruent", "word": "yellow", "color": "yellow", "correct_response": "y", "trial_id": "stroop-trial-1-congruent-23", "trial_type": "html-keyboard-response", "trial_index": 55, "time_elapsed": 257557, "internal_node_id": "0.0-4.0-51.0"}}, {"uniqueid": "w45334183:a19762613", "current_trial": 56, "dateTime": 1664555388005, "trialdata": {"rt": 534, "stimulus": "<p id='stroop-text' class='stroop-yellow'>YELLOW</p>", "response": "y", "stimulus-type": "congruent", "word": "yellow", "color": "yellow", "correct_response": "y", "trial_id": "stroop-trial-1-congruent-9", "trial_type": "html-keyboard-response", "trial_index": 56, "time_elapsed": 258604, "internal_node_id": "0.0-4.0-52.0"}}, {"uniqueid": "w45334183:a19762613", "current_trial": 57, "dateTime": 1664555389538, "trialdata": {"rt": 1022, "stimulus": "<p id='stroop-text' class='stroop-yellow'>RED</p>", "response": "y", "stimulus-type": "incongruent", "word": "red", "color": "yellow", "correct_response": "y", "trial_id": "stroop-trial-1-incongruent-7", "trial_type": "html-keyboard-response", "trial_index": 57, "time_elapsed": 260137, "internal_node_id": "0.0-4.0-53.0"}}, {"uniqueid": "w45334183:a19762613", "current_trial": 58, "dateTime": 1664555390699, "trialdata": {"rt": 652, "stimulus": "<p id='stroop-text' class='stroop-blue'>DOG</p>", "response": "b", "stimulus-type": "unrelated", "word": "DOG", "color": "blue", "correct_response": "b", "trial_id": "stroop-trial-1-unrelated-5", "trial_type": "html-keyboard-response", "trial_index": 58, "time_elapsed": 261298, "internal_node_id": "0.0-4.0-54.0"}}, {"uniqueid": "w45334183:a19762613", "current_trial": 59, "dateTime": 1664555392151, "trialdata": {"rt": 945, "stimulus": "<p id='stroop-text' class='stroop-blue'>YELLOW</p>", "response": "b", "stimulus-type": "incongruent", "word": "yellow", "color": "blue", "correct_response": "b", "trial_id": "stroop-trial-1-incongruent-21", "trial_type": "html-keyboard-response", "trial_index": 59, "time_elapsed": 262750, "internal_node_id": "0.0-4.0-55.0"}}, {"uniqueid": "w45334183:a19762613", "current_trial": 60, "dateTime": 1664555393095, "trialdata": {"rt": 431, "stimulus": "<p id='stroop-text' class='stroop-blue'>BLUE</p>", "response": "b", "stimulus-type": "congruent", "word": "blue", "color": "blue", "correct_response": "b", "trial_id": "stroop-trial-1-congruent-6", "trial_type": "html-keyboard-response", "trial_index": 60, "time_elapsed": 263695, "internal_node_id": "0.0-4.0-56.0"}}, {"uniqueid": "w45334183:a19762613", "current_trial": 61, "dateTime": 1664555394429, "trialdata": {"rt": 823, "stimulus": "<p id='stroop-text' class='stroop-red'>BLUE</p>", "response": "r", "stimulus-type": "incongruent", "word": "blue", "color": "red", "correct_response": "r", "trial_id": "stroop-trial-1-incongruent-9", "trial_type": "html-keyboard-response", "trial_index": 61, "time_elapsed": 265029, "internal_node_id": "0.0-4.0-57.0"}}, {"uniqueid": "w45334183:a19762613", "current_trial": 62, "dateTime": 1664555395518, "trialdata": {"rt": 585, "stimulus": "<p id='stroop-text' class='stroop-green'>GREEN</p>", "response": "g", "stimulus-type": "congruent", "word": "green", "color": "green", "correct_response": "g", "trial_id": "stroop-trial-1-congruent-19", "trial_type": "html-keyboard-response", "trial_index": 62, "time_elapsed": 266118, "internal_node_id": "0.0-4.0-58.0"}}, {"uniqueid": "w45334183:a19762613", "current_trial": 63, "dateTime": 1664555396541, "trialdata": {"rt": 517, "stimulus": "<p id='stroop-text' class='stroop-green'>GREEN</p>", "response": "g", "stimulus-type": "congruent", "word": "green", "color": "green", "correct_response": "g", "trial_id": "stroop-trial-1-congruent-30", "trial_type": "html-keyboard-response", "trial_index": 63, "time_elapsed": 267140, "internal_node_id": "0.0-4.0-59.0"}}, {"uniqueid": "w45334183:a19762613", "current_trial": 64, "dateTime": 1664555397784, "trialdata": {"rt": 733, "stimulus": "<p id='stroop-text' class='stroop-blue'>DOG</p>", "response": "b", "stimulus-type": "unrelated", "word": "DOG", "color": "blue", "correct_response": "b", "trial_id": "stroop-trial-1-unrelated-1", "trial_type": "html-keyboard-response", "trial_index": 64, "time_elapsed": 268383, "internal_node_id": "0.0-4.0-60.0"}}, {"uniqueid": "w45334183:a19762613", "current_trial": 65, "dateTime": 1664555399205, "trialdata": {"rt": 909, "stimulus": "<p id='stroop-text' class='stroop-blue'>BRIDGE</p>", "response": "b", "stimulus-type": "unrelated", "word": "BRIDGE", "color": "blue", "correct_response": "b", "trial_id": "stroop-trial-1-unrelated-28", "trial_type": "html-keyboard-response", "trial_index": 65, "time_elapsed": 269804, "internal_node_id": "0.0-4.0-61.0"}}, {"uniqueid": "w45334183:a19762613", "current_trial": 66, "dateTime": 1664555400143, "trialdata": {"rt": 433, "stimulus": "<p id='stroop-text' class='stroop-blue'>BRAIN</p>", "response": "b", "stimulus-type": "unrelated", "word": "BRAIN", "color": "blue", "correct_response": "b", "trial_id": "stroop-trial-1-unrelated-21", "trial_type": "html-keyboard-response", "trial_index": 66, "time_elapsed": 270742, "internal_node_id": "0.0-4.0-62.0"}}, {"uniqueid": "w45334183:a19762613", "current_trial": 67, "dateTime": 1664555401047, "trialdata": {"rt": 391, "stimulus": "<p id='stroop-text' class='stroop-blue'>BLUE</p>", "response": "b", "stimulus-type": "congruent", "word": "blue", "color": "blue", "correct_response": "b", "trial_id": "stroop-trial-1-congruent-18", "trial_type": "html-keyboard-response", "trial_index": 67, "time_elapsed": 271647, "internal_node_id": "0.0-4.0-63.0"}}, {"uniqueid": "w45334183:a19762613", "current_trial": 68, "dateTime": 1664555402462, "trialdata": {"rt": 907, "stimulus": "<p id='stroop-text' class='stroop-yellow'>RED</p>", "response": "y", "stimulus-type": "incongruent", "word": "red", "color": "yellow", "correct_response": "y", "trial_id": "stroop-trial-1-incongruent-30", "trial_type": "html-keyboard-response", "trial_index": 68, "time_elapsed": 273062, "internal_node_id": "0.0-4.0-64.0"}}, {"uniqueid": "w45334183:a19762613", "current_trial": 69, "dateTime": 1664555403663, "trialdata": {"rt": 690, "stimulus": "<p id='stroop-text' class='stroop-red'>RED</p>", "response": "r", "stimulus-type": "congruent", "word": "red", "color": "red", "correct_response": "r", "trial_id": "stroop-trial-1-congruent-3", "trial_type": "html-keyboard-response", "trial_index": 69, "time_elapsed": 274263, "internal_node_id": "0.0-4.0-65.0"}}, {"uniqueid": "w45334183:a19762613", "current_trial": 70, "dateTime": 1664555404725, "trialdata": {"rt": 550, "stimulus": "<p id='stroop-text' class='stroop-red'>RED</p>", "response": "r", "stimulus-type": "congruent", "word": "red", "color": "red", "correct_response": "r", "trial_id": "stroop-trial-1-congruent-24", "trial_type": "html-keyboard-response", "trial_index": 70, "time_elapsed": 275324, "internal_node_id": "0.0-4.0-66.0"}}, {"uniqueid": "w45334183:a19762613", "current_trial": 71, "dateTime": 1664555405823, "trialdata": {"rt": 593, "stimulus": "<p id='stroop-text' class='stroop-blue'>BLUE</p>", "response": "b", "stimulus-type": "congruent", "word": "blue", "color": "blue", "correct_response": "b", "trial_id": "stroop-trial-1-congruent-27", "trial_type": "html-keyboard-response", "trial_index": 71, "time_elapsed": 276423, "internal_node_id": "0.0-4.0-67.0"}}, {"uniqueid": "w45334183:a19762613", "current_trial": 72, "dateTime": 1664555407123, "trialdata": {"rt": 791, "stimulus": "<p id='stroop-text' class='stroop-green'>CHAIR</p>", "response": "g", "stimulus-type": "unrelated", "word": "CHAIR", "color": "green", "correct_response": "g", "trial_id": "stroop-trial-1-unrelated-12", "trial_type": "html-keyboard-response", "trial_index": 72, "time_elapsed": 277723, "internal_node_id": "0.0-4.0-68.0"}}, {"uniqueid": "w45334183:a19762613", "current_trial": 73, "dateTime": 1664555408175, "trialdata": {"rt": 547, "stimulus": "<p id='stroop-text' class='stroop-red'>CHAIR</p>", "response": "r", "stimulus-type": "unrelated", "word": "CHAIR", "color": "red", "correct_response": "r", "trial_id": "stroop-trial-1-unrelated-24", "trial_type": "html-keyboard-response", "trial_index": 73, "time_elapsed": 278774, "internal_node_id": "0.0-4.0-69.0"}}, {"uniqueid": "w45334183:a19762613", "current_trial": 74, "dateTime": 1664555409758, "trialdata": {"rt": 1075, "stimulus": "<p id='stroop-text' class='stroop-green'>YELLOW</p>", "response": "g", "stimulus-type": "incongruent", "word": "yellow", "color": "green", "correct_response": "g", "trial_id": "stroop-trial-1-incongruent-28", "trial_type": "html-keyboard-response", "trial_index": 74, "time_elapsed": 280358, "internal_node_id": "0.0-4.0-70.0"}}, {"uniqueid": "w45334183:a19762613", "current_trial": 75, "dateTime": 1664555410832, "trialdata": {"rt": 556, "stimulus": "<p id='stroop-text' class='stroop-yellow'>YELLOW</p>", "response": "y", "stimulus-type": "congruent", "word": "yellow", "color": "yellow", "correct_response": "y", "trial_id": "stroop-trial-1-congruent-21", "trial_type": "html-keyboard-response", "trial_index": 75, "time_elapsed": 281432, "internal_node_id": "0.0-4.0-71.0"}}, {"uniqueid": "w45334183:a19762613", "current_trial": 76, "dateTime": 1664555411975, "trialdata": {"rt": 630, "stimulus": "<p id='stroop-text' class='stroop-red'>GREEN</p>", "response": "r", "stimulus-type": "incongruent", "word": "green", "color": "red", "correct_response": "r", "trial_id": "stroop-trial-1-incongruent-19", "trial_type": "html-keyboard-response", "trial_index": 76, "time_elapsed": 282574, "internal_node_id": "0.0-4.0-72.0"}}, {"uniqueid": "w45334183:a19762613", "current_trial": 77, "dateTime": 1664555412951, "trialdata": {"rt": 464, "stimulus": "<p id='stroop-text' class='stroop-red'>RED</p>", "response": "r", "stimulus-type": "congruent", "word": "red", "color": "red", "correct_response": "r", "trial_id": "stroop-trial-1-congruent-10", "trial_type": "html-keyboard-response", "trial_index": 77, "time_elapsed": 283551, "internal_node_id": "0.0-4.0-73.0"}}, {"uniqueid": "w45334183:a19762613", "current_trial": 78, "dateTime": 1664555414092, "trialdata": {"rt": 626, "stimulus": "<p id='stroop-text' class='stroop-red'>BRAIN</p>", "response": "r", "stimulus-type": "unrelated", "word": "BRAIN", "color": "red", "correct_response": "r", "trial_id": "stroop-trial-1-unrelated-26", "trial_type": "html-keyboard-response", "trial_index": 78, "time_elapsed": 284691, "internal_node_id": "0.0-4.0-74.0"}}, {"uniqueid": "w45334183:a19762613", "current_trial": 79, "dateTime": 1664555415233, "trialdata": {"rt": 634, "stimulus": "<p id='stroop-text' class='stroop-blue'>RED</p>", "response": "b", "stimulus-type": "incongruent", "word": "red", "color": "blue", "correct_response": "b", "trial_id": "stroop-trial-1-incongruent-20", "trial_type": "html-keyboard-response", "trial_index": 79, "time_elapsed": 285833, "internal_node_id": "0.0-4.0-75.0"}}, {"uniqueid": "w45334183:a19762613", "current_trial": 80, "dateTime": 1664555416412, "trialdata": {"rt": 668, "stimulus": "<p id='stroop-text' class='stroop-red'>RED</p>", "response": "r", "stimulus-type": "congruent", "word": "red", "color": "red", "correct_response": "r", "trial_id": "stroop-trial-1-congruent-12", "trial_type": "html-keyboard-response", "trial_index": 80, "time_elapsed": 287012, "internal_node_id": "0.0-4.0-76.0"}}, {"uniqueid": "w45334183:a19762613", "current_trial": 81, "dateTime": 1664555417587, "trialdata": {"rt": 671, "stimulus": "<p id='stroop-text' class='stroop-red'>SHIP</p>", "response": "b", "stimulus-type": "unrelated", "word": "SHIP", "color": "red", "correct_response": "r", "trial_id": "stroop-trial-1-unrelated-16", "trial_type": "html-keyboard-response", "trial_index": 81, "time_elapsed": 288187, "internal_node_id": "0.0-4.0-77.0"}}, {"uniqueid": "w45334183:a19762613", "current_trial": 82, "dateTime": 1664555419592, "trialdata": {"rt": 1500, "stimulus": "<p id='stroop-text' class='stroop-blue'>BLUE</p>", "response": "b", "stimulus-type": "congruent", "word": "blue", "color": "blue", "correct_response": "b", "trial_id": "stroop-trial-1-congruent-22", "trial_type": "html-keyboard-response", "trial_index": 82, "time_elapsed": 290191, "internal_node_id": "0.0-4.0-78.0"}}, {"uniqueid": "w45334183:a19762613", "current_trial": 83, "dateTime": 1664555421280, "trialdata": {"rt": 1182, "stimulus": "<p id='stroop-text' class='stroop-red'>BOAT</p>", "response": "r", "stimulus-type": "unrelated", "word": "BOAT", "color": "red", "correct_response": "r", "trial_id": "stroop-trial-1-unrelated-29", "trial_type": "html-keyboard-response", "trial_index": 83, "time_elapsed": 291880, "internal_node_id": "0.0-4.0-79.0"}}, {"uniqueid": "w45334183:a19762613", "current_trial": 84, "dateTime": 1664555422569, "trialdata": {"rt": 779, "stimulus": "<p id='stroop-text' class='stroop-red'>MONKEY</p>", "response": "r", "stimulus-type": "unrelated", "word": "MONKEY", "color": "red", "correct_response": "r", "trial_id": "stroop-trial-1-unrelated-25", "trial_type": "html-keyboard-response", "trial_index": 84, "time_elapsed": 293169, "internal_node_id": "0.0-4.0-80.0"}}, {"uniqueid": "w45334183:a19762613", "current_trial": 85, "dateTime": 1664555423820, "trialdata": {"rt": 733, "stimulus": "<p id='stroop-text' class='stroop-yellow'>BOAT</p>", "response": "y", "stimulus-type": "unrelated", "word": "BOAT", "color": "yellow", "correct_response": "y", "trial_id": "stroop-trial-1-unrelated-15", "trial_type": "html-keyboard-response", "trial_index": 85, "time_elapsed": 294420, "internal_node_id": "0.0-4.0-81.0"}}, {"uniqueid": "w45334183:a19762613", "current_trial": 86, "dateTime": 1664555425078, "trialdata": {"rt": 752, "stimulus": "<p id='stroop-text' class='stroop-green'>GREEN</p>", "response": "g", "stimulus-type": "congruent", "word": "green", "color": "green", "correct_response": "g", "trial_id": "stroop-trial-1-congruent-5", "trial_type": "html-keyboard-response", "trial_index": 86, "time_elapsed": 295677, "internal_node_id": "0.0-4.0-82.0"}}, {"uniqueid": "w45334183:a19762613", "current_trial": 87, "dateTime": 1664555426591, "trialdata": {"rt": 1005, "stimulus": "<p id='stroop-text' class='stroop-yellow'>YELLOW</p>", "response": "y", "stimulus-type": "congruent", "word": "yellow", "color": "yellow", "correct_response": "y", "trial_id": "stroop-trial-1-congruent-14", "trial_type": "html-keyboard-response", "trial_index": 87, "time_elapsed": 297191, "internal_node_id": "0.0-4.0-83.0"}}, {"uniqueid": "w45334183:a19762613", "current_trial": 88, "dateTime": 1664555427825, "trialdata": {"rt": 730, "stimulus": "<p id='stroop-text' class='stroop-red'>MONKEY</p>", "response": "r", "stimulus-type": "unrelated", "word": "MONKEY", "color": "red", "correct_response": "r", "trial_id": "stroop-trial-1-unrelated-14", "trial_type": "html-keyboard-response", "trial_index": 88, "time_elapsed": 298424, "internal_node_id": "0.0-4.0-84.0"}}, {"uniqueid": "w45334183:a19762613", "current_trial": 89, "dateTime": 1664555428897, "trialdata": {"rt": 561, "stimulus": "<p id='stroop-text' class='stroop-green'>GREEN</p>", "response": "g", "stimulus-type": "congruent", "word": "green", "color": "green", "correct_response": "g", "trial_id": "stroop-trial-1-congruent-16", "trial_type": "html-keyboard-response", "trial_index": 89, "time_elapsed": 299497, "internal_node_id": "0.0-4.0-85.0"}}, {"uniqueid": "w45334183:a19762613", "current_trial": 90, "dateTime": 1664555430197, "trialdata": {"rt": 794, "stimulus": "<p id='stroop-text' class='stroop-green'>CHAIR</p>", "response": "g", "stimulus-type": "unrelated", "word": "CHAIR", "color": "green", "correct_response": "g", "trial_id": "stroop-trial-1-unrelated-18", "trial_type": "html-keyboard-response", "trial_index": 90, "time_elapsed": 300797, "internal_node_id": "0.0-4.0-86.0"}}, {"uniqueid": "w45334183:a19762613", "current_trial": 91, "dateTime": 1664555431687, "trialdata": {"rt": 979, "stimulus": "<p id='stroop-text' class='stroop-blue'>GREEN</p>", "response": "b", "stimulus-type": "incongruent", "word": "green", "color": "blue", "correct_response": "b", "trial_id": "stroop-trial-1-incongruent-17", "trial_type": "html-keyboard-response", "trial_index": 91, "time_elapsed": 302287, "internal_node_id": "0.0-4.0-87.0"}}, {"uniqueid": "w45334183:a19762613", "current_trial": 92, "dateTime": 1664555433164, "trialdata": {"rt": 961, "stimulus": "<p id='stroop-text' class='stroop-yellow'>FORK</p>", "response": "y", "stimulus-type": "unrelated", "word": "FORK", "color": "yellow", "correct_response": "y", "trial_id": "stroop-trial-1-unrelated-20", "trial_type": "html-keyboard-response", "trial_index": 92, "time_elapsed": 303763, "internal_node_id": "0.0-4.0-88.0"}}, {"uniqueid": "w45334183:a19762613", "current_trial": 93, "dateTime": 1664555434372, "trialdata": {"rt": 703, "stimulus": "<p id='stroop-text' class='stroop-yellow'>BOAT</p>", "response": "y", "stimulus-type": "unrelated", "word": "BOAT", "color": "yellow", "correct_response": "y", "trial_id": "stroop-trial-1-unrelated-10", "trial_type": "html-keyboard-response", "trial_index": 93, "time_elapsed": 304972, "internal_node_id": "0.0-4.0-89.0"}}, {"uniqueid": "w45334183:a19762613", "current_trial": 94, "dateTime": 1664555488259, "trialdata": {"rt": 53376, "stimulus": "  <h1> End of block! </h1>\n\n  You have reached the end of the block 1/5. If you need a short break, feel free to take one now before moving on.\n\n  <br><br>\n  In the next block, you will complete another 90 rounds of this game.\n\n  <br><br>\n  <div style='text-align: center;'>Press <code>space</code> to begin.</div>\n  <br><br>\n<div style='text-align: center;'>(If the experiment doesn't continue, try clicking on the text and then pressing <code>space</code>.)</div>", "response": " ", "trial_id": "stroop_1_ready_2", "trial_type": "html-keyboard-response", "trial_index": 94, "time_elapsed": 358858, "internal_node_id": "0.0-5.0"}}, {"uniqueid": "w45334183:a19762613", "current_trial": 95, "dateTime": 1664555489320, "trialdata": {"rt": 1055, "stimulus": "<p id='stroop-text' class='stroop-green'>BOAT</p>", "response": "g", "stimulus-type": "unrelated", "word": "BOAT", "color": "green", "correct_response": "g", "trial_id": "stroop-trial-1-unrelated-1", "trial_type": "html-keyboard-response", "trial_index": 95, "time_elapsed": 359919, "internal_node_id": "0.0-6.0-0.0"}}, {"uniqueid": "w45334183:a19762613", "current_trial": 96, "dateTime": 1664555490880, "trialdata": {"rt": 1043, "stimulus": "<p id='stroop-text' class='stroop-blue'>MONKEY</p>", "response": "b", "stimulus-type": "unrelated", "word": "MONKEY", "color": "blue", "correct_response": "b", "trial_id": "stroop-trial-1-unrelated-26", "trial_type": "html-keyboard-response", "trial_index": 96, "time_elapsed": 361479, "internal_node_id": "0.0-6.0-1.0"}}, {"uniqueid": "w45334183:a19762613", "current_trial": 97, "dateTime": 1664555492156, "trialdata": {"rt": 766, "stimulus": "<p id='stroop-text' class='stroop-yellow'>BLUE</p>", "response": "y", "stimulus-type": "incongruent", "word": "blue", "color": "yellow", "correct_response": "y", "trial_id": "stroop-trial-1-incongruent-7", "trial_type": "html-keyboard-response", "trial_index": 97, "time_elapsed": 362756, "internal_node_id": "0.0-6.0-2.0"}}, {"uniqueid": "w45334183:a19762613", "current_trial": 98, "dateTime": 1664555493716, "trialdata": {"rt": 1049, "stimulus": "<p id='stroop-text' class='stroop-green'>RED</p>", "response": "g", "stimulus-type": "incongruent", "word": "red", "color": "green", "correct_response": "g", "trial_id": "stroop-trial-1-incongruent-18", "trial_type": "html-keyboard-response", "trial_index": 98, "time_elapsed": 364316, "internal_node_id": "0.0-6.0-3.0"}}, {"uniqueid": "w45334183:a19762613", "current_trial": 99, "dateTime": 1664555494705, "trialdata": {"rt": 481, "stimulus": "<p id='stroop-text' class='stroop-green'>BLUE</p>", "response": "g", "stimulus-type": "incongruent", "word": "blue", "color": "green", "correct_response": "g", "trial_id": "stroop-trial-1-incongruent-11", "trial_type": "html-keyboard-response", "trial_index": 99, "time_elapsed": 365305, "internal_node_id": "0.0-6.0-4.0"}}, {"uniqueid": "w45334183:a19762613", "current_trial": 100, "dateTime": 1664555497198, "trialdata": {"rt": 1988, "stimulus": "<p id='stroop-text' class='stroop-red'>RED</p>", "response": "r", "stimulus-type": "congruent", "word": "red", "color": "red", "correct_response": "r", "trial_id": "stroop-trial-1-congruent-20", "trial_type": "html-keyboard-response", "trial_index": 100, "time_elapsed": 367797, "internal_node_id": "0.0-6.0-5.0"}}, {"uniqueid": "w45334183:a19762613", "current_trial": 101, "dateTime": 1664555498320, "trialdata": {"rt": 616, "stimulus": "<p id='stroop-text' class='stroop-red'>WINDOW</p>", "response": "r", "stimulus-type": "unrelated", "word": "WINDOW", "color": "red", "correct_response": "r", "trial_id": "stroop-trial-1-unrelated-23", "trial_type": "html-keyboard-response", "trial_index": 101, "time_elapsed": 368919, "internal_node_id": "0.0-6.0-6.0"}}, {"uniqueid": "w45334183:a19762613", "current_trial": 102, "dateTime": 1664555499901, "trialdata": {"rt": 1074, "stimulus": "<p id='stroop-text' class='stroop-blue'>GREEN</p>", "response": "b", "stimulus-type": "incongruent", "word": "green", "color": "blue", "correct_response": "b", "trial_id": "stroop-trial-1-incongruent-29", "trial_type": "html-keyboard-response", "trial_index": 102, "time_elapsed": 370501, "internal_node_id": "0.0-6.0-7.0"}}, {"uniqueid": "w45334183:a19762613", "current_trial": 103, "dateTime": 1664555501043, "trialdata": {"rt": 627, "stimulus": "<p id='stroop-text' class='stroop-green'>SHIP</p>", "response": "g", "stimulus-type": "unrelated", "word": "SHIP", "color": "green", "correct_response": "g", "trial_id": "stroop-trial-1-unrelated-12", "trial_type": "html-keyboard-response", "trial_index": 103, "time_elapsed": 371643, "internal_node_id": "0.0-6.0-8.0"}}, {"uniqueid": "w45334183:a19762613", "current_trial": 104, "dateTime": 1664555502387, "trialdata": {"rt": 836, "stimulus": "<p id='stroop-text' class='stroop-blue'>BRAIN</p>", "response": "b", "stimulus-type": "unrelated", "word": "BRAIN", "color": "blue", "correct_response": "b", "trial_id": "stroop-trial-1-unrelated-28", "trial_type": "html-keyboard-response", "trial_index": 104, "time_elapsed": 372987, "internal_node_id": "0.0-6.0-9.0"}}, {"uniqueid": "w45334183:a19762613", "current_trial": 105, "dateTime": 1664555503714, "trialdata": {"rt": 820, "stimulus": "<p id='stroop-text' class='stroop-blue'>DOG</p>", "response": "b", "stimulus-type": "unrelated", "word": "DOG", "color": "blue", "correct_response": "b", "trial_id": "stroop-trial-1-unrelated-17", "trial_type": "html-keyboard-response", "trial_index": 105, "time_elapsed": 374314, "internal_node_id": "0.0-6.0-10.0"}}, {"uniqueid": "w45334183:a19762613", "current_trial": 106, "dateTime": 1664555505296, "trialdata": {"rt": 1069, "stimulus": "<p id='stroop-text' class='stroop-yellow'>RED</p>", "response": "y", "stimulus-type": "incongruent", "word": "red", "color": "yellow", "correct_response": "y", "trial_id": "stroop-trial-1-incongruent-1", "trial_type": "html-keyboard-response", "trial_index": 106, "time_elapsed": 375895, "internal_node_id": "0.0-6.0-11.0"}}, {"uniqueid": "w45334183:a19762613", "current_trial": 107, "dateTime": 1664555506742, "trialdata": {"rt": 935, "stimulus": "<p id='stroop-text' class='stroop-yellow'>CHAIR</p>", "response": "y", "stimulus-type": "unrelated", "word": "CHAIR", "color": "yellow", "correct_response": "y", "trial_id": "stroop-trial-1-unrelated-9", "trial_type": "html-keyboard-response", "trial_index": 107, "time_elapsed": 377342, "internal_node_id": "0.0-6.0-12.0"}}, {"uniqueid": "w45334183:a19762613", "current_trial": 108, "dateTime": 1664555508620, "trialdata": {"rt": 1369, "stimulus": "<p id='stroop-text' class='stroop-red'>GREEN</p>", "response": "r", "stimulus-type": "incongruent", "word": "green", "color": "red", "correct_response": "r", "trial_id": "stroop-trial-1-incongruent-26", "trial_type": "html-keyboard-response", "trial_index": 108, "time_elapsed": 379219, "internal_node_id": "0.0-6.0-13.0"}}, {"uniqueid": "w45334183:a19762613", "current_trial": 109, "dateTime": 1664555510131, "trialdata": {"rt": 1007, "stimulus": "<p id='stroop-text' class='stroop-green'>FORK</p>", "response": "g", "stimulus-type": "unrelated", "word": "FORK", "color": "green", "correct_response": "g", "trial_id": "stroop-trial-1-unrelated-29", "trial_type": "html-keyboard-response", "trial_index": 109, "time_elapsed": 380731, "internal_node_id": "0.0-6.0-14.0"}}, {"uniqueid": "w45334183:a19762613", "current_trial": 110, "dateTime": 1664555511683, "trialdata": {"rt": 1047, "stimulus": "<p id='stroop-text' class='stroop-red'>CHAIR</p>", "response": "r", "stimulus-type": "unrelated", "word": "CHAIR", "color": "red", "correct_response": "r", "trial_id": "stroop-trial-1-unrelated-24", "trial_type": "html-keyboard-response", "trial_index": 110, "time_elapsed": 382282, "internal_node_id": "0.0-6.0-15.0"}}, {"uniqueid": "w45334183:a19762613", "current_trial": 111, "dateTime": 1664555512994, "trialdata": {"rt": 795, "stimulus": "<p id='stroop-text' class='stroop-green'>SHIP</p>", "response": "g", "stimulus-type": "unrelated", "word": "SHIP", "color": "green", "correct_response": "g", "trial_id": "stroop-trial-1-unrelated-18", "trial_type": "html-keyboard-response", "trial_index": 111, "time_elapsed": 383594, "internal_node_id": "0.0-6.0-16.0"}}, {"uniqueid": "w45334183:a19762613", "current_trial": 112, "dateTime": 1664555514034, "trialdata": {"rt": 530, "stimulus": "<p id='stroop-text' class='stroop-yellow'>YELLOW</p>", "response": "y", "stimulus-type": "congruent", "word": "yellow", "color": "yellow", "correct_response": "y", "trial_id": "stroop-trial-1-congruent-16", "trial_type": "html-keyboard-response", "trial_index": 112, "time_elapsed": 384634, "internal_node_id": "0.0-6.0-17.0"}}, {"uniqueid": "w45334183:a19762613", "current_trial": 113, "dateTime": 1664555515183, "trialdata": {"rt": 639, "stimulus": "<p id='stroop-text' class='stroop-blue'>BLUE</p>", "response": "b", "stimulus-type": "congruent", "word": "blue", "color": "blue", "correct_response": "b", "trial_id": "stroop-trial-1-congruent-21", "trial_type": "html-keyboard-response", "trial_index": 113, "time_elapsed": 385782, "internal_node_id": "0.0-6.0-18.0"}}, {"uniqueid": "w45334183:a19762613", "current_trial": 114, "dateTime": 1664555516226, "trialdata": {"rt": 538, "stimulus": "<p id='stroop-text' class='stroop-blue'>DOG</p>", "response": "b", "stimulus-type": "unrelated", "word": "DOG", "color": "blue", "correct_response": "b", "trial_id": "stroop-trial-1-unrelated-20", "trial_type": "html-keyboard-response", "trial_index": 114, "time_elapsed": 386825, "internal_node_id": "0.0-6.0-19.0"}}, {"uniqueid": "w45334183:a19762613", "current_trial": 115, "dateTime": 1664555517406, "trialdata": {"rt": 667, "stimulus": "<p id='stroop-text' class='stroop-red'>DOG</p>", "response": "r", "stimulus-type": "unrelated", "word": "DOG", "color": "red", "correct_response": "r", "trial_id": "stroop-trial-1-unrelated-27", "trial_type": "html-keyboard-response", "trial_index": 115, "time_elapsed": 388006, "internal_node_id": "0.0-6.0-20.0"}}, {"uniqueid": "w45334183:a19762613", "current_trial": 116, "dateTime": 1664555518984, "trialdata": {"rt": 1064, "stimulus": "<p id='stroop-text' class='stroop-green'>BLUE</p>", "response": "g", "stimulus-type": "incongruent", "word": "blue", "color": "green", "correct_response": "g", "trial_id": "stroop-trial-1-incongruent-23", "trial_type": "html-keyboard-response", "trial_index": 116, "time_elapsed": 389584, "internal_node_id": "0.0-6.0-21.0"}}, {"uniqueid": "w45334183:a19762613", "current_trial": 117, "dateTime": 1664555520163, "trialdata": {"rt": 672, "stimulus": "<p id='stroop-text' class='stroop-green'>GREEN</p>", "response": "g", "stimulus-type": "congruent", "word": "green", "color": "green", "correct_response": "g", "trial_id": "stroop-trial-1-congruent-29", "trial_type": "html-keyboard-response", "trial_index": 117, "time_elapsed": 390763, "internal_node_id": "0.0-6.0-22.0"}}, {"uniqueid": "w45334183:a19762613", "current_trial": 118, "dateTime": 1664555521344, "trialdata": {"rt": 665, "stimulus": "<p id='stroop-text' class='stroop-green'>RED</p>", "response": "r", "stimulus-type": "incongruent", "word": "red", "color": "green", "correct_response": "g", "trial_id": "stroop-trial-1-incongruent-21", "trial_type": "html-keyboard-response", "trial_index": 118, "time_elapsed": 391941, "internal_node_id": "0.0-6.0-23.0"}}, {"uniqueid": "w45334183:a19762613", "current_trial": 119, "dateTime": 1664555522524, "trialdata": {"rt": 674, "stimulus": "<p id='stroop-text' class='stroop-red'>RED</p>", "response": "r", "stimulus-type": "congruent", "word": "red", "color": "red", "correct_response": "r", "trial_id": "stroop-trial-1-congruent-1", "trial_type": "html-keyboard-response", "trial_index": 119, "time_elapsed": 393124, "internal_node_id": "0.0-6.0-24.0"}}, {"uniqueid": "w45334183:a19762613", "current_trial": 120, "dateTime": 1664555523717, "trialdata": {"rt": 682, "stimulus": "<p id='stroop-text' class='stroop-green'>GREEN</p>", "response": "g", "stimulus-type": "congruent", "word": "green", "color": "green", "correct_response": "g", "trial_id": "stroop-trial-1-congruent-3", "trial_type": "html-keyboard-response", "trial_index": 120, "time_elapsed": 394316, "internal_node_id": "0.0-6.0-25.0"}}, {"uniqueid": "w45334183:a19762613", "current_trial": 121, "dateTime": 1664555524988, "trialdata": {"rt": 759, "stimulus": "<p id='stroop-text' class='stroop-red'>RED</p>", "response": "r", "stimulus-type": "congruent", "word": "red", "color": "red", "correct_response": "r", "trial_id": "stroop-trial-1-congruent-27", "trial_type": "html-keyboard-response", "trial_index": 121, "time_elapsed": 395587, "internal_node_id": "0.0-6.0-26.0"}}, {"uniqueid": "w45334183:a19762613", "current_trial": 122, "dateTime": 1664555526052, "trialdata": {"rt": 557, "stimulus": "<p id='stroop-text' class='stroop-green'>FORK</p>", "response": "g", "stimulus-type": "unrelated", "word": "FORK", "color": "green", "correct_response": "g", "trial_id": "stroop-trial-1-unrelated-30", "trial_type": "html-keyboard-response", "trial_index": 122, "time_elapsed": 396652, "internal_node_id": "0.0-6.0-27.0"}}, {"uniqueid": "w45334183:a19762613", "current_trial": 123, "dateTime": 1664555527088, "trialdata": {"rt": 519, "stimulus": "<p id='stroop-text' class='stroop-yellow'>YELLOW</p>", "response": "y", "stimulus-type": "congruent", "word": "yellow", "color": "yellow", "correct_response": "y", "trial_id": "stroop-trial-1-congruent-22", "trial_type": "html-keyboard-response", "trial_index": 123, "time_elapsed": 397688, "internal_node_id": "0.0-6.0-28.0"}}, {"uniqueid": "w45334183:a19762613", "current_trial": 124, "dateTime": 1664555528701, "trialdata": {"rt": 1106, "stimulus": "<p id='stroop-text' class='stroop-yellow'>RED</p>", "response": "y", "stimulus-type": "incongruent", "word": "red", "color": "yellow", "correct_response": "y", "trial_id": "stroop-trial-1-incongruent-20", "trial_type": "html-keyboard-response", "trial_index": 124, "time_elapsed": 399301, "internal_node_id": "0.0-6.0-29.0"}}, {"uniqueid": "w45334183:a19762613", "current_trial": 125, "dateTime": 1664555530112, "trialdata": {"rt": 897, "stimulus": "<p id='stroop-text' class='stroop-green'>FORK</p>", "response": "g", "stimulus-type": "unrelated", "word": "FORK", "color": "green", "correct_response": "g", "trial_id": "stroop-trial-1-unrelated-4", "trial_type": "html-keyboard-response", "trial_index": 125, "time_elapsed": 400712, "internal_node_id": "0.0-6.0-30.0"}}, {"uniqueid": "w45334183:a19762613", "current_trial": 126, "dateTime": 1664555531315, "trialdata": {"rt": 693, "stimulus": "<p id='stroop-text' class='stroop-yellow'>YELLOW</p>", "response": "y", "stimulus-type": "congruent", "word": "yellow", "color": "yellow", "correct_response": "y", "trial_id": "stroop-trial-1-congruent-23", "trial_type": "html-keyboard-response", "trial_index": 126, "time_elapsed": 401914, "internal_node_id": "0.0-6.0-31.0"}}, {"uniqueid": "w45334183:a19762613", "current_trial": 127, "dateTime": 1664555532927, "trialdata": {"rt": 1104, "stimulus": "<p id='stroop-text' class='stroop-red'>GREEN</p>", "response": "r", "stimulus-type": "incongruent", "word": "green", "color": "red", "correct_response": "r", "trial_id": "stroop-trial-1-incongruent-8", "trial_type": "html-keyboard-response", "trial_index": 127, "time_elapsed": 403527, "internal_node_id": "0.0-6.0-32.0"}}, {"uniqueid": "w45334183:a19762613", "current_trial": 128, "dateTime": 1664555534409, "trialdata": {"rt": 973, "stimulus": "<p id='stroop-text' class='stroop-green'>GREEN</p>", "response": "g", "stimulus-type": "congruent", "word": "green", "color": "green", "correct_response": "g", "trial_id": "stroop-trial-1-congruent-17", "trial_type": "html-keyboard-response", "trial_index": 128, "time_elapsed": 405008, "internal_node_id": "0.0-6.0-33.0"}}, {"uniqueid": "w45334183:a19762613", "current_trial": 129, "dateTime": 1664555535325, "trialdata": {"rt": 394, "stimulus": "<p id='stroop-text' class='stroop-green'>BLUE</p>", "response": "g", "stimulus-type": "incongruent", "word": "blue", "color": "green", "correct_response": "g", "trial_id": "stroop-trial-1-incongruent-27", "trial_type": "html-keyboard-response", "trial_index": 129, "time_elapsed": 405925, "internal_node_id": "0.0-6.0-34.0"}}, {"uniqueid": "w45334183:a19762613", "current_trial": 130, "dateTime": 1664555536205, "trialdata": {"rt": 368, "stimulus": "<p id='stroop-text' class='stroop-green'>GREEN</p>", "response": "g", "stimulus-type": "congruent", "word": "green", "color": "green", "correct_response": "g", "trial_id": "stroop-trial-1-congruent-19", "trial_type": "html-keyboard-response", "trial_index": 130, "time_elapsed": 406805, "internal_node_id": "0.0-6.0-35.0"}}, {"uniqueid": "w45334183:a19762613", "current_trial": 131, "dateTime": 1664555537329, "trialdata": {"rt": 605, "stimulus": "<p id='stroop-text' class='stroop-yellow'>GREEN</p>", "response": "y", "stimulus-type": "incongruent", "word": "green", "color": "yellow", "correct_response": "y", "trial_id": "stroop-trial-1-incongruent-12", "trial_type": "html-keyboard-response", "trial_index": 131, "time_elapsed": 407928, "internal_node_id": "0.0-6.0-36.0"}}, {"uniqueid": "w45334183:a19762613", "current_trial": 132, "dateTime": 1664555538481, "trialdata": {"rt": 635, "stimulus": "<p id='stroop-text' class='stroop-red'>YELLOW</p>", "response": "r", "stimulus-type": "incongruent", "word": "yellow", "color": "red", "correct_response": "r", "trial_id": "stroop-trial-1-incongruent-16", "trial_type": "html-keyboard-response", "trial_index": 132, "time_elapsed": 409081, "internal_node_id": "0.0-6.0-37.0"}}, {"uniqueid": "w45334183:a19762613", "current_trial": 133, "dateTime": 1664555539565, "trialdata": {"rt": 577, "stimulus": "<p id='stroop-text' class='stroop-blue'>BLUE</p>", "response": "b", "stimulus-type": "congruent", "word": "blue", "color": "blue", "correct_response": "b", "trial_id": "stroop-trial-1-congruent-14", "trial_type": "html-keyboard-response", "trial_index": 133, "time_elapsed": 410165, "internal_node_id": "0.0-6.0-38.0"}}, {"uniqueid": "w45334183:a19762613", "current_trial": 134, "dateTime": 1664555540874, "trialdata": {"rt": 799, "stimulus": "<p id='stroop-text' class='stroop-green'>STONE</p>", "response": "g", "stimulus-type": "unrelated", "word": "STONE", "color": "green", "correct_response": "g", "trial_id": "stroop-trial-1-unrelated-7", "trial_type": "html-keyboard-response", "trial_index": 134, "time_elapsed": 411473, "internal_node_id": "0.0-6.0-39.0"}}, {"uniqueid": "w45334183:a19762613", "current_trial": 135, "dateTime": 1664555542008, "trialdata": {"rt": 627, "stimulus": "<p id='stroop-text' class='stroop-green'>BLUE</p>", "response": "r", "stimulus-type": "incongruent", "word": "blue", "color": "green", "correct_response": "g", "trial_id": "stroop-trial-1-incongruent-17", "trial_type": "html-keyboard-response", "trial_index": 135, "time_elapsed": 412608, "internal_node_id": "0.0-6.0-40.0"}}, {"uniqueid": "w45334183:a19762613", "current_trial": 136, "dateTime": 1664555543389, "trialdata": {"rt": 875, "stimulus": "<p id='stroop-text' class='stroop-blue'>RED</p>", "response": "r", "stimulus-type": "incongruent", "word": "red", "color": "blue", "correct_response": "b", "trial_id": "stroop-trial-1-incongruent-14", "trial_type": "html-keyboard-response", "trial_index": 136, "time_elapsed": 413989, "internal_node_id": "0.0-6.0-41.0"}}, {"uniqueid": "w45334183:a19762613", "current_trial": 137, "dateTime": 1664555544920, "trialdata": {"rt": 1022, "stimulus": "<p id='stroop-text' class='stroop-blue'>BLUE</p>", "response": "b", "stimulus-type": "congruent", "word": "blue", "color": "blue", "correct_response": "b", "trial_id": "stroop-trial-1-congruent-7", "trial_type": "html-keyboard-response", "trial_index": 137, "time_elapsed": 415519, "internal_node_id": "0.0-6.0-42.0"}}, {"uniqueid": "w45334183:a19762613", "current_trial": 138, "dateTime": 1664555546324, "trialdata": {"rt": 894, "stimulus": "<p id='stroop-text' class='stroop-green'>GREEN</p>", "response": "g", "stimulus-type": "congruent", "word": "green", "color": "green", "correct_response": "g", "trial_id": "stroop-trial-1-congruent-28", "trial_type": "html-keyboard-response", "trial_index": 138, "time_elapsed": 416923, "internal_node_id": "0.0-6.0-43.0"}}, {"uniqueid": "w45334183:a19762613", "current_trial": 139, "dateTime": 1664555547574, "trialdata": {"rt": 727, "stimulus": "<p id='stroop-text' class='stroop-yellow'>SHIP</p>", "response": "y", "stimulus-type": "unrelated", "word": "SHIP", "color": "yellow", "correct_response": "y", "trial_id": "stroop-trial-1-unrelated-21", "trial_type": "html-keyboard-response", "trial_index": 139, "time_elapsed": 418174, "internal_node_id": "0.0-6.0-44.0"}}, {"uniqueid": "w45334183:a19762613", "current_trial": 140, "dateTime": 1664555549210, "trialdata": {"rt": 1129, "stimulus": "<p id='stroop-text' class='stroop-red'>GREEN</p>", "response": "r", "stimulus-type": "incongruent", "word": "green", "color": "red", "correct_response": "r", "trial_id": "stroop-trial-1-incongruent-5", "trial_type": "html-keyboard-response", "trial_index": 140, "time_elapsed": 419810, "internal_node_id": "0.0-6.0-45.0"}}, {"uniqueid": "w45334183:a19762613", "current_trial": 141, "dateTime": 1664555550378, "trialdata": {"rt": 659, "stimulus": "<p id='stroop-text' class='stroop-yellow'>YELLOW</p>", "response": "y", "stimulus-type": "congruent", "word": "yellow", "color": "yellow", "correct_response": "y", "trial_id": "stroop-trial-1-congruent-18", "trial_type": "html-keyboard-response", "trial_index": 141, "time_elapsed": 420977, "internal_node_id": "0.0-6.0-46.0"}}, {"uniqueid": "w45334183:a19762613", "current_trial": 142, "dateTime": 1664555551996, "trialdata": {"rt": 1112, "stimulus": "<p id='stroop-text' class='stroop-red'>YELLOW</p>", "response": "r", "stimulus-type": "incongruent", "word": "yellow", "color": "red", "correct_response": "r", "trial_id": "stroop-trial-1-incongruent-15", "trial_type": "html-keyboard-response", "trial_index": 142, "time_elapsed": 422595, "internal_node_id": "0.0-6.0-47.0"}}, {"uniqueid": "w45334183:a19762613", "current_trial": 143, "dateTime": 1664555553275, "trialdata": {"rt": 763, "stimulus": "<p id='stroop-text' class='stroop-yellow'>BLUE</p>", "response": "y", "stimulus-type": "incongruent", "word": "blue", "color": "yellow", "correct_response": "y", "trial_id": "stroop-trial-1-incongruent-6", "trial_type": "html-keyboard-response", "trial_index": 143, "time_elapsed": 423874, "internal_node_id": "0.0-6.0-48.0"}}, {"uniqueid": "w45334183:a19762613", "current_trial": 144, "dateTime": 1664555554599, "trialdata": {"rt": 806, "stimulus": "<p id='stroop-text' class='stroop-red'>DOG</p>", "response": "r", "stimulus-type": "unrelated", "word": "DOG", "color": "red", "correct_response": "r", "trial_id": "stroop-trial-1-unrelated-22", "trial_type": "html-keyboard-response", "trial_index": 144, "time_elapsed": 425198, "internal_node_id": "0.0-6.0-49.0"}}, {"uniqueid": "w45334183:a19762613", "current_trial": 145, "dateTime": 1664555555759, "trialdata": {"rt": 650, "stimulus": "<p id='stroop-text' class='stroop-blue'>BLUE</p>", "response": "b", "stimulus-type": "congruent", "word": "blue", "color": "blue", "correct_response": "b", "trial_id": "stroop-trial-1-congruent-2", "trial_type": "html-keyboard-response", "trial_index": 145, "time_elapsed": 426359, "internal_node_id": "0.0-6.0-50.0"}}, {"uniqueid": "w45334183:a19762613", "current_trial": 146, "dateTime": 1664555556911, "trialdata": {"rt": 645, "stimulus": "<p id='stroop-text' class='stroop-green'>RED</p>", "response": "g", "stimulus-type": "incongruent", "word": "red", "color": "green", "correct_response": "g", "trial_id": "stroop-trial-1-incongruent-25", "trial_type": "html-keyboard-response", "trial_index": 146, "time_elapsed": 427510, "internal_node_id": "0.0-6.0-51.0"}}, {"uniqueid": "w45334183:a19762613", "current_trial": 147, "dateTime": 1664555558090, "trialdata": {"rt": 670, "stimulus": "<p id='stroop-text' class='stroop-green'>GREEN</p>", "response": "g", "stimulus-type": "congruent", "word": "green", "color": "green", "correct_response": "g", "trial_id": "stroop-trial-1-congruent-12", "trial_type": "html-keyboard-response", "trial_index": 147, "time_elapsed": 428689, "internal_node_id": "0.0-6.0-52.0"}}, {"uniqueid": "w45334183:a19762613", "current_trial": 148, "dateTime": 1664555559216, "trialdata": {"rt": 617, "stimulus": "<p id='stroop-text' class='stroop-green'>BOTTLE</p>", "response": "g", "stimulus-type": "unrelated", "word": "BOTTLE", "color": "green", "correct_response": "g", "trial_id": "stroop-trial-1-unrelated-5", "trial_type": "html-keyboard-response", "trial_index": 148, "time_elapsed": 429815, "internal_node_id": "0.0-6.0-53.0"}}, {"uniqueid": "w45334183:a19762613", "current_trial": 149, "dateTime": 1664555560256, "trialdata": {"rt": 530, "stimulus": "<p id='stroop-text' class='stroop-yellow'>YELLOW</p>", "response": "y", "stimulus-type": "congruent", "word": "yellow", "color": "yellow", "correct_response": "y", "trial_id": "stroop-trial-1-congruent-11", "trial_type": "html-keyboard-response", "trial_index": 149, "time_elapsed": 430855, "internal_node_id": "0.0-6.0-54.0"}}, {"uniqueid": "w45334183:a19762613", "current_trial": 150, "dateTime": 1664555561291, "trialdata": {"rt": 522, "stimulus": "<p id='stroop-text' class='stroop-red'>RED</p>", "response": "r", "stimulus-type": "congruent", "word": "red", "color": "red", "correct_response": "r", "trial_id": "stroop-trial-1-congruent-9", "trial_type": "html-keyboard-response", "trial_index": 150, "time_elapsed": 431891, "internal_node_id": "0.0-6.0-55.0"}}, {"uniqueid": "w45334183:a19762613", "current_trial": 151, "dateTime": 1664555562427, "trialdata": {"rt": 630, "stimulus": "<p id='stroop-text' class='stroop-blue'>BRIDGE</p>", "response": "b", "stimulus-type": "unrelated", "word": "BRIDGE", "color": "blue", "correct_response": "b", "trial_id": "stroop-trial-1-unrelated-11", "trial_type": "html-keyboard-response", "trial_index": 151, "time_elapsed": 433026, "internal_node_id": "0.0-6.0-56.0"}}, {"uniqueid": "w45334183:a19762613", "current_trial": 152, "dateTime": 1664555564015, "trialdata": {"rt": 1080, "stimulus": "<p id='stroop-text' class='stroop-red'>CHAIR</p>", "response": "r", "stimulus-type": "unrelated", "word": "CHAIR", "color": "red", "correct_response": "r", "trial_id": "stroop-trial-1-unrelated-15", "trial_type": "html-keyboard-response", "trial_index": 152, "time_elapsed": 434614, "internal_node_id": "0.0-6.0-57.0"}}, {"uniqueid": "w45334183:a19762613", "current_trial": 153, "dateTime": 1664555565127, "trialdata": {"rt": 601, "stimulus": "<p id='stroop-text' class='stroop-green'>GREEN</p>", "response": "g", "stimulus-type": "congruent", "word": "green", "color": "green", "correct_response": "g", "trial_id": "stroop-trial-1-congruent-13", "trial_type": "html-keyboard-response", "trial_index": 153, "time_elapsed": 435726, "internal_node_id": "0.0-6.0-58.0"}}, {"uniqueid": "w45334183:a19762613", "current_trial": 154, "dateTime": 1664555566569, "trialdata": {"rt": 937, "stimulus": "<p id='stroop-text' class='stroop-green'>SHIP</p>", "response": "g", "stimulus-type": "unrelated", "word": "SHIP", "color": "green", "correct_response": "g", "trial_id": "stroop-trial-1-unrelated-8", "trial_type": "html-keyboard-response", "trial_index": 154, "time_elapsed": 437168, "internal_node_id": "0.0-6.0-59.0"}}, {"uniqueid": "w45334183:a19762613", "current_trial": 155, "dateTime": 1664555567927, "trialdata": {"rt": 847, "stimulus": "<p id='stroop-text' class='stroop-green'>RED</p>", "response": "g", "stimulus-type": "incongruent", "word": "red", "color": "green", "correct_response": "g", "trial_id": "stroop-trial-1-incongruent-28", "trial_type": "html-keyboard-response", "trial_index": 155, "time_elapsed": 438527, "internal_node_id": "0.0-6.0-60.0"}}, {"uniqueid": "w45334183:a19762613", "current_trial": 156, "dateTime": 1664555568943, "trialdata": {"rt": 506, "stimulus": "<p id='stroop-text' class='stroop-yellow'>YELLOW</p>", "response": "y", "stimulus-type": "congruent", "word": "yellow", "color": "yellow", "correct_response": "y", "trial_id": "stroop-trial-1-congruent-6", "trial_type": "html-keyboard-response", "trial_index": 156, "time_elapsed": 439543, "internal_node_id": "0.0-6.0-61.0"}}, {"uniqueid": "w45334183:a19762613", "current_trial": 157, "dateTime": 1664555570162, "trialdata": {"rt": 706, "stimulus": "<p id='stroop-text' class='stroop-green'>RED</p>", "response": "g", "stimulus-type": "incongruent", "word": "red", "color": "green", "correct_response": "g", "trial_id": "stroop-trial-1-incongruent-24", "trial_type": "html-keyboard-response", "trial_index": 157, "time_elapsed": 440762, "internal_node_id": "0.0-6.0-62.0"}}, {"uniqueid": "w45334183:a19762613", "current_trial": 158, "dateTime": 1664555571230, "trialdata": {"rt": 555, "stimulus": "<p id='stroop-text' class='stroop-blue'>BLUE</p>", "response": "b", "stimulus-type": "congruent", "word": "blue", "color": "blue", "correct_response": "b", "trial_id": "stroop-trial-1-congruent-25", "trial_type": "html-keyboard-response", "trial_index": 158, "time_elapsed": 441830, "internal_node_id": "0.0-6.0-63.0"}}, {"uniqueid": "w45334183:a19762613", "current_trial": 159, "dateTime": 1664555572252, "trialdata": {"rt": 514, "stimulus": "<p id='stroop-text' class='stroop-red'>YELLOW</p>", "response": "r", "stimulus-type": "incongruent", "word": "yellow", "color": "red", "correct_response": "r", "trial_id": "stroop-trial-1-incongruent-9", "trial_type": "html-keyboard-response", "trial_index": 159, "time_elapsed": 442851, "internal_node_id": "0.0-6.0-64.0"}}, {"uniqueid": "w45334183:a19762613", "current_trial": 160, "dateTime": 1664555573644, "trialdata": {"rt": 883, "stimulus": "<p id='stroop-text' class='stroop-green'>RED</p>", "response": "g", "stimulus-type": "incongruent", "word": "red", "color": "green", "correct_response": "g", "trial_id": "stroop-trial-1-incongruent-30", "trial_type": "html-keyboard-response", "trial_index": 160, "time_elapsed": 444244, "internal_node_id": "0.0-6.0-65.0"}}, {"uniqueid": "w45334183:a19762613", "current_trial": 161, "dateTime": 1664555575052, "trialdata": {"rt": 899, "stimulus": "<p id='stroop-text' class='stroop-red'>GREEN</p>", "response": "r", "stimulus-type": "incongruent", "word": "green", "color": "red", "correct_response": "r", "trial_id": "stroop-trial-1-incongruent-3", "trial_type": "html-keyboard-response", "trial_index": 161, "time_elapsed": 445652, "internal_node_id": "0.0-6.0-66.0"}}, {"uniqueid": "w45334183:a19762613", "current_trial": 162, "dateTime": 1664555576199, "trialdata": {"rt": 641, "stimulus": "<p id='stroop-text' class='stroop-blue'>BLUE</p>", "response": "b", "stimulus-type": "congruent", "word": "blue", "color": "blue", "correct_response": "b", "trial_id": "stroop-trial-1-congruent-10", "trial_type": "html-keyboard-response", "trial_index": 162, "time_elapsed": 446799, "internal_node_id": "0.0-6.0-67.0"}}, {"uniqueid": "w45334183:a19762613", "current_trial": 163, "dateTime": 1664555577305, "trialdata": {"rt": 596, "stimulus": "<p id='stroop-text' class='stroop-red'>RED</p>", "response": "r", "stimulus-type": "congruent", "word": "red", "color": "red", "correct_response": "r", "trial_id": "stroop-trial-1-congruent-4", "trial_type": "html-keyboard-response", "trial_index": 163, "time_elapsed": 447905, "internal_node_id": "0.0-6.0-68.0"}}, {"uniqueid": "w45334183:a19762613", "current_trial": 164, "dateTime": 1664555578556, "trialdata": {"rt": 746, "stimulus": "<p id='stroop-text' class='stroop-yellow'>GREEN</p>", "response": "y", "stimulus-type": "incongruent", "word": "green", "color": "yellow", "correct_response": "y", "trial_id": "stroop-trial-1-incongruent-19", "trial_type": "html-keyboard-response", "trial_index": 164, "time_elapsed": 449155, "internal_node_id": "0.0-6.0-69.0"}}, {"uniqueid": "w45334183:a19762613", "current_trial": 165, "dateTime": 1664555579865, "trialdata": {"rt": 799, "stimulus": "<p id='stroop-text' class='stroop-blue'>STONE</p>", "response": "b", "stimulus-type": "unrelated", "word": "STONE", "color": "blue", "correct_response": "b", "trial_id": "stroop-trial-1-unrelated-14", "trial_type": "html-keyboard-response", "trial_index": 165, "time_elapsed": 450464, "internal_node_id": "0.0-6.0-70.0"}}, {"uniqueid": "w45334183:a19762613", "current_trial": 166, "dateTime": 1664555581281, "trialdata": {"rt": 903, "stimulus": "<p id='stroop-text' class='stroop-blue'>BLUE</p>", "response": "b", "stimulus-type": "congruent", "word": "blue", "color": "blue", "correct_response": "b", "trial_id": "stroop-trial-1-congruent-5", "trial_type": "html-keyboard-response", "trial_index": 166, "time_elapsed": 451880, "internal_node_id": "0.0-6.0-71.0"}}, {"uniqueid": "w45334183:a19762613", "current_trial": 167, "dateTime": 1664555582706, "trialdata": {"rt": 918, "stimulus": "<p id='stroop-text' class='stroop-red'>BLUE</p>", "response": "r", "stimulus-type": "incongruent", "word": "blue", "color": "red", "correct_response": "r", "trial_id": "stroop-trial-1-incongruent-2", "trial_type": "html-keyboard-response", "trial_index": 167, "time_elapsed": 453306, "internal_node_id": "0.0-6.0-72.0"}}, {"uniqueid": "w45334183:a19762613", "current_trial": 168, "dateTime": 1664555584067, "trialdata": {"rt": 849, "stimulus": "<p id='stroop-text' class='stroop-blue'>SHIP</p>", "response": "b", "stimulus-type": "unrelated", "word": "SHIP", "color": "blue", "correct_response": "b", "trial_id": "stroop-trial-1-unrelated-3", "trial_type": "html-keyboard-response", "trial_index": 168, "time_elapsed": 454666, "internal_node_id": "0.0-6.0-73.0"}}, {"uniqueid": "w45334183:a19762613", "current_trial": 169, "dateTime": 1664555585578, "trialdata": {"rt": 998, "stimulus": "<p id='stroop-text' class='stroop-green'>MONKEY</p>", "response": "g", "stimulus-type": "unrelated", "word": "MONKEY", "color": "green", "correct_response": "g", "trial_id": "stroop-trial-1-unrelated-6", "trial_type": "html-keyboard-response", "trial_index": 169, "time_elapsed": 456178, "internal_node_id": "0.0-6.0-74.0"}}, {"uniqueid": "w45334183:a19762613", "current_trial": 170, "dateTime": 1664555586711, "trialdata": {"rt": 623, "stimulus": "<p id='stroop-text' class='stroop-red'>RED</p>", "response": "r", "stimulus-type": "congruent", "word": "red", "color": "red", "correct_response": "r", "trial_id": "stroop-trial-1-congruent-30", "trial_type": "html-keyboard-response", "trial_index": 170, "time_elapsed": 457311, "internal_node_id": "0.0-6.0-75.0"}}, {"uniqueid": "w45334183:a19762613", "current_trial": 171, "dateTime": 1664555587835, "trialdata": {"rt": 611, "stimulus": "<p id='stroop-text' class='stroop-red'>YELLOW</p>", "response": "r", "stimulus-type": "incongruent", "word": "yellow", "color": "red", "correct_response": "r", "trial_id": "stroop-trial-1-incongruent-10", "trial_type": "html-keyboard-response", "trial_index": 171, "time_elapsed": 458434, "internal_node_id": "0.0-6.0-76.0"}}, {"uniqueid": "w45334183:a19762613", "current_trial": 172, "dateTime": 1664555589100, "trialdata": {"rt": 759, "stimulus": "<p id='stroop-text' class='stroop-green'>GREEN</p>", "response": "g", "stimulus-type": "congruent", "word": "green", "color": "green", "correct_response": "g", "trial_id": "stroop-trial-1-congruent-15", "trial_type": "html-keyboard-response", "trial_index": 172, "time_elapsed": 459700, "internal_node_id": "0.0-6.0-77.0"}}, {"uniqueid": "w45334183:a19762613", "current_trial": 173, "dateTime": 1664555590129, "trialdata": {"rt": 514, "stimulus": "<p id='stroop-text' class='stroop-red'>SHIP</p>", "response": "r", "stimulus-type": "unrelated", "word": "SHIP", "color": "red", "correct_response": "r", "trial_id": "stroop-trial-1-unrelated-2", "trial_type": "html-keyboard-response", "trial_index": 173, "time_elapsed": 460729, "internal_node_id": "0.0-6.0-78.0"}}, {"uniqueid": "w45334183:a19762613", "current_trial": 174, "dateTime": 1664555591257, "trialdata": {"rt": 622, "stimulus": "<p id='stroop-text' class='stroop-green'>STONE</p>", "response": "g", "stimulus-type": "unrelated", "word": "STONE", "color": "green", "correct_response": "g", "trial_id": "stroop-trial-1-unrelated-10", "trial_type": "html-keyboard-response", "trial_index": 174, "time_elapsed": 461857, "internal_node_id": "0.0-6.0-79.0"}}, {"uniqueid": "w45334183:a19762613", "current_trial": 175, "dateTime": 1664555592379, "trialdata": {"rt": 608, "stimulus": "<p id='stroop-text' class='stroop-blue'>FORK</p>", "response": "b", "stimulus-type": "unrelated", "word": "FORK", "color": "blue", "correct_response": "b", "trial_id": "stroop-trial-1-unrelated-13", "trial_type": "html-keyboard-response", "trial_index": 175, "time_elapsed": 462978, "internal_node_id": "0.0-6.0-80.0"}}, {"uniqueid": "w45334183:a19762613", "current_trial": 176, "dateTime": 1664555593371, "trialdata": {"rt": 483, "stimulus": "<p id='stroop-text' class='stroop-blue'>BRIDGE</p>", "response": "b", "stimulus-type": "unrelated", "word": "BRIDGE", "color": "blue", "correct_response": "b", "trial_id": "stroop-trial-1-unrelated-19", "trial_type": "html-keyboard-response", "trial_index": 176, "time_elapsed": 463971, "internal_node_id": "0.0-6.0-81.0"}}, {"uniqueid": "w45334183:a19762613", "current_trial": 177, "dateTime": 1664555594556, "trialdata": {"rt": 663, "stimulus": "<p id='stroop-text' class='stroop-red'>GREEN</p>", "response": "r", "stimulus-type": "incongruent", "word": "green", "color": "red", "correct_response": "r", "trial_id": "stroop-trial-1-incongruent-4", "trial_type": "html-keyboard-response", "trial_index": 177, "time_elapsed": 465155, "internal_node_id": "0.0-6.0-82.0"}}, {"uniqueid": "w45334183:a19762613", "current_trial": 178, "dateTime": 1664555595611, "trialdata": {"rt": 544, "stimulus": "<p id='stroop-text' class='stroop-yellow'>YELLOW</p>", "response": "y", "stimulus-type": "congruent", "word": "yellow", "color": "yellow", "correct_response": "y", "trial_id": "stroop-trial-1-congruent-24", "trial_type": "html-keyboard-response", "trial_index": 178, "time_elapsed": 466211, "internal_node_id": "0.0-6.0-83.0"}}, {"uniqueid": "w45334183:a19762613", "current_trial": 179, "dateTime": 1664555596638, "trialdata": {"rt": 518, "stimulus": "<p id='stroop-text' class='stroop-red'>MONKEY</p>", "response": "r", "stimulus-type": "unrelated", "word": "MONKEY", "color": "red", "correct_response": "r", "trial_id": "stroop-trial-1-unrelated-16", "trial_type": "html-keyboard-response", "trial_index": 179, "time_elapsed": 467238, "internal_node_id": "0.0-6.0-84.0"}}, {"uniqueid": "w45334183:a19762613", "current_trial": 180, "dateTime": 1664555597725, "trialdata": {"rt": 575, "stimulus": "<p id='stroop-text' class='stroop-blue'>SHIP</p>", "response": "b", "stimulus-type": "unrelated", "word": "SHIP", "color": "blue", "correct_response": "b", "trial_id": "stroop-trial-1-unrelated-25", "trial_type": "html-keyboard-response", "trial_index": 180, "time_elapsed": 468324, "internal_node_id": "0.0-6.0-85.0"}}, {"uniqueid": "w45334183:a19762613", "current_trial": 181, "dateTime": 1664555598859, "trialdata": {"rt": 618, "stimulus": "<p id='stroop-text' class='stroop-yellow'>YELLOW</p>", "response": "y", "stimulus-type": "congruent", "word": "yellow", "color": "yellow", "correct_response": "y", "trial_id": "stroop-trial-1-congruent-26", "trial_type": "html-keyboard-response", "trial_index": 181, "time_elapsed": 469458, "internal_node_id": "0.0-6.0-86.0"}}, {"uniqueid": "w45334183:a19762613", "current_trial": 182, "dateTime": 1664555600190, "trialdata": {"rt": 822, "stimulus": "<p id='stroop-text' class='stroop-red'>YELLOW</p>", "response": "r", "stimulus-type": "incongruent", "word": "yellow", "color": "red", "correct_response": "r", "trial_id": "stroop-trial-1-incongruent-13", "trial_type": "html-keyboard-response", "trial_index": 182, "time_elapsed": 470790, "internal_node_id": "0.0-6.0-87.0"}}, {"uniqueid": "w45334183:a19762613", "current_trial": 183, "dateTime": 1664555601329, "trialdata": {"rt": 630, "stimulus": "<p id='stroop-text' class='stroop-blue'>RED</p>", "response": "b", "stimulus-type": "incongruent", "word": "red", "color": "blue", "correct_response": "b", "trial_id": "stroop-trial-1-incongruent-22", "trial_type": "html-keyboard-response", "trial_index": 183, "time_elapsed": 471928, "internal_node_id": "0.0-6.0-88.0"}}, {"uniqueid": "w45334183:a19762613", "current_trial": 184, "dateTime": 1664555602690, "trialdata": {"rt": 846, "stimulus": "<p id='stroop-text' class='stroop-blue'>BLUE</p>", "response": "b", "stimulus-type": "congruent", "word": "blue", "color": "blue", "correct_response": "b", "trial_id": "stroop-trial-1-congruent-8", "trial_type": "html-keyboard-response", "trial_index": 184, "time_elapsed": 473289, "internal_node_id": "0.0-6.0-89.0"}}, {"uniqueid": "w45334183:a19762613", "current_trial": 185, "dateTime": 1664555606980, "trialdata": {"rt": 3773, "stimulus": "  <h1> End of block! </h1>\n\n  You have reached the end of the block 2/5. If you need a short break, feel free to take one now before moving on.\n\n  <br><br>\n  In the next block, you will complete another 90 rounds of this game.\n\n  <br><br>\n  <div style='text-align: center;'>Press <code>space</code> to begin.</div>\n  <br><br>\n<div style='text-align: center;'>(If the experiment doesn't continue, try clicking on the text and then pressing <code>space</code>.)</div>", "response": " ", "trial_id": "stroop_1_ready_3", "trial_type": "html-keyboard-response", "trial_index": 185, "time_elapsed": 477580, "internal_node_id": "0.0-7.0"}}, {"uniqueid": "w45334183:a19762613", "current_trial": 186, "dateTime": 1664555608010, "trialdata": {"rt": 1023, "stimulus": "<p id='stroop-text' class='stroop-green'>YELLOW</p>", "response": "g", "stimulus-type": "incongruent", "word": "yellow", "color": "green", "correct_response": "g", "trial_id": "stroop-trial-1-incongruent-22", "trial_type": "html-keyboard-response", "trial_index": 186, "time_elapsed": 478610, "internal_node_id": "0.0-8.0-0.0"}}, {"uniqueid": "w45334183:a19762613", "current_trial": 187, "dateTime": 1664555609365, "trialdata": {"rt": 844, "stimulus": "<p id='stroop-text' class='stroop-yellow'>BOAT</p>", "response": "y", "stimulus-type": "unrelated", "word": "BOAT", "color": "yellow", "correct_response": "y", "trial_id": "stroop-trial-1-unrelated-29", "trial_type": "html-keyboard-response", "trial_index": 187, "time_elapsed": 479965, "internal_node_id": "0.0-8.0-1.0"}}, {"uniqueid": "w45334183:a19762613", "current_trial": 188, "dateTime": 1664555610320, "trialdata": {"rt": 442, "stimulus": "<p id='stroop-text' class='stroop-red'>RED</p>", "response": "r", "stimulus-type": "congruent", "word": "red", "color": "red", "correct_response": "r", "trial_id": "stroop-trial-1-congruent-30", "trial_type": "html-keyboard-response", "trial_index": 188, "time_elapsed": 480919, "internal_node_id": "0.0-8.0-2.0"}}, {"uniqueid": "w45334183:a19762613", "current_trial": 189, "dateTime": 1664555611424, "trialdata": {"rt": 592, "stimulus": "<p id='stroop-text' class='stroop-blue'>BLUE</p>", "response": "b", "stimulus-type": "congruent", "word": "blue", "color": "blue", "correct_response": "b", "trial_id": "stroop-trial-1-congruent-8", "trial_type": "html-keyboard-response", "trial_index": 189, "time_elapsed": 482023, "internal_node_id": "0.0-8.0-3.0"}}, {"uniqueid": "w45334183:a19762613", "current_trial": 190, "dateTime": 1664555613159, "trialdata": {"rt": 1217, "stimulus": "<p id='stroop-text' class='stroop-yellow'>BLUE</p>", "response": "y", "stimulus-type": "incongruent", "word": "blue", "color": "yellow", "correct_response": "y", "trial_id": "stroop-trial-1-incongruent-5", "trial_type": "html-keyboard-response", "trial_index": 190, "time_elapsed": 483759, "internal_node_id": "0.0-8.0-4.0"}}, {"uniqueid": "w45334183:a19762613", "current_trial": 191, "dateTime": 1664555614247, "trialdata": {"rt": 569, "stimulus": "<p id='stroop-text' class='stroop-blue'>BLUE</p>", "response": "b", "stimulus-type": "congruent", "word": "blue", "color": "blue", "correct_response": "b", "trial_id": "stroop-trial-1-congruent-3", "trial_type": "html-keyboard-response", "trial_index": 191, "time_elapsed": 484846, "internal_node_id": "0.0-8.0-5.0"}}, {"uniqueid": "w45334183:a19762613", "current_trial": 192, "dateTime": 1664555615813, "trialdata": {"rt": 1044, "stimulus": "<p id='stroop-text' class='stroop-red'>GREEN</p>", "response": "r", "stimulus-type": "incongruent", "word": "green", "color": "red", "correct_response": "r", "trial_id": "stroop-trial-1-incongruent-11", "trial_type": "html-keyboard-response", "trial_index": 192, "time_elapsed": 486412, "internal_node_id": "0.0-8.0-6.0"}}, {"uniqueid": "w45334183:a19762613", "current_trial": 193, "dateTime": 1664555616948, "trialdata": {"rt": 616, "stimulus": "<p id='stroop-text' class='stroop-yellow'>BRIDGE</p>", "response": "y", "stimulus-type": "unrelated", "word": "BRIDGE", "color": "yellow", "correct_response": "y", "trial_id": "stroop-trial-1-unrelated-10", "trial_type": "html-keyboard-response", "trial_index": 193, "time_elapsed": 487548, "internal_node_id": "0.0-8.0-7.0"}}, {"uniqueid": "w45334183:a19762613", "current_trial": 194, "dateTime": 1664555618250, "trialdata": {"rt": 791, "stimulus": "<p id='stroop-text' class='stroop-yellow'>YELLOW</p>", "response": "y", "stimulus-type": "congruent", "word": "yellow", "color": "yellow", "correct_response": "y", "trial_id": "stroop-trial-1-congruent-25", "trial_type": "html-keyboard-response", "trial_index": 194, "time_elapsed": 488849, "internal_node_id": "0.0-8.0-8.0"}}, {"uniqueid": "w45334183:a19762613", "current_trial": 195, "dateTime": 1664555619332, "trialdata": {"rt": 566, "stimulus": "<p id='stroop-text' class='stroop-green'>GREEN</p>", "response": "g", "stimulus-type": "congruent", "word": "green", "color": "green", "correct_response": "g", "trial_id": "stroop-trial-1-congruent-21", "trial_type": "html-keyboard-response", "trial_index": 195, "time_elapsed": 489932, "internal_node_id": "0.0-8.0-9.0"}}, {"uniqueid": "w45334183:a19762613", "current_trial": 196, "dateTime": 1664555620647, "trialdata": {"rt": 807, "stimulus": "<p id='stroop-text' class='stroop-red'>BOAT</p>", "response": "r", "stimulus-type": "unrelated", "word": "BOAT", "color": "red", "correct_response": "r", "trial_id": "stroop-trial-1-unrelated-8", "trial_type": "html-keyboard-response", "trial_index": 196, "time_elapsed": 491246, "internal_node_id": "0.0-8.0-10.0"}}, {"uniqueid": "w45334183:a19762613", "current_trial": 197, "dateTime": 1664555621690, "trialdata": {"rt": 531, "stimulus": "<p id='stroop-text' class='stroop-red'>GREEN</p>", "response": "r", "stimulus-type": "incongruent", "word": "green", "color": "red", "correct_response": "r", "trial_id": "stroop-trial-1-incongruent-30", "trial_type": "html-keyboard-response", "trial_index": 197, "time_elapsed": 492289, "internal_node_id": "0.0-8.0-11.0"}}, {"uniqueid": "w45334183:a19762613", "current_trial": 198, "dateTime": 1664555622846, "trialdata": {"rt": 645, "stimulus": "<p id='stroop-text' class='stroop-blue'>GREEN</p>", "response": "b", "stimulus-type": "incongruent", "word": "green", "color": "blue", "correct_response": "b", "trial_id": "stroop-trial-1-incongruent-9", "trial_type": "html-keyboard-response", "trial_index": 198, "time_elapsed": 493445, "internal_node_id": "0.0-8.0-12.0"}}, {"uniqueid": "w45334183:a19762613", "current_trial": 199, "dateTime": 1664555624176, "trialdata": {"rt": 819, "stimulus": "<p id='stroop-text' class='stroop-red'>BOAT</p>", "response": "r", "stimulus-type": "unrelated", "word": "BOAT", "color": "red", "correct_response": "r", "trial_id": "stroop-trial-1-unrelated-1", "trial_type": "html-keyboard-response", "trial_index": 199, "time_elapsed": 494775, "internal_node_id": "0.0-8.0-13.0"}}, {"uniqueid": "w45334183:a19762613", "current_trial": 200, "dateTime": 1664555625191, "trialdata": {"rt": 506, "stimulus": "<p id='stroop-text' class='stroop-blue'>BLUE</p>", "response": "b", "stimulus-type": "congruent", "word": "blue", "color": "blue", "correct_response": "b", "trial_id": "stroop-trial-1-congruent-24", "trial_type": "html-keyboard-response", "trial_index": 200, "time_elapsed": 495790, "internal_node_id": "0.0-8.0-14.0"}}, {"uniqueid": "w45334183:a19762613", "current_trial": 201, "dateTime": 1664555626349, "trialdata": {"rt": 650, "stimulus": "<p id='stroop-text' class='stroop-red'>RED</p>", "response": "r", "stimulus-type": "congruent", "word": "red", "color": "red", "correct_response": "r", "trial_id": "stroop-trial-1-congruent-20", "trial_type": "html-keyboard-response", "trial_index": 201, "time_elapsed": 496948, "internal_node_id": "0.0-8.0-15.0"}}, {"uniqueid": "w45334183:a19762613", "current_trial": 202, "dateTime": 1664555627474, "trialdata": {"rt": 610, "stimulus": "<p id='stroop-text' class='stroop-yellow'>GREEN</p>", "response": "y", "stimulus-type": "incongruent", "word": "green", "color": "yellow", "correct_response": "y", "trial_id": "stroop-trial-1-incongruent-14", "trial_type": "html-keyboard-response", "trial_index": 202, "time_elapsed": 498073, "internal_node_id": "0.0-8.0-16.0"}}, {"uniqueid": "w45334183:a19762613", "current_trial": 203, "dateTime": 1664555628822, "trialdata": {"rt": 839, "stimulus": "<p id='stroop-text' class='stroop-red'>STONE</p>", "response": "r", "stimulus-type": "unrelated", "word": "STONE", "color": "red", "correct_response": "r", "trial_id": "stroop-trial-1-unrelated-18", "trial_type": "html-keyboard-response", "trial_index": 203, "time_elapsed": 499422, "internal_node_id": "0.0-8.0-17.0"}}, {"uniqueid": "w45334183:a19762613", "current_trial": 204, "dateTime": 1664555630456, "trialdata": {"rt": 1118, "stimulus": "<p id='stroop-text' class='stroop-green'>YELLOW</p>", "response": "g", "stimulus-type": "incongruent", "word": "yellow", "color": "green", "correct_response": "g", "trial_id": "stroop-trial-1-incongruent-12", "trial_type": "html-keyboard-response", "trial_index": 204, "time_elapsed": 501055, "internal_node_id": "0.0-8.0-18.0"}}, {"uniqueid": "w45334183:a19762613", "current_trial": 205, "dateTime": 1664555631414, "trialdata": {"rt": 453, "stimulus": "<p id='stroop-text' class='stroop-green'>YELLOW</p>", "response": "g", "stimulus-type": "incongruent", "word": "yellow", "color": "green", "correct_response": "g", "trial_id": "stroop-trial-1-incongruent-19", "trial_type": "html-keyboard-response", "trial_index": 205, "time_elapsed": 502014, "internal_node_id": "0.0-8.0-19.0"}}, {"uniqueid": "w45334183:a19762613", "current_trial": 206, "dateTime": 1664555632373, "trialdata": {"rt": 437, "stimulus": "<p id='stroop-text' class='stroop-green'>DOG</p>", "response": "g", "stimulus-type": "unrelated", "word": "DOG", "color": "green", "correct_response": "g", "trial_id": "stroop-trial-1-unrelated-12", "trial_type": "html-keyboard-response", "trial_index": 206, "time_elapsed": 502973, "internal_node_id": "0.0-8.0-20.0"}}, {"uniqueid": "w45334183:a19762613", "current_trial": 207, "dateTime": 1664555633493, "trialdata": {"rt": 611, "stimulus": "<p id='stroop-text' class='stroop-yellow'>YELLOW</p>", "response": "y", "stimulus-type": "congruent", "word": "yellow", "color": "yellow", "correct_response": "y", "trial_id": "stroop-trial-1-congruent-23", "trial_type": "html-keyboard-response", "trial_index": 207, "time_elapsed": 504093, "internal_node_id": "0.0-8.0-21.0"}}, {"uniqueid": "w45334183:a19762613", "current_trial": 208, "dateTime": 1664555634882, "trialdata": {"rt": 874, "stimulus": "<p id='stroop-text' class='stroop-yellow'>SHIP</p>", "response": "y", "stimulus-type": "unrelated", "word": "SHIP", "color": "yellow", "correct_response": "y", "trial_id": "stroop-trial-1-unrelated-20", "trial_type": "html-keyboard-response", "trial_index": 208, "time_elapsed": 505482, "internal_node_id": "0.0-8.0-22.0"}}, {"uniqueid": "w45334183:a19762613", "current_trial": 209, "dateTime": 1664555635912, "trialdata": {"rt": 516, "stimulus": "<p id='stroop-text' class='stroop-blue'>BLUE</p>", "response": "b", "stimulus-type": "congruent", "word": "blue", "color": "blue", "correct_response": "b", "trial_id": "stroop-trial-1-congruent-17", "trial_type": "html-keyboard-response", "trial_index": 209, "time_elapsed": 506511, "internal_node_id": "0.0-8.0-23.0"}}, {"uniqueid": "w45334183:a19762613", "current_trial": 210, "dateTime": 1664555637010, "trialdata": {"rt": 592, "stimulus": "<p id='stroop-text' class='stroop-red'>BOAT</p>", "response": "r", "stimulus-type": "unrelated", "word": "BOAT", "color": "red", "correct_response": "r", "trial_id": "stroop-trial-1-unrelated-16", "trial_type": "html-keyboard-response", "trial_index": 210, "time_elapsed": 507609, "internal_node_id": "0.0-8.0-24.0"}}, {"uniqueid": "w45334183:a19762613", "current_trial": 211, "dateTime": 1664555638374, "trialdata": {"rt": 859, "stimulus": "<p id='stroop-text' class='stroop-blue'>BRIDGE</p>", "response": "b", "stimulus-type": "unrelated", "word": "BRIDGE", "color": "blue", "correct_response": "b", "trial_id": "stroop-trial-1-unrelated-28", "trial_type": "html-keyboard-response", "trial_index": 211, "time_elapsed": 508974, "internal_node_id": "0.0-8.0-25.0"}}, {"uniqueid": "w45334183:a19762613", "current_trial": 212, "dateTime": 1664555640158, "trialdata": {"rt": 1271, "stimulus": "<p id='stroop-text' class='stroop-yellow'>BLUE</p>", "response": "y", "stimulus-type": "incongruent", "word": "blue", "color": "yellow", "correct_response": "y", "trial_id": "stroop-trial-1-incongruent-27", "trial_type": "html-keyboard-response", "trial_index": 212, "time_elapsed": 510758, "internal_node_id": "0.0-8.0-26.0"}}, {"uniqueid": "w45334183:a19762613", "current_trial": 213, "dateTime": 1664555641528, "trialdata": {"rt": 858, "stimulus": "<p id='stroop-text' class='stroop-blue'>BLUE</p>", "response": "b", "stimulus-type": "congruent", "word": "blue", "color": "blue", "correct_response": "b", "trial_id": "stroop-trial-1-congruent-18", "trial_type": "html-keyboard-response", "trial_index": 213, "time_elapsed": 512127, "internal_node_id": "0.0-8.0-27.0"}}, {"uniqueid": "w45334183:a19762613", "current_trial": 214, "dateTime": 1664555643070, "trialdata": {"rt": 1029, "stimulus": "<p id='stroop-text' class='stroop-red'>CHAIR</p>", "response": "r", "stimulus-type": "unrelated", "word": "CHAIR", "color": "red", "correct_response": "r", "trial_id": "stroop-trial-1-unrelated-17", "trial_type": "html-keyboard-response", "trial_index": 214, "time_elapsed": 513669, "internal_node_id": "0.0-8.0-28.0"}}, {"uniqueid": "w45334183:a19762613", "current_trial": 215, "dateTime": 1664555644065, "trialdata": {"rt": 485, "stimulus": "<p id='stroop-text' class='stroop-red'>SHIP</p>", "response": "r", "stimulus-type": "unrelated", "word": "SHIP", "color": "red", "correct_response": "r", "trial_id": "stroop-trial-1-unrelated-22", "trial_type": "html-keyboard-response", "trial_index": 215, "time_elapsed": 514665, "internal_node_id": "0.0-8.0-29.0"}}, {"uniqueid": "w45334183:a19762613", "current_trial": 216, "dateTime": 1664555645100, "trialdata": {"rt": 520, "stimulus": "<p id='stroop-text' class='stroop-yellow'>YELLOW</p>", "response": "y", "stimulus-type": "congruent", "word": "yellow", "color": "yellow", "correct_response": "y", "trial_id": "stroop-trial-1-congruent-22", "trial_type": "html-keyboard-response", "trial_index": 216, "time_elapsed": 515699, "internal_node_id": "0.0-8.0-30.0"}}, {"uniqueid": "w45334183:a19762613", "current_trial": 217, "dateTime": 1664555646184, "trialdata": {"rt": 575, "stimulus": "<p id='stroop-text' class='stroop-green'>GREEN</p>", "response": "g", "stimulus-type": "congruent", "word": "green", "color": "green", "correct_response": "g", "trial_id": "stroop-trial-1-congruent-1", "trial_type": "html-keyboard-response", "trial_index": 217, "time_elapsed": 516784, "internal_node_id": "0.0-8.0-31.0"}}, {"uniqueid": "w45334183:a19762613", "current_trial": 218, "dateTime": 1664555647383, "trialdata": {"rt": 686, "stimulus": "<p id='stroop-text' class='stroop-yellow'>YELLOW</p>", "response": "y", "stimulus-type": "congruent", "word": "yellow", "color": "yellow", "correct_response": "y", "trial_id": "stroop-trial-1-congruent-4", "trial_type": "html-keyboard-response", "trial_index": 218, "time_elapsed": 517982, "internal_node_id": "0.0-8.0-32.0"}}, {"uniqueid": "w45334183:a19762613", "current_trial": 219, "dateTime": 1664555648924, "trialdata": {"rt": 1034, "stimulus": "<p id='stroop-text' class='stroop-green'>GREEN</p>", "response": "g", "stimulus-type": "congruent", "word": "green", "color": "green", "correct_response": "g", "trial_id": "stroop-trial-1-congruent-12", "trial_type": "html-keyboard-response", "trial_index": 219, "time_elapsed": 519523, "internal_node_id": "0.0-8.0-33.0"}}, {"uniqueid": "w45334183:a19762613", "current_trial": 220, "dateTime": 1664555649941, "trialdata": {"rt": 509, "stimulus": "<p id='stroop-text' class='stroop-blue'>FORK</p>", "response": "b", "stimulus-type": "unrelated", "word": "FORK", "color": "blue", "correct_response": "b", "trial_id": "stroop-trial-1-unrelated-27", "trial_type": "html-keyboard-response", "trial_index": 220, "time_elapsed": 520541, "internal_node_id": "0.0-8.0-34.0"}}, {"uniqueid": "w45334183:a19762613", "current_trial": 221, "dateTime": 1664555651596, "trialdata": {"rt": 1142, "stimulus": "<p id='stroop-text' class='stroop-yellow'>GREEN</p>", "response": "y", "stimulus-type": "incongruent", "word": "green", "color": "yellow", "correct_response": "y", "trial_id": "stroop-trial-1-incongruent-18", "trial_type": "html-keyboard-response", "trial_index": 221, "time_elapsed": 522195, "internal_node_id": "0.0-8.0-35.0"}}, {"uniqueid": "w45334183:a19762613", "current_trial": 222, "dateTime": 1664555652863, "trialdata": {"rt": 760, "stimulus": "<p id='stroop-text' class='stroop-blue'>YELLOW</p>", "response": "b", "stimulus-type": "incongruent", "word": "yellow", "color": "blue", "correct_response": "b", "trial_id": "stroop-trial-1-incongruent-17", "trial_type": "html-keyboard-response", "trial_index": 222, "time_elapsed": 523463, "internal_node_id