{"condition": 0, "counterbalance": 0, "assignmentId": "a37555889", "workerId": "w51028437", "hitId": "h76181093", "currenttrial": 965, "bonus": 0, "data": [{"uniqueid": "w51028437:a37555889", "current_trial": 0, "dateTime": 1664555162104, "trialdata": {"success": true, "trial_type": "fullscreen", "trial_index": 0, "time_elapsed": 5205, "internal_node_id": "0.0-0.0"}}, {"uniqueid": "w51028437:a37555889", "current_trial": 1, "dateTime": 1664555225998, "trialdata": {"view_history": [{"page_index": 0, "viewing_time": 63881}], "rt": 63882, "trial_id": "exp_instructions_distractor", "trial_type": "instructions", "trial_index": 1, "time_elapsed": 69100, "internal_node_id": "0.0-1.0"}}, {"uniqueid": "w51028437:a37555889", "current_trial": 2, "dateTime": 1664555301857, "trialdata": {"view_history": [{"page_index": 0, "viewing_time": 75856}], "rt": 75856, "trial_id": "color_game_instructions", "trial_type": "instructions", "trial_index": 2, "time_elapsed": 144959, "internal_node_id": "0.0-2.0"}}, {"uniqueid": "w51028437:a37555889", "current_trial": 3, "dateTime": 1664555306565, "trialdata": {"rt": 4706, "stimulus": "<h1> Get ready to start the game! </h1>\n\nThank you for reading the instructions. Get ready start with the first of 5 block(s) of this game.\n<br><br>\nIn this first block, you will complete 90 rounds of this game before moving on.\n<br><br>\nRemember, the better you perform, the bigger your bonus will be!\n<br><br>\n<div style='text-align: center;'>Press <code>space</code> to begin.</div>", "response": " ", "trial_id": "stroop_1_ready_1", "trial_type": "html-keyboard-response", "trial_index": 3, "time_elapsed": 149667, "internal_node_id": "0.0-3.0"}}, {"uniqueid": "w51028437:a37555889", "current_trial": 4, "dateTime": 1664555309061, "trialdata": {"rt": 2485, "stimulus": "<p id='stroop-text' class='stroop-green'>BLUE</p>", "response": "g", "stimulus-type": "incongruent", "word": "blue", "color": "green", "correct_response": "g", "trial_id": "stroop-trial-1-incongruent-5", "trial_type": "html-keyboard-response", "trial_index": 4, "time_elapsed": 152162, "internal_node_id": "0.0-4.0-0.0"}}, {"uniqueid": "w51028437:a37555889", "current_trial": 5, "dateTime": 1664555311188, "trialdata": {"rt": 1624, "stimulus": "<p id='stroop-text' class='stroop-yellow'>MONKEY</p>", "response": "y", "stimulus-type": "unrelated", "word": "MONKEY", "color": "yellow", "correct_response": "y", "trial_id": "stroop-trial-1-unrelated-17", "trial_type": "html-keyboard-response", "trial_index": 5, "time_elapsed": 154289, "internal_node_id": "0.0-4.0-1.0"}}, {"uniqueid": "w51028437:a37555889", "current_trial": 6, "dateTime": 1664555312917, "trialdata": {"rt": 1221, "stimulus": "<p id='stroop-text' class='stroop-red'>BRAIN</p>", "response": "r", "stimulus-type": "unrelated", "word": "BRAIN", "color": "red", "correct_response": "r", "trial_id": "stroop-trial-1-unrelated-20", "trial_type": "html-keyboard-response", "trial_index": 6, "time_elapsed": 156018, "internal_node_id": "0.0-4.0-2.0"}}, {"uniqueid": "w51028437:a37555889", "current_trial": 7, "dateTime": 1664555315077, "trialdata": {"rt": 1653, "stimulus": "<p id='stroop-text' class='stroop-green'>SHIP</p>", "response": "g", "stimulus-type": "unrelated", "word": "SHIP", "color": "green", "correct_response": "g", "trial_id": "stroop-trial-1-unrelated-16", "trial_type": "html-keyboard-response", "trial_index": 7, "time_elapsed": 158178, "internal_node_id": "0.0-4.0-3.0"}}, {"uniqueid": "w51028437:a37555889", "current_trial": 8, "dateTime": 1664555316309, "trialdata": {"rt": 728, "stimulus": "<p id='stroop-text' class='stroop-yellow'>YELLOW</p>", "response": "b", "stimulus-type": "congruent", "word": "yellow", "color": "yellow", "correct_response": "y", "trial_id": "stroop-trial-1-congruent-21", "trial_type": "html-keyboard-response", "trial_index": 8, "time_elapsed": 159410, "internal_node_id": "0.0-4.0-4.0"}}, {"uniqueid": "w51028437:a37555889", "current_trial": 9, "dateTime": 1664555319540, "trialdata": {"rt": 2726, "stimulus": "<p id='stroop-text' class='stroop-red'>GREEN</p>", "response": "g", "stimulus-type": "incongruent", "word": "green", "color": "red", "correct_response": "r", "trial_id": "stroop-trial-1-incongruent-27", "trial_type": "html-keyboard-response", "trial_index": 9, "time_elapsed": 162642, "internal_node_id": "0.0-4.0-5.0"}}, {"uniqueid": "w51028437:a37555889", "current_trial": 10, "dateTime": 1664555321380, "trialdata": {"rt": 1335, "stimulus": "<p id='stroop-text' class='stroop-blue'>CHAIR</p>", "response": "b", "stimulus-type": "unrelated", "word": "CHAIR", "color": "blue", "correct_response": "b", "trial_id": "stroop-trial-1-unrelated-4", "trial_type": "html-keyboard-response", "trial_index": 10, "time_elapsed": 164482, "internal_node_id": "0.0-4.0-6.0"}}, {"uniqueid": "w51028437:a37555889", "current_trial": 11, "dateTime": 1664555324180, "trialdata": {"rt": 2296, "stimulus": "<p id='stroop-text' class='stroop-blue'>GREEN</p>", "response": "b", "stimulus-type": "incongruent", "word": "green", "color": "blue", "correct_response": "b", "trial_id": "stroop-trial-1-incongruent-9", "trial_type": "html-keyboard-response", "trial_index": 11, "time_elapsed": 167282, "internal_node_id": "0.0-4.0-7.0"}}, {"uniqueid": "w51028437:a37555889", "current_trial": 12, "dateTime": 1664555325844, "trialdata": {"rt": 1159, "stimulus": "<p id='stroop-text' class='stroop-red'>RED</p>", "response": "r", "stimulus-type": "congruent", "word": "red", "color": "red", "correct_response": "r", "trial_id": "stroop-trial-1-congruent-27", "trial_type": "html-keyboard-response", "trial_index": 12, "time_elapsed": 168946, "internal_node_id": "0.0-4.0-8.0"}}, {"uniqueid": "w51028437:a37555889", "current_trial": 13, "dateTime": 1664555327268, "trialdata": {"rt": 919, "stimulus": "<p id='stroop-text' class='stroop-blue'>BLUE</p>", "response": "b", "stimulus-type": "congruent", "word": "blue", "color": "blue", "correct_response": "b", "trial_id": "stroop-trial-1-congruent-17", "trial_type": "html-keyboard-response", "trial_index": 13, "time_elapsed": 170370, "internal_node_id": "0.0-4.0-9.0"}}, {"uniqueid": "w51028437:a37555889", "current_trial": 14, "dateTime": 1664555328580, "trialdata": {"rt": 807, "stimulus": "<p id='stroop-text' class='stroop-blue'>YELLOW</p>", "response": "b", "stimulus-type": "incongruent", "word": "yellow", "color": "blue", "correct_response": "b", "trial_id": "stroop-trial-1-incongruent-18", "trial_type": "html-keyboard-response", "trial_index": 14, "time_elapsed": 171682, "internal_node_id": "0.0-4.0-10.0"}}, {"uniqueid": "w51028437:a37555889", "current_trial": 15, "dateTime": 1664555330276, "trialdata": {"rt": 1191, "stimulus": "<p id='stroop-text' class='stroop-green'>RED</p>", "response": "g", "stimulus-type": "incongruent", "word": "red", "color": "green", "correct_response": "g", "trial_id": "stroop-trial-1-incongruent-10", "trial_type": "html-keyboard-response", "trial_index": 15, "time_elapsed": 173378, "internal_node_id": "0.0-4.0-11.0"}}, {"uniqueid": "w51028437:a37555889", "current_trial": 16, "dateTime": 1664555331668, "trialdata": {"rt": 887, "stimulus": "<p id='stroop-text' class='stroop-yellow'>WINDOW</p>", "response": "y", "stimulus-type": "unrelated", "word": "WINDOW", "color": "yellow", "correct_response": "y", "trial_id": "stroop-trial-1-unrelated-8", "trial_type": "html-keyboard-response", "trial_index": 16, "time_elapsed": 174770, "internal_node_id": "0.0-4.0-12.0"}}, {"uniqueid": "w51028437:a37555889", "current_trial": 17, "dateTime": 1664555333236, "trialdata": {"rt": 1063, "stimulus": "<p id='stroop-text' class='stroop-red'>STONE</p>", "response": "r", "stimulus-type": "unrelated", "word": "STONE", "color": "red", "correct_response": "r", "trial_id": "stroop-trial-1-unrelated-24", "trial_type": "html-keyboard-response", "trial_index": 17, "time_elapsed": 176337, "internal_node_id": "0.0-4.0-13.0"}}, {"uniqueid": "w51028437:a37555889", "current_trial": 18, "dateTime": 1664555337845, "trialdata": {"rt": 4105, "stimulus": "<p id='stroop-text' class='stroop-yellow'>GREEN</p>", "response": "b", "stimulus-type": "incongruent", "word": "green", "color": "yellow", "correct_response": "y", "trial_id": "stroop-trial-1-incongruent-16", "trial_type": "html-keyboard-response", "trial_index": 18, "time_elapsed": 180946, "internal_node_id": "0.0-4.0-14.0"}}, {"uniqueid": "w51028437:a37555889", "current_trial": 19, "dateTime": 1664555340676, "trialdata": {"rt": 2328, "stimulus": "<p id='stroop-text' class='stroop-green'>BRAIN</p>", "response": "g", "stimulus-type": "unrelated", "word": "BRAIN", "color": "green", "correct_response": "g", "trial_id": "stroop-trial-1-unrelated-14", "trial_type": "html-keyboard-response", "trial_index": 19, "time_elapsed": 183778, "internal_node_id": "0.0-4.0-15.0"}}, {"uniqueid": "w51028437:a37555889", "current_trial": 20, "dateTime": 1664555341988, "trialdata": {"rt": 808, "stimulus": "<p id='stroop-text' class='stroop-blue'>GREEN</p>", "response": "b", "stimulus-type": "incongruent", "word": "green", "color": "blue", "correct_response": "b", "trial_id": "stroop-trial-1-incongruent-11", "trial_type": "html-keyboard-response", "trial_index": 20, "time_elapsed": 185090, "internal_node_id": "0.0-4.0-16.0"}}, {"uniqueid": "w51028437:a37555889", "current_trial": 21, "dateTime": 1664555343476, "trialdata": {"rt": 982, "stimulus": "<p id='stroop-text' class='stroop-green'>BOAT</p>", "response": "g", "stimulus-type": "unrelated", "word": "BOAT", "color": "green", "correct_response": "g", "trial_id": "stroop-trial-1-unrelated-22", "trial_type": "html-keyboard-response", "trial_index": 21, "time_elapsed": 186578, "internal_node_id": "0.0-4.0-17.0"}}, {"uniqueid": "w51028437:a37555889", "current_trial": 22, "dateTime": 1664555344740, "trialdata": {"rt": 759, "stimulus": "<p id='stroop-text' class='stroop-red'>GREEN</p>", "response": "r", "stimulus-type": "incongruent", "word": "green", "color": "red", "correct_response": "r", "trial_id": "stroop-trial-1-incongruent-2", "trial_type": "html-keyboard-response", "trial_index": 22, "time_elapsed": 187842, "internal_node_id": "0.0-4.0-18.0"}}, {"uniqueid": "w51028437:a37555889", "current_trial": 23, "dateTime": 1664555346020, "trialdata": {"rt": 775, "stimulus": "<p id='stroop-text' class='stroop-red'>RED</p>", "response": "r", "stimulus-type": "congruent", "word": "red", "color": "red", "correct_response": "r", "trial_id": "stroop-trial-1-congruent-18", "trial_type": "html-keyboard-response", "trial_index": 23, "time_elapsed": 189122, "internal_node_id": "0.0-4.0-19.0"}}, {"uniqueid": "w51028437:a37555889", "current_trial": 24, "dateTime": 1664555347092, "trialdata": {"rt": 567, "stimulus": "<p id='stroop-text' class='stroop-red'>FORK</p>", "response": "r", "stimulus-type": "unrelated", "word": "FORK", "color": "red", "correct_response": "r", "trial_id": "stroop-trial-1-unrelated-6", "trial_type": "html-keyboard-response", "trial_index": 24, "time_elapsed": 190194, "internal_node_id": "0.0-4.0-20.0"}}, {"uniqueid": "w51028437:a37555889", "current_trial": 25, "dateTime": 1664555348213, "trialdata": {"rt": 617, "stimulus": "<p id='stroop-text' class='stroop-blue'>GREEN</p>", "response": "b", "stimulus-type": "incongruent", "word": "green", "color": "blue", "correct_response": "b", "trial_id": "stroop-trial-1-incongruent-14", "trial_type": "html-keyboard-response", "trial_index": 25, "time_elapsed": 191314, "internal_node_id": "0.0-4.0-21.0"}}, {"uniqueid": "w51028437:a37555889", "current_trial": 26, "dateTime": 1664555349508, "trialdata": {"rt": 779, "stimulus": "<p id='stroop-text' class='stroop-yellow'>YELLOW</p>", "response": "y", "stimulus-type": "congruent", "word": "yellow", "color": "yellow", "correct_response": "y", "trial_id": "stroop-trial-1-congruent-8", "trial_type": "html-keyboard-response", "trial_index": 26, "time_elapsed": 192610, "internal_node_id": "0.0-4.0-22.0"}}, {"uniqueid": "w51028437:a37555889", "current_trial": 27, "dateTime": 1664555351492, "trialdata": {"rt": 1478, "stimulus": "<p id='stroop-text' class='stroop-blue'>BLUE</p>", "response": "b", "stimulus-type": "congruent", "word": "blue", "color": "blue", "correct_response": "b", "trial_id": "stroop-trial-1-congruent-16", "trial_type": "html-keyboard-response", "trial_index": 27, "time_elapsed": 194594, "internal_node_id": "0.0-4.0-23.0"}}, {"uniqueid": "w51028437:a37555889", "current_trial": 28, "dateTime": 1664555353044, "trialdata": {"rt": 1048, "stimulus": "<p id='stroop-text' class='stroop-yellow'>BLUE</p>", "response": "y", "stimulus-type": "incongruent", "word": "blue", "color": "yellow", "correct_response": "y", "trial_id": "stroop-trial-1-incongruent-24", "trial_type": "html-keyboard-response", "trial_index": 28, "time_elapsed": 196145, "internal_node_id": "0.0-4.0-24.0"}}, {"uniqueid": "w51028437:a37555889", "current_trial": 29, "dateTime": 1664555358645, "trialdata": {"rt": 5096, "stimulus": "<p id='stroop-text' class='stroop-blue'>GREEN</p>", "response": "b", "stimulus-type": "incongruent", "word": "green", "color": "blue", "correct_response": "b", "trial_id": "stroop-trial-1-incongruent-6", "trial_type": "html-keyboard-response", "trial_index": 29, "time_elapsed": 201746, "internal_node_id": "0.0-4.0-25.0"}}, {"uniqueid": "w51028437:a37555889", "current_trial": 30, "dateTime": 1664555359908, "trialdata": {"rt": 759, "stimulus": "<p id='stroop-text' class='stroop-blue'>BLUE</p>", "response": "b", "stimulus-type": "congruent", "word": "blue", "color": "blue", "correct_response": "b", "trial_id": "stroop-trial-1-congruent-15", "trial_type": "html-keyboard-response", "trial_index": 30, "time_elapsed": 203010, "internal_node_id": "0.0-4.0-26.0"}}, {"uniqueid": "w51028437:a37555889", "current_trial": 31, "dateTime": 1664555361300, "trialdata": {"rt": 887, "stimulus": "<p id='stroop-text' class='stroop-green'>GREEN</p>", "response": "g", "stimulus-type": "congruent", "word": "green", "color": "green", "correct_response": "g", "trial_id": "stroop-trial-1-congruent-26", "trial_type": "html-keyboard-response", "trial_index": 31, "time_elapsed": 204401, "internal_node_id": "0.0-4.0-27.0"}}, {"uniqueid": "w51028437:a37555889", "current_trial": 32, "dateTime": 1664555362500, "trialdata": {"rt": 695, "stimulus": "<p id='stroop-text' class='stroop-red'>BRIDGE</p>", "response": "r", "stimulus-type": "unrelated", "word": "BRIDGE", "color": "red", "correct_response": "r", "trial_id": "stroop-trial-1-unrelated-10", "trial_type": "html-keyboard-response", "trial_index": 32, "time_elapsed": 205601, "internal_node_id": "0.0-4.0-28.0"}}, {"uniqueid": "w51028437:a37555889", "current_trial": 33, "dateTime": 1664555363540, "trialdata": {"rt": 535, "stimulus": "<p id='stroop-text' class='stroop-red'>RED</p>", "response": "r", "stimulus-type": "congruent", "word": "red", "color": "red", "correct_response": "r", "trial_id": "stroop-trial-1-congruent-22", "trial_type": "html-keyboard-response", "trial_index": 33, "time_elapsed": 206641, "internal_node_id": "0.0-4.0-29.0"}}, {"uniqueid": "w51028437:a37555889", "current_trial": 34, "dateTime": 1664555365188, "trialdata": {"rt": 1143, "stimulus": "<p id='stroop-text' class='stroop-blue'>RED</p>", "response": "b", "stimulus-type": "incongruent", "word": "red", "color": "blue", "correct_response": "b", "trial_id": "stroop-trial-1-incongruent-8", "trial_type": "html-keyboard-response", "trial_index": 34, "time_elapsed": 208289, "internal_node_id": "0.0-4.0-30.0"}}, {"uniqueid": "w51028437:a37555889", "current_trial": 35, "dateTime": 1664555366532, "trialdata": {"rt": 839, "stimulus": "<p id='stroop-text' class='stroop-blue'>WINDOW</p>", "response": "b", "stimulus-type": "unrelated", "word": "WINDOW", "color": "blue", "correct_response": "b", "trial_id": "stroop-trial-1-unrelated-29", "trial_type": "html-keyboard-response", "trial_index": 35, "time_elapsed": 209633, "internal_node_id": "0.0-4.0-31.0"}}, {"uniqueid": "w51028437:a37555889", "current_trial": 36, "dateTime": 1664555367828, "trialdata": {"rt": 792, "stimulus": "<p id='stroop-text' class='stroop-green'>FORK</p>", "response": "g", "stimulus-type": "unrelated", "word": "FORK", "color": "green", "correct_response": "g", "trial_id": "stroop-trial-1-unrelated-2", "trial_type": "html-keyboard-response", "trial_index": 36, "time_elapsed": 210929, "internal_node_id": "0.0-4.0-32.0"}}, {"uniqueid": "w51028437:a37555889", "current_trial": 37, "dateTime": 1664555369204, "trialdata": {"rt": 872, "stimulus": "<p id='stroop-text' class='stroop-green'>BLUE</p>", "response": "g", "stimulus-type": "incongruent", "word": "blue", "color": "green", "correct_response": "g", "trial_id": "stroop-trial-1-incongruent-19", "trial_type": "html-keyboard-response", "trial_index": 37, "time_elapsed": 212306, "internal_node_id": "0.0-4.0-33.0"}}, {"uniqueid": "w51028437:a37555889", "current_trial": 38, "dateTime": 1664555371044, "trialdata": {"rt": 1334, "stimulus": "<p id='stroop-text' class='stroop-red'>GREEN</p>", "response": "r", "stimulus-type": "incongruent", "word": "green", "color": "red", "correct_response": "r", "trial_id": "stroop-trial-1-incongruent-15", "trial_type": "html-keyboard-response", "trial_index": 38, "time_elapsed": 214145, "internal_node_id": "0.0-4.0-34.0"}}, {"uniqueid": "w51028437:a37555889", "current_trial": 39, "dateTime": 1664555372276, "trialdata": {"rt": 727, "stimulus": "<p id='stroop-text' class='stroop-blue'>BLUE</p>", "response": "b", "stimulus-type": "congruent", "word": "blue", "color": "blue", "correct_response": "b", "trial_id": "stroop-trial-1-congruent-29", "trial_type": "html-keyboard-response", "trial_index": 39, "time_elapsed": 215377, "internal_node_id": "0.0-4.0-35.0"}}, {"uniqueid": "w51028437:a37555889", "current_trial": 40, "dateTime": 1664555373524, "trialdata": {"rt": 743, "stimulus": "<p id='stroop-text' class='stroop-red'>DOG</p>", "response": "r", "stimulus-type": "unrelated", "word": "DOG", "color": "red", "correct_response": "r", "trial_id": "stroop-trial-1-unrelated-13", "trial_type": "html-keyboard-response", "trial_index": 40, "time_elapsed": 216625, "internal_node_id": "0.0-4.0-36.0"}}, {"uniqueid": "w51028437:a37555889", "current_trial": 41, "dateTime": 1664555375156, "trialdata": {"rt": 1127, "stimulus": "<p id='stroop-text' class='stroop-yellow'>BLUE</p>", "response": "y", "stimulus-type": "incongruent", "word": "blue", "color": "yellow", "correct_response": "y", "trial_id": "stroop-trial-1-incongruent-29", "trial_type": "html-keyboard-response", "trial_index": 41, "time_elapsed": 218258, "internal_node_id": "0.0-4.0-37.0"}}, {"uniqueid": "w51028437:a37555889", "current_trial": 42, "dateTime": 1664555376340, "trialdata": {"rt": 676, "stimulus": "<p id='stroop-text' class='stroop-yellow'>WINDOW</p>", "response": "y", "stimulus-type": "unrelated", "word": "WINDOW", "color": "yellow", "correct_response": "y", "trial_id": "stroop-trial-1-unrelated-1", "trial_type": "html-keyboard-response", "trial_index": 42, "time_elapsed": 219441, "internal_node_id": "0.0-4.0-38.0"}}, {"uniqueid": "w51028437:a37555889", "current_trial": 43, "dateTime": 1664555377652, "trialdata": {"rt": 808, "stimulus": "<p id='stroop-text' class='stroop-red'>SHIP</p>", "response": "r", "stimulus-type": "unrelated", "word": "SHIP", "color": "red", "correct_response": "r", "trial_id": "stroop-trial-1-unrelated-26", "trial_type": "html-keyboard-response", "trial_index": 43, "time_elapsed": 220753, "internal_node_id": "0.0-4.0-39.0"}}, {"uniqueid": "w51028437:a37555889", "current_trial": 44, "dateTime": 1664555379124, "trialdata": {"rt": 968, "stimulus": "<p id='stroop-text' class='stroop-green'>BRAIN</p>", "response": "g", "stimulus-type": "unrelated", "word": "BRAIN", "color": "green", "correct_response": "g", "trial_id": "stroop-trial-1-unrelated-21", "trial_type": "html-keyboard-response", "trial_index": 44, "time_elapsed": 222225, "internal_node_id": "0.0-4.0-40.0"}}, {"uniqueid": "w51028437:a37555889", "current_trial": 45, "dateTime": 1664555380213, "trialdata": {"rt": 584, "stimulus": "<p id='stroop-text' class='stroop-green'>WINDOW</p>", "response": "g", "stimulus-type": "unrelated", "word": "WINDOW", "color": "green", "correct_response": "g", "trial_id": "stroop-trial-1-unrelated-25", "trial_type": "html-keyboard-response", "trial_index": 45, "time_elapsed": 223314, "internal_node_id": "0.0-4.0-41.0"}}, {"uniqueid": "w51028437:a37555889", "current_trial": 46, "dateTime": 1664555381684, "trialdata": {"rt": 967, "stimulus": "<p id='stroop-text' class='stroop-blue'>FORK</p>", "response": "b", "stimulus-type": "unrelated", "word": "FORK", "color": "blue", "correct_response": "b", "trial_id": "stroop-trial-1-unrelated-5", "trial_type": "html-keyboard-response", "trial_index": 46, "time_elapsed": 224785, "internal_node_id": "0.0-4.0-42.0"}}, {"uniqueid": "w51028437:a37555889", "current_trial": 47, "dateTime": 1664555384900, "trialdata": {"rt": 2709, "stimulus": "<p id='stroop-text' class='stroop-green'>BRAIN</p>", "response": "g", "stimulus-type": "unrelated", "word": "BRAIN", "color": "green", "correct_response": "g", "trial_id": "stroop-trial-1-unrelated-15", "trial_type": "html-keyboard-response", "trial_index": 47, "time_elapsed": 228001, "internal_node_id": "0.0-4.0-43.0"}}, {"uniqueid": "w51028437:a37555889", "current_trial": 48, "dateTime": 1664555386308, "trialdata": {"rt": 902, "stimulus": "<p id='stroop-text' class='stroop-yellow'>YELLOW</p>", "response": "y", "stimulus-type": "congruent", "word": "yellow", "color": "yellow", "correct_response": "y", "trial_id": "stroop-trial-1-congruent-3", "trial_type": "html-keyboard-response", "trial_index": 48, "time_elapsed": 229409, "internal_node_id": "0.0-4.0-44.0"}}, {"uniqueid": "w51028437:a37555889", "current_trial": 49, "dateTime": 1664555387460, "trialdata": {"rt": 647, "stimulus": "<p id='stroop-text' class='stroop-red'>FORK</p>", "response": "r", "stimulus-type": "unrelated", "word": "FORK", "color": "red", "correct_response": "r", "trial_id": "stroop-trial-1-unrelated-18", "trial_type": "html-keyboard-response", "trial_index": 49, "time_elapsed": 230561, "internal_node_id": "0.0-4.0-45.0"}}, {"uniqueid": "w51028437:a37555889", "current_trial": 50, "dateTime": 1664555388900, "trialdata": {"rt": 936, "stimulus": "<p id='stroop-text' class='stroop-blue'>BLUE</p>", "response": "b", "stimulus-type": "congruent", "word": "blue", "color": "blue", "correct_response": "b", "trial_id": "stroop-trial-1-congruent-4", "trial_type": "html-keyboard-response", "trial_index": 50, "time_elapsed": 232001, "internal_node_id": "0.0-4.0-46.0"}}, {"uniqueid": "w51028437:a37555889", "current_trial": 51, "dateTime": 1664555391172, "trialdata": {"rt": 1756, "stimulus": "<p id='stroop-text' class='stroop-red'>FORK</p>", "response": "r", "stimulus-type": "unrelated", "word": "FORK", "color": "red", "correct_response": "r", "trial_id": "stroop-trial-1-unrelated-27", "trial_type": "html-keyboard-response", "trial_index": 51, "time_elapsed": 234274, "internal_node_id": "0.0-4.0-47.0"}}, {"uniqueid": "w51028437:a37555889", "current_trial": 52, "dateTime": 1664555392532, "trialdata": {"rt": 854, "stimulus": "<p id='stroop-text' class='stroop-green'>GREEN</p>", "response": "g", "stimulus-type": "congruent", "word": "green", "color": "green", "correct_response": "g", "trial_id": "stroop-trial-1-congruent-14", "trial_type": "html-keyboard-response", "trial_index": 52, "time_elapsed": 235633, "internal_node_id": "0.0-4.0-48.0"}}, {"uniqueid": "w51028437:a37555889", "current_trial": 53, "dateTime": 1664555393668, "trialdata": {"rt": 631, "stimulus": "<p id='stroop-text' class='stroop-green'>GREEN</p>", "response": "g", "stimulus-type": "congruent", "word": "green", "color": "green", "correct_response": "g", "trial_id": "stroop-trial-1-congruent-19", "trial_type": "html-keyboard-response", "trial_index": 53, "time_elapsed": 236769, "internal_node_id": "0.0-4.0-49.0"}}, {"uniqueid": "w51028437:a37555889", "current_trial": 54, "dateTime": 1664555394964, "trialdata": {"rt": 790, "stimulus": "<p id='stroop-text' class='stroop-red'>BLUE</p>", "response": "r", "stimulus-type": "incongruent", "word": "blue", "color": "red", "correct_response": "r", "trial_id": "stroop-trial-1-incongruent-26", "trial_type": "html-keyboard-response", "trial_index": 54, "time_elapsed": 238065, "internal_node_id": "0.0-4.0-50.0"}}, {"uniqueid": "w51028437:a37555889", "current_trial": 55, "dateTime": 1664555396212, "trialdata": {"rt": 743, "stimulus": "<p id='stroop-text' class='stroop-red'>RED</p>", "response": "r", "stimulus-type": "congruent", "word": "red", "color": "red", "correct_response": "r", "trial_id": "stroop-trial-1-congruent-24", "trial_type": "html-keyboard-response", "trial_index": 55, "time_elapsed": 239314, "internal_node_id": "0.0-4.0-51.0"}}, {"uniqueid": "w51028437:a37555889", "current_trial": 56, "dateTime": 1664555397668, "trialdata": {"rt": 937, "stimulus": "<p id='stroop-text' class='stroop-green'>BLUE</p>", "response": "g", "stimulus-type": "incongruent", "word": "blue", "color": "green", "correct_response": "g", "trial_id": "stroop-trial-1-incongruent-7", "trial_type": "html-keyboard-response", "trial_index": 56, "time_elapsed": 240769, "internal_node_id": "0.0-4.0-52.0"}}, {"uniqueid": "w51028437:a37555889", "current_trial": 57, "dateTime": 1664555398868, "trialdata": {"rt": 695, "stimulus": "<p id='stroop-text' class='stroop-red'>YELLOW</p>", "response": "r", "stimulus-type": "incongruent", "word": "yellow", "color": "red", "correct_response": "r", "trial_id": "stroop-trial-1-incongruent-4", "trial_type": "html-keyboard-response", "trial_index": 57, "time_elapsed": 241969, "internal_node_id": "0.0-4.0-53.0"}}, {"uniqueid": "w51028437:a37555889", "current_trial": 58, "dateTime": 1664555399924, "trialdata": {"rt": 551, "stimulus": "<p id='stroop-text' class='stroop-green'>GREEN</p>", "response": "r", "stimulus-type": "congruent", "word": "green", "color": "green", "correct_response": "g", "trial_id": "stroop-trial-1-congruent-1", "trial_type": "html-keyboard-response", "trial_index": 58, "time_elapsed": 243025, "internal_node_id": "0.0-4.0-54.0"}}, {"uniqueid": "w51028437:a37555889", "current_trial": 59, "dateTime": 1664555400996, "trialdata": {"rt": 565, "stimulus": "<p id='stroop-text' class='stroop-green'>GREEN</p>", "response": "r", "stimulus-type": "congruent", "word": "green", "color": "green", "correct_response": "g", "trial_id": "stroop-trial-1-congruent-7", "trial_type": "html-keyboard-response", "trial_index": 59, "time_elapsed": 244097, "internal_node_id": "0.0-4.0-55.0"}}, {"uniqueid": "w51028437:a37555889", "current_trial": 60, "dateTime": 1664555401988, "trialdata": {"rt": 488, "stimulus": "<p id='stroop-text' class='stroop-green'>GREEN</p>", "response": "r", "stimulus-type": "congruent", "word": "green", "color": "green", "correct_response": "g", "trial_id": "stroop-trial-1-congruent-2", "trial_type": "html-keyboard-response", "trial_index": 60, "time_elapsed": 245090, "internal_node_id": "0.0-4.0-56.0"}}, {"uniqueid": "w51028437:a37555889", "current_trial": 61, "dateTime": 1664555403764, "trialdata": {"rt": 1270, "stimulus": "<p id='stroop-text' class='stroop-yellow'>BRAIN</p>", "response": "y", "stimulus-type": "unrelated", "word": "BRAIN", "color": "yellow", "correct_response": "y", "trial_id": "stroop-trial-1-unrelated-28", "trial_type": "html-keyboard-response", "trial_index": 61, "time_elapsed": 246865, "internal_node_id": "0.0-4.0-57.0"}}, {"uniqueid": "w51028437:a37555889", "current_trial": 62, "dateTime": 1664555405572, "trialdata": {"rt": 1304, "stimulus": "<p id='stroop-text' class='stroop-red'>BLUE</p>", "response": "r", "stimulus-type": "incongruent", "word": "blue", "color": "red", "correct_response": "r", "trial_id": "stroop-trial-1-incongruent-20", "trial_type": "html-keyboard-response", "trial_index": 62, "time_elapsed": 248673, "internal_node_id": "0.0-4.0-58.0"}}, {"uniqueid": "w51028437:a37555889", "current_trial": 63, "dateTime": 1664555406756, "trialdata": {"rt": 677, "stimulus": "<p id='stroop-text' class='stroop-red'>RED</p>", "response": "r", "stimulus-type": "congruent", "word": "red", "color": "red", "correct_response": "r", "trial_id": "stroop-trial-1-congruent-5", "trial_type": "html-keyboard-response", "trial_index": 63, "time_elapsed": 249857, "internal_node_id": "0.0-4.0-59.0"}}, {"uniqueid": "w51028437:a37555889", "current_trial": 64, "dateTime": 1664555408052, "trialdata": {"rt": 791, "stimulus": "<p id='stroop-text' class='stroop-blue'>WINDOW</p>", "response": "b", "stimulus-type": "unrelated", "word": "WINDOW", "color": "blue", "correct_response": "b", "trial_id": "stroop-trial-1-unrelated-19", "trial_type": "html-keyboard-response", "trial_index": 64, "time_elapsed": 251153, "internal_node_id": "0.0-4.0-60.0"}}, {"uniqueid": "w51028437:a37555889", "current_trial": 65, "dateTime": 1664555409236, "trialdata": {"rt": 667, "stimulus": "<p id='stroop-text' class='stroop-blue'>BLUE</p>", "response": "b", "stimulus-type": "congruent", "word": "blue", "color": "blue", "correct_response": "b", "trial_id": "stroop-trial-1-congruent-11", "trial_type": "html-keyboard-response", "trial_index": 65, "time_elapsed": 252337, "internal_node_id": "0.0-4.0-61.0"}}, {"uniqueid": "w51028437:a37555889", "current_trial": 66, "dateTime": 1664555411604, "trialdata": {"rt": 1862, "stimulus": "<p id='stroop-text' class='stroop-yellow'>BLUE</p>", "response": "r", "stimulus-type": "incongruent", "word": "blue", "color": "yellow", "correct_response": "y", "trial_id": "stroop-trial-1-incongruent-30", "trial_type": "html-keyboard-response", "trial_index": 66, "time_elapsed": 254705, "internal_node_id": "0.0-4.0-62.0"}}, {"uniqueid": "w51028437:a37555889", "current_trial": 67, "dateTime": 1664555413203, "trialdata": {"rt": 1096, "stimulus": "<p id='stroop-text' class='stroop-blue'>BLUE</p>", "response": "b", "stimulus-type": "congruent", "word": "blue", "color": "blue", "correct_response": "b", "trial_id": "stroop-trial-1-congruent-12", "trial_type": "html-keyboard-response", "trial_index": 67, "time_elapsed": 256305, "internal_node_id": "0.0-4.0-63.0"}}, {"uniqueid": "w51028437:a37555889", "current_trial": 68, "dateTime": 1664555414532, "trialdata": {"rt": 825, "stimulus": "<p id='stroop-text' class='stroop-red'>RED</p>", "response": "r", "stimulus-type": "congruent", "word": "red", "color": "red", "correct_response": "r", "trial_id": "stroop-trial-1-congruent-13", "trial_type": "html-keyboard-response", "trial_index": 68, "time_elapsed": 257633, "internal_node_id": "0.0-4.0-64.0"}}, {"uniqueid": "w51028437:a37555889", "current_trial": 69, "dateTime": 1664555416372, "trialdata": {"rt": 1334, "stimulus": "<p id='stroop-text' class='stroop-blue'>RED</p>", "response": "b", "stimulus-type": "incongruent", "word": "red", "color": "blue", "correct_response": "b", "trial_id": "stroop-trial-1-incongruent-13", "trial_type": "html-keyboard-response", "trial_index": 69, "time_elapsed": 259473, "internal_node_id": "0.0-4.0-65.0"}}, {"uniqueid": "w51028437:a37555889", "current_trial": 70, "dateTime": 1664555417651, "trialdata": {"rt": 772, "stimulus": "<p id='stroop-text' class='stroop-yellow'>GREEN</p>", "response": "y", "stimulus-type": "incongruent", "word": "green", "color": "yellow", "correct_response": "y", "trial_id": "stroop-trial-1-incongruent-12", "trial_type": "html-keyboard-response", "trial_index": 70, "time_elapsed": 260753, "internal_node_id": "0.0-4.0-66.0"}}, {"uniqueid": "w51028437:a37555889", "current_trial": 71, "dateTime": 1664555418931, "trialdata": {"rt": 776, "stimulus": "<p id='stroop-text' class='stroop-red'>SHIP</p>", "response": "r", "stimulus-type": "unrelated", "word": "SHIP", "color": "red", "correct_response": "r", "trial_id": "stroop-trial-1-unrelated-11", "trial_type": "html-keyboard-response", "trial_index": 71, "time_elapsed": 262033, "internal_node_id": "0.0-4.0-67.0"}}, {"uniqueid": "w51028437:a37555889", "current_trial": 72, "dateTime": 1664555420243, "trialdata": {"rt": 809, "stimulus": "<p id='stroop-text' class='stroop-yellow'>BRIDGE</p>", "response": "y", "stimulus-type": "unrelated", "word": "BRIDGE", "color": "yellow", "correct_response": "y", "trial_id": "stroop-trial-1-unrelated-3", "trial_type": "html-keyboard-response", "trial_index": 72, "time_elapsed": 263345, "internal_node_id": "0.0-4.0-68.0"}}, {"uniqueid": "w51028437:a37555889", "current_trial": 73, "dateTime": 1664555421604, "trialdata": {"rt": 857, "stimulus": "<p id='stroop-text' class='stroop-blue'>YELLOW</p>", "response": "b", "stimulus-type": "incongruent", "word": "yellow", "color": "blue", "correct_response": "b", "trial_id": "stroop-trial-1-incongruent-28", "trial_type": "html-keyboard-response", "trial_index": 73, "time_elapsed": 264705, "internal_node_id": "0.0-4.0-69.0"}}, {"uniqueid": "w51028437:a37555889", "current_trial": 74, "dateTime": 1664555422677, "trialdata": {"rt": 556, "stimulus": "<p id='stroop-text' class='stroop-blue'>SHIP</p>", "response": "b", "stimulus-type": "unrelated", "word": "SHIP", "color": "blue", "correct_response": "b", "trial_id": "stroop-trial-1-unrelated-9", "trial_type": "html-keyboard-response", "trial_index": 74, "time_elapsed": 265778, "internal_node_id": "0.0-4.0-70.0"}}, {"uniqueid": "w51028437:a37555889", "current_trial": 75, "dateTime": 1664555423716, "trialdata": {"rt": 536, "stimulus": "<p id='stroop-text' class='stroop-blue'>RED</p>", "response": "b", "stimulus-type": "incongruent", "word": "red", "color": "blue", "correct_response": "b", "trial_id": "stroop-trial-1-incongruent-1", "trial_type": "html-keyboard-response", "trial_index": 75, "time_elapsed": 266818, "internal_node_id": "0.0-4.0-71.0"}}, {"uniqueid": "w51028437:a37555889", "current_trial": 76, "dateTime": 1664555425284, "trialdata": {"rt": 1062, "stimulus": "<p id='stroop-text' class='stroop-yellow'>GREEN</p>", "response": "y", "stimulus-type": "incongruent", "word": "green", "color": "yellow", "correct_response": "y", "trial_id": "stroop-trial-1-incongruent-3", "trial_type": "html-keyboard-response", "trial_index": 76, "time_elapsed": 268386, "internal_node_id": "0.0-4.0-72.0"}}, {"uniqueid": "w51028437:a37555889", "current_trial": 77, "dateTime": 1664555426580, "trialdata": {"rt": 790, "stimulus": "<p id='stroop-text' class='stroop-red'>RED</p>", "response": "r", "stimulus-type": "congruent", "word": "red", "color": "red", "correct_response": "r", "trial_id": "stroop-trial-1-congruent-6", "trial_type": "html-keyboard-response", "trial_index": 77, "time_elapsed": 269681, "internal_node_id": "0.0-4.0-73.0"}}, {"uniqueid": "w51028437:a37555889", "current_trial": 78, "dateTime": 1664555427924, "trialdata": {"rt": 838, "stimulus": "<p id='stroop-text' class='stroop-green'>YELLOW</p>", "response": "g", "stimulus-type": "incongruent", "word": "yellow", "color": "green", "correct_response": "g", "trial_id": "stroop-trial-1-incongruent-25", "trial_type": "html-keyboard-response", "trial_index": 78, "time_elapsed": 271026, "internal_node_id": "0.0-4.0-74.0"}}, {"uniqueid": "w51028437:a37555889", "current_trial": 79, "dateTime": 1664555429460, "trialdata": {"rt": 1032, "stimulus": "<p id='stroop-text' class='stroop-yellow'>FORK</p>", "response": "y", "stimulus-type": "unrelated", "word": "FORK", "color": "yellow", "correct_response": "y", "trial_id": "stroop-trial-1-unrelated-23", "trial_type": "html-keyboard-response", "trial_index": 79, "time_elapsed": 272562, "internal_node_id": "0.0-4.0-75.0"}}, {"uniqueid": "w51028437:a37555889", "current_trial": 80, "dateTime": 1664555430436, "trialdata": {"rt": 472, "stimulus": "<p id='stroop-text' class='stroop-yellow'>GREEN</p>", "response": "y", "stimulus-type": "incongruent", "word": "green", "color": "yellow", "correct_response": "y", "trial_id": "stroop-trial-1-incongruent-21", "trial_type": "html-keyboard-response", "trial_index": 80, "time_elapsed": 273538, "internal_node_id": "0.0-4.0-76.0"}}, {"uniqueid": "w51028437:a37555889", "current_trial": 81, "dateTime": 1664555431572, "trialdata": {"rt": 629, "stimulus": "<p id='stroop-text' class='stroop-red'>BRAIN</p>", "response": "r", "stimulus-type": "unrelated", "word": "BRAIN", "color": "red", "correct_response": "r", "trial_id": "stroop-trial-1-unrelated-30", "trial_type": "html-keyboard-response", "trial_index": 81, "time_elapsed": 274674, "internal_node_id": "0.0-4.0-77.0"}}, {"uniqueid": "w51028437:a37555889", "current_trial": 82, "dateTime": 1664555432595, "trialdata": {"rt": 519, "stimulus": "<p id='stroop-text' class='stroop-yellow'>YELLOW</p>", "response": "y", "stimulus-type": "congruent", "word": "yellow", "color": "yellow", "correct_response": "y", "trial_id": "stroop-trial-1-congruent-28", "trial_type": "html-keyboard-response", "trial_index": 82, "time_elapsed": 275697, "internal_node_id": "0.0-4.0-78.0"}}, {"uniqueid": "w51028437:a37555889", "current_trial": 83, "dateTime": 1664555433749, "trialdata": {"rt": 650, "stimulus": "<p id='stroop-text' class='stroop-blue'>BLUE</p>", "response": "b", "stimulus-type": "congruent", "word": "blue", "color": "blue", "correct_response": "b", "trial_id": "stroop-trial-1-congruent-9", "trial_type": "html-keyboard-response", "trial_index": 83, "time_elapsed": 276850, "internal_node_id": "0.0-4.0-79.0"}}, {"uniqueid": "w51028437:a37555889", "current_trial": 84, "dateTime": 1664555434947, "trialdata": {"rt": 692, "stimulus": "<p id='stroop-text' class='stroop-green'>STONE</p>", "response": "g", "stimulus-type": "unrelated", "word": "STONE", "color": "green", "correct_response": "g", "trial_id": "stroop-trial-1-unrelated-12", "trial_type": "html-keyboard-response", "trial_index": 84, "time_elapsed": 278049, "internal_node_id": "0.0-4.0-80.0"}}, {"uniqueid": "w51028437:a37555889", "current_trial": 85, "dateTime": 1664555436339, "trialdata": {"rt": 888, "stimulus": "<p id='stroop-text' class='stroop-blue'>RED</p>", "response": "b", "stimulus-type": "incongruent", "word": "red", "color": "blue", "correct_response": "b", "trial_id": "stroop-trial-1-incongruent-17", "trial_type": "html-keyboard-response", "trial_index": 85, "time_elapsed": 279441, "internal_node_id": "0.0-4.0-81.0"}}, {"uniqueid": "w51028437:a37555889", "current_trial": 86, "dateTime": 1664555437700, "trialdata": {"rt": 857, "stimulus": "<p id='stroop-text' class='stroop-green'>YELLOW</p>", "response": "g", "stimulus-type": "incongruent", "word": "yellow", "color": "green", "correct_response": "g", "trial_id": "stroop-trial-1-incongruent-23", "trial_type": "html-keyboard-response", "trial_index": 86, "time_elapsed": 280801, "internal_node_id": "0.0-4.0-82.0"}}, {"uniqueid": "w51028437:a37555889", "current_trial": 87, "dateTime": 1664555438708, "trialdata": {"rt": 503, "stimulus": "<p id='stroop-text' class='stroop-green'>GREEN</p>", "response": "g", "stimulus-type": "congruent", "word": "green", "color": "green", "correct_response": "g", "trial_id": "stroop-trial-1-congruent-23", "trial_type": "html-keyboard-response", "trial_index": 87, "time_elapsed": 281810, "internal_node_id": "0.0-4.0-83.0"}}, {"uniqueid": "w51028437:a37555889", "current_trial": 88, "dateTime": 1664555439716, "trialdata": {"rt": 499, "stimulus": "<p id='stroop-text' class='stroop-green'>GREEN</p>", "response": "g", "stimulus-type": "congruent", "word": "green", "color": "green", "correct_response": "g", "trial_id": "stroop-trial-1-congruent-25", "trial_type": "html-keyboard-response", "trial_index": 88, "time_elapsed": 282818, "internal_node_id": "0.0-4.0-84.0"}}, {"uniqueid": "w51028437:a37555889", "current_trial": 89, "dateTime": 1664555440900, "trialdata": {"rt": 666, "stimulus": "<p id='stroop-text' class='stroop-red'>GREEN</p>", "response": "r", "stimulus-type": "incongruent", "word": "green", "color": "red", "correct_response": "r", "trial_id": "stroop-trial-1-incongruent-22", "trial_type": "html-keyboard-response", "trial_index": 89, "time_elapsed": 284002, "internal_node_id": "0.0-4.0-85.0"}}, {"uniqueid": "w51028437:a37555889", "current_trial": 90, "dateTime": 1664555442308, "trialdata": {"rt": 901, "stimulus": "<p id='stroop-text' class='stroop-blue'>BLUE</p>", "response": "b", "stimulus-type": "congruent", "word": "blue", "color": "blue", "correct_response": "b", "trial_id": "stroop-trial-1-congruent-20", "trial_type": "html-keyboard-response", "trial_index": 90, "time_elapsed": 285410, "internal_node_id": "0.0-4.0-86.0"}}, {"uniqueid": "w51028437:a37555889", "current_trial": 91, "dateTime": 1664555443316, "trialdata": {"rt": 502, "stimulus": "<p id='stroop-text' class='stroop-blue'>BLUE</p>", "response": "b", "stimulus-type": "congruent", "word": "blue", "color": "blue", "correct_response": "b", "trial_id": "stroop-trial-1-congruent-10", "trial_type": "html-keyboard-response", "trial_index": 91, "time_elapsed": 286418, "internal_node_id": "0.0-4.0-87.0"}}, {"uniqueid": "w51028437:a37555889", "current_trial": 92, "dateTime": 1664555444308, "trialdata": {"rt": 487, "stimulus": "<p id='stroop-text' class='stroop-blue'>BLUE</p>", "response": "b", "stimulus-type": "congruent", "word": "blue", "color": "blue", "correct_response": "b", "trial_id": "stroop-trial-1-congruent-30", "trial_type": "html-keyboard-response", "trial_index": 92, "time_elapsed": 287410, "internal_node_id": "0.0-4.0-88.0"}}, {"uniqueid": "w51028437:a37555889", "current_trial": 93, "dateTime": 1664555445524, "trialdata": {"rt": 710, "stimulus": "<p id='stroop-text' class='stroop-yellow'>BRAIN</p>", "response": "y", "stimulus-type": "unrelated", "word": "BRAIN", "color": "yellow", "correct_response": "y", "trial_id": "stroop-trial-1-unrelated-7", "trial_type": "html-keyboard-response", "trial_index": 93, "time_elapsed": 288626, "internal_node_id": "0.0-4.0-89.0"}}, {"uniqueid": "w51028437:a37555889", "current_trial": 94, "dateTime": 1664555474676, "trialdata": {"rt": 28644, "stimulus": "  <h1> End of block! </h1>\n\n  You have reached the end of the block 1/5. If you need a short break, feel free to take one now before moving on.\n\n  <br><br>\n  In the next block, you will complete another 90 rounds of this game.\n\n  <br><br>\n  <div style='text-align: center;'>Press <code>space</code> to begin.</div>\n  <br><br>\n<div style='text-align: center;'>(If the experiment doesn't continue, try clicking on the text and then pressing <code>space</code>.)</div>", "response": " ", "trial_id": "stroop_1_ready_2", "trial_type": "html-keyboard-response", "trial_index": 94, "time_elapsed": 317778, "internal_node_id": "0.0-5.0"}}, {"uniqueid": "w51028437:a37555889", "current_trial": 95, "dateTime": 1664555475844, "trialdata": {"rt": 1160, "stimulus": "<p id='stroop-text' class='stroop-blue'>BLUE</p>", "response": "b", "stimulus-type": "congruent", "word": "blue", "color": "blue", "correct_response": "b", "trial_id": "stroop-trial-1-congruent-28", "trial_type": "html-keyboard-response", "trial_index": 95, "time_elapsed": 318945, "internal_node_id": "0.0-6.0-0.0"}}, {"uniqueid": "w51028437:a37555889", "current_trial": 96, "dateTime": 1664555476996, "trialdata": {"rt": 643, "stimulus": "<p id='stroop-text' class='stroop-blue'>MONKEY</p>", "response": "b", "stimulus-type": "unrelated", "word": "MONKEY", "color": "blue", "correct_response": "b", "trial_id": "stroop-trial-1-unrelated-6", "trial_type": "html-keyboard-response", "trial_index": 96, "time_elapsed": 320097, "internal_node_id": "0.0-6.0-1.0"}}, {"uniqueid": "w51028437:a37555889", "current_trial": 97, "dateTime": 1664555478980, "trialdata": {"rt": 1478, "stimulus": "<p id='stroop-text' class='stroop-red'>RED</p>", "response": "r", "stimulus-type": "congruent", "word": "red", "color": "red", "correct_response": "r", "trial_id": "stroop-trial-1-congruent-19", "trial_type": "html-keyboard-response", "trial_index": 97, "time_elapsed": 322081, "internal_node_id": "0.0-6.0-2.0"}}, {"uniqueid": "w51028437:a37555889", "current_trial": 98, "dateTime": 1664555480052, "trialdata": {"rt": 553, "stimulus": "<p id='stroop-text' class='stroop-red'>YELLOW</p>", "response": "r", "stimulus-type": "incongruent", "word": "yellow", "color": "red", "correct_response": "r", "trial_id": "stroop-trial-1-incongruent-8", "trial_type": "html-keyboard-response", "trial_index": 98, "time_elapsed": 323153, "internal_node_id": "0.0-6.0-3.0"}}, {"uniqueid": "w51028437:a37555889", "current_trial": 99, "dateTime": 1664555481236, "trialdata": {"rt": 679, "stimulus": "<p id='stroop-text' class='stroop-yellow'>BLUE</p>", "response": "y", "stimulus-type": "incongruent", "word": "blue", "color": "yellow", "correct_response": "y", "trial_id": "stroop-trial-1-incongruent-4", "trial_type": "html-keyboard-response", "trial_index": 99, "time_elapsed": 324337, "internal_node_id": "0.0-6.0-4.0"}}, {"uniqueid": "w51028437:a37555889", "current_trial": 100, "dateTime": 1664555482340, "trialdata": {"rt": 597, "stimulus": "<p id='stroop-text' class='stroop-blue'>BLUE</p>", "response": "b", "stimulus-type": "congruent", "word": "blue", "color": "blue", "correct_response": "b", "trial_id": "stroop-trial-1-congruent-22", "trial_type": "html-keyboard-response", "trial_index": 100, "time_elapsed": 325441, "internal_node_id": "0.0-6.0-5.0"}}, {"uniqueid": "w51028437:a37555889", "current_trial": 101, "dateTime": 1664555483556, "trialdata": {"rt": 711, "stimulus": "<p id='stroop-text' class='stroop-green'>GREEN</p>", "response": "g", "stimulus-type": "congruent", "word": "green", "color": "green", "correct_response": "g", "trial_id": "stroop-trial-1-congruent-9", "trial_type": "html-keyboard-response", "trial_index": 101, "time_elapsed": 326657, "internal_node_id": "0.0-6.0-6.0"}}, {"uniqueid": "w51028437:a37555889", "current_trial": 102, "dateTime": 1664555484788, "trialdata": {"rt": 726, "stimulus": "<p id='stroop-text' class='stroop-yellow'>RED</p>", "response": "y", "stimulus-type": "incongruent", "word": "red", "color": "yellow", "correct_response": "y", "trial_id": "stroop-trial-1-incongruent-14", "trial_type": "html-keyboard-response", "trial_index": 102, "time_elapsed": 327890, "internal_node_id": "0.0-6.0-7.0"}}, {"uniqueid": "w51028437:a37555889", "current_trial": 103, "dateTime": 1664555486116, "trialdata": {"rt": 822, "stimulus": "<p id='stroop-text' class='stroop-yellow'>GREEN</p>", "response": "y", "stimulus-type": "incongruent", "word": "green", "color": "yellow", "correct_response": "y", "trial_id": "stroop-trial-1-incongruent-10", "trial_type": "html-keyboard-response", "trial_index": 103, "time_elapsed": 329217, "internal_node_id": "0.0-6.0-8.0"}}, {"uniqueid": "w51028437:a37555889", "current_trial": 104, "dateTime": 1664555487604, "trialdata": {"rt": 982, "stimulus": "<p id='stroop-text' class='stroop-blue'>BLUE</p>", "response": "b", "stimulus-type": "congruent", "word": "blue", "color": "blue", "correct_response": "b", "trial_id": "stroop-trial-1-congruent-20", "trial_type": "html-keyboard-response", "trial_index": 104, "time_elapsed": 330705, "internal_node_id": "0.0-6.0-9.0"}}, {"uniqueid": "w51028437:a37555889", "current_trial": 105, "dateTime": 1664555488756, "trialdata": {"rt": 644, "stimulus": "<p id='stroop-text' class='stroop-yellow'>YELLOW</p>", "response": "y", "stimulus-type": "congruent", "word": "yellow", "color": "yellow", "correct_response": "y", "trial_id": "stroop-trial-1-congruent-25", "trial_type": "html-keyboard-response", "trial_index": 105, "time_elapsed": 331857, "internal_node_id": "0.0-6.0-10.0"}}, {"uniqueid": "w51028437:a37555889", "current_trial": 106, "dateTime": 1664555489876, "trialdata": {"rt": 614, "stimulus": "<p id='stroop-text' class='stroop-red'>DOG</p>", "response": "r", "stimulus-type": "unrelated", "word": "DOG", "color": "red", "correct_response": "r", "trial_id": "stroop-trial-1-unrelated-9", "trial_type": "html-keyboard-response", "trial_index": 106, "time_elapsed": 332977, "internal_node_id": "0.0-6.0-11.0"}}, {"uniqueid": "w51028437:a37555889", "current_trial": 107, "dateTime": 1664555491108, "trialdata": {"rt": 721, "stimulus": "<p id='stroop-text' class='stroop-green'>YELLOW</p>", "response": "g", "stimulus-type": "incongruent", "word": "yellow", "color": "green", "correct_response": "g", "trial_id": "stroop-trial-1-incongruent-26", "trial_type": "html-keyboard-response", "trial_index": 107, "time_elapsed": 334209, "internal_node_id": "0.0-6.0-12.0"}}, {"uniqueid": "w51028437:a37555889", "current_trial": 108, "dateTime": 1664555492676, "trialdata": {"rt": 1063, "stimulus": "<p id='stroop-text' class='stroop-red'>BLUE</p>", "response": "r", "stimulus-type": "incongruent", "word": "blue", "color": "red", "correct_response": "r", "trial_id": "stroop-trial-1-incongruent-20", "trial_type": "html-keyboard-response", "trial_index": 108, "time_elapsed": 335777, "internal_node_id": "0.0-6.0-13.0"}}, {"uniqueid": "w51028437:a37555889", "current_trial": 109, "dateTime": 1664555493684, "trialdata": {"rt": 502, "stimulus": "<p id='stroop-text' class='stroop-red'>SHIP</p>", "response": "r", "stimulus-type": "unrelated", "word": "SHIP", "color": "red", "correct_response": "r", "trial_id": "stroop-trial-1-unrelated-2", "trial_type": "html-keyboard-response", "trial_index": 109, "time_elapsed": 336786, "internal_node_id": "0.0-6.0-14.0"}}, {"uniqueid": "w51028437:a37555889", "current_trial": 110, "dateTime": 1664555494628, "trialdata": {"rt": 437, "stimulus": "<p id='stroop-text' class='stroop-red'>BLUE</p>", "response": "r", "stimulus-type": "incongruent", "word": "blue", "color": "red", "correct_response": "r", "trial_id": "stroop-trial-1-incongruent-17", "trial_type": "html-keyboard-response", "trial_index": 110, "time_elapsed": 337729, "internal_node_id": "0.0-6.0-15.0"}}, {"uniqueid": "w51028437:a37555889", "current_trial": 111, "dateTime": 1664555495876, "trialdata": {"rt": 743, "stimulus": "<p id='stroop-text' class='stroop-yellow'>STONE</p>", "response": "y", "stimulus-type": "unrelated", "word": "STONE", "color": "yellow", "correct_response": "y", "trial_id": "stroop-trial-1-unrelated-1", "trial_type": "html-keyboard-response", "trial_index": 111, "time_elapsed": 338978, "internal_node_id": "0.0-6.0-16.0"}}, {"uniqueid": "w51028437:a37555889", "current_trial": 112, "dateTime": 1664555497060, "trialdata": {"rt": 677, "stimulus": "<p id='stroop-text' class='stroop-green'>BRAIN</p>", "response": "g", "stimulus-type": "unrelated", "word": "BRAIN", "color": "green", "correct_response": "g", "trial_id": "stroop-trial-1-unrelated-26", "trial_type": "html-keyboard-response", "trial_index": 112, "time_elapsed": 340161, "internal_node_id": "0.0-6.0-17.0"}}, {"uniqueid": "w51028437:a37555889", "current_trial": 113, "dateTime": 1664555498308, "trialdata": {"rt": 743, "stimulus": "<p id='stroop-text' class='stroop-yellow'>GREEN</p>", "response": "y", "stimulus-type": "incongruent", "word": "green", "color": "yellow", "correct_response": "y", "trial_id": "stroop-trial-1-incongruent-22", "trial_type": "html-keyboard-response", "trial_index": 113, "time_elapsed": 341409, "internal_node_id": "0.0-6.0-18.0"}}, {"uniqueid": "w51028437:a37555889", "current_trial": 114, "dateTime": 1664555499268, "trialdata": {"rt": 454, "stimulus": "<p id='stroop-text' class='stroop-yellow'>YELLOW</p>", "response": "y", "stimulus-type": "congruent", "word": "yellow", "color": "yellow", "correct_response": "y", "trial_id": "stroop-trial-1-congruent-12", "trial_type": "html-keyboard-response", "trial_index": 114, "time_elapsed": 342369, "internal_node_id": "0.0-6.0-19.0"}}, {"uniqueid": "w51028437:a37555889", "current_trial": 115, "dateTime": 1664555500516, "trialdata": {"rt": 742, "stimulus": "<p id='stroop-text' class='stroop-blue'>CHAIR</p>", "response": "g", "stimulus-type": "unrelated", "word": "CHAIR", "color": "blue", "correct_response": "b", "trial_id": "stroop-trial-1-unrelated-22", "trial_type": "html-keyboard-response", "trial_index": 115, "time_elapsed": 343617, "internal_node_id": "0.0-6.0-20.0"}}, {"uniqueid": "w51028437:a37555889", "current_trial": 116, "dateTime": 1664555502164, "trialdata": {"rt": 1142, "stimulus": "<p id='stroop-text' class='stroop-yellow'>YELLOW</p>", "response": "y", "stimulus-type": "congruent", "word": "yellow", "color": "yellow", "correct_response": "y", "trial_id": "stroop-trial-1-congruent-29", "trial_type": "html-keyboard-response", "trial_index": 116, "time_elapsed": 345265, "internal_node_id": "0.0-6.0-21.0"}}, {"uniqueid": "w51028437:a37555889", "current_trial": 117, "dateTime": 1664555503332, "trialdata": {"rt": 660, "stimulus": "<p id='stroop-text' class='stroop-blue'>STONE</p>", "response": "g", "stimulus-type": "unrelated", "word": "STONE", "color": "blue", "correct_response": "b", "trial_id": "stroop-trial-1-unrelated-10", "trial_type": "html-keyboard-response", "trial_index": 117, "time_elapsed": 346433, "internal_node_id": "0.0-6.0-22.0"}}, {"uniqueid": "w51028437:a37555889", "current_trial": 118, "dateTime": 1664555505220, "trialdata": {"rt": 1382, "stimulus": "<p id='stroop-text' class='stroop-yellow'>YELLOW</p>", "response": "y", "stimulus-type": "congruent", "word": "yellow", "color": "yellow", "correct_response": "y", "trial_id": "stroop-trial-1-congruent-4", "trial_type": "html-keyboard-response", "trial_index": 118, "time_elapsed": 348321, "internal_node_id": "0.0-6.0-23.0"}}, {"uniqueid": "w51028437:a37555889", "current_trial": 119, "dateTime": 1664555506804, "trialdata": {"rt": 1078, "stimulus": "<p id='stroop-text' class='stroop-green'>YELLOW</p>", "response": "g", "stimulus-type": "incongruent", "word": "yellow", "color": "green", "correct_response": "g", "trial_id": "stroop-trial-1-incongruent-30", "trial_type": "html-keyboard-response", "trial_index": 119, "time_elapsed": 349906, "internal_node_id": "0.0-6.0-24.0"}}, {"uniqueid": "w51028437:a37555889", "current_trial": 120, "dateTime": 1664555509284, "trialdata": {"rt": 1972, "stimulus": "<p id='stroop-text' class='stroop-yellow'>SHIP</p>", "response": "y", "stimulus-type": "unrelated", "word": "SHIP", "color": "yellow", "correct_response": "y", "trial_id": "stroop-trial-1-unrelated-11", "trial_type": "html-keyboard-response", "trial_index": 120, "time_elapsed": 352385, "internal_node_id": "0.0-6.0-25.0"}}, {"uniqueid": "w51028437:a37555889", "current_trial": 121, "dateTime": 1664555510708, "trialdata": {"rt": 917, "stimulus": "<p id='stroop-text' class='stroop-green'>RED</p>", "response": "g", "stimulus-type": "incongruent", "word": "red", "color": "green", "correct_response": "g", "trial_id": "stroop-trial-1-incongruent-18", "trial_type": "html-keyboard-response", "trial_index": 121, "time_elapsed": 353809, "internal_node_id": "0.0-6.0-26.0"}}, {"uniqueid": "w51028437:a37555889", "current_trial": 122, "dateTime": 1664555511892, "trialdata": {"rt": 678, "stimulus": "<p id='stroop-text' class='stroop-red'>GREEN</p>", "response": "r", "stimulus-type": "incongruent", "word": "green", "color": "red", "correct_response": "r", "trial_id": "stroop-trial-1-incongruent-29", "trial_type": "html-keyboard-response", "trial_index": 122, "time_elapsed": 354993, "internal_node_id": "0.0-6.0-27.0"}}, {"uniqueid": "w51028437:a37555889", "current_trial": 123, "dateTime": 1664555513604, "trialdata": {"rt": 1205, "stimulus": "<p id='stroop-text' class='stroop-yellow'>DOG</p>", "response": "y", "stimulus-type": "unrelated", "word": "DOG", "color": "yellow", "correct_response": "y", "trial_id": "stroop-trial-1-unrelated-29", "trial_type": "html-keyboard-response", "trial_index": 123, "time_elapsed": 356705, "internal_node_id": "0.0-6.0-28.0"}}, {"uniqueid": "w51028437:a37555889", "current_trial": 124, "dateTime": 1664555516148, "trialdata": {"rt": 2039, "stimulus": "<p id='stroop-text' class='stroop-green'>BRAIN</p>", "response": "g", "stimulus-type": "unrelated", "word": "BRAIN", "color": "green", "correct_response": "g", "trial_id": "stroop-trial-1-unrelated-27", "trial_type": "html-keyboard-response", "trial_index": 124, "time_elapsed": 359249, "internal_node_id": "0.0-6.0-29.0"}}, {"uniqueid": "w51028437:a37555889", "current_trial": 125, "dateTime": 1664555518964, "trialdata": {"rt": 2310, "stimulus": "<p id='stroop-text' class='stroop-yellow'>GREEN</p>", "response": "y", "stimulus-type": "incongruent", "word": "green", "color": "yellow", "correct_response": "y", "trial_id": "stroop-trial-1-incongruent-9", "trial_type": "html-keyboard-response", "trial_index": 125, "time_elapsed": 362066, "internal_node_id": "0.0-6.0-30.0"}}, {"uniqueid": "w51028437:a37555889", "current_trial": 126, "dateTime": 1664555520100, "trialdata": {"rt": 629, "stimulus": "<p id='stroop-text' class='stroop-red'>DOG</p>", "response": "r", "stimulus-type": "unrelated", "word": "DOG", "color": "red", "correct_response": "r", "trial_id": "stroop-trial-1-unrelated-14", "trial_type": "html-keyboard-response", "trial_index": 126, "time_elapsed": 363201, "internal_node_id": "0.0-6.0-31.0"}}, {"uniqueid": "w51028437:a37555889", "current_trial": 127, "dateTime": 1664555521156, "trialdata": {"rt": 550, "stimulus": "<p id='stroop-text' class='stroop-red'>BLUE</p>", "response": "r", "stimulus-type": "incongruent", "word": "blue", "color": "red", "correct_response": "r", "trial_id": "stroop-trial-1-incongruent-21", "trial_type": "html-keyboard-response", "trial_index": 127, "time_elapsed": 364257, "internal_node_id": "0.0-6.0-32.0"}}, {"uniqueid": "w51028437:a37555889", "current_trial": 128, "dateTime": 1664555522628, "trialdata": {"rt": 964, "stimulus": "<p id='stroop-text' class='stroop-green'>GREEN</p>", "response": "g", "stimulus-type": "congruent", "word": "green", "color": "green", "correct_response": "g", "trial_id": "stroop-trial-1-congruent-17", "trial_type": "html-keyboard-response", "trial_index": 128, "time_elapsed": 365729, "internal_node_id": "0.0-6.0-33.0"}}, {"uniqueid": "w51028437:a37555889", "current_trial": 129, "dateTime": 1664555523748, "trialdata": {"rt": 615, "stimulus": "<p id='stroop-text' class='stroop-green'>GREEN</p>", "response": "g", "stimulus-type": "congruent", "word": "green", "color": "green", "correct_response": "g", "trial_id": "stroop-trial-1-congruent-26", "trial_type": "html-keyboard-response", "trial_index": 129, "time_elapsed": 366849, "internal_node_id": "0.0-6.0-34.0"}}, {"uniqueid": "w51028437:a37555889", "current_trial": 130, "dateTime": 1664555524932, "trialdata": {"rt": 678, "stimulus": "<p id='stroop-text' class='stroop-yellow'>YELLOW</p>", "response": "y", "stimulus-type": "congruent", "word": "yellow", "color": "yellow", "correct_response": "y", "trial_id": "stroop-trial-1-congruent-8", "trial_type": "html-keyboard-response", "trial_index": 130, "time_elapsed": 368033, "internal_node_id": "0.0-6.0-35.0"}}, {"uniqueid": "w51028437:a37555889", "current_trial": 131, "dateTime": 1664555526084, "trialdata": {"rt": 646, "stimulus": "<p id='stroop-text' class='stroop-green'>BLUE</p>", "response": "g", "stimulus-type": "incongruent", "word": "blue", "color": "green", "correct_response": "g", "trial_id": "stroop-trial-1-incongruent-15", "trial_type": "html-keyboard-response", "trial_index": 131, "time_elapsed": 369185, "internal_node_id": "0.0-6.0-36.0"}}, {"uniqueid": "w51028437:a37555889", "current_trial": 132, "dateTime": 1664555527204, "trialdata": {"rt": 609, "stimulus": "<p id='stroop-text' class='stroop-yellow'>YELLOW</p>", "response": "y", "stimulus-type": "congruent", "word": "yellow", "color": "yellow", "correct_response": "y", "trial_id": "stroop-trial-1-congruent-10", "trial_type": "html-keyboard-response", "trial_index": 132, "time_elapsed": 370305, "internal_node_id": "0.0-6.0-37.0"}}, {"uniqueid": "w51028437:a37555889", "current_trial": 133, "dateTime": 1664555528596, "trialdata": {"rt": 887, "stimulus": "<p id='stroop-text' class='stroop-green'>BLUE</p>", "response": "g", "stimulus-type": "incongruent", "word": "blue", "color": "green", "correct_response": "g", "trial_id": "stroop-trial-1-incongruent-11", "trial_type": "html-keyboard-response", "trial_index": 133, "time_elapsed": 371697, "internal_node_id": "0.0-6.0-38.0"}}, {"uniqueid": "w51028437:a37555889", "current_trial": 134, "dateTime": 1664555529780, "trialdata": {"rt": 677, "stimulus": "<p id='stroop-text' class='stroop-blue'>BOAT</p>", "response": "b", "stimulus-type": "unrelated", "word": "BOAT", "color": "blue", "correct_response": "b", "trial_id": "stroop-trial-1-unrelated-25", "trial_type": "html-keyboard-response", "trial_index": 134, "time_elapsed": 372881, "internal_node_id": "0.0-6.0-39.0"}}, {"uniqueid": "w51028437:a37555889", "current_trial": 135, "dateTime": 1664555531236, "trialdata": {"rt": 951, "stimulus": "<p id='stroop-text' class='stroop-green'>BOTTLE</p>", "response": "g", "stimulus-type": "unrelated", "word": "BOTTLE", "color": "green", "correct_response": "g", "trial_id": "stroop-trial-1-unrelated-16", "trial_type": "html-keyboard-response", "trial_index": 135, "time_elapsed": 374337, "internal_node_id": "0.0-6.0-40.0"}}, {"uniqueid": "w51028437:a37555889", "current_trial": 136, "dateTime": 1664555532340, "trialdata": {"rt": 597, "stimulus": "<p id='stroop-text' class='stroop-red'>RED</p>", "response": "r", "stimulus-type": "congruent", "word": "red", "color": "red", "correct_response": "r", "trial_id": "stroop-trial-1-congruent-30", "trial_type": "html-keyboard-response", "trial_index": 136, "time_elapsed": 375441, "internal_node_id": "0.0-6.0-41.0"}}, {"uniqueid": "w51028437:a37555889", "current_trial": 137, "dateTime": 1664555533396, "trialdata": {"rt": 549, "stimulus": "<p id='stroop-text' class='stroop-red'>RED</p>", "response": "r", "stimulus-type": "congruent", "word": "red", "color": "red", "correct_response": "r", "trial_id": "stroop-trial-1-congruent-14", "trial_type": "html-keyboard-response", "trial_index": 137, "time_elapsed": 376497, "internal_node_id": "0.0-6.0-42.0"}}, {"uniqueid": "w51028437:a37555889", "current_trial": 138, "dateTime": 1664555534500, "trialdata": {"rt": 596, "stimulus": "<p id='stroop-text' class='stroop-blue'>BOTTLE</p>", "response": "b", "stimulus-type": "unrelated", "word": "BOTTLE", "color": "blue", "correct_response": "b", "trial_id": "stroop-trial-1-unrelated-18", "trial_type": "html-keyboard-response", "trial_index": 138, "time_elapsed": 377601, "internal_node_id": "0.0-6.0-43.0"}}, {"uniqueid": "w51028437:a37555889", "current_trial": 139, "dateTime": 1664555535748, "trialdata": {"rt": 742, "stimulus": "<p id='stroop-text' class='stroop-yellow'>MONKEY</p>", "response": "y", "stimulus-type": "unrelated", "word": "MONKEY", "color": "yellow", "correct_response": "y", "trial_id": "stroop-trial-1-unrelated-13", "trial_type": "html-keyboard-response", "trial_index": 139, "time_elapsed": 378849, "internal_node_id": "0.0-6.0-44.0"}}, {"uniqueid": "w51028437:a37555889", "current_trial": 140, "dateTime": 1664555537124, "trialdata": {"rt": 868, "stimulus": "<p id='stroop-text' class='stroop-blue'>BOTTLE</p>", "response": "b", "stimulus-type": "unrelated", "word": "BOTTLE", "color": "blue", "correct_response": "b", "trial_id": "stroop-trial-1-unrelated-28", "trial_type": "html-keyboard-response", "trial_index": 140, "time_elapsed": 380225, "internal_node_id": "0.0-6.0-45.0"}}, {"uniqueid": "w51028437:a37555889", "current_trial": 141, "dateTime": 1664555538324, "trialdata": {"rt": 694, "stimulus": "<p id='stroop-text' class='stroop-yellow'>YELLOW</p>", "response": "y", "stimulus-type": "congruent", "word": "yellow", "color": "yellow", "correct_response": "y", "trial_id": "stroop-trial-1-congruent-16", "trial_type": "html-keyboard-response", "trial_index": 141, "time_elapsed": 381425, "internal_node_id": "0.0-6.0-46.0"}}, {"uniqueid": "w51028437:a37555889", "current_trial": 142, "dateTime": 1664555539620, "trialdata": {"rt": 788, "stimulus": "<p id='stroop-text' class='stroop-red'>BOTTLE</p>", "response": "r", "stimulus-type": "unrelated", "word": "BOTTLE", "color": "red", "correct_response": "r", "trial_id": "stroop-trial-1-unrelated-17", "trial_type": "html-keyboard-response", "trial_index": 142, "time_elapsed": 382721, "internal_node_id": "0.0-6.0-47.0"}}, {"uniqueid": "w51028437:a37555889", "current_trial": 143, "dateTime": 1664555541028, "trialdata": {"rt": 903, "stimulus": "<p id='stroop-text' class='stroop-yellow'>YELLOW</p>", "response": "y", "stimulus-type": "congruent", "word": "yellow", "color": "yellow", "correct_response": "y", "trial_id": "stroop-trial-1-congruent-6", "trial_type": "html-keyboard-response", "trial_index": 143, "time_elapsed": 384129, "internal_node_id": "0.0-6.0-48.0"}}, {"uniqueid": "w51028437:a37555889", "current_trial": 144, "dateTime": 1664555542051, "trialdata": {"rt": 513, "stimulus": "<p id='stroop-text' class='stroop-yellow'>BOAT</p>", "response": "y", "stimulus-type": "unrelated", "word": "BOAT", "color": "yellow", "correct_response": "y", "trial_id": "stroop-trial-1-unrelated-20", "trial_type": "html-keyboard-response", "trial_index": 144, "time_elapsed": 385153, "internal_node_id": "0.0-6.0-49.0"}}, {"uniqueid": "w51028437:a37555889", "current_trial": 145, "dateTime": 1664555542995, "trialdata": {"rt": 438, "stimulus": "<p id='stroop-text' class='stroop-yellow'>BLUE</p>", "response": "y", "stimulus-type": "incongruent", "word": "blue", "color": "yellow", "correct_response": "y", "trial_id": "stroop-trial-1-incongruent-23", "trial_type": "html-keyboard-response", "trial_index": 145, "time_elapsed": 386097, "internal_node_id": "0.0-6.0-50.0"}}, {"uniqueid": "w51028437:a37555889", "current_trial": 146, "dateTime": 1664555544243, "trialdata": {"rt": 742, "stimulus": "<p id='stroop-text' class='stroop-green'>YELLOW</p>", "response": "g", "stimulus-type": "incongruent", "word": "yellow", "color": "green", "correct_response": "g", "trial_id": "stroop-trial-1-incongruent-7", "trial_type": "html-keyboard-response", "trial_index": 146, "time_elapsed": 387345, "internal_node_id": "0.0-6.0-51.0"}}, {"uniqueid": "w51028437:a37555889", "current_trial": 147, "dateTime": 1664555545347, "trialdata": {"rt": 598, "stimulus": "<p id='stroop-text' class='stroop-yellow'>YELLOW</p>", "response": "y", "stimulus-type": "congruent", "word": "yellow", "color": "yellow", "correct_response": "y", "trial_id": "stroop-trial-1-congruent-3", "trial_type": "html-keyboard-response", "trial_index": 147, "time_elapsed": 388449, "internal_node_id": "0.0-6.0-52.0"}}, {"uniqueid": "w51028437:a37555889", "current_trial": 148, "dateTime": 1664555546323, "trialdata": {"rt": 468, "stimulus": "<p id='stroop-text' class='stroop-yellow'>CHAIR</p>", "response": "y", "stimulus-type": "unrelated", "word": "CHAIR", "color": "yellow", "correct_response": "y", "trial_id": "stroop-trial-1-unrelated-15", "trial_type": "html-keyboard-response", "trial_index": 148, "time_elapsed": 389424, "internal_node_id": "0.0-6.0-53.0"}}, {"uniqueid": "w51028437:a37555889", "current_trial": 149, "dateTime": 1664555547411, "trialdata": {"rt": 585, "stimulus": "<p id='stroop-text' class='stroop-red'>YELLOW</p>", "response": "r", "stimulus-type": "incongruent", "word": "yellow", "color": "red", "correct_response": "r", "trial_id": "stroop-trial-1-incongruent-5", "trial_type": "html-keyboard-response", "trial_index": 149, "time_elapsed": 390513, "internal_node_id": "0.0-6.0-54.0"}}, {"uniqueid": "w51028437:a37555889", "current_trial": 150, "dateTime": 1664555548739, "trialdata": {"rt": 822, "stimulus": "<p id='stroop-text' class='stroop-green'>BOTTLE</p>", "response": "g", "stimulus-type": "unrelated", "word": "BOTTLE", "color": "green", "correct_response": "g", "trial_id": "stroop-trial-1-unrelated-7", "trial_type": "html-keyboard-response", "trial_index": 150, "time_elapsed": 391841, "internal_node_id": "0.0-6.0-55.0"}}, {"uniqueid": "w51028437:a37555889", "current_trial": 151, "dateTime": 1664555549859, "trialdata": {"rt": 614, "stimulus": "<p id='stroop-text' class='stroop-yellow'>RED</p>", "response": "y", "stimulus-type": "incongruent", "word": "red", "color": "yellow", "correct_response": "y", "trial_id": "stroop-trial-1-incongruent-27", "trial_type": "html-keyboard-response", "trial_index": 151, "time_elapsed": 392961, "internal_node_id": "0.0-6.0-56.0"}}, {"uniqueid": "w51028437:a37555889", "current_trial": 152, "dateTime": 1664555550947, "trialdata": {"rt": 581, "stimulus": "<p id='stroop-text' class='stroop-red'>RED</p>", "response": "r", "stimulus-type": "congruent", "word": "red", "color": "red", "correct_response": "r", "trial_id": "stroop-trial-1-congruent-7", "trial_type": "html-keyboard-response", "trial_index": 152, "time_elapsed": 394049, "internal_node_id": "0.0-6.0-57.0"}}, {"uniqueid": "w51028437:a37555889", "current_trial": 153, "dateTime": 1664555552340, "trialdata": {"rt": 885, "stimulus": "<p id='stroop-text' class='stroop-green'>GREEN</p>", "response": "g", "stimulus-type": "congruent", "word": "green", "color": "green", "correct_response": "g", "trial_id": "stroop-trial-1-congruent-15", "trial_type": "html-keyboard-response", "trial_index": 153, "time_elapsed": 395441, "internal_node_id": "0.0-6.0-58.0"}}, {"uniqueid": "w51028437:a37555889", "current_trial": 154, "dateTime": 1664555553507, "trialdata": {"rt": 662, "stimulus": "<p id='stroop-text' class='stroop-yellow'>DOG</p>", "response": "y", "stimulus-type": "unrelated", "word": "DOG", "color": "yellow", "correct_response": "y", "trial_id": "stroop-trial-1-unrelated-24", "trial_type": "html-keyboard-response", "trial_index": 154, "time_elapsed": 396609, "internal_node_id": "0.0-6.0-59.0"}}, {"uniqueid": "w51028437:a37555889", "current_trial": 155, "dateTime": 1664555555699, "trialdata": {"rt": 1681, "stimulus": "<p id='stroop-text' class='stroop-green'>BLUE</p>", "response": "g", "stimulus-type": "incongruent", "word": "blue", "color": "green", "correct_response": "g", "trial_id": "stroop-trial-1-incongruent-1", "trial_type": "html-keyboard-response", "trial_index": 155, "time_elapsed": 398801, "internal_node_id": "0.0-6.0-60.0"}}, {"uniqueid": "w51028437:a37555889", "current_trial": 156, "dateTime": 1664555557891, "trialdata": {"rt": 1686, "stimulus": "<p id='stroop-text' class='stroop-red'>RED</p>", "response": "r", "stimulus-type": "congruent", "word": "red", "color": "red", "correct_response": "r", "trial_id": "stroop-trial-1-congruent-23", "trial_type": "html-keyboard-response", "trial_index": 156, "time_elapsed": 400993, "internal_node_id": "0.0-6.0-61.0"}}, {"uniqueid": "w51028437:a37555889", "current_trial": 157, "dateTime": 1664555558979, "trialdata": {"rt": 580, "stimulus": "<p id='stroop-text' class='stroop-blue'>GREEN</p>", "response": "b", "stimulus-type": "incongruent", "word": "green", "color": "blue", "correct_response": "b", "trial_id": "stroop-trial-1-incongruent-24", "trial_type": "html-keyboard-response", "trial_index": 157, "time_elapsed": 402081, "internal_node_id": "0.0-6.0-62.0"}}, {"uniqueid": "w51028437:a37555889", "current_trial": 158, "dateTime": 1664555560003, "trialdata": {"rt": 519, "stimulus": "<p id='stroop-text' class='stroop-blue'>RED</p>", "response": "b", "stimulus-type": "incongruent", "word": "red", "color": "blue", "correct_response": "b", "trial_id": "stroop-trial-1-incongruent-3", "trial_type": "html-keyboard-response", "trial_index": 158, "time_elapsed": 403105, "internal_node_id": "0.0-6.0-63.0"}}, {"uniqueid": "w51028437:a37555889", "current_trial": 159, "dateTime": 1664555561059, "trialdata": {"rt": 539, "stimulus": "<p id='stroop-text' class='stroop-blue'>YELLOW</p>", "response": "b", "stimulus-type": "incongruent", "word": "yellow", "color": "blue", "correct_response": "b", "trial_id": "stroop-trial-1-incongruent-19", "trial_type": "html-keyboard-response", "trial_index": 159, "time_elapsed": 404161, "internal_node_id": "0.0-6.0-64.0"}}, {"uniqueid": "w51028437:a37555889", "current_trial": 160, "dateTime": 1664555562291, "trialdata": {"rt": 726, "stimulus": "<p id='stroop-text' class='stroop-red'>YELLOW</p>", "response": "r", "stimulus-type": "incongruent", "word": "yellow", "color": "red", "correct_response": "r", "trial_id": "stroop-trial-1-incongruent-16", "trial_type": "html-keyboard-response", "trial_index": 160, "time_elapsed": 405393, "internal_node_id": "0.0-6.0-65.0"}}, {"uniqueid": "w51028437:a37555889", "current_trial": 161, "dateTime": 1664555563588, "trialdata": {"rt": 790, "stimulus": "<p id='stroop-text' class='stroop-blue'>DOG</p>", "response": "b", "stimulus-type": "unrelated", "word": "DOG", "color": "blue", "correct_response": "b", "trial_id": "stroop-trial-1-unrelated-8", "trial_type": "html-keyboard-response", "trial_index": 161, "time_elapsed": 406689, "internal_node_id": "0.0-6.0-66.0"}}, {"uniqueid": "w51028437:a37555889", "current_trial": 162, "dateTime": 1664555564995, "trialdata": {"rt": 900, "stimulus": "<p id='stroop-text' class='stroop-green'>MONKEY</p>", "response": "g", "stimulus-type": "unrelated", "word": "MONKEY", "color": "green", "correct_response": "g", "trial_id": "stroop-trial-1-unrelated-21", "trial_type": "html-keyboard-response", "trial_index": 162, "time_elapsed": 408097, "internal_node_id": "0.0-6.0-67.0"}}, {"uniqueid": "w51028437:a37555889", "current_trial": 163, "dateTime": 1664555566019, "trialdata": {"rt": 519, "stimulus": "<p id='stroop-text' class='stroop-green'>BLUE</p>", "response": "g", "stimulus-type": "incongruent", "word": "blue", "color": "green", "correct_response": "g", "trial_id": "stroop-trial-1-incongruent-25", "trial_type": "html-keyboard-response", "trial_index": 163, "time_elapsed": 409121, "internal_node_id": "0.0-6.0-68.0"}}, {"uniqueid": "w51028437:a37555889", "current_trial": 164, "dateTime": 1664555567667, "trialdata": {"rt": 1142, "stimulus": "<p id='stroop-text' class='stroop-red'>STONE</p>", "response": "b", "stimulus-type": "unrelated", "word": "STONE", "color": "red", "correct_response": "r", "trial_id": "stroop-trial-1-unrelated-23", "trial_type": "html-keyboard-response", "trial_index": 164, "time_elapsed": 410769, "internal_node_id": "0.0-6.0-69.0"}}, {"uniqueid": "w51028437:a37555889", "current_trial": 165, "dateTime": 1664555569075, "trialdata": {"rt": 901, "stimulus": "<p id='stroop-text' class='stroop-red'>RED</p>", "response": "r", "stimulus-type": "congruent", "word": "red", "color": "red", "correct_response": "r", "trial_id": "stroop-trial-1-congruent-13", "trial_type": "html-keyboard-response", "trial_index": 165, "time_elapsed": 412177, "internal_node_id": "0.0-6.0-70.0"}}, {"uniqueid": "w51028437:a37555889", "current_trial": 166, "dateTime": 1664555570243, "trialdata": {"rt": 663, "stimulus": "<p id='stroop-text' class='stroop-blue'>STONE</p>", "response": "b", "stimulus-type": "unrelated", "word": "STONE", "color": "blue", "correct_response": "b", "trial_id": "stroop-trial-1-unrelated-30", "trial_type": "html-keyboard-response", "trial_index": 166, "time_elapsed": 413345, "internal_node_id": "0.0-6.0-71.0"}}, {"uniqueid": "w51028437:a37555889", "current_trial": 167, "dateTime": 1664555571411, "trialdata": {"rt": 656, "stimulus": "<p id='stroop-text' class='stroop-yellow'>FORK</p>", "response": "y", "stimulus-type": "unrelated", "word": "FORK", "color": "yellow", "correct_response": "y", "trial_id": "stroop-trial-1-unrelated-19", "trial_type": "html-keyboard-response", "trial_index": 167, "time_elapsed": 414513, "internal_node_id": "0.0-6.0-72.0"}}, {"uniqueid": "w51028437:a37555889", "current_trial": 168, "dateTime": 1664555572675, "trialdata": {"rt": 757, "stimulus": "<p id='stroop-text' class='stroop-green'>YELLOW</p>", "response": "g", "stimulus-type": "incongruent", "word": "yellow", "color": "green", "correct_response": "g", "trial_id": "stroop-trial-1-incongruent-13", "trial_type": "html-keyboard-response", "trial_index": 168, "time_elapsed": 415777, "internal_node_id": "0.0-6.0-73.0"}}, {"uniqueid": "w51028437:a37555889", "current_trial": 169, "dateTime": 1664555574131, "trialdata": {"rt": 949, "stimulus": "<p id='stroop-text' class='stroop-yellow'>YELLOW</p>", "response": "y", "stimulus-type": "congruent", "word": "yellow", "color": "yellow", "correct_response": "y", "trial_id": "stroop-trial-1-congruent-24", "trial_type": "html-keyboard-response", "trial_index": 169, "time_elapsed": 417233, "internal_node_id": "0.0-6.0-74.0"}}, {"uniqueid": "w51028437:a37555889", "current_trial": 170, "dateTime": 1664555575411, "trialdata": {"rt": 775, "stimulus": "<p id='stroop-text' class='stroop-red'>GREEN</p>", "response": "r", "stimulus-type": "incongruent", "word": "green", "color": "red", "correct_response": "r", "trial_id": "stroop-trial-1-incongruent-12", "trial_type": "html-keyboard-response", "trial_index": 170, "time_elapsed": 418513, "internal_node_id": "0.0-6.0-75.0"}}, {"uniqueid": "w51028437:a37555889", "current_trial": 171, "dateTime": 1664555576499, "trialdata": {"rt": 582, "stimulus": "<p id='stroop-text' class='stroop-red'>RED</p>", "response": "r", "stimulus-type": "congruent", "word": "red", "color": "red", "correct_response": "r", "trial_id": "stroop-trial-1-congruent-27", "trial_type": "html-keyboard-response", "trial_index": 171, "time_elapsed": 419601, "internal_node_id": "0.0-6.0-76.0"}}, {"uniqueid": "w51028437:a37555889", "current_trial": 172, "dateTime": 1664555578355, "trialdata": {"rt": 1340, "stimulus": "<p id='stroop-text' class='stroop-yellow'>BLUE</p>", "response": "b", "stimulus-type": "incongruent", "word": "blue", "color": "yellow", "correct_response": "y", "trial_id": "stroop-trial-1-incongruent-2", "trial_type": "html-keyboard-response", "trial_index": 172, "time_elapsed": 421457, "internal_node_id": "0.0-6.0-77.0"}}, {"uniqueid": "w51028437:a37555889", "current_trial": 173, "dateTime": 1664555581171, "trialdata": {"rt": 2307, "stimulus": "<p id='stroop-text' class='stroop-green'>GREEN</p>", "response": "g", "stimulus-type": "congruent", "word": "green", "color": "green", "correct_response": "g", "trial_id": "stroop-trial-1-congruent-11", "trial_type": "html-keyboard-response", "trial_index": 173, "time_elapsed": 424273, "internal_node_id": "0.0-6.0-78.0"}}, {"uniqueid": "w51028437:a37555889", "current_trial": 174, "dateTime": 1664555583667, "trialdata": {"rt": 1989, "stimulus": "<p id='stroop-text' class='stroop-red'>GREEN</p>", "response": "r", "stimulus-type": "incongruent", "word": "green", "color": "red", "correct_response": "r", "trial_id": "stroop-trial-1-incongruent-28", "trial_type": "html-keyboard-response", "trial_index": 174, "time_elapsed": 426769, "internal_node_id": "0.0-6.0-79.0"}}, {"uniqueid": "w51028437:a37555889", "current_trial": 175, "dateTime": 1664555585828, "trialdata": {"rt": 1654, "stimulus": "<p id='stroop-text' class='stroop-green'>BLUE</p>", "response": "g", "stimulus-type": "incongruent", "word": "blue", "color": "green", "correct_response": "g", "trial_id": "stroop-trial-1-incongruent-6", "trial_type": "html-keyboard-response", "trial_index": 175, "time_elapsed": 428929, "internal_node_id": "0.0-6.0-80.0"}}, {"uniqueid": "w51028437:a37555889", "current_trial": 176, "dateTime": 1664555586883, "trialdata": {"rt": 549, "stimulus": "<p id='stroop-text' class='stroop-green'>GREEN</p>", "response": "g", "stimulus-type": "congruent", "word": "green", "color": "green", "correct_response": "g", "trial_id": "stroop-trial-1-congruent-18", "trial_type": "html-keyboard-response", "trial_index": 176, "time_elapsed": 429985, "internal_node_id": "0.0-6.0-81.0"}}, {"uniqueid": "w51028437:a37555889", "current_trial": 177, "dateTime": 1664555588723, "trialdata": {"rt": 1320, "stimulus": "<p id='stroop-text' class='stroop-red'>WINDOW</p>", "response": "r", "stimulus-type": "unrelated", "word": "WINDOW", "color": "red", "correct_response": "r", "trial_id": "stroop-trial-1-unrelated-3", "trial_type": "html-keyboard-response", "trial_index": 177, "time_elapsed": 431825, "internal_node_id": "0.0-6.0-82.0"}}, {"uniqueid": "w51028437:a37555889", "current_trial": 178, "dateTime": 1664555590211, "trialdata": {"rt": 980, "stimulus": "<p id='stroop-text' class='stroop-green'>WINDOW</p>", "response": "g", "stimulus-type": "unrelated", "word": "WINDOW", "color": "green", "correct_response": "g", "trial_id": "stroop-trial-1-unrelated-12", "trial_type": "html-keyboard-response", "trial_index": 178, "time_elapsed": 433312, "internal_node_id": "0.0-6.0-83.0"}}, {"uniqueid": "w51028437:a37555889", "current_trial": 179, "dateTime": 1664555591267, "trialdata": {"rt": 551, "stimulus": "<p id='stroop-text' class='stroop-blue'>BOTTLE</p>", "response": "b", "stimulus-type": "unrelated", "word": "BOTTLE", "color": "blue", "correct_response": "b", "trial_id": "stroop-trial-1-unrelated-4", "trial_type": "html-keyboard-response", "trial_index": 179, "time_elapsed": 434369, "internal_node_id": "0.0-6.0-84.0"}}, {"uniqueid": "w51028437:a37555889", "current_trial": 180, "dateTime": 1664555592387, "trialdata": {"rt": 613, "stimulus": "<p id='stroop-text' class='stroop-blue'>BLUE</p>", "response": "b", "stimulus-type": "congruent", "word": "blue", "color": "blue", "correct_response": "b", "trial_id": "stroop-trial-1-congruent-21", "trial_type": "html-keyboard-response", "trial_index": 180, "time_elapsed": 435489, "internal_node_id": "0.0-6.0-85.0"}}, {"uniqueid": "w51028437:a37555889", "current_trial": 181, "dateTime": 1664555593619, "trialdata": {"rt": 725, "stimulus": "<p id='stroop-text' class='stroop-red'>RED</p>", "response": "r", "stimulus-type": "congruent", "word": "red", "color": "red", "correct_response": "r", "trial_id": "stroop-trial-1-congruent-5", "trial_type": "html-keyboard-response", "trial_index": 181, "time_elapsed": 436721, "internal_node_id": "0.0-6.0-86.0"}}, {"uniqueid": "w51028437:a37555889", "current_trial": 182, "dateTime": 1664555595507, "trialdata": {"rt": 1381, "stimulus": "<p id='stroop-text' class='stroop-blue'>BLUE</p>", "response": "g", "stimulus-type": "congruent", "word": "blue", "color": "blue", "correct_response": "b", "trial_id": "stroop-trial-1-congruent-1", "trial_type": "html-keyboard-response", "trial_index": 182, "time_elapsed": 438609, "internal_node_id": "0.0-6.0-87.0"}}, {"uniqueid": "w51028437:a37555889", "current_trial": 183, "dateTime": 1664555597060, "trialdata": {"rt": 1044, "stimulus": "<p id='stroop-text' class='stroop-yellow'>BOTTLE</p>", "response": "y", "stimulus-type": "unrelated", "word": "BOTTLE", "color": "yellow", "correct_response": "y", "trial_id": "stroop-trial-1-unrelated-5", "trial_type": "html-keyboard-response", "trial_index": 183, "time_elapsed": 440161, "internal_node_id": "0.0-6.0-88.0"}}, {"uniqueid": "w51028437:a37555889", "current_trial": 184, "dateTime": 1664555598355, "trialdata": {"rt": 789, "stimulus": "<p id='stroop-text' class='stroop-red'>RED</p>", "response": "r", "stimulus-type": "congruent", "word": "red", "color": "red", "correct_response": "r", "trial_id": "stroop-trial-1-congruent-2", "trial_type": "html-keyboard-response", "trial_index": 184, "time_elapsed": 441456, "internal_node_id": "0.0-6.0-89.0"}}, {"uniqueid": "w51028437:a37555889", "current_trial": 185, "dateTime": 1664555601411, "trialdata": {"rt": 2550, "stimulus": "  <h1> End of block! </h1>\n\n  You have reached the end of the block 2/5. If you need a short break, feel free to take one now before moving on.\n\n  <br><br>\n  In the next block, you will complete another 90 rounds of this game.\n\n  <br><br>\n  <div style='text-align: center;'>Press <code>space</code> to begin.</div>\n  <br><br>\n<div style='text-align: center;'>(If the experiment doesn't continue, try clicking on the text and then pressing <code>space</code>.)</div>", "response": " ", "trial_id": "stroop_1_ready_3", "trial_type": "html-keyboard-response", "trial_index": 185, "time_elapsed": 444513, "internal_node_id": "0.0-7.0"}}, {"uniqueid": "w51028437:a37555889", "current_trial": 186, "dateTime": 1664555602451, "trialdata": {"rt": 1033, "stimulus": "<p id='stroop-text' class='stroop-green'>BRIDGE</p>", "response": "g", "stimulus-type": "unrelated", "word": "BRIDGE", "color": "green", "correct_response": "g", "trial_id": "stroop-trial-1-unrelated-29", "trial_type": "html-keyboard-response", "trial_index": 186, "time_elapsed": 445553, "internal_node_id": "0.0-8.0-0.0"}}, {"uniqueid": "w51028437:a37555889", "current_trial": 187, "dateTime": 1664555603843, "trialdata": {"rt": 884, "stimulus": "<p id='stroop-text' class='stroop-yellow'>DOG</p>", "response": "y", "stimulus-type": "unrelated", "word": "DOG", "color": "yellow", "correct_response": "y", "trial_id": "stroop-trial-1-unrelated-9", "trial_type": "html-keyboard-response", "trial_index": 187, "time_elapsed": 446945, "internal_node_id": "0.0-8.0-1.0"}}, {"uniqueid": "w51028437:a37555889", "current_trial": 188, "dateTime": 1664555605491, "trialdata": {"rt": 1140, "stimulus": "<p id='stroop-text' class='stroop-blue'>BOTTLE</p>", "response": "b", "stimulus-type": "unrelated", "word": "BOTTLE", "color": "blue", "correct_response": "b", "trial_id": "stroop-trial-1-unrelated-4", "trial_type": "html-keyboard-response", "trial_index": 188, "time_elapsed": 448593, "internal_node_id": "0.0-8.0-2.0"}}, {"uniqueid": "w51028437:a37555889", "current_trial": 189, "dateTime": 1664555607124, "trialdata": {"rt": 1125, "stimulus": "<p id='stroop-text' class='stroop-green'>GREEN</p>", "response": "g", "stimulus-type": "congruent", "word": "green", "color": "green", "correct_response": "g", "trial_id": "stroop-trial-1-congruent-26", "trial_type": "html-keyboard-response", "trial_index": 189, "time_elapsed": 450226, "internal_node_id": "0.0-8.0-3.0"}}, {"uniqueid": "w51028437:a37555889", "current_trial": 190, "dateTime": 1664555608307, "trialdata": {"rt": 675, "stimulus": "<p id='stroop-text' class='stroop-blue'>BLUE</p>", "response": "b", "stimulus-type": "congruent", "word": "blue", "color": "blue", "correct_response": "b", "trial_id": "stroop-trial-1-congruent-27", "trial_type": "html-keyboard-response", "trial_index": 190, "time_elapsed": 451409, "internal_node_id": "0.0-8.0-4.0"}}, {"uniqueid": "w51028437:a37555889", "current_trial": 191, "dateTime": 1664555609380, "trialdata": {"rt": 565, "stimulus": "<p id='stroop-text' class='stroop-blue'>BLUE</p>", "response": "b", "stimulus-type": "congruent", "word": "blue", "color": "blue", "correct_response": "b", "trial_id": "stroop-trial-1-congruent-10", "trial_type": "html-keyboard-response", "trial_index": 191, "time_elapsed": 452481, "internal_node_id": "0.0-8.0-5.0"}}, {"uniqueid": "w51028437:a37555889", "current_trial": 192, "dateTime": 1664555610709, "trialdata": {"rt": 821, "stimulus": "<p id='stroop-text' class='stroop-blue'>SHIP</p>", "response": "b", "stimulus-type": "unrelated", "word": "SHIP", "color": "blue", "correct_response": "b", "trial_id": "stroop-trial-1-unrelated-11", "trial_type": "html-keyboard-response", "trial_index": 192, "time_elapsed": 453811, "internal_node_id": "0.0-8.0-6.0"}}, {"uniqueid": "w51028437:a37555889", "current_trial": 193, "dateTime": 1664555611763, "trialdata": {"rt": 546, "stimulus": "<p id='stroop-text' class='stroop-blue'>SHIP</p>", "response": "b", "stimulus-type": "unrelated", "word": "SHIP", "color": "blue", "correct_response": "b", "trial_id": "stroop-trial-1-unrelated-28", "trial_type": "html-keyboard-response", "trial_index": 193, "time_elapsed": 454865, "internal_node_id": "0.0-8.0-7.0"}}, {"uniqueid": "w51028437:a37555889", "current_trial": 194, "dateTime": 1664555612963, "trialdata": {"rt": 694, "stimulus": "<p id='stroop-text' class='stroop-red'>BLUE</p>", "response": "r", "stimulus-type": "incongruent", "word": "blue", "color": "red", "correct_response": "r", "trial_id": "stroop-trial-1-incongruent-23", "trial_type": "html-keyboard-response", "trial_index": 194, "time_elapsed": 456065, "internal_node_id": "0.0-8.0-8.0"}}, {"uniqueid": "w51028437:a37555889", "current_trial": 195, "dateTime": 1664555614115, "trialdata": {"rt": 645, "stimulus": "<p id='stroop-text' class='stroop-green'>DOG</p>", "response": "g", "stimulus-type": "unrelated", "word": "DOG", "color": "green", "correct_response": "g", "trial_id": "stroop-trial-1-unrelated-22", "trial_type": "html-keyboard-response", "trial_index": 195, "time_elapsed": 457217, "internal_node_id": "0.0-8.0-9.0"}}, {"uniqueid": "w51028437:a37555889", "current_trial": 196, "dateTime": 1664555615236, "trialdata": {"rt": 613, "stimulus": "<p id='stroop-text' class='stroop-blue'>BLUE</p>", "response": "b", "stimulus-type": "congruent", "word": "blue", "color": "blue", "correct_response": "b", "trial_id": "stroop-trial-1-congruent-29", "trial_type": "html-keyboard-response", "trial_index": 196, "time_elapsed": 458337, "internal_node_id": "0.0-8.0-10.0"}}, {"uniqueid": "w51028437:a37555889", "current_trial": 197, "dateTime": 1664555616563, "trialdata": {"rt": 820, "stimulus": "<p id='stroop-text' class='stroop-green'>SHIP</p>", "response": "g", "stimulus-type": "unrelated", "word": "SHIP", "color": "green", "correct_response": "g", "trial_id": "stroop-trial-1-unrelated-10", "trial_type": "html-keyboard-response", "trial_index": 197, "time_elapsed": 459665, "internal_node_id": "0.0-8.0-11.0"}}, {"uniqueid": "w51028437:a37555889", "current_trial": 198, "dateTime": 1664555617652, "trialdata": {"rt": 579, "stimulus": "<p id='stroop-text' class='stroop-green'>GREEN</p>", "response": "g", "stimulus-type": "congruent", "word": "green", "color": "green", "correct_response": "g", "trial_id": "stroop-trial-1-congruent-6", "trial_type": "html-keyboard-response", "trial_index": 198, "time_elapsed": 460753, "internal_node_id": "0.0-8.0-12.0"}}, {"uniqueid": "w51028437:a37555889", "current_trial": 199, "dateTime": 1664555618803, "trialdata": {"rt": 640, "stimulus": "<p id='stroop-text' class='stroop-red'>RED</p>", "response": "r", "stimulus-type": "congruent", "word": "red", "color": "red", "correct_response": "r", "trial_id": "stroop-trial-1-congruent-5", "trial_type": "html-keyboard-response", "trial_index": 199, "time_elapsed": 461905, "internal_node_id": "0.0-8.0-13.0"}}, {"uniqueid": "w51028437:a37555889", "current_trial": 200, "dateTime": 1664555620307, "trialdata": {"rt": 990, "stimulus": "<p id='stroop-text' class='stroop-yellow'>GREEN</p>", "response": "y", "stimulus-type": "incongruent", "word": "green", "color": "yellow", "correct_response": "y", "trial_id": "stroop-trial-1-incongruent-28", "trial_type": "html-keyboard-response", "trial_index": 200, "time_elapsed": 463409, "internal_node_id": "0.0-8.0-14.0"}}, {"uniqueid": "w51028437:a37555889", "current_trial": 201, "dateTime": 1664555621443, "trialdata": {"rt": 630, "stimulus": "<p id='stroop-text' class='stroop-blue'>SHIP</p>", "response": "b", "stimulus-type": "unrelated", "word": "SHIP", "color": "blue", "correct_response": "b", "trial_id": "stroop-trial-1-unrelated-6", "trial_type": "html-keyboard-response", "trial_index": 201, "time_elapsed": 464545, "internal_node_id": "0.0-8.0-15.0"}}, {"uniqueid": "w51028437:a37555889", "current_trial": 202, "dateTime": 1664555622931, "trialdata": {"rt": 978, "stimulus": "<p id='stroop-text' class='stroop-green'>YELLOW</p>", "response": "g", "stimulus-type": "incongruent", "word": "yellow", "color": "green", "correct_response": "g", "trial_id": "stroop-trial-1-incongruent-8", "trial_type": "html-keyboard-response", "trial_index": 202, "time_elapsed": 466033, "internal_node_id": "0.0-8.0-16.0"}}, {"uniqueid": "w51028437:a37555889", "current_trial": 203, "dateTime": 1664555623955, "trialdata": {"rt": 515, "stimulus": "<p id='stroop-text' class='stroop-green'>BLUE</p>", "response": "g", "stimulus-type": "incongruent", "word": "blue", "color": "green", "correct_response": "g", "trial_id": "stroop-trial-1-incongruent-30", "trial_type": "html-keyboard-response", "trial_index": 203, "time_elapsed": 467057, "internal_node_id": "0.0-8.0-17.0"}}, {"uniqueid": "w51028437:a37555889", "current_trial": 204, "dateTime": 1664555625411, "trialdata": {"rt": 949, "stimulus": "<p id='stroop-text' class='stroop-yellow'>RED</p>", "response": "y", "stimulus-type": "incongruent", "word": "red", "color": "yellow", "correct_response": "y", "trial_id": "stroop-trial-1-incongruent-3", "trial_type": "html-keyboard-response", "trial_index": 204, "time_elapsed": 468513, "internal_node_id": "0.0-8.0-18.0"}}, {"uniqueid": "w51028437:a37555889", "current_trial": 205, "dateTime": 1664555629540, "trialdata": {"rt": 3622, "stimulus": "<p id='stroop-text' class='stroop-red'>GREEN</p>", "response": "r", "stimulus-type": "incongruent", "word": "green", "color": "red", "correct_response": "r", "trial_id": "stroop-trial-1-incongruent-11", "trial_type": "html-keyboard-response", "trial_index": 205, "time_elapsed": 472641, "internal_node_id": "0.0-8.0-19.0"}}, {"uniqueid": "w51028437:a37555889", "current_trial": 206, "dateTime": 1664555630691, "trialdata": {"rt": 643, "stimulus": "<p id='stroop-text' class='stroop-red'>BLUE</p>", "response": "r", "stimulus-type": "incongruent", "word": "blue", "color": "red", "correct_response": "r", "trial_id": "stroop-trial-1-incongruent-16", "trial_type": "html-keyboard-response", "trial_index": 206, "time_elapsed": 473793, "internal_node_id": "0.0-8.0-20.0"}}, {"uniqueid": "w51028437:a37555889", "current_trial": 207, "dateTime": 1664555631955, "trialdata": {"rt": 757, "stimulus": "<p id='stroop-text' class='stroop-yellow'>YELLOW</p>", "response": "y", "stimulus-type": "congruent", "word": "yellow", "color": "yellow", "correct_response": "y", "trial_id": "stroop-trial-1-congruent-22", "trial_type": "html-keyboard-response", "trial_index": 207, "time_elapsed": 475057, "internal_node_id": "0.0-8.0-21.0"}}, {"uniqueid": "w51028437:a37555889", "current_trial": 208, "dateTime": 1664555633075, "trialdata": {"rt": 613, "stimulus": "<p id='stroop-text' class='stroop-blue'>BLUE</p>", "response": "b", "stimulus-type": "congruent", "word": "blue", "color": "blue", "correct_response": "b", "trial_id": "stroop-trial-1-congruent-9", "trial_type": "html-keyboard-response", "trial_index": 208, "time_elapsed": 476177, "internal_node_id": "0.0-8.0-22.0"}}, {"uniqueid": "w51028437:a37555889", "current_trial": 209, "dateTime": 1664555634179, "trialdata": {"rt": 598, "stimulus": "<p id='stroop-text' class='stroop-red'>RED</p>", "response": "r", "stimulus-type": "congruent", "word": "red", "color": "red", "correct_response": "r", "trial_id": "stroop-trial-1-congruent-3", "trial_type": "html-keyboard-response", "trial_index": 209, "time_elapsed": 477280, "internal_node_id": "0.0-8.0-23.0"}}, {"uniqueid": "w51028437:a37555889", "current_trial": 210, "dateTime": 1664555635220, "trialdata": {"rt": 534, "stimulus": "<p id='stroop-text' class='stroop-red'>GREEN</p>", "response": "r", "stimulus-type": "incongruent", "word": "green", "color": "red", "correct_response": "r", "trial_id": "stroop-trial-1-incongruent-27", "trial_type": "html-keyboard-response", "trial_index": 210, "time_elapsed": 478321, "internal_node_id": "0.0-8.0-24.0"}}, {"uniqueid": "w51028437:a37555889", "current_trial": 211, "dateTime": 1664555636499, "trialdata": {"rt": 771, "stimulus": "<p id='stroop-text' class='stroop-blue'>YELLOW</p>", "response": "b", "stimulus-type": "incongruent", "word": "yellow", "color": "blue", "correct_response": "b", "trial_id": "stroop-trial-1-incongruent-17", "trial_type": "html-keyboard-response", "trial_index": 211, "time_elapsed": 479601, "internal_node_id": "0.0-8.0-25.0"}}, {"uniqueid": "w51028437:a37555889", "current_trial": 212, "dateTime": 1664555637540, "trialdata": {"rt": 531, "stimulus": "<p id='stroop-text' class='stroop-blue'>GREEN</p>", "response": "b", "stimulus-type": "incongruent", "word": "green", "color": "blue", "correct_response": "b", "trial_id": "stroop-trial-1-incongruent-26", "trial_type": "html-keyboard-response", "trial_index": 212, "time_elapsed": 480641, "internal_node_id": "0.0-8.0-26.0"}}, {"uniqueid": "w51028437:a37555889", "current_trial": 213, "dateTime": 1664555638899, "trialdata": {"rt": 852, "stimulus": "<p id='stroop-text' class='stroop-yellow'>MONKEY</p>", "response": "y", "stimulus-type": "unrelated", "word": "MONKEY", "color": "yellow", "correct_response": "y", "trial_id": "stroop-trial-1-unrelated-15", "trial_type": "html-keyboard-response", "trial_index": 213, "time_elapsed": 482001, "internal_node_id": "0.0-8.0-27.0"}}, {"uniqueid": "w51028437:a37555889", "current_trial": 214, "dateTime": 1664555641204, "trialdata": {"rt": 1797, "stimulus": "<p id='stroop-text' class='stroop-blue'>RED</p>", "response": "b", "stimulus-type": "incongruent", "word": "red", "color": "blue", "correct_response": "b", "trial_id": "stroop-trial-1-incongruent-1", "trial_type": "html-keyboard-response", "trial_index": 214, "time_elapsed": 484305, "internal_node_id": "0.0-8.0-28.0"}}, {"uniqueid": "w51028437:a37555889", "current_trial": 215, "dateTime": 1664555642563, "trialdata": {"rt": 853, "stimulus": "<p id='stroop-text' class='stroop-red'>MONKEY</p>", "response": "r", "stimulus-type": "unrelated", "word": "MONKEY", "color": "red", "correct_response": "r", "trial_id": "stroop-trial-1-unrelated-18", "trial_type": "html-keyboard-response", "trial_index": 215, "time_elapsed": 485665, "internal_node_id": "0.0-8.0-29.0"}}, {"uniqueid": "w51028437:a37555889", "current_trial": 216, "dateTime": 1664555643731, "trialdata": {"rt": 650, "stimulus": "<p id='stroop-text' class='stroop-blue'>BLUE</p>", "response": "b", "stimulus-type": "congruent", "word": "blue", "color": "blue", "correct_response": "b", "trial_id": "stroop-trial-1-congruent-2", "trial_type": "html-keyboard-response", "trial_index": 216, "time_elapsed": 486833, "internal_node_id": "0.0-8.0-30.0"}}, {"uniqueid": "w51028437:a37555889", "current_trial": 217, "dateTime": 1664555644947, "trialdata": {"rt": 707, "stimulus": "<p id='stroop-text' class='stroop-red'>BLUE</p>", "response": "r", "stimulus-type": "incongruent", "word": "blue", "color": "red", "correct_response": "r", "trial_id": "stroop-trial-1-incongruent-4", "trial_type": "html-keyboard-response", "trial_index": 217, "time_elapsed": 488049, "internal_node_id": "0.0-8.0-31.0"}}, {"uniqueid": "w51028437:a37555889", "current_trial": 218, "dateTime": 1664555646275, "trialdata": {"rt": 820, "stimulus": "<p id='stroop-text' class='stroop-green'>YELLOW</p>", "response": "g", "stimulus-type": "incongruent", "word": "yellow", "color": "green", "correct_response": "g", "trial_id": "stroop-trial-1-incongruent-6", "trial_type": "html-keyboard-response", "trial_index": 218, "time_elapsed": 489377, "internal_node_id": "0.0-8.0-32.0"}}, {"uniqueid": "w51028437:a37555889", "current_trial": 219, "dateTime": 1664555647587, "trialdata": {"rt": 805, "stimulus": "<p id='stroop-text' class='stroop-blue'>BLUE</p>", "response": "b", "stimulus-type": "congruent", "word": "blue", "color": "blue", "correct_response": "b", "trial_id": "stroop-trial-1-congruent-28", "trial_type": "html-keyboard-response", "trial_index": 219, "time_elapsed": 490689, "internal_node_id": "0.0-8.0-33.0"}}, {"uniqueid": "w51028437:a37555889", "current_trial": 220, "dateTime": 1664555648836, "trialdata": {"rt": 741, "stimulus": "<p id='stroop-text' class='stroop-yellow'>BRIDGE</p>", "response": "y", "stimulus-type": "unrelated", "word": "BRIDGE", "color": "yellow", "correct_response": "y", "trial_id": "stroop-trial-1-unrelated-5", "trial_type": "html-keyboard-response", "trial_index": 220, "time_elapsed": 491937, "internal_node_id": "0.0-8.0-34.0"}}, {"uniqueid": "w51028437:a37555889", "current_trial": 221, "dateTime": 1664555652100, "trialdata": {"rt": 2754, "stimulus": "<p id='stroop-text' class='stroop-blue'>FORK</p>", "response": "b", "stimulus-type": "unrelated", "word": "FORK", "color": "blue", "correct_response": "b", "trial_id": "stroop-trial-1-unrelated-27", "trial_type": "html-keyboard-response", "trial_index": 221, "time_elapsed": 495201, "internal_node_id": "0.0-8.0-35.0"}}, {"uniqueid": "w51028437:a37555889", "current_trial": 222, "dateTime": 1664555653251, "trialdata": {"rt": 640, "stimulus": "<p id='stroop-text' class='stroop-red'>BLUE</p>", "response": "r", "stimulus-type": "incongruent", "word": "blue", "color": "red", "correct_response": "r", "trial_id": "stroop-trial-1-incongruent-18", "trial_type": "html-keyboard-response", "trial_i