{"condition": 0, "counterbalance": 0, "assignmentId": "a13859986", "workerId": "w82713523", "hitId": "h51010709", "currenttrial": 965, "bonus": 0, "data": [{"uniqueid": "w82713523:a13859986", "current_trial": 0, "dateTime": 1664367933379, "trialdata": {"success": true, "trial_type": "fullscreen", "trial_index": 0, "time_elapsed": 6949, "internal_node_id": "0.0-0.0"}}, {"uniqueid": "w82713523:a13859986", "current_trial": 1, "dateTime": 1664367985809, "trialdata": {"view_history": [{"page_index": 0, "viewing_time": 52399}], "rt": 52405, "trial_id": "exp_instructions_distractor", "trial_type": "instructions", "trial_index": 1, "time_elapsed": 59381, "internal_node_id": "0.0-1.0"}}, {"uniqueid": "w82713523:a13859986", "current_trial": 2, "dateTime": 1664368093457, "trialdata": {"view_history": [{"page_index": 0, "viewing_time": 107634}], "rt": 107636, "trial_id": "color_game_instructions", "trial_type": "instructions", "trial_index": 2, "time_elapsed": 167029, "internal_node_id": "0.0-2.0"}}, {"uniqueid": "w82713523:a13859986", "current_trial": 3, "dateTime": 1664368128117, "trialdata": {"rt": 34647, "stimulus": "<h1> Get ready to start the game! </h1>\n\nThank you for reading the instructions. Get ready start with the first of 5 block(s) of this game.\n<br><br>\nIn this first block, you will complete 90 rounds of this game before moving on.\n<br><br>\nRemember, the better you perform, the bigger your bonus will be!\n<br><br>\n<div style='text-align: center;'>Press <code>space</code> to begin.</div>", "response": " ", "trial_id": "stroop_1_ready_1", "trial_type": "html-keyboard-response", "trial_index": 3, "time_elapsed": 201689, "internal_node_id": "0.0-3.0"}}, {"uniqueid": "w82713523:a13859986", "current_trial": 4, "dateTime": 1664368130090, "trialdata": {"rt": 1925, "stimulus": "<p id='stroop-text' class='stroop-yellow'>BRAIN</p>", "response": "y", "stimulus-type": "unrelated", "word": "BRAIN", "color": "yellow", "correct_response": "y", "trial_id": "stroop-trial-1-unrelated-27", "trial_type": "html-keyboard-response", "trial_index": 4, "time_elapsed": 203661, "internal_node_id": "0.0-4.0-0.0"}}, {"uniqueid": "w82713523:a13859986", "current_trial": 5, "dateTime": 1664368132144, "trialdata": {"rt": 1547, "stimulus": "<p id='stroop-text' class='stroop-blue'>BRAIN</p>", "response": "b", "stimulus-type": "unrelated", "word": "BRAIN", "color": "blue", "correct_response": "b", "trial_id": "stroop-trial-1-unrelated-4", "trial_type": "html-keyboard-response", "trial_index": 5, "time_elapsed": 205714, "internal_node_id": "0.0-4.0-1.0"}}, {"uniqueid": "w82713523:a13859986", "current_trial": 6, "dateTime": 1664368133968, "trialdata": {"rt": 1316, "stimulus": "<p id='stroop-text' class='stroop-red'>RED</p>", "response": "r", "stimulus-type": "congruent", "word": "red", "color": "red", "correct_response": "r", "trial_id": "stroop-trial-1-congruent-1", "trial_type": "html-keyboard-response", "trial_index": 6, "time_elapsed": 207539, "internal_node_id": "0.0-4.0-2.0"}}, {"uniqueid": "w82713523:a13859986", "current_trial": 7, "dateTime": 1664368135512, "trialdata": {"rt": 1037, "stimulus": "<p id='stroop-text' class='stroop-red'>BLUE</p>", "response": "r", "stimulus-type": "incongruent", "word": "blue", "color": "red", "correct_response": "r", "trial_id": "stroop-trial-1-incongruent-11", "trial_type": "html-keyboard-response", "trial_index": 7, "time_elapsed": 209083, "internal_node_id": "0.0-4.0-3.0"}}, {"uniqueid": "w82713523:a13859986", "current_trial": 8, "dateTime": 1664368137044, "trialdata": {"rt": 1024, "stimulus": "<p id='stroop-text' class='stroop-yellow'>GREEN</p>", "response": "y", "stimulus-type": "incongruent", "word": "green", "color": "yellow", "correct_response": "y", "trial_id": "stroop-trial-1-incongruent-4", "trial_type": "html-keyboard-response", "trial_index": 8, "time_elapsed": 210615, "internal_node_id": "0.0-4.0-4.0"}}, {"uniqueid": "w82713523:a13859986", "current_trial": 9, "dateTime": 1664368138853, "trialdata": {"rt": 1298, "stimulus": "<p id='stroop-text' class='stroop-blue'>BRAIN</p>", "response": "b", "stimulus-type": "unrelated", "word": "BRAIN", "color": "blue", "correct_response": "b", "trial_id": "stroop-trial-1-unrelated-8", "trial_type": "html-keyboard-response", "trial_index": 9, "time_elapsed": 212424, "internal_node_id": "0.0-4.0-5.0"}}, {"uniqueid": "w82713523:a13859986", "current_trial": 10, "dateTime": 1664368140610, "trialdata": {"rt": 1248, "stimulus": "<p id='stroop-text' class='stroop-yellow'>RED</p>", "response": "y", "stimulus-type": "incongruent", "word": "red", "color": "yellow", "correct_response": "y", "trial_id": "stroop-trial-1-incongruent-22", "trial_type": "html-keyboard-response", "trial_index": 10, "time_elapsed": 214180, "internal_node_id": "0.0-4.0-6.0"}}, {"uniqueid": "w82713523:a13859986", "current_trial": 11, "dateTime": 1664368142243, "trialdata": {"rt": 1124, "stimulus": "<p id='stroop-text' class='stroop-green'>RED</p>", "response": "g", "stimulus-type": "incongruent", "word": "red", "color": "green", "correct_response": "g", "trial_id": "stroop-trial-1-incongruent-26", "trial_type": "html-keyboard-response", "trial_index": 11, "time_elapsed": 215814, "internal_node_id": "0.0-4.0-7.0"}}, {"uniqueid": "w82713523:a13859986", "current_trial": 12, "dateTime": 1664368143695, "trialdata": {"rt": 944, "stimulus": "<p id='stroop-text' class='stroop-red'>RED</p>", "response": "r", "stimulus-type": "congruent", "word": "red", "color": "red", "correct_response": "r", "trial_id": "stroop-trial-1-congruent-18", "trial_type": "html-keyboard-response", "trial_index": 12, "time_elapsed": 217266, "internal_node_id": "0.0-4.0-8.0"}}, {"uniqueid": "w82713523:a13859986", "current_trial": 13, "dateTime": 1664368146268, "trialdata": {"rt": 2066, "stimulus": "<p id='stroop-text' class='stroop-green'>BLUE</p>", "response": "g", "stimulus-type": "incongruent", "word": "blue", "color": "green", "correct_response": "g", "trial_id": "stroop-trial-1-incongruent-9", "trial_type": "html-keyboard-response", "trial_index": 13, "time_elapsed": 219839, "internal_node_id": "0.0-4.0-9.0"}}, {"uniqueid": "w82713523:a13859986", "current_trial": 14, "dateTime": 1664368147781, "trialdata": {"rt": 1005, "stimulus": "<p id='stroop-text' class='stroop-yellow'>BLUE</p>", "response": "y", "stimulus-type": "incongruent", "word": "blue", "color": "yellow", "correct_response": "y", "trial_id": "stroop-trial-1-incongruent-23", "trial_type": "html-keyboard-response", "trial_index": 14, "time_elapsed": 221351, "internal_node_id": "0.0-4.0-10.0"}}, {"uniqueid": "w82713523:a13859986", "current_trial": 15, "dateTime": 1664368149285, "trialdata": {"rt": 991, "stimulus": "<p id='stroop-text' class='stroop-blue'>STONE</p>", "response": "b", "stimulus-type": "unrelated", "word": "STONE", "color": "blue", "correct_response": "b", "trial_id": "stroop-trial-1-unrelated-6", "trial_type": "html-keyboard-response", "trial_index": 15, "time_elapsed": 222856, "internal_node_id": "0.0-4.0-11.0"}}, {"uniqueid": "w82713523:a13859986", "current_trial": 16, "dateTime": 1664368151050, "trialdata": {"rt": 1257, "stimulus": "<p id='stroop-text' class='stroop-yellow'>YELLOW</p>", "response": "y", "stimulus-type": "congruent", "word": "yellow", "color": "yellow", "correct_response": "y", "trial_id": "stroop-trial-1-congruent-13", "trial_type": "html-keyboard-response", "trial_index": 16, "time_elapsed": 224621, "internal_node_id": "0.0-4.0-12.0"}}, {"uniqueid": "w82713523:a13859986", "current_trial": 17, "dateTime": 1664368152391, "trialdata": {"rt": 834, "stimulus": "<p id='stroop-text' class='stroop-yellow'>GREEN</p>", "response": "y", "stimulus-type": "incongruent", "word": "green", "color": "yellow", "correct_response": "y", "trial_id": "stroop-trial-1-incongruent-17", "trial_type": "html-keyboard-response", "trial_index": 17, "time_elapsed": 225962, "internal_node_id": "0.0-4.0-13.0"}}, {"uniqueid": "w82713523:a13859986", "current_trial": 18, "dateTime": 1664368153846, "trialdata": {"rt": 947, "stimulus": "<p id='stroop-text' class='stroop-red'>FORK</p>", "response": "r", "stimulus-type": "unrelated", "word": "FORK", "color": "red", "correct_response": "r", "trial_id": "stroop-trial-1-unrelated-13", "trial_type": "html-keyboard-response", "trial_index": 18, "time_elapsed": 227417, "internal_node_id": "0.0-4.0-14.0"}}, {"uniqueid": "w82713523:a13859986", "current_trial": 19, "dateTime": 1664368155333, "trialdata": {"rt": 977, "stimulus": "<p id='stroop-text' class='stroop-green'>GREEN</p>", "response": "g", "stimulus-type": "congruent", "word": "green", "color": "green", "correct_response": "g", "trial_id": "stroop-trial-1-congruent-29", "trial_type": "html-keyboard-response", "trial_index": 19, "time_elapsed": 228904, "internal_node_id": "0.0-4.0-15.0"}}, {"uniqueid": "w82713523:a13859986", "current_trial": 20, "dateTime": 1664368156577, "trialdata": {"rt": 736, "stimulus": "<p id='stroop-text' class='stroop-green'>GREEN</p>", "response": "g", "stimulus-type": "congruent", "word": "green", "color": "green", "correct_response": "g", "trial_id": "stroop-trial-1-congruent-28", "trial_type": "html-keyboard-response", "trial_index": 20, "time_elapsed": 230148, "internal_node_id": "0.0-4.0-16.0"}}, {"uniqueid": "w82713523:a13859986", "current_trial": 21, "dateTime": 1664368158384, "trialdata": {"rt": 1299, "stimulus": "<p id='stroop-text' class='stroop-yellow'>BLUE</p>", "response": "y", "stimulus-type": "incongruent", "word": "blue", "color": "yellow", "correct_response": "y", "trial_id": "stroop-trial-1-incongruent-30", "trial_type": "html-keyboard-response", "trial_index": 21, "time_elapsed": 231955, "internal_node_id": "0.0-4.0-17.0"}}, {"uniqueid": "w82713523:a13859986", "current_trial": 22, "dateTime": 1664368159820, "trialdata": {"rt": 928, "stimulus": "<p id='stroop-text' class='stroop-red'>RED</p>", "response": "r", "stimulus-type": "congruent", "word": "red", "color": "red", "correct_response": "r", "trial_id": "stroop-trial-1-congruent-24", "trial_type": "html-keyboard-response", "trial_index": 22, "time_elapsed": 233391, "internal_node_id": "0.0-4.0-18.0"}}, {"uniqueid": "w82713523:a13859986", "current_trial": 23, "dateTime": 1664368161279, "trialdata": {"rt": 951, "stimulus": "<p id='stroop-text' class='stroop-red'>STONE</p>", "response": "r", "stimulus-type": "unrelated", "word": "STONE", "color": "red", "correct_response": "r", "trial_id": "stroop-trial-1-unrelated-3", "trial_type": "html-keyboard-response", "trial_index": 23, "time_elapsed": 234850, "internal_node_id": "0.0-4.0-19.0"}}, {"uniqueid": "w82713523:a13859986", "current_trial": 24, "dateTime": 1664368162579, "trialdata": {"rt": 792, "stimulus": "<p id='stroop-text' class='stroop-yellow'>YELLOW</p>", "response": "y", "stimulus-type": "congruent", "word": "yellow", "color": "yellow", "correct_response": "y", "trial_id": "stroop-trial-1-congruent-19", "trial_type": "html-keyboard-response", "trial_index": 24, "time_elapsed": 236150, "internal_node_id": "0.0-4.0-20.0"}}, {"uniqueid": "w82713523:a13859986", "current_trial": 25, "dateTime": 1664368164093, "trialdata": {"rt": 1006, "stimulus": "<p id='stroop-text' class='stroop-green'>STONE</p>", "response": "g", "stimulus-type": "unrelated", "word": "STONE", "color": "green", "correct_response": "g", "trial_id": "stroop-trial-1-unrelated-29", "trial_type": "html-keyboard-response", "trial_index": 25, "time_elapsed": 237664, "internal_node_id": "0.0-4.0-21.0"}}, {"uniqueid": "w82713523:a13859986", "current_trial": 26, "dateTime": 1664368165326, "trialdata": {"rt": 724, "stimulus": "<p id='stroop-text' class='stroop-green'>RED</p>", "response": "g", "stimulus-type": "incongruent", "word": "red", "color": "green", "correct_response": "g", "trial_id": "stroop-trial-1-incongruent-16", "trial_type": "html-keyboard-response", "trial_index": 26, "time_elapsed": 238897, "internal_node_id": "0.0-4.0-22.0"}}, {"uniqueid": "w82713523:a13859986", "current_trial": 27, "dateTime": 1664368166599, "trialdata": {"rt": 762, "stimulus": "<p id='stroop-text' class='stroop-green'>GREEN</p>", "response": "g", "stimulus-type": "congruent", "word": "green", "color": "green", "correct_response": "g", "trial_id": "stroop-trial-1-congruent-3", "trial_type": "html-keyboard-response", "trial_index": 27, "time_elapsed": 240170, "internal_node_id": "0.0-4.0-23.0"}}, {"uniqueid": "w82713523:a13859986", "current_trial": 28, "dateTime": 1664368167885, "trialdata": {"rt": 778, "stimulus": "<p id='stroop-text' class='stroop-blue'>RED</p>", "response": "b", "stimulus-type": "incongruent", "word": "red", "color": "blue", "correct_response": "b", "trial_id": "stroop-trial-1-incongruent-6", "trial_type": "html-keyboard-response", "trial_index": 28, "time_elapsed": 241456, "internal_node_id": "0.0-4.0-24.0"}}, {"uniqueid": "w82713523:a13859986", "current_trial": 29, "dateTime": 1664368169562, "trialdata": {"rt": 1167, "stimulus": "<p id='stroop-text' class='stroop-red'>YELLOW</p>", "response": "r", "stimulus-type": "incongruent", "word": "yellow", "color": "red", "correct_response": "r", "trial_id": "stroop-trial-1-incongruent-19", "trial_type": "html-keyboard-response", "trial_index": 29, "time_elapsed": 243133, "internal_node_id": "0.0-4.0-25.0"}}, {"uniqueid": "w82713523:a13859986", "current_trial": 30, "dateTime": 1664368171108, "trialdata": {"rt": 1037, "stimulus": "<p id='stroop-text' class='stroop-blue'>YELLOW</p>", "response": "b", "stimulus-type": "incongruent", "word": "yellow", "color": "blue", "correct_response": "b", "trial_id": "stroop-trial-1-incongruent-15", "trial_type": "html-keyboard-response", "trial_index": 30, "time_elapsed": 244679, "internal_node_id": "0.0-4.0-26.0"}}, {"uniqueid": "w82713523:a13859986", "current_trial": 31, "dateTime": 1664368172552, "trialdata": {"rt": 936, "stimulus": "<p id='stroop-text' class='stroop-yellow'>YELLOW</p>", "response": "y", "stimulus-type": "congruent", "word": "yellow", "color": "yellow", "correct_response": "y", "trial_id": "stroop-trial-1-congruent-12", "trial_type": "html-keyboard-response", "trial_index": 31, "time_elapsed": 246123, "internal_node_id": "0.0-4.0-27.0"}}, {"uniqueid": "w82713523:a13859986", "current_trial": 32, "dateTime": 1664368174063, "trialdata": {"rt": 998, "stimulus": "<p id='stroop-text' class='stroop-green'>MONKEY</p>", "response": "g", "stimulus-type": "unrelated", "word": "MONKEY", "color": "green", "correct_response": "g", "trial_id": "stroop-trial-1-unrelated-22", "trial_type": "html-keyboard-response", "trial_index": 32, "time_elapsed": 247634, "internal_node_id": "0.0-4.0-28.0"}}, {"uniqueid": "w82713523:a13859986", "current_trial": 33, "dateTime": 1664368175630, "trialdata": {"rt": 1060, "stimulus": "<p id='stroop-text' class='stroop-red'>RED</p>", "response": "r", "stimulus-type": "congruent", "word": "red", "color": "red", "correct_response": "r", "trial_id": "stroop-trial-1-congruent-30", "trial_type": "html-keyboard-response", "trial_index": 33, "time_elapsed": 249201, "internal_node_id": "0.0-4.0-29.0"}}, {"uniqueid": "w82713523:a13859986", "current_trial": 34, "dateTime": 1664368177431, "trialdata": {"rt": 1288, "stimulus": "<p id='stroop-text' class='stroop-yellow'>YELLOW</p>", "response": "y", "stimulus-type": "congruent", "word": "yellow", "color": "yellow", "correct_response": "y", "trial_id": "stroop-trial-1-congruent-5", "trial_type": "html-keyboard-response", "trial_index": 34, "time_elapsed": 251002, "internal_node_id": "0.0-4.0-30.0"}}, {"uniqueid": "w82713523:a13859986", "current_trial": 35, "dateTime": 1664368178837, "trialdata": {"rt": 898, "stimulus": "<p id='stroop-text' class='stroop-yellow'>DOG</p>", "response": "y", "stimulus-type": "unrelated", "word": "DOG", "color": "yellow", "correct_response": "y", "trial_id": "stroop-trial-1-unrelated-15", "trial_type": "html-keyboard-response", "trial_index": 35, "time_elapsed": 252408, "internal_node_id": "0.0-4.0-31.0"}}, {"uniqueid": "w82713523:a13859986", "current_trial": 36, "dateTime": 1664368180191, "trialdata": {"rt": 847, "stimulus": "<p id='stroop-text' class='stroop-green'>RED</p>", "response": "g", "stimulus-type": "incongruent", "word": "red", "color": "green", "correct_response": "g", "trial_id": "stroop-trial-1-incongruent-10", "trial_type": "html-keyboard-response", "trial_index": 36, "time_elapsed": 253762, "internal_node_id": "0.0-4.0-32.0"}}, {"uniqueid": "w82713523:a13859986", "current_trial": 37, "dateTime": 1664368181580, "trialdata": {"rt": 881, "stimulus": "<p id='stroop-text' class='stroop-blue'>BLUE</p>", "response": "b", "stimulus-type": "congruent", "word": "blue", "color": "blue", "correct_response": "b", "trial_id": "stroop-trial-1-congruent-4", "trial_type": "html-keyboard-response", "trial_index": 37, "time_elapsed": 255151, "internal_node_id": "0.0-4.0-33.0"}}, {"uniqueid": "w82713523:a13859986", "current_trial": 38, "dateTime": 1664368183039, "trialdata": {"rt": 951, "stimulus": "<p id='stroop-text' class='stroop-red'>FORK</p>", "response": "r", "stimulus-type": "unrelated", "word": "FORK", "color": "red", "correct_response": "r", "trial_id": "stroop-trial-1-unrelated-11", "trial_type": "html-keyboard-response", "trial_index": 38, "time_elapsed": 256610, "internal_node_id": "0.0-4.0-34.0"}}, {"uniqueid": "w82713523:a13859986", "current_trial": 39, "dateTime": 1664368184492, "trialdata": {"rt": 945, "stimulus": "<p id='stroop-text' class='stroop-yellow'>BOTTLE</p>", "response": "y", "stimulus-type": "unrelated", "word": "BOTTLE", "color": "yellow", "correct_response": "y", "trial_id": "stroop-trial-1-unrelated-9", "trial_type": "html-keyboard-response", "trial_index": 39, "time_elapsed": 258063, "internal_node_id": "0.0-4.0-35.0"}}, {"uniqueid": "w82713523:a13859986", "current_trial": 40, "dateTime": 1664368185775, "trialdata": {"rt": 771, "stimulus": "<p id='stroop-text' class='stroop-blue'>BRAIN</p>", "response": "b", "stimulus-type": "unrelated", "word": "BRAIN", "color": "blue", "correct_response": "b", "trial_id": "stroop-trial-1-unrelated-24", "trial_type": "html-keyboard-response", "trial_index": 40, "time_elapsed": 259346, "internal_node_id": "0.0-4.0-36.0"}}, {"uniqueid": "w82713523:a13859986", "current_trial": 41, "dateTime": 1664368187152, "trialdata": {"rt": 865, "stimulus": "<p id='stroop-text' class='stroop-green'>BLUE</p>", "response": "g", "stimulus-type": "incongruent", "word": "blue", "color": "green", "correct_response": "g", "trial_id": "stroop-trial-1-incongruent-20", "trial_type": "html-keyboard-response", "trial_index": 41, "time_elapsed": 260723, "internal_node_id": "0.0-4.0-37.0"}}, {"uniqueid": "w82713523:a13859986", "current_trial": 42, "dateTime": 1664368188882, "trialdata": {"rt": 1218, "stimulus": "<p id='stroop-text' class='stroop-red'>DOG</p>", "response": "r", "stimulus-type": "unrelated", "word": "DOG", "color": "red", "correct_response": "r", "trial_id": "stroop-trial-1-unrelated-1", "trial_type": "html-keyboard-response", "trial_index": 42, "time_elapsed": 262452, "internal_node_id": "0.0-4.0-38.0"}}, {"uniqueid": "w82713523:a13859986", "current_trial": 43, "dateTime": 1664368190269, "trialdata": {"rt": 878, "stimulus": "<p id='stroop-text' class='stroop-blue'>RED</p>", "response": "b", "stimulus-type": "incongruent", "word": "red", "color": "blue", "correct_response": "b", "trial_id": "stroop-trial-1-incongruent-5", "trial_type": "html-keyboard-response", "trial_index": 43, "time_elapsed": 263840, "internal_node_id": "0.0-4.0-39.0"}}, {"uniqueid": "w82713523:a13859986", "current_trial": 44, "dateTime": 1664368191679, "trialdata": {"rt": 901, "stimulus": "<p id='stroop-text' class='stroop-red'>RED</p>", "response": "r", "stimulus-type": "congruent", "word": "red", "color": "red", "correct_response": "r", "trial_id": "stroop-trial-1-congruent-8", "trial_type": "html-keyboard-response", "trial_index": 44, "time_elapsed": 265250, "internal_node_id": "0.0-4.0-40.0"}}, {"uniqueid": "w82713523:a13859986", "current_trial": 45, "dateTime": 1664368193555, "trialdata": {"rt": 1367, "stimulus": "<p id='stroop-text' class='stroop-green'>BLUE</p>", "response": "g", "stimulus-type": "incongruent", "word": "blue", "color": "green", "correct_response": "g", "trial_id": "stroop-trial-1-incongruent-25", "trial_type": "html-keyboard-response", "trial_index": 45, "time_elapsed": 267126, "internal_node_id": "0.0-4.0-41.0"}}, {"uniqueid": "w82713523:a13859986", "current_trial": 46, "dateTime": 1664368194891, "trialdata": {"rt": 828, "stimulus": "<p id='stroop-text' class='stroop-green'>GREEN</p>", "response": "g", "stimulus-type": "congruent", "word": "green", "color": "green", "correct_response": "g", "trial_id": "stroop-trial-1-congruent-21", "trial_type": "html-keyboard-response", "trial_index": 46, "time_elapsed": 268462, "internal_node_id": "0.0-4.0-42.0"}}, {"uniqueid": "w82713523:a13859986", "current_trial": 47, "dateTime": 1664368196163, "trialdata": {"rt": 764, "stimulus": "<p id='stroop-text' class='stroop-green'>WINDOW</p>", "response": "g", "stimulus-type": "unrelated", "word": "WINDOW", "color": "green", "correct_response": "g", "trial_id": "stroop-trial-1-unrelated-17", "trial_type": "html-keyboard-response", "trial_index": 47, "time_elapsed": 269734, "internal_node_id": "0.0-4.0-43.0"}}, {"uniqueid": "w82713523:a13859986", "current_trial": 48, "dateTime": 1664368197417, "trialdata": {"rt": 748, "stimulus": "<p id='stroop-text' class='stroop-green'>GREEN</p>", "response": "g", "stimulus-type": "congruent", "word": "green", "color": "green", "correct_response": "g", "trial_id": "stroop-trial-1-congruent-14", "trial_type": "html-keyboard-response", "trial_index": 48, "time_elapsed": 270988, "internal_node_id": "0.0-4.0-44.0"}}, {"uniqueid": "w82713523:a13859986", "current_trial": 49, "dateTime": 1664368198659, "trialdata": {"rt": 730, "stimulus": "<p id='stroop-text' class='stroop-green'>CHAIR</p>", "response": "g", "stimulus-type": "unrelated", "word": "CHAIR", "color": "green", "correct_response": "g", "trial_id": "stroop-trial-1-unrelated-16", "trial_type": "html-keyboard-response", "trial_index": 49, "time_elapsed": 272230, "internal_node_id": "0.0-4.0-45.0"}}, {"uniqueid": "w82713523:a13859986", "current_trial": 50, "dateTime": 1664368200025, "trialdata": {"rt": 858, "stimulus": "<p id='stroop-text' class='stroop-blue'>GREEN</p>", "response": "b", "stimulus-type": "incongruent", "word": "green", "color": "blue", "correct_response": "b", "trial_id": "stroop-trial-1-incongruent-21", "trial_type": "html-keyboard-response", "trial_index": 50, "time_elapsed": 273596, "internal_node_id": "0.0-4.0-46.0"}}, {"uniqueid": "w82713523:a13859986", "current_trial": 51, "dateTime": 1664368201426, "trialdata": {"rt": 891, "stimulus": "<p id='stroop-text' class='stroop-blue'>DOG</p>", "response": "b", "stimulus-type": "unrelated", "word": "DOG", "color": "blue", "correct_response": "b", "trial_id": "stroop-trial-1-unrelated-5", "trial_type": "html-keyboard-response", "trial_index": 51, "time_elapsed": 274997, "internal_node_id": "0.0-4.0-47.0"}}, {"uniqueid": "w82713523:a13859986", "current_trial": 52, "dateTime": 1664368203338, "trialdata": {"rt": 1401, "stimulus": "<p id='stroop-text' class='stroop-red'>YELLOW</p>", "response": "r", "stimulus-type": "incongruent", "word": "yellow", "color": "red", "correct_response": "r", "trial_id": "stroop-trial-1-incongruent-3", "trial_type": "html-keyboard-response", "trial_index": 52, "time_elapsed": 276908, "internal_node_id": "0.0-4.0-48.0"}}, {"uniqueid": "w82713523:a13859986", "current_trial": 53, "dateTime": 1664368204742, "trialdata": {"rt": 896, "stimulus": "<p id='stroop-text' class='stroop-yellow'>YELLOW</p>", "response": "y", "stimulus-type": "congruent", "word": "yellow", "color": "yellow", "correct_response": "y", "trial_id": "stroop-trial-1-congruent-26", "trial_type": "html-keyboard-response", "trial_index": 53, "time_elapsed": 278313, "internal_node_id": "0.0-4.0-49.0"}}, {"uniqueid": "w82713523:a13859986", "current_trial": 54, "dateTime": 1664368206039, "trialdata": {"rt": 788, "stimulus": "<p id='stroop-text' class='stroop-yellow'>YELLOW</p>", "response": "y", "stimulus-type": "congruent", "word": "yellow", "color": "yellow", "correct_response": "y", "trial_id": "stroop-trial-1-congruent-9", "trial_type": "html-keyboard-response", "trial_index": 54, "time_elapsed": 279610, "internal_node_id": "0.0-4.0-50.0"}}, {"uniqueid": "w82713523:a13859986", "current_trial": 55, "dateTime": 1664368207325, "trialdata": {"rt": 775, "stimulus": "<p id='stroop-text' class='stroop-red'>STONE</p>", "response": "r", "stimulus-type": "unrelated", "word": "STONE", "color": "red", "correct_response": "r", "trial_id": "stroop-trial-1-unrelated-10", "trial_type": "html-keyboard-response", "trial_index": 55, "time_elapsed": 280897, "internal_node_id": "0.0-4.0-51.0"}}, {"uniqueid": "w82713523:a13859986", "current_trial": 56, "dateTime": 1664368208706, "trialdata": {"rt": 873, "stimulus": "<p id='stroop-text' class='stroop-blue'>FORK</p>", "response": "b", "stimulus-type": "unrelated", "word": "FORK", "color": "blue", "correct_response": "b", "trial_id": "stroop-trial-1-unrelated-2", "trial_type": "html-keyboard-response", "trial_index": 56, "time_elapsed": 282277, "internal_node_id": "0.0-4.0-52.0"}}, {"uniqueid": "w82713523:a13859986", "current_trial": 57, "dateTime": 1664368209965, "trialdata": {"rt": 750, "stimulus": "<p id='stroop-text' class='stroop-green'>WINDOW</p>", "response": "g", "stimulus-type": "unrelated", "word": "WINDOW", "color": "green", "correct_response": "g", "trial_id": "stroop-trial-1-unrelated-19", "trial_type": "html-keyboard-response", "trial_index": 57, "time_elapsed": 283536, "internal_node_id": "0.0-4.0-53.0"}}, {"uniqueid": "w82713523:a13859986", "current_trial": 58, "dateTime": 1664368211479, "trialdata": {"rt": 1006, "stimulus": "<p id='stroop-text' class='stroop-blue'>RED</p>", "response": "b", "stimulus-type": "incongruent", "word": "red", "color": "blue", "correct_response": "b", "trial_id": "stroop-trial-1-incongruent-7", "trial_type": "html-keyboard-response", "trial_index": 58, "time_elapsed": 285050, "internal_node_id": "0.0-4.0-54.0"}}, {"uniqueid": "w82713523:a13859986", "current_trial": 59, "dateTime": 1664368213137, "trialdata": {"rt": 1150, "stimulus": "<p id='stroop-text' class='stroop-green'>GREEN</p>", "response": "g", "stimulus-type": "congruent", "word": "green", "color": "green", "correct_response": "g", "trial_id": "stroop-trial-1-congruent-16", "trial_type": "html-keyboard-response", "trial_index": 59, "time_elapsed": 286708, "internal_node_id": "0.0-4.0-55.0"}}, {"uniqueid": "w82713523:a13859986", "current_trial": 60, "dateTime": 1664368214863, "trialdata": {"rt": 1216, "stimulus": "<p id='stroop-text' class='stroop-yellow'>WINDOW</p>", "response": "y", "stimulus-type": "unrelated", "word": "WINDOW", "color": "yellow", "correct_response": "y", "trial_id": "stroop-trial-1-unrelated-23", "trial_type": "html-keyboard-response", "trial_index": 60, "time_elapsed": 288434, "internal_node_id": "0.0-4.0-56.0"}}, {"uniqueid": "w82713523:a13859986", "current_trial": 61, "dateTime": 1664368216307, "trialdata": {"rt": 936, "stimulus": "<p id='stroop-text' class='stroop-red'>RED</p>", "response": "r", "stimulus-type": "congruent", "word": "red", "color": "red", "correct_response": "r", "trial_id": "stroop-trial-1-congruent-11", "trial_type": "html-keyboard-response", "trial_index": 61, "time_elapsed": 289878, "internal_node_id": "0.0-4.0-57.0"}}, {"uniqueid": "w82713523:a13859986", "current_trial": 62, "dateTime": 1664368217948, "trialdata": {"rt": 1129, "stimulus": "<p id='stroop-text' class='stroop-green'>GREEN</p>", "response": "g", "stimulus-type": "congruent", "word": "green", "color": "green", "correct_response": "g", "trial_id": "stroop-trial-1-congruent-6", "trial_type": "html-keyboard-response", "trial_index": 62, "time_elapsed": 291519, "internal_node_id": "0.0-4.0-58.0"}}, {"uniqueid": "w82713523:a13859986", "current_trial": 63, "dateTime": 1664368219832, "trialdata": {"rt": 1376, "stimulus": "<p id='stroop-text' class='stroop-red'>WINDOW</p>", "response": "r", "stimulus-type": "unrelated", "word": "WINDOW", "color": "red", "correct_response": "r", "trial_id": "stroop-trial-1-unrelated-7", "trial_type": "html-keyboard-response", "trial_index": 63, "time_elapsed": 293403, "internal_node_id": "0.0-4.0-59.0"}}, {"uniqueid": "w82713523:a13859986", "current_trial": 64, "dateTime": 1664368221101, "trialdata": {"rt": 761, "stimulus": "<p id='stroop-text' class='stroop-blue'>DOG</p>", "response": "b", "stimulus-type": "unrelated", "word": "DOG", "color": "blue", "correct_response": "b", "trial_id": "stroop-trial-1-unrelated-14", "trial_type": "html-keyboard-response", "trial_index": 64, "time_elapsed": 294672, "internal_node_id": "0.0-4.0-60.0"}}, {"uniqueid": "w82713523:a13859986", "current_trial": 65, "dateTime": 1664368222421, "trialdata": {"rt": 812, "stimulus": "<p id='stroop-text' class='stroop-yellow'>RED</p>", "response": "y", "stimulus-type": "incongruent", "word": "red", "color": "yellow", "correct_response": "y", "trial_id": "stroop-trial-1-incongruent-12", "trial_type": "html-keyboard-response", "trial_index": 65, "time_elapsed": 295992, "internal_node_id": "0.0-4.0-61.0"}}, {"uniqueid": "w82713523:a13859986", "current_trial": 66, "dateTime": 1664368224167, "trialdata": {"rt": 1238, "stimulus": "<p id='stroop-text' class='stroop-blue'>BOTTLE</p>", "response": "b", "stimulus-type": "unrelated", "word": "BOTTLE", "color": "blue", "correct_response": "b", "trial_id": "stroop-trial-1-unrelated-20", "trial_type": "html-keyboard-response", "trial_index": 66, "time_elapsed": 297738, "internal_node_id": "0.0-4.0-62.0"}}, {"uniqueid": "w82713523:a13859986", "current_trial": 67, "dateTime": 1664368225399, "trialdata": {"rt": 724, "stimulus": "<p id='stroop-text' class='stroop-blue'>BLUE</p>", "response": "b", "stimulus-type": "congruent", "word": "blue", "color": "blue", "correct_response": "b", "trial_id": "stroop-trial-1-congruent-27", "trial_type": "html-keyboard-response", "trial_index": 67, "time_elapsed": 298970, "internal_node_id": "0.0-4.0-63.0"}}, {"uniqueid": "w82713523:a13859986", "current_trial": 68, "dateTime": 1664368227216, "trialdata": {"rt": 1306, "stimulus": "<p id='stroop-text' class='stroop-green'>BLUE</p>", "response": "g", "stimulus-type": "incongruent", "word": "blue", "color": "green", "correct_response": "g", "trial_id": "stroop-trial-1-incongruent-14", "trial_type": "html-keyboard-response", "trial_index": 68, "time_elapsed": 300786, "internal_node_id": "0.0-4.0-64.0"}}, {"uniqueid": "w82713523:a13859986", "current_trial": 69, "dateTime": 1664368228668, "trialdata": {"rt": 944, "stimulus": "<p id='stroop-text' class='stroop-blue'>MONKEY</p>", "response": "g", "stimulus-type": "unrelated", "word": "MONKEY", "color": "blue", "correct_response": "b", "trial_id": "stroop-trial-1-unrelated-26", "trial_type": "html-keyboard-response", "trial_index": 69, "time_elapsed": 302239, "internal_node_id": "0.0-4.0-65.0"}}, {"uniqueid": "w82713523:a13859986", "current_trial": 70, "dateTime": 1664368230555, "trialdata": {"rt": 1379, "stimulus": "<p id='stroop-text' class='stroop-yellow'>GREEN</p>", "response": "y", "stimulus-type": "incongruent", "word": "green", "color": "yellow", "correct_response": "y", "trial_id": "stroop-trial-1-incongruent-24", "trial_type": "html-keyboard-response", "trial_index": 70, "time_elapsed": 304127, "internal_node_id": "0.0-4.0-66.0"}}, {"uniqueid": "w82713523:a13859986", "current_trial": 71, "dateTime": 1664368232247, "trialdata": {"rt": 1183, "stimulus": "<p id='stroop-text' class='stroop-yellow'>RED</p>", "response": "r", "stimulus-type": "incongruent", "word": "red", "color": "yellow", "correct_response": "y", "trial_id": "stroop-trial-1-incongruent-1", "trial_type": "html-keyboard-response", "trial_index": 71, "time_elapsed": 305818, "internal_node_id": "0.0-4.0-67.0"}}, {"uniqueid": "w82713523:a13859986", "current_trial": 72, "dateTime": 1664368233815, "trialdata": {"rt": 1056, "stimulus": "<p id='stroop-text' class='stroop-blue'>BLUE</p>", "response": "b", "stimulus-type": "congruent", "word": "blue", "color": "blue", "correct_response": "b", "trial_id": "stroop-trial-1-congruent-10", "trial_type": "html-keyboard-response", "trial_index": 72, "time_elapsed": 307386, "internal_node_id": "0.0-4.0-68.0"}}, {"uniqueid": "w82713523:a13859986", "current_trial": 73, "dateTime": 1664368235811, "trialdata": {"rt": 1489, "stimulus": "<p id='stroop-text' class='stroop-green'>YELLOW</p>", "response": "g", "stimulus-type": "incongruent", "word": "yellow", "color": "green", "correct_response": "g", "trial_id": "stroop-trial-1-incongruent-2", "trial_type": "html-keyboard-response", "trial_index": 73, "time_elapsed": 309383, "internal_node_id": "0.0-4.0-69.0"}}, {"uniqueid": "w82713523:a13859986", "current_trial": 74, "dateTime": 1664368237687, "trialdata": {"rt": 1367, "stimulus": "<p id='stroop-text' class='stroop-yellow'>RED</p>", "response": "y", "stimulus-type": "incongruent", "word": "red", "color": "yellow", "correct_response": "y", "trial_id": "stroop-trial-1-incongruent-27", "trial_type": "html-keyboard-response", "trial_index": 74, "time_elapsed": 311258, "internal_node_id": "0.0-4.0-70.0"}}, {"uniqueid": "w82713523:a13859986", "current_trial": 75, "dateTime": 1664368239229, "trialdata": {"rt": 1033, "stimulus": "<p id='stroop-text' class='stroop-green'>SHIP</p>", "response": "g", "stimulus-type": "unrelated", "word": "SHIP", "color": "green", "correct_response": "g", "trial_id": "stroop-trial-1-unrelated-25", "trial_type": "html-keyboard-response", "trial_index": 75, "time_elapsed": 312800, "internal_node_id": "0.0-4.0-71.0"}}, {"uniqueid": "w82713523:a13859986", "current_trial": 76, "dateTime": 1664368240728, "trialdata": {"rt": 990, "stimulus": "<p id='stroop-text' class='stroop-yellow'>YELLOW</p>", "response": "y", "stimulus-type": "congruent", "word": "yellow", "color": "yellow", "correct_response": "y", "trial_id": "stroop-trial-1-congruent-15", "trial_type": "html-keyboard-response", "trial_index": 76, "time_elapsed": 314299, "internal_node_id": "0.0-4.0-72.0"}}, {"uniqueid": "w82713523:a13859986", "current_trial": 77, "dateTime": 1664368243051, "trialdata": {"rt": 1814, "stimulus": "<p id='stroop-text' class='stroop-green'>BLUE</p>", "response": "g", "stimulus-type": "incongruent", "word": "blue", "color": "green", "correct_response": "g", "trial_id": "stroop-trial-1-incongruent-18", "trial_type": "html-keyboard-response", "trial_index": 77, "time_elapsed": 316622, "internal_node_id": "0.0-4.0-73.0"}}, {"uniqueid": "w82713523:a13859986", "current_trial": 78, "dateTime": 1664368244417, "trialdata": {"rt": 855, "stimulus": "<p id='stroop-text' class='stroop-green'>GREEN</p>", "response": "g", "stimulus-type": "congruent", "word": "green", "color": "green", "correct_response": "g", "trial_id": "stroop-trial-1-congruent-20", "trial_type": "html-keyboard-response", "trial_index": 78, "time_elapsed": 317988, "internal_node_id": "0.0-4.0-74.0"}}, {"uniqueid": "w82713523:a13859986", "current_trial": 79, "dateTime": 1664368246128, "trialdata": {"rt": 1199, "stimulus": "<p id='stroop-text' class='stroop-yellow'>YELLOW</p>", "response": "y", "stimulus-type": "congruent", "word": "yellow", "color": "yellow", "correct_response": "y", "trial_id": "stroop-trial-1-congruent-7", "trial_type": "html-keyboard-response", "trial_index": 79, "time_elapsed": 319699, "internal_node_id": "0.0-4.0-75.0"}}, {"uniqueid": "w82713523:a13859986", "current_trial": 80, "dateTime": 1664368247571, "trialdata": {"rt": 924, "stimulus": "<p id='stroop-text' class='stroop-yellow'>CHAIR</p>", "response": "y", "stimulus-type": "unrelated", "word": "CHAIR", "color": "yellow", "correct_response": "y", "trial_id": "stroop-trial-1-unrelated-28", "trial_type": "html-keyboard-response", "trial_index": 80, "time_elapsed": 321142, "internal_node_id": "0.0-4.0-76.0"}}, {"uniqueid": "w82713523:a13859986", "current_trial": 81, "dateTime": 1664368248888, "trialdata": {"rt": 810, "stimulus": "<p id='stroop-text' class='stroop-blue'>BLUE</p>", "response": "b", "stimulus-type": "congruent", "word": "blue", "color": "blue", "correct_response": "b", "trial_id": "stroop-trial-1-congruent-23", "trial_type": "html-keyboard-response", "trial_index": 81, "time_elapsed": 322459, "internal_node_id": "0.0-4.0-77.0"}}, {"uniqueid": "w82713523:a13859986", "current_trial": 82, "dateTime": 1664368250186, "trialdata": {"rt": 790, "stimulus": "<p id='stroop-text' class='stroop-blue'>BLUE</p>", "response": "b", "stimulus-type": "congruent", "word": "blue", "color": "blue", "correct_response": "b", "trial_id": "stroop-trial-1-congruent-25", "trial_type": "html-keyboard-response", "trial_index": 82, "time_elapsed": 323758, "internal_node_id": "0.0-4.0-78.0"}}, {"uniqueid": "w82713523:a13859986", "current_trial": 83, "dateTime": 1664368252106, "trialdata": {"rt": 1408, "stimulus": "<p id='stroop-text' class='stroop-red'>GREEN</p>", "response": "r", "stimulus-type": "incongruent", "word": "green", "color": "red", "correct_response": "r", "trial_id": "stroop-trial-1-incongruent-28", "trial_type": "html-keyboard-response", "trial_index": 83, "time_elapsed": 325678, "internal_node_id": "0.0-4.0-79.0"}}, {"uniqueid": "w82713523:a13859986", "current_trial": 84, "dateTime": 1664368253799, "trialdata": {"rt": 1180, "stimulus": "<p id='stroop-text' class='stroop-green'>WINDOW</p>", "response": "g", "stimulus-type": "unrelated", "word": "WINDOW", "color": "green", "correct_response": "g", "trial_id": "stroop-trial-1-unrelated-21", "trial_type": "html-keyboard-response", "trial_index": 84, "time_elapsed": 327370, "internal_node_id": "0.0-4.0-80.0"}}, {"uniqueid": "w82713523:a13859986", "current_trial": 85, "dateTime": 1664368255144, "trialdata": {"rt": 835, "stimulus": "<p id='stroop-text' class='stroop-red'>RED</p>", "response": "r", "stimulus-type": "congruent", "word": "red", "color": "red", "correct_response": "r", "trial_id": "stroop-trial-1-congruent-2", "trial_type": "html-keyboard-response", "trial_index": 85, "time_elapsed": 328715, "internal_node_id": "0.0-4.0-81.0"}}, {"uniqueid": "w82713523:a13859986", "current_trial": 86, "dateTime": 1664368256579, "trialdata": {"rt": 925, "stimulus": "<p id='stroop-text' class='stroop-red'>RED</p>", "response": "r", "stimulus-type": "congruent", "word": "red", "color": "red", "correct_response": "r", "trial_id": "stroop-trial-1-congruent-22", "trial_type": "html-keyboard-response", "trial_index": 86, "time_elapsed": 330150, "internal_node_id": "0.0-4.0-82.0"}}, {"uniqueid": "w82713523:a13859986", "current_trial": 87, "dateTime": 1664368257863, "trialdata": {"rt": 775, "stimulus": "<p id='stroop-text' class='stroop-red'>BLUE</p>", "response": "r", "stimulus-type": "incongruent", "word": "blue", "color": "red", "correct_response": "r", "trial_id": "stroop-trial-1-incongruent-8", "trial_type": "html-keyboard-response", "trial_index": 87, "time_elapsed": 331434, "internal_node_id": "0.0-4.0-83.0"}}, {"uniqueid": "w82713523:a13859986", "current_trial": 88, "dateTime": 1664368259089, "trialdata": {"rt": 717, "stimulus": "<p id='stroop-text' class='stroop-red'>RED</p>", "response": "r", "stimulus-type": "congruent", "word": "red", "color": "red", "correct_response": "r", "trial_id": "stroop-trial-1-congruent-17", "trial_type": "html-keyboard-response", "trial_index": 88, "time_elapsed": 332660, "internal_node_id": "0.0-4.0-84.0"}}, {"uniqueid": "w82713523:a13859986", "current_trial": 89, "dateTime": 1664368260602, "trialdata": {"rt": 1000, "stimulus": "<p id='stroop-text' class='stroop-yellow'>BLUE</p>", "response": "y", "stimulus-type": "incongruent", "word": "blue", "color": "yellow", "correct_response": "y", "trial_id": "stroop-trial-1-incongruent-13", "trial_type": "html-keyboard-response", "trial_index": 89, "time_elapsed": 334173, "internal_node_id": "0.0-4.0-85.0"}}, {"uniqueid": "w82713523:a13859986", "current_trial": 90, "dateTime": 1664368261973, "trialdata": {"rt": 860, "stimulus": "<p id='stroop-text' class='stroop-yellow'>MONKEY</p>", "response": "y", "stimulus-type": "unrelated", "word": "MONKEY", "color": "yellow", "correct_response": "y", "trial_id": "stroop-trial-1-unrelated-30", "trial_type": "html-keyboard-response", "trial_index": 90, "time_elapsed": 335544, "internal_node_id": "0.0-4.0-86.0"}}, {"uniqueid": "w82713523:a13859986", "current_trial": 91, "dateTime": 1664368264351, "trialdata": {"rt": 1869, "stimulus": "<p id='stroop-text' class='stroop-green'>BOTTLE</p>", "response": "g", "stimulus-type": "unrelated", "word": "BOTTLE", "color": "green", "correct_response": "g", "trial_id": "stroop-trial-1-unrelated-12", "trial_type": "html-keyboard-response", "trial_index": 91, "time_elapsed": 337922, "internal_node_id": "0.0-4.0-87.0"}}, {"uniqueid": "w82713523:a13859986", "current_trial": 92, "dateTime": 1664368266223, "trialdata": {"rt": 1361, "stimulus": "<p id='stroop-text' class='stroop-green'>YELLOW</p>", "response": "g", "stimulus-type": "incongruent", "word": "yellow", "color": "green", "correct_response": "g", "trial_id": "stroop-trial-1-incongruent-29", "trial_type": "html-keyboard-response", "trial_index": 92, "time_elapsed": 339795, "internal_node_id": "0.0-4.0-88.0"}}, {"uniqueid": "w82713523:a13859986", "current_trial": 93, "dateTime": 1664368267515, "trialdata": {"rt": 784, "stimulus": "<p id='stroop-text' class='stroop-blue'>BOTTLE</p>", "response": "b", "stimulus-type": "unrelated", "word": "BOTTLE", "color": "blue", "correct_response": "b", "trial_id": "stroop-trial-1-unrelated-18", "trial_type": "html-keyboard-response", "trial_index": 93, "time_elapsed": 341086, "internal_node_id": "0.0-4.0-89.0"}}, {"uniqueid": "w82713523:a13859986", "current_trial": 94, "dateTime": 1664368359755, "trialdata": {"rt": 91724, "stimulus": "  <h1> End of block! </h1>\n\n  You have reached the end of the block 1/5. If you need a short break, feel free to take one now before moving on.\n\n  <br><br>\n  In the next block, you will complete another 90 rounds of this game.\n\n  <br><br>\n  <div style='text-align: center;'>Press <code>space</code> to begin.</div>\n  <br><br>\n<div style='text-align: center;'>(If the experiment doesn't continue, try clicking on the text and then pressing <code>space</code>.)</div>", "response": " ", "trial_id": "stroop_1_ready_2", "trial_type": "html-keyboard-response", "trial_index": 94, "time_elapsed": 433327, "internal_node_id": "0.0-5.0"}}, {"uniqueid": "w82713523:a13859986", "current_trial": 95, "dateTime": 1664368361378, "trialdata": {"rt": 1610, "stimulus": "<p id='stroop-text' class='stroop-blue'>BOTTLE</p>", "response": "b", "stimulus-type": "unrelated", "word": "BOTTLE", "color": "blue", "correct_response": "b", "trial_id": "stroop-trial-1-unrelated-17", "trial_type": "html-keyboard-response", "trial_index": 95, "time_elapsed": 434949, "internal_node_id": "0.0-6.0-0.0"}}, {"uniqueid": "w82713523:a13859986", "current_trial": 96, "dateTime": 1664368363183, "trialdata": {"rt": 1297, "stimulus": "<p id='stroop-text' class='stroop-green'>YELLOW</p>", "response": "g", "stimulus-type": "incongruent", "word": "yellow", "color": "green", "correct_response": "g", "trial_id": "stroop-trial-1-incongruent-16", "trial_type": "html-keyboard-response", "trial_index": 96, "time_elapsed": 436754, "internal_node_id": "0.0-6.0-1.0"}}, {"uniqueid": "w82713523:a13859986", "current_trial": 97, "dateTime": 1664368365034, "trialdata": {"rt": 1336, "stimulus": "<p id='stroop-text' class='stroop-red'>WINDOW</p>", "response": "r", "stimulus-type": "unrelated", "word": "WINDOW", "color": "red", "correct_response": "r", "trial_id": "stroop-trial-1-unrelated-27", "trial_type": "html-keyboard-response", "trial_index": 97, "time_elapsed": 438605, "internal_node_id": "0.0-6.0-2.0"}}, {"uniqueid": "w82713523:a13859986", "current_trial": 98, "dateTime": 1664368366782, "trialdata": {"rt": 1239, "stimulus": "<p id='stroop-text' class='stroop-green'>BLUE</p>", "response": "g", "stimulus-type": "incongruent", "word": "blue", "color": "green", "correct_response": "g", "trial_id": "stroop-trial-1-incongruent-20", "trial_type": "html-keyboard-response", "trial_index": 98, "time_elapsed": 440353, "internal_node_id": "0.0-6.0-3.0"}}, {"uniqueid": "w82713523:a13859986", "current_trial": 99, "dateTime": 1664368368714, "trialdata": {"rt": 1423, "stimulus": "<p id='stroop-text' class='stroop-yellow'>RED</p>", "response": "y", "stimulus-type": "incongruent", "word": "red", "color": "yellow", "correct_response": "y", "trial_id": "stroop-trial-1-incongruent-18", "trial_type": "html-keyboard-response", "trial_index": 99, "time_elapsed": 442285, "internal_node_id": "0.0-6.0-4.0"}}, {"uniqueid": "w82713523:a13859986", "current_trial": 100, "dateTime": 1664368370532, "trialdata": {"rt": 1292, "stimulus": "<p id='stroop-text' class='stroop-green'>BLUE</p>", "response": "g", "stimulus-type": "incongruent", "word": "blue", "color": "green", "correct_response": "g", "trial_id": "stroop-trial-1-incongruent-5", "trial_type": "html-keyboard-response", "trial_index": 100, "time_elapsed": 444103, "internal_node_id": "0.0-6.0-5.0"}}, {"uniqueid": "w82713523:a13859986", "current_trial": 101, "dateTime": 1664368372098, "trialdata": {"rt": 1057, "stimulus": "<p id='stroop-text' class='stroop-red'>MONKEY</p>", "response": "r", "stimulus-type": "unrelated", "word": "MONKEY", "color": "red", "correct_response": "r", "trial_id": "stroop-trial-1-unrelated-22", "trial_type": "html-keyboard-response", "trial_index": 101, "time_elapsed": 445668, "internal_node_id": "0.0-6.0-6.0"}}, {"uniqueid": "w82713523:a13859986", "current_trial": 102, "dateTime": 1664368373571, "trialdata": {"rt": 965, "stimulus": "<p id='stroop-text' class='stroop-yellow'>YELLOW</p>", "response": "y", "stimulus-type": "congruent", "word": "yellow", "color": "yellow", "correct_response": "y", "trial_id": "stroop-trial-1-congruent-15", "trial_type": "html-keyboard-response", "trial_index": 102, "time_elapsed": 447142, "internal_node_id": "0.0-6.0-7.0"}}, {"uniqueid": "w82713523:a13859986", "current_trial": 103, "dateTime": 1664368374970, "trialdata": {"rt": 890, "stimulus": "<p id='stroop-text' class='stroop-green'>GREEN</p>", "response": "g", "stimulus-type": "congruent", "word": "green", "color": "green", "correct_response": "g", "trial_id": "stroop-trial-1-congruent-10", "trial_type": "html-keyboard-response", "trial_index": 103, "time_elapsed": 448541, "internal_node_id": "0.0-6.0-8.0"}}, {"uniqueid": "w82713523:a13859986", "current_trial": 104, "dateTime": 1664368376670, "trialdata": {"rt": 1190, "stimulus": "<p id='stroop-text' class='stroop-red'>GREEN</p>", "response": "r", "stimulus-type": "incongruent", "word": "green", "color": "red", "correct_response": "r", "trial_id": "stroop-trial-1-incongruent-4", "trial_type": "html-keyboard-response", "trial_index": 104, "time_elapsed": 450242, "internal_node_id": "0.0-6.0-9.0"}}, {"uniqueid": "w82713523:a13859986", "current_trial": 105, "dateTime": 1664368378536, "trialdata": {"rt": 1353, "stimulus": "<p id='stroop-text' class='stroop-red'>CHAIR</p>", "response": "r", "stimulus-type": "unrelated", "word": "CHAIR", "color": "red", "correct_response": "r", "trial_id": "stroop-trial-1-unrelated-12", "trial_type": "html-keyboard-response", "trial_index": 105, "time_elapsed": 452107, "internal_node_id": "0.0-6.0-10.0"}}, {"uniqueid": "w82713523:a13859986", "current_trial": 106, "dateTime": 1664368379833, "trialdata": {"rt": 788, "stimulus": "<p id='stroop-text' class='stroop-red'>GREEN</p>", "response": "r", "stimulus-type": "incongruent", "word": "green", "color": "red", "correct_response": "r", "trial_id": "stroop-trial-1-incongruent-17", "trial_type": "html-keyboard-response", "trial_index": 106, "time_elapsed": 453404, "internal_node_id": "0.0-6.0-11.0"}}, {"uniqueid": "w82713523:a13859986", "current_trial": 107, "dateTime": 1664368381089, "trialdata": {"rt": 739, "stimulus": "<p id='stroop-text' class='stroop-red'>YELLOW</p>", "response": "r", "stimulus-type": "incongruent", "word": "yellow", "color": "red", "correct_response": "r", "trial_id": "stroop-trial-1-incongruent-29", "trial_type": "html-keyboard-response", "trial_index": 107, "time_elapsed": 454660, "internal_node_id": "0.0-6.0-12.0"}}, {"uniqueid": "w82713523:a13859986", "current_trial": 108, "dateTime": 1664368382395, "trialdata": {"rt": 795, "stimulus": "<p id='stroop-text' class='stroop-blue'>BRIDGE</p>", "response": "b", "stimulus-type": "unrelated", "word": "BRIDGE", "color": "blue", "correct_response": "b", "trial_id": "stroop-trial-1-unrelated-10", "trial_type": "html-keyboard-response", "trial_index": 108, "time_elapsed": 455966, "internal_node_id": "0.0-6.0-13.0"}}, {"uniqueid": "w82713523:a13859986", "current_trial": 109, "dateTime": 1664368383693, "trialdata": {"rt": 784, "stimulus": "<p id='stroop-text' class='stroop-blue'>BLUE</p>", "response": "b", "stimulus-type": "congruent", "word": "blue", "color": "blue", "correct_response": "b", "trial_id": "stroop-trial-1-congruent-22", "trial_type": "html-keyboard-response", "trial_index": 109, "time_elapsed": 457264, "internal_node_id": "0.0-6.0-14.0"}}, {"uniqueid": "w82713523:a13859986", "current_trial": 110, "dateTime": 1664368384803, "trialdata": {"rt": 602, "stimulus": "<p id='stroop-text' class='stroop-blue'>BLUE</p>", "response": "b", "stimulus-type": "congruent", "word": "blue", "color": "blue", "correct_response": "b", "trial_id": "stroop-trial-1-congruent-14", "trial_type": "html-keyboard-response", "trial_index": 110, "time_elapsed": 458373, "internal_node_id": "0.0-6.0-15.0"}}, {"uniqueid": "w82713523:a13859986", "current_trial": 111, "dateTime": 1664368386303, "trialdata": {"rt": 992, "stimulus": "<p id='stroop-text' class='stroop-green'>GREEN</p>", "response": "g", "stimulus-type": "congruent", "word": "green", "color": "green", "correct_response": "g", "trial_id": "stroop-trial-1-congruent-18", "trial_type": "html-keyboard-response", "trial_index": 111, "time_elapsed": 459875, "internal_node_id": "0.0-6.0-16.0"}}, {"uniqueid": "w82713523:a13859986", "current_trial": 112, "dateTime": 1664368388016, "trialdata": {"rt": 1206, "stimulus": "<p id='stroop-text' class='stroop-red'>YELLOW</p>", "response": "r", "stimulus-type": "incongruent", "word": "yellow", "color": "red", "correct_response": "r", "trial_id": "stroop-trial-1-incongruent-28", "trial_type": "html-keyboard-response", "trial_index": 112, "time_elapsed": 461587, "internal_node_id": "0.0-6.0-17.0"}}, {"uniqueid": "w82713523:a13859986", "current_trial": 113, "dateTime": 1664368389710, "trialdata": {"rt": 1184, "stimulus": "<p id='stroop-text' class='stroop-yellow'>RED</p>", "response": "y", "stimulus-type": "incongruent", "word": "red", "color": "yellow", "correct_response": "y", "trial_id": "stroop-trial-1-incongruent-19", "trial_type": "html-keyboard-response", "trial_index": 113, "time_elapsed": 463281, "internal_node_id": "0.0-6.0-18.0"}}, {"uniqueid": "w82713523:a13859986", "current_trial": 114, "dateTime": 1664368391692, "trialdata": {"rt": 1471, "stimulus": "<p id='stroop-text' class='stroop-red'>BRAIN</p>", "response": "r", "stimulus-type": "unrelated", "word": "BRAIN", "color": "red", "correct_response": "r", "trial_id": "stroop-trial-1-unrelated-19", "trial_type": "html-keyboard-response", "trial_index": 114, "time_elapsed": 465263, "internal_node_id": "0.0-6.0-19.0"}}, {"uniqueid": "w82713523:a13859986", "current_trial": 115, "dateTime": 1664368393699, "trialdata": {"rt": 1497, "stimulus": "<p id='stroop-text' class='stroop-green'>BLUE</p>", "response": "g", "stimulus-type": "incongruent", "word": "blue", "color": "green", "correct_response": "g", "trial_id": "stroop-trial-1-incongruent-9", "trial_type": "html-keyboard-response", "trial_index": 115, "time_elapsed": 467270, "internal_node_id": "0.0-6.0-20.0"}}, {"uniqueid": "w82713523:a13859986", "current_trial": 116, "dateTime": 1664368395830, "trialdata": {"rt": 1619, "stimulus": "<p id='stroop-text' class='stroop-yellow'>RED</p>", "response": "y", "stimulus-type": "incongruent", "word": "red", "color": "yellow", "correct_response": "y", "trial_id": "stroop-trial-1-incongruent-8", "trial_type": "html-keyboard-response", "trial_index": 116, "time_elapsed": 469398, "internal_node_id": "0.0-6.0-21.0"}}, {"uniqueid": "w82713523:a13859986", "current_trial": 117, "dateTime": 1664368397406, "trialdata": {"rt": 1053, "stimulus": "<p id='stroop-text' class='stroop-red'>RED</p>", "response": "r", "stimulus-type": "congruent", "word": "red", "color": "red", "correct_response": "r", "trial_id": "stroop-trial-1-congruent-27", "trial_type": "html-keyboard-response", "trial_index": 117, "time_elapsed": 470977, "internal_node_id": "0.0-6.0-22.0"}}, {"uniqueid": "w82713523:a13859986", "current_trial": 118, "dateTime": 1664368399533, "trialdata": {"rt": 1616, "stimulus": "<p id='stroop-text' class='stroop-green'>GREEN</p>", "response": "g", "stimulus-type": "congruent", "word": "green", "color": "green", "correct_response": "g", "trial_id": "stroop-trial-1-congruent-26", "trial_type": "html-keyboard-response", "trial_index": 118, "time_elapsed": 473105, "internal_node_id": "0.0-6.0-23.0"}}, {"uniqueid": "w82713523:a13859986", "current_trial": 119, "dateTime": 1664368401207, "trialdata": {"rt": 1163, "stimulus": "<p id='stroop-text' class='stroop-blue'>FORK</p>", "response": "b", "stimulus-type": "unrelated", "word": "FORK", "color": "blue", "correct_response": "b", "trial_id": "stroop-trial-1-unrelated-18", "trial_type": "html-keyboard-response", "trial_index": 119, "time_elapsed": 474778, "internal_node_id": "0.0-6.0-24.0"}}, {"uniqueid": "w82713523:a13859986", "current_trial": 120, "dateTime": 1664368403245, "trialdata": {"rt": 1525, "stimulus": "<p id='stroop-text' class='stroop-green'>GREEN</p>", "response": "g", "stimulus-type": "congruent", "word": "green", "color": "green", "correct_response": "g", "trial_id": "stroop-trial-1-congruent-20", "trial_type": "html-keyboard-response", "trial_index": 120, "time_elapsed": 476816, "internal_node_id": "0.0-6.0-25.0"}}, {"uniqueid": "w82713523:a13859986", "current_trial": 121, "dateTime": 1664368404739, "trialdata": {"rt": 985, "stimulus": "<p id='stroop-text' class='stroop-green'>GREEN</p>", "response": "g", "stimulus-type": "congruent", "word": "green", "color": "green", "correct_response": "g", "trial_id": "stroop-trial-1-congruent-8", "trial_type": "html-keyboard-response", "trial_index": 121, "time_elapsed": 478310, "internal_node_id": "0.0-6.0-26.0"}}, {"uniqueid": "w82713523:a13859986", "current_trial": 122, "dateTime": 1664368406220, "trialdata": {"rt": 973, "stimulus": "<p id='stroop-text' class='stroop-blue'>DOG</p>", "response": "b", "stimulus-type": "unrelated", "word": "DOG", "color": "blue", "correct_response": "b", "trial_id": "stroop-trial-1-unrelated-29", "trial_type": "html-keyboard-response", "trial_index": 122, "time_elapsed": 479791, "internal_node_id": "0.0-6.0-27.0"}}, {"uniqueid": "w82713523:a13859986", "current_trial": 123, "dateTime": 1664368407686, "trialdata": {"rt": 950, "stimulus": "<p id='stroop-text' class='stroop-blue'>CHAIR</p>", "response": "b", "stimulus-type": "unrelated", "word": "CHAIR", "color": "blue", "correct_response": "b", "trial_id": "stroop-trial-1-unrelated-15", "trial_type": "html-keyboard-response", "trial_index": 123, "time_elapsed": 481257, "internal_node_id": "0.0-6.0-28.0"}}, {"uniqueid": "w82713523:a13859986", "current_trial": 124, "dateTime": 1664368409126, "trialdata": {"rt": 930, "stimulus": "<p id='stroop-text' class='stroop-blue'>WINDOW</p>", "response": "b", "stimulus-type": "unrelated", "word": "WINDOW", "color": "blue", "correct_response": "b", "trial_id": "stroop-trial-1-unrelated-14", "trial_type": "html-keyboard-response", "trial_index": 124, "time_elapsed": 482697, "internal_node_id": "0.0-6.0-29.0"}}, {"uniqueid": "w82713523:a13859986", "current_trial": 125, "dateTime": 1664368410961, "trialdata": {"rt": 1324, "stimulus": "<p id='stroop-text' class='stroop-green'>YELLOW</p>", "response": "g", "stimulus-type": "incongruent", "word": "yellow", "color": "green", "correct_response": "g", "trial_id": "stroop-trial-1-incongruent-10", "trial_type": "html-keyboard-response", "trial_index": 125, "time_elapsed": 484532, "internal_node_id": "0.0-6.0-30.0"}}, {"uniqueid": "w82713523:a13859986", "current_trial": 126, "dateTime": 1664368412394, "trialdata": {"rt": 924, "stimulus": "<p id='stroop-text' class='stroop-green'>GREEN</p>", "response": "g", "stimulus-type": "congruent", "word": "green", "color": "green", "correct_response": "g", "trial_id": "stroop-trial-1-congruent-29", "trial_type": "html-keyboard-response", "trial_index": 126, "time_elapsed": 485966, "internal_node_id": "0.0-6.0-31.0"}}, {"uniqueid": "w82713523:a13859986", "current_trial": 127, "dateTime": 1664368414171, "trialdata": {"rt": 1270, "stimulus": "<p id='stroop-text' class='stroop-yellow'>RED</p>", "response": "y", "stimulus-type": "incongruent", "word": "red", "color": "yellow", "correct_response": "y", "trial_id": "stroop-trial-1-incongruent-24", "trial_type": "html-keyboard-response", "trial_index": 127, "time_elapsed": 487742, "internal_node_id": "0.0-6.0-32.0"}}, {"uniqueid": "w82713523:a13859986", "current_trial": 128, "dateTime": 1664368415988, "trialdata": {"rt": 1307, "stimulus": "<p id='stroop-text' class='stroop-blue'>GREEN</p>", "response": "b", "stimulus-type": "incongruent", "word": "green", "color": "blue", "correct_response": "b", "trial_id": "stroop-trial-1-incongruent-11", "trial_type": "html-keyboard-response", "trial_index": 128, "time_elapsed": 489559, "internal_node_id": "0.0-6.0-33.0"}}, {"uniqueid": "w82713523:a13859986", "current_trial": 129, "dateTime": 1664368417724, "trialdata": {"rt": 1223, "stimulus": "<p id='stroop-text' class='stroop-green'>BLUE</p>", "response": "g", "stimulus-type": "incongruent", "word": "blue", "color": "green", "correct_response": "g", "trial_id": "stroop-trial-1-incongruent-1", "trial_type": "html-keyboard-response", "trial_index": 129, "time_elapsed": 491295, "internal_node_id": "0.0-6.0-34.0"}}, {"uniqueid": "w82713523:a13859986", "current_trial": 130, "dateTime": 1664368419712, "trialdata": {"rt": 1478, "stimulus": "<p id='stroop-text' class='stroop-blue'>GREEN</p>", "response": "b", "stimulus-type": "incongruent", "word": "green", "color": "blue", "correct_response": "b", "trial_id": "stroop-trial-1-incongruent-23", "trial_type": "html-keyboard-response", "trial_index": 130, "time_elapsed": 493283, "internal_node_id": "0.0-6.0-35.0"}}, {"uniqueid": "w82713523:a13859986", "current_trial": 131, "dateTime": 1664368421212, "trialdata": {"rt": 989, "stimulus": "<p id='stroop-text' class='stroop-yellow'>YELLOW</p>", "response": "y", "stimulus-type": "congruent", "word": "yellow", "color": "yellow", "correct_response": "y", "trial_id": "stroop-trial-1-congruent-28", "trial_type": "html-keyboard-response", "trial_index": 131, "time_elapsed": 494783, "internal_node_id": "0.0-6.0-36.0"}}, {"uniqueid": "w82713523:a13859986", "current_trial": 132, "dateTime": 1664368422757, "trialdata": {"rt": 1030, "stimulus": "<p id='stroop-text' class='stroop-red'>BOTTLE</p>", "response": "r", "stimulus-type": "unrelated", "word": "BOTTLE", "color": "red", "correct_response": "r", "trial_id": "stroop-trial-1-unrelated-2", "trial_type": "html-keyboard-response", "trial_index": 132, "time_elapsed": 496328, "internal_node_id": "0.0-6.0-37.0"}}, {"uniqueid": "w82713523:a13859986", "current_trial": 133, "dateTime": 1664368424181, "trialdata": {"rt": 915, "stimulus": "<p id='stroop-text' class='stroop-red'>BLUE</p>", "response": "r", "stimulus-type": "incongruent", "word": "blue", "color": "red", "correct_response": "r", "trial_id": "stroop-trial-1-incongruent-3", "trial_type": "html-keyboard-response", "trial_index": 133, "time_elapsed": 497752, "internal_node_id": "0.0-6.0-38.0"}}, {"uniqueid": "w82713523:a13859986", "current_trial": 134, "dateTime": 1664368425650, "trialdata": {"rt": 960, "stimulus": "<p id='stroop-text' class='stroop-red'>GREEN</p>", "response": "r", "stimulus-type": "incongruent", "word": "green", "color": "red", "correct_response": "r", "trial_id": "stroop-trial-1-incongruent-15", "trial_type": "html-keyboard-response", "trial_index": 134, "time_elapsed": 499221, "internal_node_id": "0.0-6.0-39.0"}}, {"uniqueid": "w82713523:a13859986", "current_trial": 135, "dateTime": 1664368427171, "trialdata": {"rt": 1005, "stimulus": "<p id='stroop-text' class='stroop-green'>BLUE</p>", "response": "g", "stimulus-type": "incongruent", "word": "blue", "color": "green", "correct_response": "g", "trial_id": "stroop-trial-1-incongruent-22", "trial_type": "html-keyboard-response", "trial_index": 135, "time_elapsed": 500742, "internal_node_id": "0.0-6.0-40.0"}}, {"uniqueid": "w82713523:a13859986", "current_trial": 136, "dateTime": 1664368428580, "trialdata": {"rt": 899, "stimulus": "<p id='stroop-text' class='stroop-yellow'>STONE</p>", "response": "y", "stimulus-type": "unrelated", "word": "STONE", "color": "yellow", "correct_response": "y", "trial_id": "stroop-trial-1-unrelated-5", "trial_type": "html-keyboard-response", "trial_index": 136, "time_elapsed": 502151, "internal_node_id": "0.0-6.0-41.0"}}, {"uniqueid": "w82713523:a13859986", "current_trial": 137, "dateTime": 1664368430082, "trialdata": {"rt": 993, "stimulus": "<p id='stroop-text' class='stroop-green'>GREEN</p>", "response": "g", "stimulus-type": "congruent", "word": "green", "color": "green", "correct_response": "g", "trial_id": "stroop-trial-1-congruent-30", "trial_type": "html-keyboard-response", "trial_index": 137, "time_elapsed": 503654, "internal_node_id": "0.0-6.0-42.0"}}, {"uniqueid": "w82713523:a13859986", "current_trial": 138, "dateTime": 1664368431530, "trialdata": {"rt": 939, "stimulus": "<p id='stroop-text' class='stroop-red'>RED</p>", "response": "r", "stimulus-type": "congruent", "word": "red", "color": "red", "correct_response": "r", "trial_id": "stroop-trial-1-congruent-2", "trial_type": "html-keyboard-response", "trial_index": 138, "time_elapsed": 505101, "internal_node_id": "0.0-6.0-43.0"}}, {"uniqueid": "w82713523:a13859986", "current_trial": 139, "dateTime": 1664368432992, "trialdata": {"rt": 955, "stimulus": "<p id='stroop-text' class='stroop-blue'>BLUE</p>", "response": "b", "stimulus-type": "congruent", "word": "blue", "color": "blue", "correct_response": "b", "trial_id": "stroop-trial-1-congruent-19", "trial_type": "html-keyboard-response", "trial_index": 139, "time_elapsed": 506563, "internal_node_id": "0.0-6.0-44.0"}}, {"uniqueid": "w82713523:a13859986", "current_trial": 140, "dateTime": 1664368434565, "trialdata": {"rt": 1063, "stimulus": "<p id='stroop-text' class='stroop-red'>RED</p>", "response": "r", "stimulus-type": "congruent", "word": "red", "color": "red", "correct_response": "r", "trial_id": "stroop-trial-1-congruent-23", "trial_type": "html-keyboard-response", "trial_index": 140, "time_elapsed": 508136, "internal_node_id": "0.0-6.0-45.0"}}, {"uniqueid": "w82713523:a13859986", "current_trial": 141, "dateTime": 1664368436207, "trialdata": {"rt": 1133, "stimulus": "<p id='stroop-text' class='stroop-blue'>BRAIN</p>", "response": "b", "stimulus-type": "unrelated", "word": "BRAIN", "color": "blue", "correct_response": "b", "trial_id": "stroop-trial-1-unrelated-7", "trial_type": "html-keyboard-response", "trial_index": 141, "time_elapsed": 509778, "internal_node_id": "0.0-6.0-46.0"}}, {"uniqueid": "w82713523:a13859986", "current_trial": 142, "dateTime": 1664368437726, "trialdata": {"rt": 1011, "stimulus": "<p id='stroop-text' class='stroop-blue'>BLUE</p>", "response": "b", "stimulus-type": "congruent", "word": "blue", "color": "blue", "correct_response": "b", "trial_id": "stroop-trial-1-congruent-6", "trial_type": "html-keyboard-response", "trial_index": 142, "time_elapsed": 511297, "internal_node_id": "0.0-6.0-47.0"}}, {"uniqueid": "w82713523:a13859986", "current_trial": 143, "dateTime": 1664368439146, "trialdata": {"rt": 910, "stimulus": "<p id='stroop-text' class='stroop-yellow'>YELLOW</p>", "response": "y", "stimulus-type": "congruent", "word": "yellow", "color": "yellow", "correct_response": "y", "trial_id": "stroop-trial-1-congruent-3", "trial_type": "html-keyboard-response", "trial_index": 143, "time_elapsed": 512717, "internal_node_id": "0.0-6.0-48.0"}}, {"uniqueid": "w82713523:a13859986", "current_trial": 144, "dateTime": 1664368441055, "trialdata": {"rt": 1400, "stimulus": "<p id='stroop-text' class='stroop-green'>BLUE</p>", "response": "g", "stimulus-type": "incongruent", "word": "blue", "color": "green", "correct_response": "g", "trial_id": "stroop-trial-1-incongruent-14", "trial_type": "html-keyboard-response", "trial_index": 144, "time_elapsed": 514627, "internal_node_id": "0.0-6.0-49.0"}}, {"uniqueid": "w82713523:a13859986", "current_trial": 145, "dateTime": 1664368442867, "trialdata": {"rt": 1303, "stimulus": "<p id='stroop-text' class='stroop-blue'>YELLOW</p>", "response": "b", "stimulus-type": "incongruent", "word": "yellow", "color": "blue", "correct_response": "b", "trial_id": "stroop-trial-1-incongruent-27", "trial_type": "html-keyboard-response", "trial_index": 145, "time_elapsed": 516438, "internal_node_id": "0.0-6.0-50.0"}}, {"uniqueid": "w82713523:a13859986", "current_trial": 146, "dateTime": 1664368444528, "trialdata": {"rt": 1145, "stimulus": "<p id='stroop-text' class='stroop-blue'>DOG</p>", "response": "b", "stimulus-type": "unrelated", "word": "DOG", "color": "blue", "correct_response": "b", "trial_id": "stroop-trial-1-unrelated-30", "trial_type": "html-keyboard-response", "trial_index": 146, "time_elapsed": 518099, "internal_node_id": "0.0-6.0-51.0"}}, {"uniqueid": "w82713523:a13859986", "current_trial": 147, "dateTime": 1664368446338, "trialdata": {"rt": 1298, "stimulus": "<p id='stroop-text' class='stroop-yellow'>CHAIR</p>", "response": "y", "stimulus-type": "unrelated", "word": "CHAIR", "color": "yellow", "correct_response": "y", "trial_id": "stroop-trial-1-unrelated-20", "trial_type": "html-keyboard-response", "trial_index": 147, "time_elapsed": 519909, "internal_node_id": "0.0-6.0-52.0"}}, {"uniqueid": "w82713523:a13859986", "current_trial": 148, "dateTime": 1664368448061, "trialdata": {"rt": 1209, "stimulus": "<p id='stroop-text' class='stroop-blue'>MONKEY</p>", "response": "b", "stimulus-type": "unrelated", "word": "MONKEY", "color": "blue", "correct_response": "b", "trial_id": "stroop-trial-1-unrelated-4", "trial_type": "html-keyboard-response", "trial_index": 148, "time_elapsed": 521633, "internal_node_id": "0.0-6.0-53.0"}}, {"uniqueid": "w82713523:a13859986", "current_trial": 149, "dateTime": 1664368449521, "trialdata": {"rt": 951, "stimulus": "<p id='stroop-text' class='stroop-blue'>BOTTLE</p>", "response": "b", "stimulus-type": "unrelated", "word": "BOTTLE", "color": "blue", "correct_response": "b", "trial_id": "stroop-trial-1-unrelated-25", "trial_type": "html-keyboard-response", "trial_index": 149, "time_elapsed": 523092, "internal_node_id": "0.0-6.0-54.0"}}, {"uniqueid": "w82713523:a13859986", "current_trial": 150, "dateTime": 1664368450917, "trialdata": {"rt": 884, "stimulus": "<p id='stroop-text' class='stroop-blue'>BRIDGE</p>", "response": "b", "stimulus-type": "unrelated", "word": "BRIDGE", "color": "blue", "correct_response": "b", "trial_id": "stroop-trial-1-unrelated-26", "trial_type": "html-keyboard-response", "trial_index": 150, "time_elapsed": 524488, "internal_node_id": "0.0-6.0-55.0"}}, {"uniqueid": "w82713523:a13859986", "current_trial": 151, "dateTime": 1664368452417, "trialdata": {"rt": 986, "stimulus": "<p id='stroop-text' class='stroop-blue'>SHIP</p>", "response": "b", "stimulus-type": "unrelated", "word": "SHIP", "color": "blue", "correct_response": "b", "trial_id": "stroop-trial-1-unrelated-24", "trial_type": "html-keyboard-response", "trial_index": 151, "time_elapsed": 525988, "internal_node_id": "0.0-6.0-56.0"}}, {"uniqueid": "w82713523:a13859986", "current_trial": 152, "dateTime": 1664368453891, "trialdata": {"rt": 962, "stimulus": "<p id='stroop-text' class='stroop-blue'>BLUE</p>", "response": "b", "stimulus-type": "congruent", "word": "blue", "color": "blue", "correct_response": "b", "trial_id": "stroop-trial-1-congruent-9", "trial_type": "html-keyboard-response", "trial_index": 152, "time_elapsed": 527462, "internal_node_id": "0.0-6.0-57.0"}}, {"uniqueid": "w82713523:a13859986", "current_trial": 153, "dateTime": 1664368455532, "trialdata": {"rt": 1130, "stimulus": "<p id='stroop-text' class='stroop-red'>GREEN</p>", "response": "r", "stimulus-type": "incongruent", "word": "green", "color": "red", "correct_response": "r", "trial_id": "stroop-trial-1-incongruent-21", "trial_type": "html-keyboard-response", "trial_index": 153, "time_elapsed": 529103, "internal_node_id": "0.0-6.0-58.0"}}, {"uniqueid": "w82713523:a13859986", "current_trial": 154, "dateTime": 1664368456958, "trialdata": {"rt": 915, "stimulus": "<p id='stroop-text' class='stroop-red'>YELLOW</p>", "response": "r", "stimulus-type": "incongruent", "word": "yellow", "color": "red", "correct_response": "r", "trial_id": "stroop-trial-1-incongruent-7", "trial_type": "html-keyboard-response", "trial_index": 154, "time_elapsed": 530529, "internal_node_id": "0.0-6.0-59.0"}}, {"uniqueid": "w82713523:a13859986", "current_trial": 155, "dateTime": 1664368458447, "trialdata": {"rt": 974, "stimulus": "<p id='stroop-text' class='stroop-yellow'>FORK</p>", "response": "y", "stimulus-type": "unrelated", "word": "FORK", "color": "yellow", "correct_response": "y", "trial_id": "stroop-trial-1-unrelated-28", "trial_type": "html-keyboard-response", "trial_index": 155, "time_elapsed": 532018, "internal_node_id": "0.0-6.0-60.0"}}, {"uniqueid": "w82713523:a13859986", "current_trial": 156, "dateTime": 1664368459961, "trialdata": {"rt": 992, "stimulus": "<p id='stroop-text' class='stroop-red'>DOG</p>", "response": "r", "stimulus-type": "unrelated", "word": "DOG", "color": "red", "correct_response": "r", "trial_id": "stroop-trial-1-unrelated-8", "trial_type": "html-keyboard-response", "trial_index": 156, "time_elapsed": 533532, "internal_node_id": "0.0-6.0-61.0"}}, {"uniqueid": "w82713523:a13859986", "current_trial": 157, "dateTime": 1664368461301, "trialdata": {"rt": 829, "stimulus": "<p id='stroop-text' class='stroop-blue'>BLUE</p>", "response": "b", "stimulus-type": "congruent", "word": "blue", "color": "blue", "correct_response": "b", "trial_id": "stroop-trial-1-congruent-25", "trial_type": "html-keyboard-response", "trial_index": 157, "time_elapsed": 534872, "internal_node_id": "0.0-6.0-62.0"}}, {"uniqueid": "w82713523:a13859986", "current_trial": 158, "dateTime": 1664368462602, "trialdata": {"rt": 789, "stimulus": "<p id='stroop-text' class='stroop-blue'>BLUE</p>", "response": "b", "stimulus-type": "congruent", "word": "blue", "color": "blue", "correct_response": "b", "trial_id": "stroop-trial-1-congruent-16", "trial_type": "html-keyboard-response", "trial_index": 158, "time_elapsed": 536173, "internal_node_id": "0.0-6.0-63.0"}}, {"uniqueid": "w82713523:a13859986", "current_trial": 159, "dateTime": 1664368463930, "trialdata": {"rt": 815, "stimulus": "<p id='stroop-text' class='stroop-green'>DOG</p>", "response": "g", "stimulus-type": "unrelated", "word": "DOG", "color": "green", "correct_response": "g", "trial_id": "stroop-trial-1-unrelated-9", "trial_type": "html-keyboard-response", "trial_index": 159, "time_elapsed": 537501, "internal_node_id": "0.0-6.0-64.0"}}, {"uniqueid": "w82713523:a13859986", "current_trial": 160, "dateTime": 1664368465284, "trialdata": {"rt": 843, "stimulus": "<p id='stroop-text' class='stroop-green'>GREEN</p>", "response": "g", "stimulus-type": "congruent", "word": "green", "color": "green", "correct_response": "g", "trial_id": "stroop-trial-1-congruent-12", "trial_type": "html-keyboard-response", "trial_index": 160, "time_elapsed": 538856, "internal_node_id": "0.0-6.0-65.0"}}, {"uniqueid": "w82713523:a13859986", "current_trial": 161, "dateTime": 1664368466592, "trialdata": {"rt": 795, "stimulus": "<p id='stroop-text' class='stroop-green'>GREEN</p>", "response": "g", "stimulus-type": "congruent", "word": "green", "color": "green", "correct_response": "g", "trial_id": "stroop-trial-1-congruent-17", "trial_type": "html-keyboard-response", "trial_index": 161, "time_elapsed": 540163, "internal_node_id": "0.0-6.0-66.0"}}, {"uniqueid": "w82713523:a13859986", "current_trial": 162, "dateTime": 1664368468083, "trialdata": {"rt": 978, "stimulus": "<p id='stroop-text' class='stroop-yellow'>FORK</p>", "response": "y", "stimulus-type": "unrelated", "word": "FORK", "color": "yellow", "correct_response": "y", "trial_id": "stroop-trial-1-unrelated-3", "trial_type": "html-keyboard-response", "trial_index": 162, "time_elapsed": 541654, "internal_node_id": "0.0-6.0-67.0"}}, {"uniqueid": "w82713523:a13859986", "current_trial": 163, "dateTime": 1664368469465, "trialdata": {"rt": 870, "stimulus": "<p id='stroop-text' class='stroop-yellow'>YELLOW</p>", "response": "y", "stimulus-type": "congruent", "word": "yellow", "color": "yellow", "correct_response": "y", "trial_id": "stroop-trial-1-congruent-11", "trial_type": "html-keyboard-response", "trial_index": 163, "time_elapsed": 543036, "internal_node_id": "0.0-6.0-68.0"}}, {"uniqueid": "w82713523:a13859986", "current_trial": 164, "dateTime": 1664368470922, "trialdata": {"rt": 946, "stimulus": "<p id='stroop-text' class='stroop-blue'>GREEN</p>", "response": "b", "stimulus-type": "incongruent", "word": "green", "color": "blue", "correct_response": "b", "trial_id": "stroop-trial-1-incongruent-30", "trial_type": "html-keyboard-response", "trial_index": 164, "time_elapsed": 544493, "internal_node_id": "0.0-6.0-69.0"}}, {"uniqueid": "w82713523:a13859986", "current_trial": 165, "dateTime": 1664368472447, "trialdata": {"rt": 1011, "stimulus": "<p id='stroop-text' class='stroop-red'>RED</p>", "response": "r", "stimulus-type": "congruent", "word": "red", "color": "red", "correct_response": "r", "trial_id": "stroop-trial-1-congruent-13", "trial_type": "html-keyboard-response", "trial_index": 165, "time_elapsed": 546018, "internal_node_id": "0.0-6.0-70.0"}}, {"uniqueid": "w82713523:a13859986", "current_trial": 166, "dateTime": 1664368473887, "trialdata": {"rt": 928, "stimulus": "<p id='stroop-text' class='stroop-green'>FORK</p>", "response": "g", "stimulus-type": "unrelated", "word": "FORK", "color": "green", "correct_response": "g", "trial_id": "stroop-trial-1-unrelated-1", "trial_type": "html-keyboard-response", "trial_index": 166, "time_elapsed": 547458, "internal_node_id": "0.0-6.0-71.0"}}, {"uniqueid": "w82713523:a13859986", "current_trial": 167, "dateTime": 1664368475287, "trialdata": {"rt": 888, "stimulus": "<p id='stroop-text' class='stroop-green'>CHAIR</p>", "response": "g", "stimulus-type": "unrelated", "word": "CHAIR", "color": "green", "correct_response": "g", "trial_id": "stroop-trial-1-unrelated-16", "trial_type": "html-keyboard-response", "trial_index": 167, "time_elapsed": 548858, "internal_node_id": "0.0-6.0-72.0"}}, {"uniqueid": "w82713523:a13859986", "current_trial": 168, "dateTime": 1664368476853, "trialdata": {"rt": 1051, "stimulus": "<p id='stroop-text' class='stroop-yellow'>BLUE</p>", "response": "y", "stimulus-type": "incongruent", "word": "blue", "color": "yellow", "correct_response": "y", "trial_id": "stroop-trial-1-incongruent-6", "trial_type": "html-keyboard-response", "trial_index": 168, "time_elapsed": 550424, "internal_node_id": "0.0-6.0-73.0"}}, {"uniqueid": "w82713523:a13859986", "current_trial": 169, "dateTime": 1664368478290, "trialdata": {"rt": 924, "stimulus": "<p id='stroop-text' class='stroop-yellow'>YELLOW</p>", "response": "y", "stimulus-type": "congruent", "word": "yellow", "color": "yellow", "correct_response": "y", "trial_id": "stroop-trial-1-congruent-24", "trial_type": "html-keyboard-response", "trial_index": 169, "time_elapsed": 551861, "internal_node_id": "0.0-6.0-74.0"}}, {"uniqueid": "w82713523:a13859986", "current_trial": 170, "dateTime": 1664368479664, "trialdata": {"rt": 863, "stimulus": "<p id='stroop-text' class='stroop-yellow'>FORK</p>", "response": "y", "stimulus-type": "unrelated", "word": "FORK", "color": "yellow", "correct_response": "y", "trial_id": "stroop-trial-1-unrelated-11", "trial_type": "html-keyboard-response", "trial_index": 170, "time_elapsed": 553235, "internal_node_id": "0.0-6.0-75.0"}}, {"uniqueid": "w82713523:a13859986", "current_trial": 171, "dateTime": 1664368481181, "trialdata": {"rt": 1006, "stimulus": "<p id='stroop-text' class='stroop-red'>GREEN</p>", "response": "r", "stimulus-type": "incongruent", "word": "green", "color": "red", "correct_response": "r", "trial_id": "stroop-trial-1-incongruent-2", "trial_type": "html-keyboard-response", "trial_index": 171, "time_elapsed": 554752, "internal_node_id": "0.0-6.0-76.0"}}, {"uniqueid": "w82713523:a13859986", "current_trial": 172, "dateTime": 1664368482561, "trialdata": {"rt": 868, "stimulus": "<p id='stroop-text' class='stroop-red'>RED</p>", "response": "r", "stimulus-type": "congruent", "word": "red", "color": "red", "correct_response": "r", "trial_id": "stroop-trial-1-congruent-5", "trial_type": "html-keyboard-response", "trial_index": 172, "time_elapsed": 556132, "internal_node_id": "0.0-6.0-77.0"}}, {"uniqueid": "w82713523:a13859986", "current_trial": 173, "dateTime": 1664368484025, "trialdata": {"rt": 949, "stimulus": "<p id='stroop-text' class='stroop-yellow'>YELLOW</p>", "response": "y", "stimulus-type": "congruent", "word": "yellow", "color": "yellow", "correct_response": "y", "trial_id": "stroop-trial-1-congruent-7", "trial_type": "html-keyboard-response", "trial_index": 173, "time_elapsed": 557596, "internal_node_id": "0.0-6.0-78.0"}}, {"uniqueid": "w82713523:a13859986", "current_trial": 174, "dateTime": 1664368485731, "trialdata": {"rt": 1194, "stimulus": "<p id='stroop-text' class='stroop-blue'>BRIDGE</p>", "response": "b", "stimulus-type": "unrelated", "word": "BRIDGE", "color": "blue", "correct_response": "b", "trial_id": "stroop-trial-1-unrelated-21", "trial_type": "html-keyboard-response", "trial_index": 174, "time_elapsed": 559302, "internal_node_id": "0.0-6.0-79.0"}}, {"uniqueid": "w82713523:a13859986", "current_trial": 175, "dateTime": 1664368487206, "trialdata": {"rt": 968, "stimulus": "<p id='stroop-text' class='stroop-blue'>RED</p>", "response": "b", "stimulus-type": "incongruent", "word": "red", "color": "blue", "correct_response": "b", "trial_id": "stroop-trial-1-incongruent-25", "trial_type": "html-keyboard-response", "trial_index": 175, "time_elapsed": 560777, "internal_node_id": "0.0-6.0-80.0"}}, {"uniqueid": "w82713523:a13859986", "current_trial": 176, "dateTime": 1664368489475, "trialdata": {"rt": 1752, "stimulus": "<p id='stroop-text' class='stroop-yellow'>BLUE</p>", "response": "y", "stimulus-type": "incongruent", "word": "blue", "color": "yellow", "correct_response": "y", "trial_id": "stroop-trial-1-incongruent-26", "trial_type": "html-keyboard-response", "trial_index": 176, "time_elapsed": 563046, "internal_node_id": "0.0-6.0-81.0"}}, {"uniqueid": "w82713523:a13859986", "current_trial": 177, "dateTime": 1664368491044, "trialdata": {"rt": 1057, "stimulus": "<p id='stroop-text' class='stroop-yellow'>RED</p>", "response": "y", "stimulus-type": "incongruent", "word": "red", "color": "yellow", "correct_response": "y", "trial_id": "stroop-trial-1-incongruent-12", "trial_type": "html-keyboard-response", "trial_index": 177, "time_elapsed": 564615, "internal_node_id": "0.0-6.0-82.0"}}, {"uniqueid": "w82713523:a13859986", "current_trial": 178, "dateTime": 1664368492430, "trialdata": {"rt": 871, "stimulus": "<p id='stroop-text' class='stroop-blue'>BLUE</p>", "response": "b", "stimulus-type": "congruent", "word": "blue", "color": "blue", "correct_response": "b", "trial_id": "stroop-trial-1-congruent-1", "trial_type": "html-keyboard-response", "trial_index": 178, "time_elapsed": 566002, "internal_node_id": "0.0-6.0-83.0"}}, {"uniqueid": "w82713523:a13859986", "current_trial": 179, "dateTime": 1664368493810, "trialdata": {"rt": 868, "stimulus": "<p id='stroop-text' class='stroop-green'>BOAT</p>", "response": "g", "stimulus-type": "unrelated", "word": "BOAT", "color": "green", "correct_response": "g", "trial_id": "stroop-trial-1-unrelated-23", "trial_type": "html-keyboard-response", "trial_index": 179, "time_elapsed": 567381, "internal_node_id": "0.0-6.0-84.0"}}, {"uniqueid": "w82713523:a13859986", "current_trial": 180, "dateTime": 1664368495838, "trialdata": {"rt": 1516, "stimulus": "<p id='stroop-text' class='stroop-blue'>DOG</p>", "response": "b", "stimulus-type": "unrelated", "word": "DOG", "color": "blue", "correct_response": "b", "trial_id": "stroop-trial-1-unrelated-6", "trial_type": "html-keyboard-response", "trial_index": 180, "time_elapsed": 569409, "internal_node_id": "0.0-6.0-85.0"}}, {"uniqueid": "w82713523:a13859986", "current_trial": 181, "dateTime": 1664368497316, "trialdata": {"rt": 954, "stimulus": "<p id='stroop-text' class='stroop-blue'>STONE</p>", "response": "b", "stimulus-type": "unrelated", "word": "STONE", "color": "blue", "correct_response": "b", "trial_id": "stroop-trial-1-unrelated-13", "trial_type": "html-keyboard-response", "trial_index": 181, "time_elapsed": 570887, "internal_node_id": "0.0-6.0-86.0"}}, {"uniqueid": "w82713523:a13859986", "current_trial": 182, "dateTime": 1664368498809, "trialdata": {"rt": 981, "stimulus": "<p id='stroop-text' class='stroop-yellow'>BLUE</p>", "response": "y", "stimulus-type": "incongruent", "word": "blue", "color": "yellow", "correct_response": "y", "trial_id": "stroop-trial-1-incongruent-13", "trial_type": "html-keyboard-response", "trial_index": 182, "time_elapsed": 572380, "internal_node_id": "0.0-6.0-87.0"}}, {"uniqueid": "w82713523:a13859986", "current_trial": 183, "dateTime": 1664368500356, "trialdata": {"rt": 1035, "stimulus": "<p id='stroop-text' class='stroop-green'>GREEN</p>", "response": "g", "stimulus-type": "congruent", "word": "green", "color": "green", "correct_response": "g", "trial_id": "stroop-trial-1-congruent-4", "trial_type": "html-keyboard-response", "trial_index": 183, "time_elapsed": 573928, "internal_node_id": "0.0-6.0-88.0"}}, {"uniqueid": "w82713523:a13859986", "current_trial": 184, "dateTime": 1664368502032, "trialdata": {"rt": 1161, "stimulus": "<p id='stroop-text' class='stroop-red'>RED</p>", "response": "r", "stimulus-type": "congruent", "word": "red", "color": "red", "correct_response": "r", "trial_id": "stroop-trial-1-congruent-21", "trial_type": "html-keyboard-response", "trial_index": 184, "time_elapsed": 575603, "internal_node_id": "0.0-6.0-89.0"}}, {"uniqueid": "w82713523:a13859986", "current_trial": 185, "dateTime": 1664368517005, "trialdata": {"rt": 14459, "stimulus": "  <h1> End of block! </h1>\n\n  You have reached the end of the block 2/5. If you need a short break, feel free to take one now before moving on.\n\n  <br><br>\n  In the next block, you will complete another 90 rounds of this game.\n\n  <br><br>\n  <div style='text-align: center;'>Press <code>space</code> to begin.</div>\n  <br><br>\n<div style='text-align: center;'>(If the experiment doesn't continue, try clicking on the text and then pressing <code>space</code>.)</div>", "response": " ", "trial_id": "stroop_1_ready_3", "trial_type": "html-keyboard-response", "trial_index": 185, "time_elapsed": 590577, "internal_node_id": "0.0-7.0"}}, {"uniqueid": "w82713523:a13859986", "current_trial": 186, "dateTime": 1664368518500, "trialdata": {"rt": 1480, "stimulus": "<p id='stroop-text' class='stroop-green'>GREEN</p>", "response": "g", "stimulus-type": "congruent", "word": "green", "color": "green", "correct_response": "g", "trial_id": "stroop-trial-1-congruent-2", "trial_type": "html-keyboard-response", "trial_index": 186, "time_elapsed": 592071, "internal_node_id": "0.0-8.0-0.0"}}, {"uniqueid": "w82713523:a13859986", "current_trial": 187, "dateTime": 1664368520022, "trialdata": {"rt": 1010, "stimulus": "<p id='stroop-text' class='stroop-green'>RED</p>", "response": "g", "stimulus-type": "incongruent", "word": "red", "color": "green", "correct_response": "g", "trial_id": "stroop-trial-1-incongruent-10", "trial_type": "html-keyboard-response", "trial_index": 187, "time_elapsed": 593593, "internal_node_id": "0.0-8.0-1.0"}}, {"uniqueid": "w82713523:a13859986", "current_trial": 188, "dateTime": 1664368521345, "trialdata": {"rt": 816, "stimulus": "<p id='stroop-text' class='stroop-green'>DOG</p>", "response": "g", "stimulus-type": "unrelated", "word": "DOG", "color": "green", "correct_response": "g", "trial_id": "stroop-trial-1-unrelated-12", "trial_type": "html-keyboard-response", "trial_index": 188, "time_elapsed": 594916, "internal_node_id": "0.0-8.0-2.0"}}, {"uniqueid": "w82713523:a13859986", "current_trial": 189, "dateTime": 1664368522494, "trialdata": {"rt": 634, "stimulus": "<p id='stroop-text' class='stroop-green'>RED</p>", "response": "g", "stimulus-type": "incongruent", "word": "red", "color": "green", "correct_response": "g", "trial_id": "stroop-trial-1-incongruent-3", "trial_type": "html-keyboard-response", "trial_index": 189, "time_elapsed": 596065, "internal_node_id": "0.0-8.0-3.0"}}, {"uniqueid": "w82713523:a13859986", "current_trial": 190, "dateTime": 1664368524729, "trialdata": {"rt": 1721, "stimulus": "<p id='stroop-text' class='stroop-yellow'>BRAIN</p>", "response": "y", "stimulus-type": "unrelated", "word": "BRAIN", "color": "yellow", "correct_response": "y", "trial_id": "stroop-trial-1-unrelated-27", "trial_type": "html-keyboard-response", "trial_index": 190, "time_elapsed": 598300, "internal_node_id": "0.0-8.0-4.0"}}, {"uniqueid": "w82713523:a13859986", "current_trial": 191, "dateTime": 1664368526131, "trialdata": {"rt": 888, "stimulus": "<p id='stroop-text' class='stroop-red'>RED</p>", "response": "r", "stimulus-type": "congruent", "word": "red", "color": "red", "correct_response": "r", "trial_id": "stroop-trial-1-congruent-24", "trial_type": "html-keyboard-response", "trial_index": 191, "time_elapsed": 599703, "internal_node_id": "0.0-8.0-5.0"}}, {"uniqueid": "w82713523:a13859986", "current_trial": 192, "dateTime": 1664368527366, "trialdata": {"rt": 728, "stimulus": "<p id='stroop-text' class='stroop-yellow'>YELLOW</p>", "response": "y", "stimulus-type": "congruent", "word": "yellow", "color": "yellow", "correct_response": "y", "trial_id": "stroop-trial-1-congruent-28", "trial_type": "html-keyboard-response", "trial_index": 192, "time_elapsed": 600937, "internal_node_id": "0.0-8.0-6.0"}}, {"uniqueid": "w82713523:a13859986", "current_trial": 193, "dateTime": 1664368528668, "trialdata": {"rt": 789, "stimulus": "<p id='stroop-text' class='stroop-yellow'>GREEN</p>", "response": "y", "stimulus-type": "incongruent", "word": "green", "color": "yellow", "correct_response": "y", "trial_id": "stroop-trial-1-incongruent-1", "trial_type": "html-keyboard-response", "trial_index": 193, "time_elapsed": 602239, "internal_node_id": "0.0-8.0-7.0"}}, {"uniqueid": "w82713523:a13859986", "current_trial": 194, "dateTime": 1664368530241, "trialdata": {"rt": 1044, "stimulus": "<p id='stroop-text' class='stroop-blue'>BLUE</p>", "response": "b", "stimulus-type": "congruent", "word": "blue", "color": "blue", "correct_response": "b", "trial_id": "stroop-trial-1-congruent-7", "trial_type": "html-keyboard-response", "trial_index": 194, "time_elapsed": 603812, "internal_node_id": "0.0-8.0-8.0"}}, {"uniqueid": "w82713523:a13859986", "current_trial": 195, "dateTime": 1664368532648, "trialdata": {"rt": 1894, "stimulus": "<p id='stroop-text' class='stroop-green'>GREEN</p>", "response": "g", "stimulus-type": "congruent", "word": "green", "color": "green", "correct_response": "g", "trial_id": "stroop-trial-1-congruent-1", "trial_type": "html-keyboard-response", "trial_index": 195, "time_elapsed": 606219, "internal_node_id": "0.0-8.0-9.0"}}, {"uniqueid": "w82713523:a13859986", "current_trial": 196, "dateTime": 1664368534771, "trialdata": {"rt": 1595, "stimulus": "<p id='stroop-text' class='stroop-yellow'>RED</p>", "response": "y", "stimulus-type": "incongruent", "word": "red", "color": "yellow", "correct_response": "y", "trial_id": "stroop-trial-1-incongruent-20", "trial_type": "html-keyboard-response", "trial_index": 196, "time_elapsed": 608342, "internal_node_id": "0.0-8.0-10.0"}}, {"uniqueid": "w82713523:a13859986", "current_trial": 197, "dateTime": 1664368536363, "trialdata": {"rt": 1079, "stimulus": "<p id='stroop-text' class='stroop-yellow'>GREEN</p>", "response": "y", "stimulus-type": "incongruent", "word": "green", "color": "yellow", "correct_response": "y", "trial_id": "stroop-trial-1-incongruent-16", "trial_type": "html-keyboard-response", "trial_index": 197, "time_elapsed": 609934, "internal_node_id": "0.0-8.0-11.0"}}, {"uniqueid": "w82713523:a13859986", "current_trial": 198, "dateTime": 1664368537762, "trialdata": {"rt": 883, "stimulus": "<p id='stroop-text' class='stroop-green'>RED</p>", "response": "g", "stimulus-type": "incongruent", "word": "red", "color": "green", "correct_response": "g", "trial_id": "stroop-trial-1-incongruent-8", "trial_type": "html-keyboard-response", "trial_index": 198, "time_elapsed": 611333, "internal_node_id": "0.0-8.0-12.0"}}, {"uniqueid": "w82713523:a13859986", "current_trial": 199, "dateTime": 1664368539075, "trialdata": {"rt": 797, "stimulus": "<p id='stroop-text' class='stroop-yellow'>BRAIN</p>", "response": "y", "stimulus-type": "unrelated", "word": "BRAIN", "color": "yellow", "correct_response": "y", "trial_id": "stroop-trial-1-unrelated-10", "trial_type": "html-keyboard-response", "trial_index": 199, "time_elapsed": 612646, "internal_node_id": "0.0-8.0-13.0"}}, {"uniqueid": "w82713523:a13859986", "current_trial": 200, "dateTime": 1664368541321, "trialdata": {"rt": 1732, "stimulus": "<p id='stroop-text' class='stroop-yellow'>RED</p>", "response": "y", "stimulus-type": "incongruent", "word": "red", "color": "yellow", "correct_response": "y", "trial_id": "stroop-trial-1-incongruent-19", "trial_type": "html-keyboard-response", "trial_index": 200, "time_elapsed": 614892, "internal_node_id": "0.0-8.0-14.0"}}, {"uniqueid": "w82713523:a13859986", "current_trial": 201, "dateTime": 1664368542540, "trialdata": {"rt": 704, "stimulus": "<p id='stroop-text' class='stroop-yellow'>GREEN</p>", "response": "y", "stimulus-type": "incongruent", "word": "green", "color": "yellow", "correct_response": "y", "trial_id": "stroop-trial-1-incongruent-9", "trial_type": "html-keyboard-response", "trial_index": 201, "time_elapsed": 616111, "internal_node_id": "0.0-8.0-15.0"}}, {"uniqueid": "w82713523:a13859986", "current_trial": 202, "dateTime": 1664368543772, "trialdata": {"rt": 719, "stimulus": "<p id='stroop-text' class='stroop-yellow'>GREEN</p>", "response": "y", "stimulus-type": "incongruent", "word": "green", "color": "yellow", "correct_response": "y", "trial_id": "stroop-trial-1-incongruent-2", "trial_type": "html-keyboard-response", "trial_index": 202, "time_elapsed": 617343, "internal_node_id": "0.0-8.0-16.0"}}, {"uniqueid": "w82713523:a13859986", "current_trial": 203, "dateTime": 1664368545102, "trialdata": {"rt": 817, "stimulus": "<p id='stroop-text' class='stroop-blue'>BLUE</p>", "response": "b", "stimulus-type": "congruent", "word": "blue", "color": "blue", "correct_response": "b", "trial_id": "stroop-trial-1-congruent-22", "trial_type": "html-keyboard-response", "trial_index": 203, "time_elapsed": 618673, "internal_node_id": "0.0-8.0-17.0"}}, {"uniqueid": "w82713523:a13859986", "current_trial": 204, "dateTime": 1664368546603, "trialdata": {"rt": 985, "stimulus": "<p id='stroop-text' class='stroop-green'>YELLOW</p>", "response": "g", "stimulus-type": "incongruent", "word": "yellow", "color": "green", "correct_response": "g", "trial_id": "stroop-trial-1-incongruent-26", "trial_type": "html-keyboard-response", "trial_index": 204, "time_elapsed": 620174, "internal_node_id": "0.0-8.0-18.0"}}, {"uniqueid": "w82713523:a13859986", "current_trial": 205, "dateTime": 1664368547935, "trialdata": {"rt": 818, "stimulus": "<p id='stroop-text' class='stroop-green'>SHIP</p>", "response": "g", "stimulus-type": "unrelated", "word": "SHIP", "color": "green", "correct_response": "g", "trial_id": "stroop-trial-1-unrelated-3", "trial_type": "html-keyboard-response", "trial_index": 205, "time_elapsed": 621506, "internal_node_id": "0.0-8.0-19.0"}}, {"uniqueid": "w82713523:a13859986", "current_trial": 206, "dateTime": 1664368549433, "trialdata": {"rt": 983, "stimulus": "<p id='stroop-text' class='stroop-blue'>RED</p>", "response": "b", "stimulus-type": "incongruent", "word": "red", "color": "blue", "correct_response": "b", "trial_id": "stroop-trial-1-incongruent-6", "trial_type": "html-keyboard-response", "trial_index": 206, "time_elapsed": 623004, "internal_node_id": "0.0-8.0-20.0"}}, {"uniqueid": "w82713523:a13859986", "current_trial": 207, "dateTime": 1664368551684, "trialdata": {"rt": 1740, "stimulus": "<p id='stroop-text' class='stroop-green'>GREEN</p>", "response": "g", "stimulus-type": "congruent", "word": "green", "color": "green", "correct_response": "g", "trial_id": "stroop-trial-1-congruent-29", "trial_type": "html-keyboard-response", "trial_index": 207, "time_elapsed": 625255, "internal_node_id": "0.0-8.0-21.0"}}, {"uniqueid": "w82713523:a13859986", "current_trial": 208, "dateTime": 1664368553370, "trialdata": {"rt": 1178, "stimulus": "<p id='stroop-text' class='stroop-blue'>BLUE</p>", "response": "b", "stimulus-type": "congruent", "word": "blue", "color": "blue", "correct_response": "b", "trial_id": "stroop-trial-1-congruent-16", "trial_type": "html-keyboard-response", "trial_index": 208, "time_elapsed": 626941, "internal_node_id": "0.0-8.0-22.0"}}, {"uniqueid": "w82713523:a13859986", "current_trial": 209, "dateTime": 1664368554946, "trialdata": {"rt": 1055, "stimulus": "<p id='stroop-text' class='stroop-blue'>STONE</p>", "response": "b", "stimulus-type": "unrelated", "word": "STONE", "color": "blue", "correct_response": "b", "trial_id": "stroop-trial-1-unrelated-24", "trial_type": "html-keyboard-response", "trial_index": 209, "time_elapsed": 628517, "internal_node_id": "0.0-8.0-23.0"}}, {"uniqueid": "w82713523:a13859986", "current_trial": 210, "dateTime": 1664368556386, "trialdata": {"rt": 927, "stimulus": "<p id='stroop-text' class='stroop-yellow'>DOG</p>", "response": "y", "stimulus-type": "unrelated", "word": "DOG", "color": "yellow", "correct_response": "y", "trial_id": "stroop-trial-1-unrelated-9", "trial_type": "html-keyboard-response", "trial_index": 210, "time_elapsed": 629957, "internal_node_id": "0.0-8.0-24.0"}}, {"uniqueid": "w82713523:a13859986", "current_trial": 211, "dateTime": 1664368557739, "trialdata": {"rt": 836, "stimulus": "<p id='stroop-text' class='stroop-blue'>SHIP</p>", "response": "b", "stimulus-type": "unrelated", "word": "SHIP", "color": "blue", "correct_response": "b", "trial_id": "stroop-trial-1-unrelated-4", "trial_type": "html-keyboard-response", "trial_index": 211, "time_elapsed": 631310, "internal_node_id": "0.0-8.0-25.0"}}, {"uniqueid": "w82713523:a13859986", "current_trial": 212, "dateTime": 1664368559210, "trialdata": {"rt": 958, "stimulus": "<p id='stroop-text' class='stroop-blue'>FORK</p>", "response": "b", "stimulus-type": "unrelated", "word": "FORK", "color": "blue", "correct_response": "b", "trial_id": "stroop-trial-1-unrelated-17", "trial_type": "html-keyboard-response", "trial_index": 212, "time_elapsed": 632781, "internal_node_id": "0.0-8.0-26.0"}}, {"uniqueid": "w82713523:a13859986", "current_trial": 213, "dateTime": 1664368560960, "trialdata": {"rt": 1237, "stimulus": "<p id='stroop-text' class='stroop-green'>GREEN</p>", "response": "g", "stimulus-type": "congruent", "word": "green", "color": "green", "correct_response": "g", "trial_id": "stroop-trial-1-congruent-3", "trial_type": "html-keyboard-response", "trial_index": 213, "time_elapsed": 634531, "internal_node_id": "0.0-8.0-27.0"}}, {"uniqueid": "w82713523:a13859986", "current_trial": 214, "dateTime": 1664368562369, "trialdata": {"rt": 896, "stimulus": "<p id='stroop-text' class='stroop-red'>RED</p>", "response": "r", "stimulus-type": "congruent", "word": "red", "color": "red", "correct_response": "r", "trial_id": "stroop-trial-1-congruent-25", "trial_type": "html-keyboard-response", "trial_index": 214, "time_elapsed": 635940, "internal_node_id": "0.0-8.0-28.0"}}, {"uniqueid": "w82713523:a13859986", "current_trial": 215, "dateTime": 1664368563727, "trialdata": {"rt": 845, "stimulus": "<p id='stroop-text' class='stroop-yellow'>YELLOW</p>", "response": "y", "stimulus-type": "congruent", "word": "yellow", "color": "yellow", "correct_response": "y", "trial_id": "stroop-trial-1-congruent-4", "trial_type": "html-keyboard-response", "trial_index": 215, "time_elapsed": 637298, "internal_node_id": "0.0-8.0-29.0"}}, {"uniqueid": "w82713523:a13859986", "current_trial": 216, "dateTime": 1664368565073, "trialdata": {"rt": 831, "stimulus": "<p id='stroop-text' class='stroop-yellow'>YELLOW</p>", "response": "y", "stimulus-type": "congruent", "word": "yellow", "color": "yellow", "correct_response": "y", "trial_id": "stroop-trial-1-congruent-20", "trial_type": "html-keyboard-response", "trial_index": 216, "time_elapsed": 638644, "internal_node_id": "0.0-8.0-30.0"}}, {"uniqueid": "w82713523:a13859986", "current_trial": 217, "dateTime": 1664368566367, "trialdata": {"rt": 780, "stimulus": "<p id='stroop-text' class='stroop-blue'>MONKEY</p>", "response": "b", "stimulus-type": "unrelated", "word": "MONKEY", "color": "blue", "correct_response": "b", "trial_id": "stroop-trial-1-unrelated-11", "trial_type": "html-keyboard-response", "trial_index": 217, "time_elapsed": 639938, "internal_node_id": "0.0-8.0-31.0"}}, {"uniqueid": "w82713523:a13859986", "current_trial": 218, "dateTime": 1664368568061, "trialdata": {"rt": 1180, "stimulus": "<p id='stroop-text' class='stroop-green'>BOAT</p>", "response": "g", "stimulus-type": "unrelated", "word": "BOAT", "color": "green", "correct_response": "g", "trial_id": "stroop-trial-1-unrelated-5", "trial_type": "html-keyboard-response", "trial_index": 218, "time_elapsed": 641632, "internal_node_id": "0.0-8.0-32.0"}}, {"uniqueid": "w82713523:a13859986", "current_trial": 219, "dateTime": 1664368569743, "trialdata": {"rt": 1166, "stimulus": "<p id='stroop-text' class='stroop-blue'>GREEN</p>", "response": "b", "stimulus-type": "incongruent", "word": "green", "color": "blue", "correct_response": "b", "trial_id": "stroop-trial-1-incongruent-5", "trial_type": "html-keyboard-response", "trial_index": 219, "time_elapsed": 643315, "internal_node_id": "0.0-8.0-33.0"}}, {"uniqueid": "w82713523:a13859986", "current_trial": 220, "dateTime": 1664368571052, "trialdata": {"rt": 795, "stimulus": "<p id='stroop-text' class='stroop-blue'>BLUE</p>", "response": "b", "stimulus-type": "congruent", "word": "blue", "color": "blue", "correct_response": "b", "trial_id": "stroop-trial-1-congruent-5", "trial_type": "html-keyboard-response", "trial_index": 220, "time_elapsed": 644623, "internal_node_id": "0.0-8.0-34.0"}}, {"uniqueid": "w82713523:a13859986", "current_trial": 221, "dateTime": 1664368572699, "trialdata": {"rt": 1131, "stimulus": "<p id='stroop-text' class='stroop-green'>GREEN</p>", "response": "g", "stimulus-type": "congruent", "word": "green", "color": "green", "correct_response": "g", "trial_id": "stroop-trial-1-congruent-11", "trial_type": "html-keyboard-response", "trial_index": 221, "time_elapsed": 646270, "internal_node_id": "0.0-8.0-35.0"}}, {"uniqueid": "w82713523:a13859986", "current_trial": 222, "dateTime": 1664368574092, "trialdata": {"rt": 881, "stimulus": "<p id='stroop-text' class='stroop-red'>DOG</p>", "response": "r", "stimulus-type": "unrelated", "word": "DOG", "color": "red", "correct_response": "r", "trial_id": "stroop-trial-1-u