{"condition": 1, "counterbalance": 0, "assignmentId": "a65762408", "workerId": "w78184613", "hitId": "h91807126", "currenttrial": 143, "bonus": 0, "data": [{"uniqueid": "w78184613:a65762408", "current_trial": 0, "dateTime": 1664554861323, "trialdata": {"success": true, "trial_type": "fullscreen", "trial_index": 0, "time_elapsed": 3814, "internal_node_id": "0.0-0.0"}}, {"uniqueid": "w78184613:a65762408", "current_trial": 1, "dateTime": 1664554885314, "trialdata": {"view_history": [{"page_index": 0, "viewing_time": 23979}], "rt": 23980, "trial_id": "exp_instructions_no_distractor", "trial_type": "instructions", "trial_index": 1, "time_elapsed": 27807, "internal_node_id": "0.0-1.0"}}, {"uniqueid": "w78184613:a65762408", "current_trial": 2, "dateTime": 1664554888680, "trialdata": {"success": true, "trial_type": "fullscreen", "trial_index": 2, "time_elapsed": 31173, "internal_node_id": "0.0-2.0-0.0"}}, {"uniqueid": "w78184613:a65762408", "current_trial": 3, "dateTime": 1664554977400, "trialdata": {"view_history": [{"page_index": 0, "viewing_time": 40425}, {"page_index": 1, "viewing_time": 22708}, {"page_index": 2, "viewing_time": 5760}, {"page_index": 3, "viewing_time": 6048}, {"page_index": 4, "viewing_time": 13776}], "rt": 88717, "trial_id": "mouselab_instructions_1", "trial_type": "instructions", "trial_index": 3, "time_elapsed": 119892, "internal_node_id": "0.0-2.0-1.0"}}, {"uniqueid": "w78184613:a65762408", "current_trial": 4, "dateTime": 1664554990783, "trialdata": {"revealed_states": [], "num_clicks_accrued": [0, 0, 0, 0, 0, 0, 0, 0, 0, 0, 0, 0, 0], "stateRewards": ["", 10, -10, -10, 10, 10, 10, 10, 10, -10, 10, -10, 10], "withholdReward": false, "trial_id": "practice_1", "block": "test", "trialIndex": 0, "score": 30.75, "costs": -1.25, "simulationMode": [null, null, null], "rewards": [10, 10, 10], "path": ["0", "0", "5", "6", "7"], "rt": [7122, 164, 514], "actions": ["right", "right", "up"], "actionTimes": [8572, 9250, 10266], "queries": {"click": {"state": {"target": ["9", "1", "5", "6", "7"], "time": [2816, 3477, 5096, 6363, 7039]}, "edge": {"target": [], "time": []}}, "mouseover": {"state": {"target": ["9", "1", "5", "6", "6", "7"], "time": [2267, 3168, 4031, 5350, 5666, 6685]}, "edge": {"target": [], "time": []}}, "mouseout": {"state": {"target": ["5", "0", "9", "1", "5", "6", "6", "7"], "time": [349, 699, 3067, 3717, 5317, 5399, 6517, 7333]}, "edge": {"target": [], "time": []}}}, "displayed_time": "10.77", "trialTime": 13150, "trial_type": "mouselab-mdp", "trial_index": 4, "time_elapsed": 133275, "internal_node_id": "0.0-2.0-2.0-0.0"}}, {"uniqueid": "w78184613:a65762408", "current_trial": 5, "dateTime": 1664555006128, "trialdata": {"revealed_states": [], "num_clicks_accrued": [0, 0, 0, 0, 0, 0, 0, 0, 0, 0, 0, 0, 0], "stateRewards": ["", 10, -10, -10, 10, 10, 10, -10, -10, -10, -10, 10, 10], "withholdReward": false, "trial_id": "practice_2", "block": "test", "trialIndex": 1, "score": 9.5, "costs": -2.5, "simulationMode": [null, null, null], "rewards": [10, 10, -10], "path": ["0", "0", "5", "6", "7"], "rt": [9611, 186, 617], "actions": ["right", "right", "up"], "actionTimes": [11786, 12493, 13608], "queries": {"click": {"state": {"target": ["1", "2", "4", "5", "6", "7", "8", "9", "10", "12"], "time": [2622, 3968, 4735, 6243, 6867, 7458, 8295, 9335, 9752, 10407]}, "edge": {"target": [], "time": []}}, "mouseover": {"state": {"target": ["1", "2", "9", "2", "4", "3", "5", "6", "7", "8", "0", "9", "10", "12"], "time": [2388, 2888, 3338, 3737, 4571, 5571, 6005, 6521, 7205, 8105, 8924, 9188, 9605, 10071]}, "edge": {"target": [], "time": []}}, "mouseout": {"state": {"target": ["5", "0", "1", "2", "9", "2", "4", "2", "3", "5", "6", "7", "7", "6", "8", "6", "5", "0", "9", "10", "12", "9", "5", "6"], "time": [1622, 1987, 2804, 3237, 3537, 4521, 5271, 5404, 5904, 6454, 7106, 7738, 7905, 8005, 8505, 8804, 8855, 9055, 9538, 9988, 10617, 10804, 10904, 10937]}, "edge": {"target": [], "time": []}}}, "displayed_time": "14.11", "trialTime": 15185, "trial_type": "mouselab-mdp", "trial_index": 5, "time_elapsed": 148621, "internal_node_id": "0.0-2.0-2.0-1.0"}}, {"uniqueid": "w78184613:a65762408", "current_trial": 6, "dateTime": 1664555039292, "trialdata": {"view_history": [{"page_index": 0, "viewing_time": 15943}, {"page_index": 1, "viewing_time": 9004}, {"page_index": 2, "viewing_time": 8204}], "rt": 33151, "trial_id": "mouselab_instructions_2_scarce", "trial_type": "instructions", "trial_index": 6, "time_elapsed": 181785, "internal_node_id": "0.0-2.0-3.0"}}, {"uniqueid": "w78184613:a65762408", "current_trial": 7, "dateTime": 1664555065881, "trialdata": {"rt": 26582, "response": {"Q0": "$-48 to $48", "Q1": "The cost is always $0.25.", "Q2": "The better I perform the higher my bonus will be.", "Q3": "Yes.", "Q4": "The values of the nodes walked through from start to finish.", "Q5": "No, the spider might forget to count the money on some rounds."}, "question_order": [0, 1, 2, 3, 4, 5], "correct": {"Q0": "$-48 to $48", "Q1": "The cost is always $0.25.", "Q2": "The better I perform the higher my bonus will be.", "Q3": "No, the amount of cash at each node of the web may be different each time.", "Q4": "The values of the nodes walked through from start to finish.", "Q5": "No, the spider might forget to count the money on some rounds."}, "trial_id": "mouselab_quiz_scarce", "trial_type": "survey-multi-choice", "trial_index": 7, "time_elapsed": 208374, "internal_node_id": "0.0-2.0-4.0"}}, {"uniqueid": "w78184613:a65762408", "current_trial": 8, "dateTime": 1664555079700, "trialdata": {"success": true, "trial_type": "fullscreen", "trial_index": 8, "time_elapsed": 222193, "internal_node_id": "0.0-2.1-0.1"}}, {"uniqueid": "w78184613:a65762408", "current_trial": 9, "dateTime": 1664555170640, "trialdata": {"view_history": [{"page_index": 0, "viewing_time": 27439}, {"page_index": 1, "viewing_time": 12360}, {"page_index": 2, "viewing_time": 28015}, {"page_index": 3, "viewing_time": 4637}, {"page_index": 4, "viewing_time": 18483}], "rt": 90935, "trial_id": "mouselab_instructions_1", "trial_type": "instructions", "trial_index": 9, "time_elapsed": 313133, "internal_node_id": "0.0-2.1-1.1"}}, {"uniqueid": "w78184613:a65762408", "current_trial": 10, "dateTime": 1664555178485, "trialdata": {"revealed_states": [], "num_clicks_accrued": [0, 0, 0, 0, 0, 0, 0, 0, 0, 0, 0, 0, 0], "stateRewards": ["", 10, -10, -10, 10, 10, 10, 10, 10, -10, 10, -10, 10], "withholdReward": false, "trial_id": "practice_1", "block": "test", "trialIndex": 2, "score": 30.75, "costs": -1.25, "simulationMode": [null, null, null], "rewards": [10, 10, 10], "path": ["0", "0", "5", "6", "7"], "rt": [4152, 122, 129], "actions": ["right", "right", "up"], "actionTimes": [4971, 5593, 6233], "queries": {"click": {"state": {"target": ["1", "2", "5", "6", "7"], "time": [1788, 2300, 3244, 3648, 4016]}, "edge": {"target": [], "time": []}}, "mouseover": {"state": {"target": ["1", "2", "3", "5", "6", "7"], "time": [1086, 2151, 2718, 3069, 3518, 3901]}, "edge": {"target": [], "time": []}}, "mouseout": {"state": {"target": ["5", "0", "1", "2", "3", "5", "6", "7"], "time": [101, 1003, 2052, 2601, 2919, 3419, 3851, 4301]}, "edge": {"target": [], "time": []}}}, "displayed_time": "6.74", "trialTime": 7755, "trial_type": "mouselab-mdp", "trial_index": 10, "time_elapsed": 320977, "internal_node_id": "0.0-2.1-2.1-0.1"}}, {"uniqueid": "w78184613:a65762408", "current_trial": 11, "dateTime": 1664555192441, "trialdata": {"revealed_states": [], "num_clicks_accrued": [0, 0, 0, 0, 0, 0, 0, 0, 0, 0, 0, 0, 0], "stateRewards": ["", 10, -10, -10, 10, 10, 10, -10, -10, -10, -10, 10, 10], "withholdReward": false, "trial_id": "practice_2", "block": "test", "trialIndex": 3, "score": 9.5, "costs": -2.5, "simulationMode": [null, null, null], "rewards": [10, 10, -10], "path": ["0", "0", "5", "6", "8"], "rt": [7384, 118, 142], "actions": ["right", "right", "down"], "actionTimes": [9872, 10488, 11129], "queries": {"click": {"state": {"target": ["5", "1", "2", "6", "7", "8", "9", "10", "12", "11"], "time": [3095, 3511, 3910, 4662, 5014, 5864, 6954, 7258, 7610, 8526]}, "edge": {"target": [], "time": []}}, "mouseover": {"state": {"target": ["5", "1", "2", "6", "7", "8", "0", "9", "9", "10", "12", "11", "11"], "time": [2953, 3386, 3802, 4619, 4885, 5619, 6469, 6502, 6852, 7152, 7519, 8069, 8251]}, "edge": {"target": [], "time": []}}, "mouseout": {"state": {"target": ["7", "5", "0", "5", "1", "2", "6", "7", "6", "8", "5", "0", "9", "9", "10", "12", "10", "11", "11"], "time": [952, 1101, 2620, 3236, 3736, 4136, 4802, 5518, 5569, 6085, 6452, 6485, 6719, 7118, 7469, 7819, 7887, 8085, 8702]}, "edge": {"target": [], "time": []}}}, "displayed_time": "11.64", "trialTime": 13778, "trial_type": "mouselab-mdp", "trial_index": 11, "time_elapsed": 334933, "internal_node_id": "0.0-2.1-2.1-1.1"}}, {"uniqueid": "w78184613:a65762408", "current_trial": 12, "dateTime": 1664555221782, "trialdata": {"view_history": [{"page_index": 0, "viewing_time": 22196}, {"page_index": 1, "viewing_time": 5099}, {"page_index": 2, "viewing_time": 2041}], "rt": 29336, "trial_id": "mouselab_instructions_2_scarce", "trial_type": "instructions", "trial_index": 12, "time_elapsed": 364275, "internal_node_id": "0.0-2.1-3.1"}}, {"uniqueid": "w78184613:a65762408", "current_trial": 13, "dateTime": 1664555257261, "trialdata": {"rt": 35475, "response": {"Q0": "$-48 to $48", "Q1": "The cost is always $0.25.", "Q2": "The better I perform the higher my bonus will be.", "Q3": "No, the amount of cash at each node of the web may be different each time.", "Q4": "The values of the nodes walked through from start to finish.", "Q5": "No, the spider might forget to count the money on some rounds."}, "question_order": [0, 1, 2, 3, 4, 5], "correct": {"Q0": "$-48 to $48", "Q1": "The cost is always $0.25.", "Q2": "The better I perform the higher my bonus will be.", "Q3": "No, the amount of cash at each node of the web may be different each time.", "Q4": "The values of the nodes walked through from start to finish.", "Q5": "No, the spider might forget to count the money on some rounds."}, "trial_id": "mouselab_quiz_scarce", "trial_type": "survey-multi-choice", "trial_index": 13, "time_elapsed": 399754, "internal_node_id": "0.0-2.1-4.1"}}, {"uniqueid": "w78184613:a65762408", "current_trial": 14, "dateTime": 1664555269915, "trialdata": {"rt": 12640, "stimulus": "\n<h1> Get ready to start the game! </h1>\n\nThank you for reading the instructions. Get ready start with the first of 4 block(s) of this game.\n<br><br>\nIn this first block, you will complete 30 rounds of this game before moving on.\n<br><br>\nRemember, the more money the spider gets, the bigger your bonus will be!\n<br><br>\n<div style='text-align: center;'>Press <code>space</code> to begin.</div>\n\n<br><br>\n(If, at any point, the <code>space</code> key does not take you to the next page, click once on the text and try again.)", "response": " ", "trial_id": "mdp_ready_1", "trial_type": "html-keyboard-response", "trial_index": 14, "time_elapsed": 412408, "internal_node_id": "0.0-4.0-0.0"}}, {"uniqueid": "w78184613:a65762408", "current_trial": 15, "dateTime": 1664555282624, "trialdata": {"revealed_states": [], "num_clicks_accrued": [0, 0, 0, 0, 0, 0, 0, 0, 0, 0, 0, 0, 0], "stateRewards": ["", 4, -8, -48, 48, -2, 8, -48, 48, -2, -4, 24, -48], "withholdReward": true, "trial_id": "mdp_400558136089", "block": "test1", "trialIndex": 4, "score": -47.25, "costs": -0.25, "simulationMode": [null, null, null], "rewards": [4, -8, -48], "path": ["0", "0", "1", "2", "3"], "rt": [2917, 222, 147], "actions": ["up", "up", "right"], "actionTimes": [4592, 5314, 5957], "queries": {"click": {"state": {"target": ["1"], "time": [2614]}, "edge": {"target": [], "time": []}}, "mouseover": {"state": {"target": ["1"], "time": [2174]}, "edge": {"target": [], "time": []}}, "mouseout": {"state": {"target": ["7", "5", "0", "0", "1", "1"], "time": [1189, 1239, 1289, 1472, 2945, 3373]}, "edge": {"target": [], "time": []}}}, "displayed_time": "10.69", "trialTime": 12547, "trial_type": "mouselab-mdp", "trial_index": 15, "time_elapsed": 425116, "internal_node_id": "0.0-4.0-1.0-0.0"}}, {"uniqueid": "w78184613:a65762408", "current_trial": 16, "dateTime": 1664555295239, "trialdata": {"revealed_states": [], "num_clicks_accrued": [0, 0, 0, 0, 0, 0, 0, 0, 0, 0, 0, 0, 0], "stateRewards": ["", 4, 4, 48, -48, -2, -8, -48, -24, 2, 4, -24, -48], "withholdReward": false, "trial_id": "mdp_239929662917", "block": "test1", "trialIndex": 5, "score": -35.75, "costs": -0.75, "simulationMode": [null, null, null], "rewards": [4, 4, -48], "path": ["0", "0", "1", "2", "4"], "rt": [3568, 51, 79], "actions": ["up", "up", "left"], "actionTimes": [5084, 5638, 6234], "queries": {"click": {"state": {"target": ["9", "5", "1"], "time": [2004, 3254, 4136]}, "edge": {"target": [], "time": []}}, "mouseover": {"state": {"target": ["9", "10", "5", "1", "7"], "time": [1787, 2569, 3103, 3969, 4402]}, "edge": {"target": [], "time": []}}, "mouseout": {"state": {"target": ["1", "9", "10", "9", "5", "1", "7"], "time": [952, 2469, 2769, 2803, 3469, 4270, 4419]}, "edge": {"target": [], "time": []}}}, "displayed_time": "10.52", "trialTime": 12476, "trial_type": "mouselab-mdp", "trial_index": 16, "time_elapsed": 437732, "internal_node_id": "0.0-4.0-1.0-1.0"}}, {"uniqueid": "w78184613:a65762408", "current_trial": 17, "dateTime": 1664555308562, "trialdata": {"revealed_states": [], "num_clicks_accrued": [0, 0, 0, 0, 0, 0, 0, 0, 0, 0, 0, 0, 0], "stateRewards": ["", -2, -8, -48, 24, 2, -4, -48, 48, 2, 4, 24, -24], "withholdReward": true, "trial_id": "mdp_849341543762", "block": "test1", "trialIndex": 6, "score": 50, "costs": -1, "simulationMode": [null, null, null], "rewards": [2, -4, 48], "path": ["0", "0", "5", "6", "8"], "rt": [5037, 43, 61], "actions": ["right", "right", "down"], "actionTimes": [8849, 9412, 9979], "queries": {"click": {"state": {"target": ["1", "5", "7", "8"], "time": [4204, 5133, 6164, 7448]}, "edge": {"target": [], "time": []}}, "mouseover": {"state": {"target": ["1", "2", "5", "6", "7", "6", "8", "6"], "time": [3983, 4450, 4850, 5433, 6000, 6516, 6834, 7916]}, "edge": {"target": [], "time": []}}, "mouseout": {"state": {"target": ["10", "9", "0", "1", "2", "5", "6", "7", "6", "8", "6"], "time": [3216, 3551, 3900, 4367, 4767, 5350, 5933, 6450, 6650, 7700, 12434]}, "edge": {"target": [], "time": []}}}, "displayed_time": "11.82", "trialTime": 13213, "trial_type": "mouselab-mdp", "trial_index": 17, "time_elapsed": 451055, "internal_node_id": "0.0-4.0-1.0-2.0"}}, {"uniqueid": "w78184613:a65762408", "current_trial": 18, "dateTime": 1664555322772, "trialdata": {"revealed_states": [], "num_clicks_accrued": [0, 0, 0, 0, 0, 0, 0, 0, 0, 0, 0, 0, 0], "stateRewards": ["", -4, -4, -24, -24, -2, 4, 48, -24, -2, -4, -24, 48], "withholdReward": true, "trial_id": "mdp_855903341564", "block": "test1", "trialIndex": 7, "score": 54.25, "costs": -0.75, "simulationMode": [null, null, null], "rewards": [-2, 4, 48], "path": ["0", "0", "5", "6", "7"], "rt": [3881, 8, 23], "actions": ["right", "right", "up"], "actionTimes": [6814, 7324, 7855], "queries": {"click": {"state": {"target": ["8", "7", "6"], "time": [3501, 4477, 5853]}, "edge": {"target": [], "time": []}}, "mouseover": {"state": {"target": ["5", "6", "8", "7", "3", "6"], "time": [3129, 3230, 3297, 4013, 4829, 5529]}, "edge": {"target": [], "time": []}}, "mouseout": {"state": {"target": ["5", "5", "5", "6", "0", "5", "6", "8", "7", "3", "6", "5"], "time": [379, 1713, 2079, 2195, 3037, 3180, 3264, 3696, 4712, 5179, 6246, 12729]}, "edge": {"target": [], "time": []}}}, "displayed_time": "11.94", "trialTime": 14019, "trial_type": "mouselab-mdp", "trial_index": 18, "time_elapsed": 465265, "internal_node_id": "0.0-4.0-1.0-3.0"}}, {"uniqueid": "w78184613:a65762408", "current_trial": 19, "dateTime": 1664555338617, "trialdata": {"revealed_states": [], "num_clicks_accrued": [0, 0, 0, 0, 0, 0, 0, 0, 0, 0, 0, 0, 0], "stateRewards": ["", 2, -8, 24, -24, -2, 8, -48, -48, 2, -8, -24, -48], "withholdReward": false, "trial_id": "mdp_744278669205", "block": "test1", "trialIndex": 8, "score": 20.25, "costs": -2.75, "simulationMode": [null, null, null], "rewards": [2, -8, 24], "path": ["0", "0", "1", "2", "3"], "rt": [10385, 172, 74], "actions": ["up", "up", "right"], "actionTimes": [12374, 13054, 13640], "queries": {"click": {"state": {"target": ["4", "3", "7", "8", "12", "11", "6", "5", "9", "1", "2"], "time": [2673, 3440, 4095, 5094, 6181, 6677, 8009, 8522, 9658, 10460, 10925]}, "edge": {"target": [], "time": []}}, "mouseover": {"state": {"target": ["1", "4", "4", "3", "7", "8", "8", "12", "10", "11", "9", "5", "6", "5", "0", "9", "9", "1", "2"], "time": [2164, 2330, 2492, 3230, 3780, 4530, 4814, 5980, 6380, 6513, 7297, 7597, 7847, 8315, 8763, 8813, 9100, 10047, 10896]}, "edge": {"target": [], "time": []}}, "mouseout": {"state": {"target": ["0", "1", "1", "0", "1", "1", "4", "4", "3", "7", "8", "8", "12", "10", "11", "9", "5", "6", "5", "0", "9", "9", "1"], "time": [413, 679, 879, 1230, 1596, 2230, 2380, 2947, 3680, 4313, 4597, 5513, 6313, 6481, 6913, 7498, 7697, 8197, 8731, 8797, 8864, 9963, 10630]}, "edge": {"target": [], "time": []}}}, "displayed_time": "14.13", "trialTime": 15649, "trial_type": "mouselab-mdp", "trial_index": 19, "time_elapsed": 481110, "internal_node_id": "0.0-4.0-1.0-4.0"}}, {"uniqueid": "w78184613:a65762408", "current_trial": 20, "dateTime": 1664555350457, "trialdata": {"revealed_states": [], "num_clicks_accrued": [0, 0, 0, 0, 0, 0, 0, 0, 0, 0, 0, 0, 0], "stateRewards": ["", 2, 4, 48, 48, -2, 4, 48, -24, -4, 8, -48, 48], "withholdReward": true, "trial_id": "mdp_407586865939", "block": "test1", "trialIndex": 9, "score": 58.25, "costs": -0.75, "simulationMode": [null, null, null], "rewards": [2, 4, 48], "path": ["0", "0", "1", "2", "3"], "rt": [3169, 139, 163], "actions": ["up", "up", "right"], "actionTimes": [5430, 6072, 6745], "queries": {"click": {"state": {"target": ["3", "2", "1"], "time": [2975, 3824, 4483]}, "edge": {"target": [], "time": []}}, "mouseover": {"state": {"target": ["1", "2", "3", "2", "4", "2", "1", "1", "7"], "time": [2419, 2580, 2847, 3214, 3263, 3480, 4080, 4363, 4848]}, "edge": {"target": [], "time": []}}, "mouseout": {"state": {"target": ["2", "1", "1", "1", "2", "3", "2", "4", "2", "1", "1", "7", "5"], "time": [813, 879, 1946, 2530, 2780, 3180, 3247, 3413, 4048, 4113, 4730, 10163, 10680]}, "edge": {"target": [], "time": []}}}, "displayed_time": "10.26", "trialTime": 11655, "trial_type": "mouselab-mdp", "trial_index": 20, "time_elapsed": 492950, "internal_node_id": "0.0-4.0-1.0-5.0"}}, {"uniqueid": "w78184613:a65762408", "current_trial": 21, "dateTime": 1664555361699, "trialdata": {"revealed_states": [], "num_clicks_accrued": [0, 0, 0, 0, 0, 0, 0, 0, 0, 0, 0, 0, 0], "stateRewards": ["", 4, 4, 24, -48, 2, -8, -24, -48, 4, 8, 48, 48], "withholdReward": true, "trial_id": "mdp_592471239511", "block": "test1", "trialIndex": 10, "score": 36.25, "costs": -0.75, "simulationMode": [null, null, null], "rewards": [4, 4, 24], "path": ["0", "0", "1", "2", "3"], "rt": [3276, 164, 75], "actions": ["up", "up", "right"], "actionTimes": [4110, 4776, 5368], "queries": {"click": {"state": {"target": ["3", "2", "1"], "time": [1527, 2124, 2572]}, "edge": {"target": [], "time": []}}, "mouseover": {"state": {"target": ["1", "3", "2", "1", "5"], "time": [1041, 1407, 1774, 2424, 3157]}, "edge": {"target": [], "time": []}}, "mouseout": {"state": {"target": ["0", "1", "3", "2", "1", "5"], "time": [872, 1207, 1707, 2357, 2841, 10274]}, "edge": {"target": [], "time": []}}}, "displayed_time": "9.84", "trialTime": 11074, "trial_type": "mouselab-mdp", "trial_index": 21, "time_elapsed": 504191, "internal_node_id": "0.0-4.0-1.0-6.0"}}, {"uniqueid": "w78184613:a65762408", "current_trial": 22, "dateTime": 1664555373594, "trialdata": {"revealed_states": [], "num_clicks_accrued": [0, 0, 0, 0, 0, 0, 0, 0, 0, 0, 0, 0, 0], "stateRewards": ["", 4, 4, -48, -48, 4, 4, -24, -24, -4, 8, -48, 24], "withholdReward": true, "trial_id": "mdp_669785455541", "block": "test1", "trialIndex": 11, "score": 31, "costs": -2, "simulationMode": [null, null, null], "rewards": [-4, 8, 24], "path": ["0", "0", "9", "10", "12"], "rt": [5888, 73, 34], "actions": ["left", "left", "down"], "actionTimes": [7152, 7727, 8254], "queries": {"click": {"state": {"target": ["7", "8", "3", "4", "11", "12", "9", "10"], "time": [1804, 2449, 3056, 3680, 4256, 4847, 5525, 5908]}, "edge": {"target": [], "time": []}}, "mouseover": {"state": {"target": ["5", "7", "7", "6", "8", "6", "3", "2", "4", "11", "10", "12", "9", "10"], "time": [1351, 1417, 1668, 2150, 2218, 2684, 2834, 3318, 3484, 4018, 4484, 4568, 5384, 5717]}, "edge": {"target": [], "time": []}}, "mouseout": {"state": {"target": ["0", "5", "7", "7", "6", "8", "6", "3", "2", "4", "11", "10", "12", "9", "10", "9"], "time": [1083, 1367, 1451, 2101, 2184, 2651, 2717, 3250, 3435, 3934, 4434, 4517, 5134, 5651, 6250, 6367]}, "edge": {"target": [], "time": []}}}, "displayed_time": "10.27", "trialTime": 11729, "trial_type": "mouselab-mdp", "trial_index": 22, "time_elapsed": 516086, "internal_node_id": "0.0-4.0-1.0-7.0"}}, {"uniqueid": "w78184613:a65762408", "current_trial": 23, "dateTime": 1664555391752, "trialdata": {"revealed_states": [], "num_clicks_accrued": [0, 0, 0, 0, 0, 0, 0, 0, 0, 0, 0, 0, 0], "stateRewards": ["", 4, -8, 24, 48, 2, 4, 48, 48, 2, 8, -48, -48], "withholdReward": false, "trial_id": "mdp_783704746330", "block": "test1", "trialIndex": 12, "score": 48, "costs": -1, "simulationMode": [null, null, null], "rewards": [4, -8, 48], "path": ["0", "0", "1", "2", "4"], "rt": [4306, 59, 112], "actions": ["up", "up", "left"], "actionTimes": [5266, 5840, 6476], "queries": {"click": {"state": {"target": ["11", "4", "2", "1"], "time": [1738, 2327, 3366, 3788]}, "edge": {"target": [], "time": []}}, "mouseover": {"state": {"target": ["11", "11", "4", "2", "3", "2", "1"], "time": [1095, 1563, 2061, 2579, 2650, 3129, 3645]}, "edge": {"target": [], "time": []}}, "mouseout": {"state": {"target": ["9", "0", "11", "11", "4", "2", "3", "2", "1"], "time": [727, 976, 1111, 1978, 2546, 2612, 3095, 3545, 4046]}, "edge": {"target": [], "time": []}}}, "displayed_time": "9.97", "trialTime": 17998, "trial_type": "mouselab-mdp", "trial_index": 23, "time_elapsed": 534245, "internal_node_id": "0.0-4.0-1.0-8.0"}}, {"uniqueid": "w78184613:a65762408", "current_trial": 24, "dateTime": 1664555402373, "trialdata": {"revealed_states": [], "num_clicks_accrued": [0, 0, 0, 0, 0, 0, 0, 0, 0, 0, 0, 0, 0], "stateRewards": ["", 2, 4, 48, -48, 2, 8, -24, 48, 4, 8, 48, -48], "withholdReward": false, "trial_id": "mdp_110142964375", "block": "test1", "trialIndex": 13, "score": 58.25, "costs": -0.75, "simulationMode": [null, null, null], "rewards": [2, 4, 48], "path": ["0", "0", "1", "2", "3"], "rt": [3146, 17, 184], "actions": ["up", "up", "right"], "actionTimes": [4419, 4941, 5642], "queries": {"click": {"state": {"target": ["3", "2", "1"], "time": [2291, 3143, 3528]}, "edge": {"target": [], "time": []}}, "mouseover": {"state": {"target": ["1", "3", "2", "4", "2", "1"], "time": [1689, 2190, 2555, 2606, 2955, 3339]}, "edge": {"target": [], "time": []}}, "mouseout": {"state": {"target": ["0", "1", "3", "2", "4", "2"], "time": [1520, 1922, 2489, 2572, 2872, 3289]}, "edge": {"target": [], "time": []}}}, "displayed_time": "9.28", "trialTime": 10380, "trial_type": "mouselab-mdp", "trial_index": 24, "time_elapsed": 544866, "internal_node_id": "0.0-4.0-1.0-9.0"}}, {"uniqueid": "w78184613:a65762408", "current_trial": 25, "dateTime": 1664555413661, "trialdata": {"revealed_states": [], "num_clicks_accrued": [0, 0, 0, 0, 0, 0, 0, 0, 0, 0, 0, 0, 0], "stateRewards": ["", 2, 4, -48, -48, 2, 4, 48, -24, -2, 8, 48, -48], "withholdReward": true, "trial_id": "mdp_258528916140", "block": "test1", "trialIndex": 14, "score": 57.75, "costs": -1.25, "simulationMode": [null, null, null], "rewards": [2, 4, 48], "path": ["0", "0", "5", "6", "7"], "rt": [4629, 338, 120], "actions": ["right", "right", "up"], "actionTimes": [5977, 6829, 7459], "queries": {"click": {"state": {"target": ["4", "3", "7", "6", "5"], "time": [2065, 2656, 3233, 4396, 4874]}, "edge": {"target": [], "time": []}}, "mouseover": {"state": {"target": ["1", "2", "4", "2", "3", "7", "6", "8", "8", "6", "5"], "time": [1537, 1753, 1920, 2252, 2336, 3060, 3453, 3506, 3803, 4102, 4586]}, "edge": {"target": [], "time": []}}, "mouseout": {"state": {"target": ["1", "5", "0", "1", "2", "4", "2", "3", "7", "6", "8", "8", "6", "5"], "time": [706, 952, 1355, 1553, 1852, 2202, 2303, 2853, 3402, 3504, 3553, 4038, 4535, 5219]}, "edge": {"target": [], "time": []}}}, "displayed_time": "9.35", "trialTime": 11114, "trial_type": "mouselab-mdp", "trial_index": 25, "time_elapsed": 556153, "internal_node_id": "0.0-4.0-1.0-10.0"}}, {"uniqueid": "w78184613:a65762408", "current_trial": 26, "dateTime": 1664555423614, "trialdata": {"revealed_states": [], "num_clicks_accrued": [0, 0, 0, 0, 0, 0, 0, 0, 0, 0, 0, 0, 0], "stateRewards": ["", 4, -4, 48, 24, 2, -8, 24, -48, -2, -4, -48, -48], "withholdReward": true, "trial_id": "mdp_655302318695", "block": "test1", "trialIndex": 15, "score": 52.25, "costs": -0.75, "simulationMode": [null, null, null], "rewards": [4, -4, 48], "path": ["0", "0", "1", "2", "3"], "rt": [2877, 14, 171], "actions": ["up", "up", "right"], "actionTimes": [4114, 4633, 5323], "queries": {"click": {"state": {"target": ["3", "2", "1"], "time": [1759, 2661, 3060]}, "edge": {"target": [], "time": []}}, "mouseover": {"state": {"target": ["1", "3", "2", "4", "2", "1"], "time": [1300, 1666, 1982, 2216, 2449, 2916]}, "edge": {"target": [], "time": []}}, "mouseout": {"state": {"target": ["0", "1", "3", "2", "4", "2", "1"], "time": [1243, 1316, 1966, 1999, 2266, 2849, 3300]}, "edge": {"target": [], "time": []}}}, "displayed_time": "9.24", "trialTime": 9765, "trial_type": "mouselab-mdp", "trial_index": 26, "time_elapsed": 566107, "internal_node_id": "0.0-4.0-1.0-11.0"}}, {"uniqueid": "w78184613:a65762408", "current_trial": 27, "dateTime": 1664555436746, "trialdata": {"revealed_states": [], "num_clicks_accrued": [0, 0, 0, 0, 0, 0, 0, 0, 0, 0, 0, 0, 0], "stateRewards": ["", 4, -8, 48, 48, 2, 4, 48, -48, 4, -4, -48, 48], "withholdReward": true, "trial_id": "mdp_519605841135", "block": "test1", "trialIndex": 16, "score": 48.25, "costs": -0.75, "simulationMode": [null, null, null], "rewards": [4, -8, 48], "path": ["0", "0", "1", "2", "3"], "rt": [2574, 33, 152], "actions": ["up", "up", "right"], "actionTimes": [5140, 5664, 6334], "queries": {"click": {"state": {"target": ["3", "2", "1"], "time": [3147, 3659, 4065]}, "edge": {"target": [], "time": []}}, "mouseover": {"state": {"target": ["1", "3", "2", "1"], "time": [2713, 3046, 3312, 3879]}, "edge": {"target": [], "time": []}}, "mouseout": {"state": {"target": ["1", "0", "1", "3", "2", "1", "5"], "time": [2061, 2411, 2795, 3295, 3812, 4212, 10945]}, "edge": {"target": [], "time": []}}}, "displayed_time": "11.57", "trialTime": 12975, "trial_type": "mouselab-mdp", "trial_index": 27, "time_elapsed": 579239, "internal_node_id": "0.0-4.0-1.0-12.0"}}, {"uniqueid": "w78184613:a65762408", "current_trial": 28, "dateTime": 1664555448491, "trialdata": {"revealed_states": [], "num_clicks_accrued": [0, 0, 0, 0, 0, 0, 0, 0, 0, 0, 0, 0, 0], "stateRewards": ["", -2, -4, -24, 24, -2, 4, -24, -24, -4, 4, 24, -24], "withholdReward": false, "trial_id": "mdp_999419261719", "block": "test1", "trialIndex": 17, "score": 28, "costs": -1, "simulationMode": [null, null, null], "rewards": [-4, 4, 24], "path": ["0", "0", "9", "10", "11"], "rt": [5103, 11, 222], "actions": ["left", "left", "up"], "actionTimes": [6319, 6844, 7605], "queries": {"click": {"state": {"target": ["11", "10", "9", "12"], "time": [1873, 2390, 2806, 5218]}, "edge": {"target": [], "time": []}}, "mouseover": {"state": {"target": ["9", "11", "10", "9", "1", "12"], "time": [1279, 1796, 2196, 2579, 3296, 5096]}, "edge": {"target": [], "time": []}}, "mouseout": {"state": {"target": ["6", "1", "9", "11", "10", "9", "1", "9", "12"], "time": [679, 928, 1296, 2129, 2545, 2996, 3312, 4729, 5362]}, "edge": {"target": [], "time": []}}}, "displayed_time": "9.22", "trialTime": 11587, "trial_type": "mouselab-mdp", "trial_index": 28, "time_elapsed": 590983, "internal_node_id": "0.0-4.0-1.0-13.0"}}, {"uniqueid": "w78184613:a65762408", "current_trial": 29, "dateTime": 1664555460033, "trialdata": {"revealed_states": [], "num_clicks_accrued": [0, 0, 0, 0, 0, 0, 0, 0, 0, 0, 0, 0, 0], "stateRewards": ["", 4, 8, 24, 24, 2, -4, 48, -24, -4, 8, -24, 24], "withholdReward": true, "trial_id": "mdp_932292142091", "block": "test1", "trialIndex": 18, "score": 40.25, "costs": -0.75, "simulationMode": [null, null, null], "rewards": [4, 8, 24], "path": ["0", "0", "1", "2", "3"], "rt": [2419, 24, 131], "actions": ["up", "up", "right"], "actionTimes": [3728, 4256, 4896], "queries": {"click": {"state": {"target": ["3", "2", "1"], "time": [1713, 2336, 2724]}, "edge": {"target": [], "time": []}}, "mouseover": {"state": {"target": ["1", "3", "2", "1"], "time": [1413, 1530, 2096, 2579]}, "edge": {"target": [], "time": []}}, "mouseout": {"state": {"target": ["8", "0", "1", "3", "2", "1"], "time": [862, 945, 1462, 1946, 2529, 2895]}, "edge": {"target": [], "time": []}}}, "displayed_time": "10.32", "trialTime": 11379, "trial_type": "mouselab-mdp", "trial_index": 29, "time_elapsed": 602526, "internal_node_id": "0.0-4.0-1.0-14.0"}}, {"uniqueid": "w78184613:a65762408", "current_trial": 30, "dateTime": 1664555470983, "trialdata": {"revealed_states": [], "num_clicks_accrued": [0, 0, 0, 0, 0, 0, 0, 0, 0, 0, 0, 0, 0], "stateRewards": ["", 4, 8, -48, 24, -2, 8, -48, -48, -4, 4, 48, -48], "withholdReward": true, "trial_id": "mdp_693807815190", "block": "test1", "trialIndex": 19, "score": 39.5, "costs": -1.5, "simulationMode": [null, null, null], "rewards": [4, 8, 24], "path": ["0", "0", "1", "2", "4"], "rt": [4664, 22, 96], "actions": ["up", "up", "left"], "actionTimes": [5935, 6458, 7049], "queries": {"click": {"state": {"target": ["3", "7", "8", "4", "2", "1"], "time": [1735, 2486, 3096, 4151, 4729, 5113]}, "edge": {"target": [], "time": []}}, "mouseover": {"state": {"target": ["1", "3", "2", "7", "6", "8", "6", "5", "1", "4", "2", "1"], "time": [1418, 1567, 2001, 2268, 2754, 2885, 3452, 3535, 3735, 4001, 4568, 4950]}, "edge": {"target": [], "time": []}}, "mouseout": {"state": {"target": ["7", "5", "1", "3", "2", "7", "6", "8", "6", "5", "1", "4", "2", "1"], "time": [834, 867, 1451, 1934, 2165, 2702, 2818, 3301, 3502, 3569, 3801, 4484, 4901, 5333]}, "edge": {"target": [], "time": []}}}, "displayed_time": "10.28", "trialTime": 10767, "trial_type": "mouselab-mdp", "trial_index": 30, "time_elapsed": 613476, "internal_node_id": "0.0-4.0-1.0-15.0"}}, {"uniqueid": "w78184613:a65762408", "current_trial": 31, "dateTime": 1664555482578, "trialdata": {"revealed_states": [], "num_clicks_accrued": [0, 0, 0, 0, 0, 0, 0, 0, 0, 0, 0, 0, 0], "stateRewards": ["", 2, 4, -48, -48, 4, 4, -48, -48, -2, -8, 48, -24], "withholdReward": true, "trial_id": "mdp_175327338412", "block": "test1", "trialIndex": 20, "score": 41, "costs": -2, "simulationMode": [null, null, null], "rewards": [-2, -8, 48], "path": ["0", "0", "9", "10", "11"], "rt": [5902, 38, 188], "actions": ["left", "left", "up"], "actionTimes": [7632, 8193, 8893], "queries": {"click": {"state": {"target": ["4", "3", "7", "8", "11", "12", "10", "9"], "time": [2267, 2715, 3184, 3680, 5055, 5502, 6226, 6611]}, "edge": {"target": [], "time": []}}, "mouseover": {"state": {"target": ["1", "2", "4", "2", "3", "7", "6", "8", "12", "10", "11", "10", "12", "9", "10", "9"], "time": [1903, 1987, 2136, 2486, 2570, 3086, 3386, 3570, 4551, 4653, 4886, 5272, 5369, 5837, 6020, 6437]}, "edge": {"target": [], "time": []}}, "mouseout": {"state": {"target": ["7", "6", "5", "0", "1", "2", "4", "2", "3", "7", "6", "8", "12", "10", "11", "10", "12", "9", "10", "9"], "time": [1270, 1469, 1552, 1836, 1953, 2086, 2453, 2536, 2921, 3337, 3470, 3853, 4603, 4720, 5236, 5320, 5703, 5970, 6387, 6804]}, "edge": {"target": [], "time": []}}}, "displayed_time": "9.73", "trialTime": 11431, "trial_type": "mouselab-mdp", "trial_index": 31, "time_elapsed": 625070, "internal_node_id": "0.0-4.0-1.0-16.0"}}, {"uniqueid": "w78184613:a65762408", "current_trial": 32, "dateTime": 1664555492202, "trialdata": {"revealed_states": [], "num_clicks_accrued": [0, 0, 0, 0, 0, 0, 0, 0, 0, 0, 0, 0, 0], "stateRewards": ["", -4, 4, -48, -48, -4, 8, -24, 24, 2, -4, 48, 48], "withholdReward": true, "trial_id": "mdp_821566905048", "block": "test1", "trialIndex": 21, "score": 49.5, "costs": -1.5, "simulationMode": [null, null, null], "rewards": [2, -4, 48], "path": ["0", "0", "9", "10", "11"], "rt": [5053, 9, 142], "actions": ["left", "left", "up"], "actionTimes": [6247, 6754, 7416], "queries": {"click": {"state": {"target": ["4", "3", "7", "11", "9", "10"], "time": [1618, 2145, 2609, 3218, 5054, 5405]}, "edge": {"target": [], "time": []}}, "mouseover": {"state": {"target": ["4", "2", "3", "7", "11", "10", "9", "10"], "time": [1506, 1823, 2006, 2422, 3039, 3456, 4856, 5256]}, "edge": {"target": [], "time": []}}, "mouseout": {"state": {"target": ["1", "0", "4", "2", "3", "7", "11", "10", "9", "10"], "time": [855, 1200, 1789, 1923, 2340, 2740, 3389, 3540, 5185, 5573]}, "edge": {"target": [], "time": []}}}, "displayed_time": "9.20", "trialTime": 9458, "trial_type": "mouselab-mdp", "trial_index": 32, "time_elapsed": 634695, "internal_node_id": "0.0-4.0-1.0-17.0"}}, {"uniqueid": "w78184613:a65762408", "current_trial": 33, "dateTime": 1664555503110, "trialdata": {"revealed_states": [], "num_clicks_accrued": [0, 0, 0, 0, 0, 0, 0, 0, 0, 0, 0, 0, 0], "stateRewards": ["", 4, 8, -48, -48, 2, 4, -24, -48, 2, 8, 48, -48], "withholdReward": true, "trial_id": "mdp_902172716465", "block": "test1", "trialIndex": 22, "score": 62.25, "costs": -0.75, "simulationMode": [null, null, null], "rewards": [2, 8, 48], "path": ["0", "0", "9", "10", "11"], "rt": [2659, 38, 160], "actions": ["left", "left", "up"], "actionTimes": [4139, 4678, 5349], "queries": {"click": {"state": {"target": ["11", "10", "9"], "time": [2016, 2766, 3168]}, "edge": {"target": [], "time": []}}, "mouseover": {"state": {"target": ["11", "4", "10", "9"], "time": [1837, 2287, 2637, 3021]}, "edge": {"target": [], "time": []}}, "mouseout": {"state": {"target": ["11", "9", "11", "4", "10", "9"], "time": [1170, 1253, 2187, 2488, 2921, 3305]}, "edge": {"target": [], "time": []}}}, "displayed_time": "10.49", "trialTime": 10731, "trial_type": "mouselab-mdp", "trial_index": 33, "time_elapsed": 645603, "internal_node_id": "0.0-4.0-1.0-18.0"}}, {"uniqueid": "w78184613:a65762408", "current_trial": 34, "dateTime": 1664555517100, "trialdata": {"revealed_states": [], "num_clicks_accrued": [0, 0, 0, 0, 0, 0, 0, 0, 0, 0, 0, 0, 0], "stateRewards": ["", 2, -4, 48, 24, 2, 8, 24, 24, -2, 4, 24, 24], "withholdReward": true, "trial_id": "mdp_813974524300", "block": "test1", "trialIndex": 23, "score": 50.25, "costs": -0.75, "simulationMode": [null, null, null], "rewards": [2, -4, 48], "path": ["0", "0", "1", "2", "3"], "rt": [2848, 95, 370], "actions": ["up", "up", "right"], "actionTimes": [4848, 5434, 6325], "queries": {"click": {"state": {"target": ["3", "2", "1"], "time": [2519, 3397, 3766]}, "edge": {"target": [], "time": []}}, "mouseover": {"state": {"target": ["1", "2", "3", "2", "2", "1", "4"], "time": [2052, 2137, 2419, 2720, 3320, 3653, 3986]}, "edge": {"target": [], "time": []}}, "mouseout": {"state": {"target": ["1", "2", "1", "1", "2", "3", "2", "2", "1", "4"], "time": [1068, 1619, 1669, 2103, 2236, 2687, 2836, 3569, 3952, 4002]}, "edge": {"target": [], "time": []}}}, "displayed_time": "10.01", "trialTime": 13836, "trial_type": "mouselab-mdp", "trial_index": 34, "time_elapsed": 659592, "internal_node_id": "0.0-4.0-1.0-19.0"}}, {"uniqueid": "w78184613:a65762408", "current_trial": 35, "dateTime": 1664555528075, "trialdata": {"revealed_states": [], "num_clicks_accrued": [0, 0, 0, 0, 0, 0, 0, 0, 0, 0, 0, 0, 0], "stateRewards": ["", 2, 4, 48, 24, -2, -8, 24, 24, -2, 4, -48, 24], "withholdReward": false, "trial_id": "mdp_130849500124", "block": "test1", "trialIndex": 24, "score": 58, "costs": -1, "simulationMode": [null, null, null], "rewards": [2, 4, 48], "path": ["0", "0", "1", "2", "3"], "rt": [4462, 28, 124], "actions": ["up", "up", "right"], "actionTimes": [6578, 7128, 7775], "queries": {"click": {"state": {"target": ["4", "3", "2", "1"], "time": [2829, 4901, 5297, 5696]}, "edge": {"target": [], "time": []}}, "mouseover": {"state": {"target": ["1", "4", "2", "3", "2", "1"], "time": [2314, 2704, 3248, 4748, 5188, 5564]}, "edge": {"target": [], "time": []}}, "mouseout": {"state": {"target": ["11", "1", "1", "0", "1", "4", "2", "3", "2", "1", "3"], "time": [1062, 1430, 1830, 2182, 2447, 3164, 4231, 5098, 5481, 5829, 5914]}, "edge": {"target": [], "time": []}}}, "displayed_time": "10.12", "trialTime": 10906, "trial_type": "mouselab-mdp", "trial_index": 35, "time_elapsed": 670567, "internal_node_id": "0.0-4.0-1.0-20.0"}}, {"uniqueid": "w78184613:a65762408", "current_trial": 36, "dateTime": 1664555541094, "trialdata": {"revealed_states": [], "num_clicks_accrued": [0, 0, 0, 0, 0, 0, 0, 0, 0, 0, 0, 0, 0], "stateRewards": ["", -2, -4, -48, -48, 4, 8, 24, -48, 4, -8, 24, 24], "withholdReward": false, "trial_id": "mdp_749799219195", "block": "test1", "trialIndex": 25, "score": 38.5, "costs": -2.5, "simulationMode": [null, null, null], "rewards": [4, 8, 24], "path": ["0", "0", "5", "6", "7"], "rt": [8817, 64, 127], "actions": ["right", "right", "up"], "actionTimes": [10235, 10810, 11456], "queries": {"click": {"state": {"target": ["3", "4", "11", "12", "10", "9", "7", "8", "6", "5"], "time": [1944, 2695, 3305, 3896, 4713, 5709, 7261, 7905, 8513, 8961]}, "edge": {"target": [], "time": []}}, "mouseover": {"state": {"target": ["1", "3", "2", "4", "11", "10", "12", "10", "9", "9", "0", "5", "6", "7", "6", "8", "6", "5"], "time": [1560, 1860, 2295, 2577, 3144, 3510, 3627, 4460, 5210, 5594, 5927, 6010, 6893, 7093, 7494, 7727, 8343, 8760]}, "edge": {"target": [], "time": []}}, "mouseout": {"state": {"target": ["7", "5", "0", "1", "3", "2", "4", "11", "10", "12", "10", "9", "9", "0", "5", "6", "7", "6", "8", "6", "5", "6"], "time": [1026, 1150, 1454, 1626, 2144, 2548, 2927, 3460, 3561, 4094, 4877, 5327, 5911, 5977, 6760, 7032, 7460, 7560, 8060, 8693, 9143, 9243]}, "edge": {"target": [], "time": []}}}, "displayed_time": "11.98", "trialTime": 12821, "trial_type": "mouselab-mdp", "trial_index": 36, "time_elapsed": 683587, "internal_node_id": "0.0-4.0-1.0-21.0"}}, {"uniqueid": "w78184613:a65762408", "current_trial": 37, "dateTime": 1664555554996, "trialdata": {"revealed_states": [], "num_clicks_accrued": [0, 0, 0, 0, 0, 0, 0, 0, 0, 0, 0, 0, 0], "stateRewards": ["", -2, 4, -24, -24, -2, 4, 48, 24, -4, -8, 24, -48], "withholdReward": false, "trial_id": "mdp_191839460481", "block": "test1", "trialIndex": 26, "score": 53.75, "costs": -1.25, "simulationMode": [null, null, null], "rewards": [-2, 4, 48], "path": ["0", "0", "5", "6", "7"], "rt": [3982, 130, 13], "actions": ["right", "right", "up"], "actionTimes": [5850, 6473, 6988], "queries": {"click": {"state": {"target": ["2", "3", "7", "6", "5"], "time": [2357, 3160, 3672, 4487, 4844]}, "edge": {"target": [], "time": []}}, "mouseover": {"state": {"target": ["1", "2", "3", "3", "7", "8", "6", "5"], "time": [2039, 2205, 2672, 3039, 3405, 3955, 4289, 4689]}, "edge": {"target": [], "time": []}}, "mouseout": {"state": {"target": ["6", "1", "2", "3", "3", "7", "8", "6", "5", "6"], "time": [772, 2155, 2638, 2839, 3339, 3822, 4239, 4622, 5255, 5322]}, "edge": {"target": [], "time": []}}}, "displayed_time": "10.88", "trialTime": 13719, "trial_type": "mouselab-mdp", "trial_index": 37, "time_elapsed": 697489, "internal_node_id": "0.0-4.0-1.0-22.0"}}, {"uniqueid": "w78184613:a65762408", "current_trial": 38, "dateTime": 1664555565856, "trialdata": {"revealed_states": [], "num_clicks_accrued": [0, 0, 0, 0, 0, 0, 0, 0, 0, 0, 0, 0, 0], "stateRewards": ["", 4, 8, 48, -48, -4, 8, -24, -24, -4, 8, 48, 48], "withholdReward": true, "trial_id": "mdp_377640328420", "block": "test1", "trialIndex": 27, "score": 64, "costs": -1, "simulationMode": [null, null, null], "rewards": [4, 8, 48], "path": ["0", "0", "1", "2", "3"], "rt": [3729, 155, 284], "actions": ["up", "up", "right"], "actionTimes": [6116, 6775, 7556], "queries": {"click": {"state": {"target": ["4", "3", "2", "1"], "time": [3049, 3688, 4604, 4971]}, "edge": {"target": [], "time": []}}, "mouseover": {"state": {"target": ["4", "4", "2", "3", "2", "1"], "time": [2568, 2884, 3320, 3385, 4502, 4817]}, "edge": {"target": [], "time": []}}, "mouseout": {"state": {"target": ["5", "0", "9", "0", "4", "4", "2", "3", "2", "1"], "time": [1784, 1818, 2083, 2450, 2584, 3284, 3351, 3884, 4768, 5101]}, "edge": {"target": [], "time": []}}}, "displayed_time": "10.40", "trialTime": 10707, "trial_type": "mouselab-mdp", "trial_index": 38, "time_elapsed": 708349, "internal_node_id": "0.0-4.0-1.0-23.0"}}, {"uniqueid": "w78184613:a65762408", "current_trial": 39, "dateTime": 1664555582892, "trialdata": {"revealed_states": [], "num_clicks_accrued": [0, 0, 0, 0, 0, 0, 0, 0, 0, 0, 0, 0, 0], "stateRewards": ["", -2, -4, 48, 48, 2, 4, -48, 24, 4, -8, 24, -24], "withholdReward": true, "trial_id": "mdp_628613319495", "block": "test1", "trialIndex": 28, "score": 46.25, "costs": -0.75, "simulationMode": [null, null, null], "rewards": [-2, -4, 48], "path": ["0", "0", "1", "2", "3"], "rt": [4356, 43, 110], "actions": ["up", "up", "right"], "actionTimes": [10226, 10779, 11411], "queries": {"click": {"state": {"target": ["3", "2", "1"], "time": [6472, 7175, 7529]}, "edge": {"target": [], "time": []}}, "mouseover": {"state": {"target": ["3", "2", "4", "2", "1", "7", "7", "4", "7"], "time": [6332, 6666, 6732, 7066, 7416, 7782, 8099, 8399, 8817]}, "edge": {"target": [], "time": []}}, "mouseout": {"state": {"target": ["7", "5", "0", "3", "2", "4", "2", "1", "7", "7", "1", "4"], "time": [5549, 5631, 5984, 6633, 6699, 7001, 7349, 7716, 7816, 8116, 8168, 8699]}, "edge": {"target": [], "time": []}}}, "displayed_time": "14.88", "trialTime": 16891, "trial_type": "mouselab-mdp", "trial_index": 39, "time_elapsed": 725384, "internal_node_id": "0.0-4.0-1.0-24.0"}}, {"uniqueid": "w78184613:a65762408", "current_trial": 40, "dateTime": 1664555595399, "trialdata": {"revealed_states": [], "num_clicks_accrued": [0, 0, 0, 0, 0, 0, 0, 0, 0, 0, 0, 0, 0], "stateRewards": ["", -4, -8, -24, 24, 4, 4, -48, -48, -4, -4, 24, -48], "withholdReward": true, "trial_id": "mdp_431592223624", "block": "test1", "trialIndex": 29, "score": 18.5, "costs": -2.5, "simulationMode": [null, null, null], "rewards": [-4, -4, 24], "path": ["0", "0", "9", "10", "11"], "rt": [8456, 104, 157], "actions": ["left", "left", "up"], "actionTimes": [9515, 10120, 10774], "queries": {"click": {"state": {"target": ["3", "4", "7", "8", "12", "11", "10", "9", "1", "2"], "time": [2064, 2655, 3283, 3781, 4630, 5029, 5715, 6072, 6567, 6917]}, "edge": {"target": [], "time": []}}, "mouseover": {"state": {"target": ["1", "3", "2", "4", "1", "7", "6", "8", "6", "5", "0", "9", "12", "10", "11", "10", "9", "1", "2"], "time": [1131, 1931, 2298, 2514, 2947, 3047, 3514, 3681, 4098, 4164, 4214, 4265, 4598, 4781, 4931, 5547, 5898, 6397, 6797]}, "edge": {"target": [], "time": []}}, "mouseout": {"state": {"target": ["7", "1", "3", "2", "4", "1", "7", "6", "8", "6", "5", "0", "9", "12", "10", "11", "10", "9", "1", "2", "3", "1"], "time": [614, 1181, 2264, 2414, 2865, 2964, 3447, 3581, 3998, 4148, 4198, 4247, 4315, 4725, 4847, 5298, 5831, 6231, 6697, 7231, 7298, 7514]}, "edge": {"target": [], "time": []}}}, "displayed_time": "11.27", "trialTime": 12315, "trial_type": "mouselab-mdp", "trial_index": 40, "time_elapsed": 737892, "internal_node_id": "0.0-4.0-1.0-25.0"}}, {"uniqueid": "w78184613:a65762408", "current_trial": 41, "dateTime": 1664555613417, "trialdata": {"revealed_states": [], "num_clicks_accrued": [0, 0, 0, 0, 0, 0, 0, 0, 0, 0, 0, 0, 0], "stateRewards": ["", -4, 4, 24, 24, 4, -8, 48, -48, -2, -8, 24, 24], "withholdReward": true, "trial_id": "mdp_395264223239", "block": "test1", "trialIndex": 30, "score": 47.25, "costs": -1.75, "simulationMode": [null, null, null], "rewards": [4, -8, 48], "path": ["0", "0", "5", "6", "7"], "rt": [7245, 68, 448], "actions": ["right", "right", "up"], "actionTimes": [11092, 11663, 12611], "queries": {"click": {"state": {"target": ["4", "3", "11", "12", "7", "6", "5"], "time": [4568, 5112, 5836, 6461, 7757, 8491, 8864]}, "edge": {"target": [], "time": []}}, "mouseover": {"state": {"target": ["1", "4", "4", "2", "3", "1", "11", "10", "12", "9", "9", "7", "6", "6", "5"], "time": [3977, 4243, 4460, 4744, 5010, 5460, 5594, 6027, 6210, 6727, 7007, 7593, 7977, 8327, 8710]}, "edge": {"target": [], "time": []}}, "mouseout": {"state": {"target": ["1", "0", "1", "4", "4", "2", "3", "1", "11", "10", "12", "9", "9", "7", "6", "6", "5", "7", "7"], "time": [1343, 3861, 3994, 4277, 4710, 4778, 5378, 5494, 5993, 6127, 6644, 6860, 7410, 7927, 8044, 8627, 9027, 9127, 9877]}, "edge": {"target": [], "time": []}}}, "displayed_time": "13.14", "trialTime": 17829, "trial_type": "mouselab-mdp", "trial_index": 41, "time_elapsed": 755910, "internal_node_id": "0.0-4.0-1.0-26.0"}}, {"uniqueid": "w78184613:a65762408", "current_trial": 42, "dateTime": 1664555625894, "trialdata": {"revealed_states": [], "num_clicks_accrued": [0, 0, 0, 0, 0, 0, 0, 0, 0, 0, 0, 0, 0], "stateRewards": ["", -2, -4, -24, -48, -4, -8, -48, 24, -4, -8, -24, -48], "withholdReward": true, "trial_id": "mdp_475782454549", "block": "test1", "trialIndex": 31, "score": 15, "costs": -2, "simulationMode": [null, null, null], "rewards": [-4, -8, 24], "path": ["0", "0", "5", "6", "8"], "rt": [7316, 66, 102], "actions": ["right", "right", "down"], "actionTimes": [8584, 9174, 9776], "queries": {"click": {"state": {"target": ["3", "7", "8", "11", "12", "4", "6", "5"], "time": [1684, 2280, 2872, 3558, 4184, 4726, 5738, 6106]}, "edge": {"target": [], "time": []}}, "mouseover": {"state": {"target": ["1", "2", "3", "7", "6", "8", "0", "9", "10", "11", "10", "12", "4", "2", "6", "5", "0", "9", "9"], "time": [1339, 1439, 1606, 2040, 2523, 2623, 3123, 3143, 3159, 3440, 3823, 4039, 4505, 5189, 5622, 6023, 6489, 6572, 7438]}, "edge": {"target": [], "time": []}}, "mouseout": {"state": {"target": ["1", "1", "2", "3", "7", "6", "8", "0", "9", "10", "11", "10", "12", "4", "2", "6", "5", "0", "9", "9"], "time": [956, 1390, 1456, 1906, 2473, 2573, 3023, 3140, 3156, 3173, 3773, 3922, 4322, 5022, 5273, 5872, 6445, 6555, 7155, 7539]}, "edge": {"target": [], "time": []}}}, "displayed_time": "10.29", "trialTime": 12300, "trial_type": "mouselab-mdp", "trial_index": 42, "time_elapsed": 768386, "internal_node_id": "0.0-4.0-1.0-27.0"}}, {"uniqueid": "w78184613:a65762408", "current_trial": 43, "dateTime": 1664555635509, "trialdata": {"revealed_states": [], "num_clicks_accrued": [0, 0, 0, 0, 0, 0, 0, 0, 0, 0, 0, 0, 0], "stateRewards": ["", -2, 8, 48, -24, 2, 4, -48, -24, -4, 8, -48, -48], "withholdReward": true, "trial_id": "mdp_539167561933", "block": "test1", "trialIndex": 32, "score": 58.25, "costs": -0.75, "simulationMode": [null, null, null], "rewards": [-2, 8, 48], "path": ["0", "0", "1", "2", "3"], "rt": [4207, 121, 89], "actions": ["up", "up", "right"], "actionTimes": [5247, 5885, 6470], "queries": {"click": {"state": {"target": ["3", "2", "1"], "time": [3060, 3843, 4212]}, "edge": {"target": [], "time": []}}, "mouseover": {"state": {"target": ["3", "2", "3", "2", "1", "7"], "time": [1711, 2411, 2845, 3344, 4078, 4429]}, "edge": {"target": [], "time": []}}, "mouseout": {"state": {"target": ["3", "2", "3", "2", "1", "7"], "time": [1883, 2745, 3245, 4011, 4394, 4444]}, "edge": {"target": [], "time": []}}}, "displayed_time": "9.05", "trialTime": 9405, "trial_type": "mouselab-mdp", "trial_index": 43, "time_elapsed": 778002, "internal_node_id": "0.0-4.0-1.0-28.0"}}, {"uniqueid": "w78184613:a65762408", "current_trial": 44, "dateTime": 1664555647525, "trialdata": {"revealed_states": [], "num_clicks_accrued": [0, 0, 0, 0, 0, 0, 0, 0, 0, 0, 0, 0, 0], "stateRewards": ["", 2, 8, 48, -48, -2, -4, -24, 24, 4, -4, 48, -48], "withholdReward": true, "trial_id": "mdp_105734044587", "block": "test1", "trialIndex": 33, "score": 62.25, "costs": -0.75, "simulationMode": [null, null, null], "rewards": [2, 8, 48], "path": ["0", "0", "1", "2", "3"], "rt": [2725, 73, 24], "actions": ["up", "up", "right"], "actionTimes": [5497, 6070, 6604], "queries": {"click": {"state": {"target": ["3", "2", "1"], "time": [3325, 4141, 4463]}, "edge": {"target": [], "time": []}}, "mouseover": {"state": {"target": ["3", "2", "4", "2", "1"], "time": [3160, 3561, 3661, 4028, 4350]}, "edge": {"target": [], "time": []}}, "mouseout": {"state": {"target": ["0", "0", "3", "2", "4", "2", "1", "3"], "time": [1877, 2927, 3496, 3627, 3927, 4279, 4627, 4695]}, "edge": {"target": [], "time": []}}}, "displayed_time": "11.78", "trialTime": 11854, "trial_type": "mouselab-mdp", "trial_index": 44, "time_elapsed": 790018, "internal_node_id": "0.0-4.0-1.0-29.0"}}, {"uniqueid": "w78184613:a65762408", "current_trial": 45, "dateTime": 1664555776553, "trialdata": {"rt": 129017, "stimulus": "<h1> End of block! </h1>\n\nYou have reached the end of the block 1/4. If you need a short break, feel free to take one now before moving on.\n\n<br><br>\nIn the next block, you will complete another 30 rounds of this game.\n\n<br><br>\n<div style='text-align: center;'>Press <code>space</code> to begin.</div>\n<br><br>\n<div style='text-align: center;'>(If the experiment doesn't continue, try clicking on the text and then pressing <code>space</code>.)</div>", "response": " ", "trial_id": "mdp_ready_2", "trial_type": "html-keyboard-response", "trial_index": 45, "time_elapsed": 919046, "internal_node_id": "0.0-4.0-2.0"}}, {"uniqueid": "w78184613:a65762408", "current_trial": 46, "dateTime": 1664555787207, "trialdata": {"revealed_states": [], "num_clicks_accrued": [0, 0, 0, 0, 0, 0, 0, 0, 0, 0, 0, 0, 0], "stateRewards": ["", -4, 4, 24, 24, 4, -8, 48, -48, -2, -8, 24, 24], "withholdReward": false, "trial_id": "mdp_395264223239", "block": "test2", "trialIndex": 34, "score": 28.25, "costs": -0.75, "simulationMode": [null, null, null], "rewards": [-4, 4, 24], "path": ["0", "0", "1", "2", "3"], "rt": [2436, 133, 112], "actions": ["up", "up", "right"], "actionTimes": [3903, 4541, 5153], "queries": {"click": {"state": {"target": ["3", "2", "1"], "time": [1987, 2514, 2885]}, "edge": {"target": [], "time": []}}, "mouseover": {"state": {"target": ["1", "3", "2", "1"], "time": [1571, 1654, 2238, 2704]}, "edge": {"target": [], "time": []}}, "mouseout": {"state": {"target": ["7", "1", "3", "2", "1"], "time": [971, 1587, 2188, 2654, 3104]}, "edge": {"target": [], "time": []}}}, "displayed_time": "9.47", "trialTime": 10479, "trial_type": "mouselab-mdp", "trial_index": 46, "time_elapsed": 929700, "internal_node_id": "0.0-4.0-3.0-0.0"}}, {"uniqueid": "w78184613:a65762408", "current_trial": 47, "dateTime": 1664555801701, "trialdata": {"revealed_states": [], "num_clicks_accrued": [0, 0, 0, 0, 0, 0, 0, 0, 0, 0, 0, 0, 0], "stateRewards": ["", -4, -8, 24, -48, 2, 4, -48, -48, 2, -8, 24, 48], "withholdReward": true, "trial_id": "mdp_111262146724", "block": "test2", "trialIndex": 35, "score": 44.75, "costs": -2.25, "simulationMode": [null, null, null], "rewards": [2, -8, 48], "path": ["0", "0", "9", "10", "12"], "rt": [6782, 15, 113], "actions": ["left", "left", "down"], "actionTimes": [10877, 11393, 12006], "queries": {"click": {"state": {"target": ["3", "2", "1", "4", "7", "8", "12", "10", "9"], "time": [4643, 5356, 5773, 6759, 7462, 8038, 8647, 9483, 9819]}, "edge": {"target": [], "time": []}}, "mouseover": {"state": {"target": ["1", "3", "2", "1", "4", "7", "6", "8", "12", "10", "11", "10", "9"], "time": [4191, 4524, 4924, 5574, 6641, 7395, 7707, 7791, 8490, 8807, 8973, 9374, 9674]}, "edge": {"target": [], "time": []}}, "mouseout": {"state": {"target": ["3", "1", "0", "0", "1", "1", "3", "2", "1", "4", "2", "7", "6", "8", "12", "10", "11", "10", "9"], "time": [1740, 1923, 2390, 3490, 3706, 4241, 4807, 5524, 6074, 6973, 7041, 7641, 7757, 8207, 8756, 8890, 9341, 9640, 9974]}, "edge": {"target": [], "time": []}}}, "displayed_time": "13.10", "trialTime": 14308, "trial_type": "mouselab-mdp", "trial_index": 47, "time_elapsed": 944193, "internal_node_id": "0.0-4.0-3.0-1.0"}}, {"uniqueid": "w78184613:a65762408", "current_trial": 48, "dateTime": 1664555812381, "trialdata": {"revealed_states": [], "num_clicks_accrued": [0, 0, 0, 0, 0, 0, 0, 0, 0, 0, 0, 0, 0], "stateRewards": ["", 2, -4, 48, -24, 4, -8, -24, 48, -2, -4, 24, -48], "withholdReward": true, "trial_id": "mdp_357328205509", "block": "test2", "trialIndex": 36, "score": 50.25, "costs": -0.75, "simulationMode": [null, null, null], "rewards": [2, -4, 48], "path": ["0", "0", "1", "2", "3"], "rt": [2254, 22, 37], "actions": ["up", "up", "right"], "actionTimes": [4525, 5046, 5595], "queries": {"click": {"state": {"target": ["3", "2", "1"], "time": [2754, 3298, 3636]}, "edge": {"target": [], "time": []}}, "mouseover": {"state": {"target": ["1", "3", "2", "1", "7"], "time": [2372, 2604, 3154, 3504, 3821]}, "edge": {"target": [], "time": []}}, "mouseout": {"state": {"target": ["9", "1", "3", "2", "1", "7"], "time": [1988, 2387, 2988, 3437, 3753, 3838]}, "edge": {"target": [], "time": []}}}, "displayed_time": "10.28", "trialTime": 10536, "trial_type": "mouselab-mdp", "trial_index": 48, "time_elapsed": 954874, "internal_node_id": "0.0-4.0-3.0-2.0"}}, {"uniqueid": "w78184613:a65762408", "current_trial": 49, "dateTime": 1664555824874, "trialdata": {"revealed_states": [], "num_clicks_accrued": [0, 0, 0, 0, 0, 0, 0, 0, 0, 0, 0, 0, 0], "stateRewards": ["", 4, 8, -48, 24, -2, 8, -48, -48, -4, 4, 48, -48], "withholdReward": true, "trial_id": "mdp_693807815190", "block": "test2", "trialIndex": 37, "score": 40, "costs": -1, "simulationMode": [null, null, null], "rewards": [4, 8, 24], "path": ["0", "0", "1", "2", "4"], "rt": [3619, 144, 117], "actions": ["up", "up", "left"], "actionTimes": [4850, 5507, 6130], "queries": {"click": {"state": {"target": ["3", "4", "2", "1"], "time": [1682, 2423, 3638, 3974]}, "edge": {"target": [], "time": []}}, "mouseover": {"state": {"target": ["1", "3", "2", "4", "1", "0", "1", "2", "1", "7"], "time": [1376, 1559, 1909, 2292, 2842, 3042, 3225, 3426, 3842, 4210]}, "edge": {"target": [], "time": []}}, "mouseout": {"state": {"target": ["7", "1", "3", "2", "4", "1", "0", "1", "2", "1", "7"], "time": [775, 1425, 1842, 2242, 2642, 2926, 3159, 3275, 3792, 4159, 4227]}, "edge": {"target": [], "time": []}}}, "displayed_time": "10.24", "trialTime": 12316, "trial_type": "mouselab-mdp", "trial_index": 49, "time_elapsed": 967366, "internal_node_id": "0.0-4.0-3.0-3.0"}}, {"uniqueid": "w78184613:a65762408", "current_trial": 50, "dateTime": 1664555848682, "trialdata": {"revealed_states": [], "num_clicks_accrued": [0, 0, 0, 0, 0, 0, 0, 0, 0, 0, 0, 0, 0], "stateRewards": ["", 2, -8, 24, 24, 4, -4, -24, -48, 4, 8, 24, 24], "withholdReward": true, "trial_id": "mdp_249803813713", "block": "test2", "trialIndex": 38, "score": 38.75, "costs": -2.25, "simulationMode": [null, null, null], "rewards": [4, 8, 24], "path": ["0", "0", "9", "10", "12"], "rt": [6113, 3, 159], "actions": ["left", "left", "down"], "actionTimes": [20285, 20793, 21465], "queries": {"click": {"state": {"target": ["3", "2", "1", "7", "8", "12", "11", "10", "9"], "time": [14811, 15306, 15771, 16238, 16779, 17405, 17789, 18582, 18998]}, "edge": {"target": [], "time": []}}, "mouseover": {"state": {"target": ["1", "2", "3", "2", "1", "7", "6", "8", "12", "10", "11", "9", "10", "9"], "time": [14469, 14537, 14653, 15070, 15520, 16070, 16437, 16553, 17220, 17537, 17637, 18220, 18287, 18870]}, "edge": {"target": [], "time": []}}, "mouseout": {"state": {"target": ["10", "12", "12", "0", "1", "2", "3", "2", "1", "7", "6", "8", "12", "10", "11", "9", "10", "9"], "time": [8052, 8336, 10703, 14420, 14503, 14554, 15004, 15470, 15920, 16369, 16487, 16937, 17502, 17570, 18020, 18237, 18803, 19153]}, "edge": {"target": [], "time": []}}}, "displayed_time": "22.18", "trialTime": 23635, "trial_type": "mouselab-mdp", "trial_index": 50, "time_elapsed": 991174, "internal_node_id": "0.0-4.0-3.0-4.0"}}, {"uniqueid": "w78184613:a65762408", "current_trial": 51, "dateTime": 1664555871855, "trialdata": {"revealed_states": [], "num_clicks_accrued": [0, 0, 0, 0, 0, 0, 0, 0, 0, 0, 0, 0, 0], "stateRewards": ["", -4, -4, 48, 24, -4, -4, -24, -48, -4, 4, 48, -24], "withholdReward": false, "trial_id": "mdp_896503755738", "block": "test2", "trialIndex": 39, "score": 44.25, "costs": -0.75, "simulationMode": [null, null, null], "rewards": [-4, -4, 48], "path": ["0", "0", "1", "2", "3"], "rt": [2913, 35, 134], "actions": ["up", "up", "right"], "actionTimes": [14360, 14887, 15535], "queries": {"click": {"state": {"target": ["3", "2", "1"], "time": [11936, 12820, 13171]}, "edge": {"target": [], "time": []}}, "mouseover": {"state": {"target": ["3", "2", "4", "2", "1", "7"], "time": [11815, 12198, 12299, 12748, 13048, 13382]}, "edge": {"target": [], "time": []}}, "mouseout": {"state": {"target": ["12", "9", "3", "2", "4", "2", "1", "7"], "time": [10265, 10530, 12165, 12265, 12631, 12982, 13315, 13398]}, "edge": {"target": [], "time": []}}}, "displayed_time": "19.46", "trialTime": 22986, "trial_type": "mouselab-mdp", "trial_index": 51, "time_elapsed": 1014348, "internal_node_id": "0.0-4.0-3.0-5.0"}}, {"uniqueid": "w78184613:a65762408", "current_trial": 52, "dateTime": 1664555882438, "trialdata": {"revealed_states": [], "num_clicks_accrued": [0, 0, 0, 0, 0, 0, 0, 0, 0, 0, 0, 0, 0], "stateRewards": ["", -2, -4, -24, 24, -2, 4, -24, -24, -4, 4, 24, -24], "withholdReward": true, "trial_id": "mdp_999419261719", "block": "test2", "trialIndex": 40, "score": 27.25, "costs": -1.75, "simulationMode": [null, null, null], "rewards": [-4, 4, 24], "path": ["0", "0", "9", "10", "11"], "rt": [6264, 28, 159], "actions": ["left", "left", "up"], "actionTimes": [7748, 8274, 8954], "queries": {"click": {"state": {"target": ["3", "7", "8", "11", "12", "10", "9"], "time": [1845, 2500, 3288, 4677, 5320, 5692, 6909]}, "edge": {"target": [], "time": []}}, "mouseover": {"state": {"target": ["1", "3", "7", "6", "8", "12", "10", "11", "10", "12", "10", "9"], "time": [1575, 1659, 2260, 2726, 2792, 3775, 4292, 4543, 4926, 5227, 5526, 6828]}, "edge": {"target": [], "time": []}}, "mouseout": {"state": {"target": ["1", "1", "3", "7", "6", "8", "12", "10", "11", "10", "12", "10", "10", "10", "9", "10"], "time": [1166, 1591, 2059, 2659, 2759, 3475, 4025, 4392, 4875, 5092, 5459, 5947, 6359, 6642, 7024, 7075]}, "edge": {"target": [], "time": []}}}, "displayed_time": "9.49", "trialTime": 10413, "trial_type": "mouselab-mdp", "trial_index": 52, "time_elapsed": 1024930, "internal_node_id": "0.0-4.0-3.0-6.0"}}, {"uniqueid": "w78184613:a65762408", "current_trial": 53, "dateTime": 1664555897787, "trialdata": {"revealed_states": [], "num_clicks_accrued": [0, 0, 0, 0, 0, 0, 0, 0, 0, 0, 0, 0, 0], "stateRewards": ["", 4, -8, 48, -24, -4, 4, 24, 24, -2, -4, 24, 24], "withholdReward": false, "trial_id": "mdp_542168715839", "block": "test2", "trialIndex": 41, "score": 48, "costs": -1, "simulationMode": [null, null, null], "rewards": [4, -8, 48], "path": ["0", "0", "1", "2", "3"], "rt": [4869, 30, 16], "actions": ["up", "up", "right"], "actionTimes": [6559, 7088, 7607], "queries": {"click": {"state": {"target": ["4", "3", "2", "1"], "time": [3572, 4212, 4972, 5359]}, "edge": {"target": [], "time": []}}, "mouseover": {"state": {"target": ["4", "2", "3", "2", "1"], "time": [3338, 3888, 4071, 4888, 5188]}, "edge": {"target": [], "time": []}}, "mouseout": {"state": {"target": ["9", "0", "0", "4", "2", "3", "2", "1", "6", "8"], "time": [1105, 1304, 3106, 3838, 3972, 4738, 5139, 5503, 14589, 14789]}, "edge": {"target": [], "time": []}}}, "displayed_time": "10.70", "trialTime": 15159, "trial_type": "mouselab-mdp", "trial_index": 53, "time_elapsed": 1040280, "internal_node_id": "0.0-4.0-3.0-7.0"}}, {"uniqueid": "w78184613:a65762408", "current_trial": 54, "dateTime": 1664555907690, "trialdata": {"revealed_states": [], "num_clicks_accrued": [0, 0, 0, 0, 0, 0, 0, 0, 0, 0, 0, 0, 0], "stateRewards": ["", 2, -4, 48, -48, -2, 8, -48, 24, -2, -8, 48, 48], "withholdReward": true, "trial_id": "mdp_949326095747", "block": "test2", "trialIndex": 42, "score": 50.25, "costs": -0.75, "simulationMode": [null, null, null], "rewards": [2, -4, 48], "path": ["0", "0", "1", "2", "3"], "rt": [2451, 142, 199], "actions": ["up", "up", "right"], "actionTimes": [3272, 3930, 4633], "queries": {"click": {"state": {"target": ["3", "2", "1"], "time": [1237, 2037, 2406]}, "edge": {"target": [], "time": []}}, "mouseover": {"state": {"target": ["3", "7", "2", "1", "0"], "time": [981, 1547, 1914, 2264, 2714]}, "edge": {"target": [], "time": []}}, "mouseout": {"state": {"target": ["0", "3", "7", "2", "1", "0"], "time": [701, 1464, 1764, 2197, 2598, 2730]}, "edge": {"target": [], "time": []}}}, "displayed_time": "8.82", "trialTime": 9686, "trial_type": "mouselab-mdp", "trial_index": 54, "time_elapsed": 1050182, "internal_node_id": "0.0-4.0-3.0-8.0"}}, {"uniqueid": "w78184613:a65762408", "current_trial": 55, "dateTime": 1664555919580, "trialdata": {"revealed_states": [], "num_clicks_accrued": [0, 0, 0, 0, 0, 0, 0, 0, 0, 0, 0, 0, 0], "stateRewards": ["", 4, 8, 48, 48, 4, 4, -24, -48, 4, 8, -48, -48], "withholdReward": true, "trial_id": "mdp_984548726931", "block": "test2", "trialIndex": 43, "score": 64.25, "costs": -0.75, "simulationMode": [null, null, null], "rewards": [4, 8, 48], "path": ["0", "0", "1", "2", "3"], "rt": [2725, 294, 4], "actions": ["up", "up", "right"], "actionTimes": [3618, 4414, 4927], "queries": {"click": {"state": {"target": ["3", "2", "1"], "time": [1316, 2234, 2612]}, "edge": {"target": [], "time": []}}, "mouseover": {"state": {"target": ["3", "7", "2", "1", "5"], "time": [1083, 1716, 2183, 2466, 2900]}, "edge": {"target": [], "time": []}}, "mouseout": {"state": {"target": ["5", "3", "3", "7", "2", "1", "5", "12", "12"], "time": [315, 1331, 1533, 1900, 2383, 2799, 2934, 4471, 11366]}, "edge": {"target": [], "time": []}}}, "displayed_time": "9.89", "trialTime": 11695, "trial_type": "mouselab-mdp", "trial_index": 55, "time_elapsed": 1062073, "internal_node_id": "0.0-4.0-3.0-9.0"}}, {"uniqueid": "w78184613:a65762408", "current_trial": 56, "dateTime": 1664555930016, "trialdata": {"revealed_states": [], "num_clicks_accrued": [0, 0, 0, 0, 0, 0, 0, 0, 0, 0, 0, 0, 0], "stateRewards": ["", 2, -8, -48, 24, 4, 8, 48, -48, 2, -4, 24, 24], "withholdReward": true, "trial_id": "mdp_130475327289", "block": "test2", "trialIndex": 44, "score": 22, "costs": -1, "simulationMode": [null, null, null], "rewards": [2, -8, 24], "path": ["0", "0", "1", "2", "4"], "rt": [2908, 47, 196], "actions": ["up", "up", "left"], "actionTimes": [3594, 4157, 4884], "queries": {"click": {"state": {"target": ["3", "4", "1", "2"], "time": [1069, 1711, 2354, 2678]}, "edge": {"target": [], "time": []}}, "mouseover": {"state": {"target": ["3", "2", "4", "1", "2", "7"], "time": [872, 1372, 1623, 2202, 2522, 2906]}, "edge": {"target": [], "time": []}}, "mouseout": {"state": {"target": ["5", "3", "2", "4", "1", "2", "7"], "time": [188, 1305, 1589, 1938, 2490, 2856, 2922]}, "edge": {"target": [], "time": []}}}, "displayed_time": "8.69", "trialTime": 10353, "trial_type": "mouselab-mdp", "trial_index": 56, "time_elapsed": 1072509, "internal_node_id": "0.0-4.0-3.0-10.0"}}, {"uniqueid": "w78184613:a65762408", "current_trial": 57, "dateTime": 1664555944054, "trialdata": {"revealed_states": [], "num_clicks_accrued": [0, 0, 0, 0, 0, 0, 0, 0, 0, 0, 0, 0, 0], "stateRewards": ["", 2, -4, -24, 24, 2, 8, 48, 48, 2, -8, 48, -24], "withholdReward": false, "trial_id": "mdp_330392242530", "block": "test2", "trialIndex": 45, "score": 62.25, "costs": -0.75, "simulationMode": [null, null, null], "rewards": [2, 8, 48], "path": ["0", "0", "5", "6", "7"], "rt": [2380, 43, 309], "actions": ["right", "right", "up"], "actionTimes": [3418, 3980, 4811], "queries": {"click": {"state": {"target": ["7", "6", "5"], "time": [1796, 2337, 2786]}, "edge": {"target": [], "time": []}}, "mouseover": {"state": {"target": ["6", "7", "6", "5"], "time": [1437, 1666, 2098, 2648]}, "edge": {"target": [], "time": []}}, "mouseout": {"state": {"target": ["6", "5", "6", "7", "6", "5", "6"], "time": [581, 614, 1649, 2032, 2581, 2982, 3032]}, "edge": {"target": [], "time": []}}}, "displayed_time": "10.04", "trialTime": 13852, "trial_type": "mouselab-mdp", "trial_index": 57, "time_elapsed": 1086547, "internal_node_id": "0.0-4.0-3.0-11.0"}}, {"uniqueid": "w78184613:a65762408", "current_trial": 58, "dateTime": 1664555954172, "trialdata": {"revealed_states": [], "num_clicks_accrued": [0, 0, 0, 0, 0, 0, 0, 0, 0, 0, 0, 0, 0], "stateRewards": ["", -4, 8, -24, -24, 4, -8, 48, -24, -4, -8, -24, -48], "withholdReward": true, "trial_id": "mdp_391766721791", "block": "test2", "trialIndex": 46, "score": 48.25, "costs": -0.75, "simulationMode": [null, null, null], "rewards": [4, -8, 48], "path": ["0", "0", "5", "6", "7"], "rt": [2510, 130, 102], "actions": ["right", "right", "up"], "actionTimes": [3551, 4175, 4796], "queries": {"click": {"state": {"target": ["7", "6", "5"], "time": [1761, 2368, 2784]}, "edge": {"target": [], "time": []}}, "mouseover": {"state": {"target": ["7", "7", "6", "6", "5"], "time": [1457, 1640, 1957, 2257, 2558]}, "edge": {"target": [], "time": []}}, "mouseout": {"state": {"target": ["0", "7", "7", "6", "6", "5", "6"], "time": [1140, 1474, 1923, 2024, 2523, 3091, 3374]}, "edge": {"target": [], "time": []}}}, "displayed_time": "9.05", "trialTime": 9911, "trial_type": "mouselab-mdp", "trial_index": 58, "time_elapsed": 1096664, "internal_node_id": "0.0-4.0-3.0-12.0"}}, {"uniqueid": "w78184613:a65762408", "current_trial": 59, "dateTime": 1664555967000, "trialdata": {"revealed_states": [], "num_clicks_accrued": [0, 0, 0, 0, 0, 0, 0, 0, 0, 0, 0, 0, 0], "stateRewards": ["", -2, -4, -24, -48, 2, -8, -24, -24, 4, -8, 48, 48], "withholdReward": false, "trial_id": "mdp_950599994674", "block": "test2", "trialIndex": 47, "score": 47, "costs": -2, "simulationMode": [null, null, null], "rewards": [4, -8, 48], "path": ["0", "0", "9", "10", "12"], "rt": [5240, 38, 87], "actions": ["left", "left", "down"], "actionTimes": [8426, 8985, 9566], "queries": {"click": {"state": {"target": ["7", "8", "3", "4", "11", "12", "10", "9"], "time": [3666, 4339, 5079, 5731, 6263, 6870, 7223, 7588]}, "edge": {"target": [], "time": []}}, "mouseover": {"state": {"target": ["7", "6", "8", "6", "3", "3", "2", "4", "11", "10", "12", "10", "9", "5", "6"], "time": [3526, 4060, 4160, 4527, 4677, 5043, 5360, 5627, 6076, 6493, 6760, 7060, 7410, 7826, 7894]}, "edge": {"target": [], "time": []}}, "mouseout": {"state": {"target": ["6", "0", "0", "0", "7", "6", "8", "6", "3", "3", "2", "4", "11", "10", "12", "10", "9", "5", "6", "5"], "time": [227, 2361, 2711, 3277, 3843, 4110, 4493, 4560, 4710, 5310, 5410, 5994, 6426, 6627, 7010, 7376, 7760, 7860, 8910, 10543]}, "edge": {"target": [], "time": []}}}, "displayed_time": "11.19", "trialTime": 12644, "trial_type": "mouselab-mdp", "trial_index": 59, "time_elapsed": 1109493, "internal_node_id": "0.0-4.0-3.0-13.0"}}, {"uniqueid": "w78184613:a65762408", "current_trial": 60, "dateTime": 1664555978401, "trialdata": {"revealed_states": [], "num_clicks_accrued": [0, 0, 0, 0, 0, 0, 0, 0, 0, 0, 0, 0, 0], "stateRewards": ["", -2, -8, 24, -48, 4, 4, -24, -48, -2, -8, -48, 24], "withholdReward": true, "trial_id": "mdp_556006673466", "block": "test2", "trialIndex": 48, "score": 16.5, "costs": -2.5, "simulationMode": [null, null, null], "rewards": [-2, -8, 24], "path": ["0", "0", "9", "10", "12"], "rt": [8524, 90, 125], "actions": ["left", "left", "down"], "actionTimes": [9096, 9690, 10325], "queries": {"click": {"state": {"target": ["3", "2", "4", "1", "7", "8", "12", "11", "10", "9"], "time": [1152, 1908, 2964, 3556, 4181, 4806, 5469, 5880, 6503, 6919]}, "edge": {"target": [], "time": []}}, "mouseover": {"state": {"target": ["1", "2", "3", "2", "2", "1", "4", "4", "1", "7", "6", "8", "12", "12", "10", "11", "10", "9"], "time": [714, 763, 1013, 1480, 1830, 2197, 2397, 2695, 3447, 4047, 4431, 4731, 5264, 5430, 5629, 5763, 6414, 6864]}, "edge": {"target": [], "time": []}}, "mouseout": {"state": {"target": ["0", "1", "2", "3", "2", "2", "1", "4", "4", "1", "7", "6", "8", "12", "12", "10", "11", "10", "9"], "time": [648, 747, 963, 1397, 1597, 2130, 2347, 2447, 3215, 3747, 4364, 4564, 4980, 5280, 5579, 5680, 6180, 6697, 7147]}, "edge": {"target": [], "time": []}}}, "displayed_time": "10.82", "trialTime": 11183, "trial_type": "mouselab-mdp", "trial_index": 60, "time_elapsed": 1120894, "internal_node_id": "0.0-4.0-3.0-14.0"}}, {"uniqueid": "w78184613:a65762408", "current_trial": 61, "dateTime": 1664555988577, "trialdata": {"revealed_states": [], "num_clicks_accrued": [0, 0, 0, 0, 0, 0, 0, 0, 0, 0, 0, 0, 0], "stateRewards": ["", 4, 4, 24, 24, 4, -4, 48, 48, 4, 4, 24, -48], "withholdReward": true, "trial_id": "mdp_454251689008", "block": "test2", "trialIndex": 49, "score": 36.25, "costs": -0.75, "simulationMode": [null, null, null], "rewards": [4, 4, 24], "path": ["0", "0", "1", "2", "3"], "rt": [2359, 145, 5], "actions": ["up", "up", "right"], "actionTimes": [2949, 3588, 4115], "queries": {"click": {"state": {"target": ["3", "2", "1"], "time": [974, 1838, 2218]}, "edge": {"target": [], "time": []}}, "mouseover": {"state": {"target": ["3", "2", "4", "2", "1", "7"], "time": [757, 1424, 1591, 1774, 2107, 2507]}, "edge": {"target": [], "time": []}}, "mouseout": {"state": {"target": ["0", "3", "2", "4", "2", "1", "7", "7", "5", "9"], "time": [610, 1224, 1490, 1723, 2040, 2440, 2523, 5107, 5840, 9590]}, "edge": {"target": [], "time": []}}}, "displayed_time": "9.60", "trialTime": 9968, "trial_type": "mouselab-mdp", "trial_index": 61, "time_elapsed": 1131070, "internal_node_id": "0.0-4.0-3.0-15.0"}}, {"uniqueid": "w78184613:a65762408", "current_trial": 62, "dateTime": 1664555998156, "trialdata": {"revealed_states": [], "num_clicks_accrued": [0, 0, 0, 0, 0, 0, 0, 0, 0, 0, 0, 0, 0], "stateRewards": ["", 4, -8, 24, 48, 2, -4, 48, 48, 4, -8, 48, 48], "withholdReward": true, "trial_id": "mdp_962498334245", "block": "test2", "trialIndex": 50, "score": 24.25, "costs": -0.75, "simulationMode": [null, null, null], "rewards": [4, -8, 24], "path": ["0", "0", "1", "2", "3"], "rt": [2408, 183, 4], "actions": ["up", "up", "right"], "actionTimes": [3272, 3975, 4530], "queries": {"click": {"state": {"target": ["3", "2", "1"], "time": [1215, 1971, 2420]}, "edge": {"target": [], "time": []}}, "mouseover": {"state": {"target": ["3", "2", "2", "1", "7"], "time": [971, 1489, 1888, 2155, 2638]}, "edge": {"target": [], "time": []}}, "mouseout": {"state": {"target": ["6", "7", "3", "2", "2", "1", "7", "7", "5"], "time": [11, 88, 1405, 1571, 2121, 2571, 2705, 9121, 9338]}, "edge": {"target": [], "time": []}}}, "displayed_time": "8.87", "trialTime": 9345, "trial_type": "mouselab-mdp", "trial_index": 62, "time_elapsed": 1140649, "internal_node_id": "0.0-4.0-3.0-16.0"}}, {"uniqueid": "w78184613:a65762408", "current_trial": 63, "dateTime": 1664556008802, "trialdata": {"revealed_states": [], "num_clicks_accrued": [0, 0, 0, 0, 0, 0, 0, 0, 0, 0, 0, 0, 0], "stateRewards": ["", -2, 8, -48, 48, -4, 8, -24, 24, 4, -4, 24, -48], "withholdReward": true, "trial_id": "mdp_904238083902", "block": "test2", "trialIndex": 51, "score": 58, "costs": -1, "simulationMode": [null, null, null], "rewards": [-2, 8, 48], "path": ["0", "0", "1", "2", "4"], "rt": [3866, 83, 194], "actions": ["up", "up", "left"], "actionTimes": [6217, 6793, 7505], "queries": {"click": {"state": {"target": ["3", "4", "2", "1"], "time": [2762, 3376, 4398, 5330]}, "edge": {"target": [], "time": []}}, "mouseover": {"state": {"target": ["1", "3", "2", "4", "1", "7", "2", "1", "7"], "time": [2438, 2723, 2957, 3106, 3690, 4010, 4157, 5257, 5607]}, "edge": {"target": [], "time": []}}, "mouseout": {"state": {"target": ["5", "0", "0", "1", "1", "3", "2", "4", "1", "7", "2", "1", "7", "1", "5", "6"], "time": [93, 1255, 1572, 1956, 2507, 2906, 3006, 3590, 3757, 4057, 4590, 5523, 8090, 8540, 9024, 10240]}, "edge": {"target": [], "time": []}}}, "displayed_time": "10.36", "trialTime": 10426, "trial_type": "mouselab-mdp", "trial_index": 63, "time_elapsed": 1151294, "internal_node_id": "0.0-4.0-3.0-17.0"}}, {"uniqueid": "w78184613:a65762408", "current_trial": 64, "dateTime": 1664556018399, "trialdata": {"revealed_states": [], "num_clicks_accrued": [0, 0, 0, 0, 0, 0, 0, 0, 0, 0, 0, 0, 0], "stateRewards": ["", 2, 4, -48, -48, 2, 4, 48, -24, -2, 8, 48, -48], "withholdReward": false, "trial_id": "mdp_258528916140", "block": "test2", "trialIndex": 52, "score": 57.75, "costs": -1.25, "simulationMode": [null, null, null], "rewards": [2, 4, 48], "path": ["0", "0", "5", "6", "7"], "rt": [3867, 33, 151], "actions": ["right", "right", "up"], "actionTimes": [4790, 5337, 5989], "queries": {"click": {"state": {"target": ["3", "4", "7", "6", "5"], "time": [1410, 2130, 2977, 3781, 4134]}, "edge": {"target": [], "time": []}}, "mouseover": {"state": {"target": ["3", "2", "4", "2", "7", "7", "6", "8", "6", "5"], "time": [1217, 1833, 1884, 2467, 2716, 2950, 3250, 3383, 3617, 4000]}, "edge": {"target": [], "time": []}}, "mouseout": {"state": {"target": ["0", "3", "2", "4", "2", "3", "7", "7", "6", "8", "6", "5", "6", "6"], "time": [1038, 1816, 1870, 2383, 2566, 2618, 2733, 3200, 3300, 3550, 3916, 4316, 4384, 7083]}, "edge": {"target": [], "time": []}}}, "displayed_time": "8.93", "trialTime": 9367, "trial_type": "mouselab-mdp", "trial_index": 64, "time_elapsed": 1160892, "internal_node_id": "0.0-4.0-3.0-18.0"}}, {"uniqueid": "w78184613:a65762408", "current_trial": 65, "dateTime": 1664556029126, "trialdata": {"revealed_states": [], "num_clicks_accrued": [0, 0, 0, 0, 0, 0, 0, 0, 0, 0, 0, 0, 0], "stateRewards": ["", -4, 4, -48, -48, -4, 8, -24, 24, 2, -4, 48, 48], "withholdReward": true, "trial_id": "mdp_821566905048", "block": "test2", "trialIndex": 53, "score": 49.25, "costs": -1.75, "simulationMode": [null, null, null], "rewards": [2, -4, 48], "path": ["0", "0", "9", "10", "11"], "rt": [4775, 51, 117], "actions": ["left", "left", "up"], "actionTimes": [5460, 6004, 6652], "queries": {"click": {"state": {"target": ["7", "8", "3", "4", "11", "10", "9"], "time": [1255, 1831, 2472, 3090, 3666, 4356, 4758]}, "edge": {"target": [], "time": []}}, "mouseover": {"state": {"target": ["7", "6", "8", "6", "3", "3", "2", "4", "11", "10", "10", "9", "0", "5"], "time": [1117, 1516, 1822, 1983, 2150, 2416, 2716, 2949, 3517, 3900, 4250, 4650, 5017, 5083]}, "edge": {"target": [], "time": []}}, "mouseout": {"state": {"target": ["0", "7", "6", "8", "6", "7", "3", "3", "2", "4", "11", "10", "10", "9", "0", "5", "8"], "time": [464, 1482, 1666, 1931, 2016, 2050, 2203, 2666, 2867, 3317, 3850, 3966, 4533, 4967, 5049, 5150, 7749]}, "edge": {"target": [], "time": []}}}, "displayed_time": "9.69", "trialTime": 10508, "trial_type": "mouselab-mdp", "trial_index": 65, "time_elapsed": 1171619, "internal_node_id": "0.0-4.0-3.0-19.0"}}, {"uniqueid": "w78184613:a65762408", "current_trial": 66, "dateTime": 1664556040860, "trialdata": {"revealed_states": [], "num_clicks_accrued": [0, 0, 0, 0, 0, 0, 0, 0, 0, 0, 0, 0, 0], "stateRewards": ["", -2, 4, 48, -24, 2, 8, 24, 48, 2, 4, -24, -48], "withholdReward": true, "trial_id": "mdp_892412058587", "block": "test2", "trialIndex": 54, "score": 54.25, "costs": -0.75, "simulationMode": [null, null, null], "rewards": [-2, 4, 48], "path": ["0", "0", "1", "2", "3"], "rt": [3371, 135, 28], "actions": ["up", "up", "right"], "actionTimes": [5513, 6142, 6743], "queries": {"click": {"state": {"target": ["3", "2", "1"], "time": [2819, 3715, 4206]}, "edge": {"target": [], "time": []}}, "mouseover": {"state": {"target": ["3", "2", "1"], "time": [2621, 3571, 4171]}, "edge": {"target": [], "time": []}}, "mouseout": {"state": {"target": ["0", "3", "3", "2", "1"], "time": [2194, 3121, 3537, 3921, 4354]}, "edge": {"target": [], "time": []}}}, "displayed_time": "11.14", "trialTime": 11529, "trial_type": "mouselab-mdp", "trial_index": 66, "time_elapsed": 1183353, "internal_node_id": "0.0-4.0-3.0-20.0"}}, {"uniqueid": "w78184613:a65762408", "current_trial": 67, "dateTime": 1664556052265, "trialdata": {"revealed_states": [], "num_clicks_accrued": [0, 0, 0, 0, 0, 0, 0, 0, 0, 0, 0, 0, 0], "stateRewards": ["", 2, -4, 24, 48, -2, 4, -48, -48, -4, 4, 24, -24], "withholdReward": true, "trial_id": "mdp_900363662757", "block": "test2", "trialIndex": 55, "score": 50, "costs": -1, "simulationMode": [null, null, null], "rewards": [2, -4, 48], "path": ["0", "0", "1", "2", "4"], "rt": [3653, 84, 31], "actions": ["up", "up", "left"], "actionTimes": [5034, 5634, 6181], "queries": {"click": {"state": {"target": ["3", "4", "2", "1"], "time": [2751, 3423, 3863, 4307]}, "edge": {"target": [], "time": []}}, "mouseover": {"state": {"target": ["3", "3", "3", "2", "4", "2", "1", "7"], "time": [1780, 2281, 2547, 3081, 3197, 3697, 4198, 4564]}, "edge": {"target": [], "time": []}}, "mouseout": {"state": {"target": ["7", "5", "0", "3", "3", "3", "2", "4", "2", "1", "7", "7", "1"], "time": [796, 912, 996, 1831, 2330, 3047, 3147, 3631, 4097, 4481, 4597, 6829, 6964]}, "edge": {"target": [], "time": []}}}, "displayed_time": "10.38", "trialTime": 11327, "trial_type": "mouselab-mdp", "trial_index": 67, "time_elapsed": 1194757, "internal_node_id": "0.0-4.0-3.0-21.0"}}, {"uniqueid": "w78184613:a65762408", "current_trial": 68, "dateTime": 1664556063421, "trialdata": {"revealed_states": [], "num_clicks_accrued": [0, 0, 0, 0, 0, 0, 0, 0, 0, 0, 0, 0, 0], "stateRewards": ["", 4, -8, -24, 48, -4, 8, -24, -48, -4, -4, 24, 48], "withholdReward": false, "trial_id": "mdp_282352776624", "block": "test2", "trialIndex": 56, "score": 48, "costs": -1, "simulationMode": [null, null, null], "rewards": [4, -8, 48], "path": ["0", "0", "1", "2", "4"], "rt": [2857, 73, 376], "actions": ["up", "up", "left"], "actionTimes": [4497, 5073, 6041], "queries": {"click": {"state": {"target": ["3", "4", "2", "1"], "time": [2081, 2577, 3188, 3572]}, "edge": {"target": [], "time": []}}, "mouseover": {"state": {"target": ["3", "2", "4", "2", "1", "7"], "time": [1948, 2380, 2481, 2897, 3380, 3946]}, "edge": {"target": [], "time": []}}, "mouseout": {"state": {"target": ["0", "1", "3", "2", "4", "2", "1", "7", "5", "8"], "time": [963, 1095, 2294, 2446, 2846, 3330, 3830, 6764, 6897, 10313]}, "edge": {"target": [], "time": []}}}, "displayed_time": "10.65", "trialTime": 10950, "trial_type": "mouselab-mdp", "trial_index": 68, "time_elapsed": 1205914, "internal_node_id": "0.0-4.0-3.0-22.0"}}, {"uniqueid": "w78184613:a65762408", "current_trial": 69, "dateTime": 1664556073586, "trialdata": {"revealed_states": [], "num_clicks_accrued": [0, 0, 0, 0, 0, 0, 0, 0, 0, 0, 0, 0, 0], "stateRewards": ["", -2, 8, 24, -48, -4, -8, -24, -48, -4, 8, -24, 48], "withholdReward": true, "trial_id": "mdp_464339499860", "block": "test2", "trialIndex": 57, "score": 34.25, "costs": -0.75, "simulationMode": [null, null, null], "rewards": [-2, 8, 24], "path": ["0", "0", "1", "2", "3"], "rt": [2385, 117, 205], "actions": ["up", "up", "right"], "actionTimes": [3058, 3673, 4394], "queries": {"click": {"state": {"target": ["3", "2", "1"], "time": [1344, 1937, 2309]}, "edge": {"target": [], "time": []}}, "mouseover": {"state": {"target": ["3", "2", "1", "7"], "time": [1236, 1619, 2169, 2568]}, "edge": {"target": [], "time": []}}, "mouseout": {"state": {"target": ["0", "3", "2", "1", "7", "7"], "time": [727, 1518, 2102, 2502, 2602, 5686]}, "edge": {"target": [], "time": []}}}, "displayed_time": "9.68", "trialTime": 9987, "trial_type": "mouselab-mdp", "trial_index": 69, "time_elapsed": 1216079, "internal_node_id": "0.0-4.0-3.0-23.0"}}, {"uniqueid": "w78184613:a65762408", "current_trial": 70, "dateTime": 1664556083001, "trialdata": {"revealed_states": [], "num_clicks_accrued": [0, 0, 0, 0, 0, 0, 0, 0, 0, 0, 0, 0, 0], "stateRewards": ["", 2, 4, -48, -24, 2, 8, 24, 48, -2, 4, 48, -48], "withholdReward": true, "trial_id": "mdp_551894842204", "block": "test2", "trialIndex": 58, "score": 61.5, "costs": -1.5, "simulationMode": [null, null, null], "rewards": [2, 8, 48], "path": ["0", "0", "5", "6", "8"], "rt": [4238, 87, 140], "actions": ["right", "right", "down"], "actionTimes": [5111, 5702, 6338], "queries": {"click": {"state": {"target": ["3", "4", "7", "8", "5", "6"], "time": [1295, 1903, 2679, 3219, 3860, 4287]}, "edge": {"target": [], "time": []}}, "mouseover": {"state": {"target": ["3", "2", "4", "1", "7", "6", "8", "0", "5", "6"], "time": [1116, 1615, 1749, 2348, 2532, 2915, 3032, 3532, 3749, 4166]}, "edge": {"target": [], "time": []}}, "mouseout": {"state": {"target": ["7", "1", "0", "3", "2", "4", "1", "7", "6", "8", "0", "5", "6"], "time": [231, 514, 898, 1548, 1698, 2199, 2382, 2848, 2998, 3432, 3699, 4083, 4578]}, "edge": {"target": [], "time": []}}}, "displayed_time": "8.88", "trialTime": 9231, "trial_type": "mouselab-mdp", "trial_index": 70, "time_elapsed": 1225493, "internal_node_id": "0.0-4.0-3.0-24.0"}}, {"uniqueid": "w78184613:a65762408", "current_trial": 71, "dateTime": 1664556092219, "trialdata": {"revealed_states": [], "num_clicks_accrued": [0, 0, 0, 0, 0, 0, 0, 0, 0, 0, 0, 0, 0], "stateRewards": ["", -4, -4, -48, -24, 2, 8, 24, -48, 4, 4, 48, 48], "withholdReward": true, "trial_id": "mdp_693501840209", "block": "test2", "trialIndex": 59, "score": 38, "costs": -1, "simulationMode": [null, null, null], "rewards": [2, 8, 24], "path": ["0", "0", "5", "6", "7"], "rt": [2851, 51, 76], "actions": ["right", "right", "up"], "actionTimes": [3617, 4187, 4801], "queries": {"click": {"state": {"target": ["7", "8", "6", "5"], "time": [1336, 2168, 2583, 2940]}, "edge": {"target": [], "time": []}}, "mouseover": {"state": {"target": ["7", "7", "6", "8", "6", "5"], "time": [934, 1250, 1784, 2050, 2384, 2850]}, "edge": {"target": [], "time": []}}, "mouseout": {"state": {"target": ["6", "5", "7", "7", "6", "8", "6", "5", "6"], "time": [366, 517, 950, 1700, 2001, 2350, 2734, 3184, 3267]}, "edge": {"target": [], "time": []}}}, "displayed_time": "8.77", "trialTime": 9022, "trial_type": "mouselab-mdp", "trial_index": 71, "time_elapsed": 1234712, "internal_node_id": "0.0-4.0-3.0-25.0"}}, {"uniqueid": "w78184613:a65762408", "current_trial": 72, "dateTime": 1664556102525, "trialdata": {"revealed_states": [], "num_clicks_accrued": [0, 0, 0, 0, 0, 0, 0, 0, 0, 0, 0, 0, 0], "stateRewards": ["", 4, 4, -48, -24, -2, -4, 48, 24, -4, 4, 24, -48], "withholdReward": true, "trial_id": "mdp_617383046444", "block": "test2", "trialIndex": 60, "score": 27.5, "costs": -1.5, "simulationMode": [null, null, null], "rewards": [-4, 4, 24], "path": ["0", "0", "9", "10", "11"], "rt": [3978, 146, 145], "actions": ["left", "left", "up"], "actionTimes": [4808, 5498, 6139], "queries": {"click": {"state": {"target": ["3", "4", "11", "12", "10", "9"], "time": [1446, 1936, 2512, 3135, 3584, 3983]}, "edge": {"target": [], "time": []}}, "mouseover": {"state": {"target": ["1", "2", "3", "2", "4", "11", "10", "12", "10", "9", "5", "6"], "time": [992, 1075, 1307, 1642, 1791, 2442, 2792, 3042, 3342, 3891, 4276, 4325]}, "edge": {"target": [], "time": []}}, "mouseout": {"state": {"target": ["6", "5", "1", "2", "3", "2", "4", "11", "10", "12", "10", "9", "5", "6"], "time": [424, 474, 1041, 1225, 1592, 1729, 2158, 2708, 2925, 3291, 3759, 4192, 4309, 6111]}, "edge": {"target": [], "time": []}}}, "displayed_time": "9.84", "trialTime": 10135, "trial_type": "mouselab-mdp", "trial_index": 72, "time_elapsed": 1245018, "internal_node_id": "0.0-4.0-3.0-26.0"}}, {"uniqueid": "w78184613:a65762408", "current_trial": 73, "dateTime": 1664556114408, "trialdata": {"revealed_states": [], "num_clicks_accrued": [0, 0, 0, 0, 0, 0, 0, 0, 0, 0, 0, 0, 0], "stateRewards": ["", 2, 8, -24, -48, -4, 8, -48, -48, -2, -8, -24, -24], "withholdReward": true, "trial_id": "mdp_978177451072", "block": "test2", "trialIndex": 61, "score": -30.5, "costs": -1.5, "simulationMode": [null, null, null], "rewards": [-2, -8, -24], "path": ["0", "0", "9", "10", "11"], "rt": [7973, 115, 61], "actions": ["left", "left", "up"], "actionTimes": [8684, 9319, 9878], "queries": {"click": {"state": {"target": ["3", "4", "7", "8", "11", "12"], "time": [1264, 1891, 2643, 3314, 4131, 4758]}, "edge": {"target": [], "time": []}}, "mouseover": {"state": {"target": ["3", "2", "4", "2", "7", "6", "8", "5", "0", "9", "11", "10", "12", "10", "9", "2", "1", "5", "9"], "time": [1164, 1613, 1680, 2130, 2590, 2964, 3181, 3664, 3764, 3846, 3997, 4364, 4630, 5247, 5730, 5930, 6864, 7233, 7630]}, "edge": {"target": [], "time": []}}, "mouseout": {"state": {"target": ["6", "5", "3", "2", "4", "2", "7", "6", "8", "5", "0", "9", "11", "10", "12", "10", "9", "2", "1", "5", "9", "5"], "time": [229, 446, 1546, 1647, 2063, 2213, 2897, 3080, 3463, 3714, 3830, 3880, 4314, 4463, 4913, 5664, 5748, 6797, 6880, 7414, 8197, 11030]}, "edge": {"target": [], "time": []}}}, "displayed_time": "10.40", "trialTime": 11773, "trial_type": "mouselab-mdp", "trial_index": 73, "time_elapsed": 1256901, "internal_node_id": "0.0-4.0-3.0-27.0"}}, {"uniqueid": "w78184613:a65762408", "current_trial": 74, "dateTime": 1664556124096, "trialdata": {"revealed_states": [], "num_clicks_accrued": [0, 0, 0, 0, 0, 0, 0, 0, 0, 0, 0, 0, 0], "stateRewards": ["", -4, -4, -24, -48, -4, 8, -24, -48, 4, -8, 24, -24], "withholdReward": true, "trial_id": "mdp_924927483179", "block": "test2", "trialIndex": 62, "score": 23, "costs": -2, "simulationMode": [null, null, null], "rewards": [4, -8, 24], "path": ["0", "0", "9", "10", "11"], "rt": [6452, 133, 62], "actions": ["left", "left", "up"], "actionTimes": [7158, 7809, 8396], "queries": {"click": {"state": {"target": ["3", "4", "11", "10", "9", "12", "7", "8"], "time": [1180, 1675, 2342, 3181, 3675, 4110, 5200, 5807]}, "edge": {"target": [], "time": []}}, "mouseover": {"state": {"target": ["1", "3", "2", "4", "11", "10", "12", "10", "9", "12", "0", "5", "6", "7", "7", "8", "6", "5", "0"], "time": [855, 1070, 1421, 1521, 2252, 2569, 2752, 3020, 3504, 3905, 4556, 4621, 4706, 4904, 5088, 5688, 6021, 6472, 6605]}, "edge": {"target": [], "time": []}}, "mouseout": {"state": {"target": ["1", "3", "2", "4", "11", "10", "12", "10", "9", "12", "0", "5", "6", "7", "7", "8", "6", "5", "0", "9", "0"], "time": [921, 1388, 1471, 1921, 2502, 2652, 2886, 3438, 3803, 4454, 4604, 4672, 4771, 4955, 5353, 5954, 6305, 6555, 6672, 6809, 9388]}, "edge": {"target": [], "time": []}}}, "displayed_time": "8.92", "trialTime": 9502, "trial_type": "mouselab-mdp", "trial_index": 74, "time_elapsed": 1266588, "internal_node_id": "0.0-4.0-3.0-28.0"}}, {"uniqueid": "w78184613:a65762408", "current_trial": 75, "dateTime": 1664556134980, "trialdata": {"revealed_states": [], "num_clicks_accrued": [0, 0, 0, 0, 0, 0, 0, 0, 0, 0, 0, 0, 0], "stateRewards": ["", -2, -8, -24, -24, 4, -4, -48, 48, 2, 8, 48, -48], "withholdReward": false, "trial_id": "mdp_498095124548", "block": "test2", "trialIndex": 63, "score": 51.75, "costs": -1.25, "simulationMode": [null, null, null], "rewards": [4, -4, 48], "path": ["0", "0", "5", "6", "8"], "rt": [4489, 5, 283], "actions": ["right", "right", "down"], "actionTimes": [5897, 6418, 7212], "queries": {"click": {"state": {"target": ["3", "7", "8", "6", "5"], "time": [2150, 2665, 3257, 4905, 5281]}, "edge": {"target": [], "time": []}}, "mouseover": {"state": {"target": ["3", "7", "6", "8", "6", "6", "5"], "time": [1975, 2458, 2925, 3076, 4399, 4792, 5092]}, "edge": {"target": [], "time": []}}, "mouseout": {"state": {"target": ["0", "3", "7", "6", "8", "6", "6", "5", "6", "6", "6"], "time": [1544, 2376, 2892, 2992, 3425, 4416, 5040, 5476, 5542, 8492, 8925]}, "edge": {"target": [], "time": []}}}, "displayed_time": "10.41", "trialTime": 10640, "trial_type": "mouselab-mdp", "trial_index": 75, "time_elapsed": 1277472, "internal_node_id": "0.0-4.0-3.0-29.0"}}, {"uniqueid": "w78184613:a65762408", "current_trial": 76, "dateTime": 1664556425349, "trialdata": {"rt": 290354, "stimulus": "<h1> End of block! </h1>\n\nYou have reached the end of the block 2/4. If you need a short break, feel free to take one now before moving on.\n\n<br><br>\nIn the next block, you will complete another 30 rounds of this game.\n\n<br><br>\n<div style='text-align: center;'>Press <code>space</code> to begin.</div>\n<br><br>\n<div style='text-align: center;'>(If the experiment doesn't continue, try clicking on the text and then pressing <code>space</code>.)</div>", "response": " ", "trial_id": "mdp_ready_3", "trial_type": "html-keyboard-response", "trial_index": 76, "time_elapsed": 1567842, "internal_node_id": "0.0-4.0-4.0"}}, {"uniqueid": "w78184613:a65762408", "current_trial": 77, "dateTime": 1664556435256, "trialdata": {"revealed_states": [], "num_clicks_accrued": [0, 0, 0, 0, 0, 0, 0, 0, 0, 0, 0, 0, 0], "stateRewards": ["", 4, -8, -24, 48, -4, 8, -24, -48, -4, -4, 24, 48], "withholdReward": true, "trial_id": "mdp_282352776624", "block": "test3", "trialIndex": 64, "score": 48, "costs": -1, "simulationMode": [null, null, null], "rewards": [4, -8, 48], "path": ["0", "0", "1", "2", "4"], "rt": [3287, 47, 19], "actions": ["up", "up", "left"], "actionTimes": [4776, 5345, 5900], "queries": {"click": {"state": {"target": ["3", "4", "2", "1"], "time": [2073, 2764, 3269, 3748]}, "edge": {"target": [], "time": []}}, "mouseover": {"state": {"target": ["3", "2", "4", "2", "1"], "time": [1895, 2444, 2644, 3161, 3495]}, "edge": {"target": [], "time": []}}, "mouseout": {"state": {"target": ["3", "0", "3", "2", "4", "2", "1", "1", "1"], "time": [626, 1327, 2261, 2528, 3061, 3444, 6251, 7795, 9278]}, "edge": {"target": [], "time": []}}}, "displayed_time": "9.49", "trialTime": 9781, "trial_type": "mouselab-mdp", "trial_index": 77, "time_elapsed": 1577749, "internal_node_id": "0.0-4.0-5.0-0.0"}}, {"uniqueid": "w78184613:a65762408", "current_trial": 78, "dateTime": 1664556444728, "trialdata": {"revealed_states": [], "num_clicks_accrued": [0, 0, 0, 0, 0, 0, 0, 0, 0, 0, 0, 0, 0], "stateRewards": ["", -2, 4, 24, 48, 2, 4, -48, -48, 2, 8, 48, -48], "withholdReward": false, "trial_id": "mdp_409609775558", "block": "test3", "trialIndex": 65, "score": 30.25, "costs": -0.75, "simulationMode": [null, null, null], "rewards": [-2, 4, 24], "path": ["0", "0", "1", "2", "3"], "rt": [2137, 95, 75], "actions": ["up", "up", "right"], "actionTimes": [3037, 3644, 4242], "queries": {"click": {"state": {"target": ["3", "2", "1"], "time": [1435, 1962, 2317]}, "edge": {"target": [], "time": []}}, "mouseover": {"state": {"target": ["1", "3", "2", "1"], "time": [962, 1080, 1697, 2214]}, "edge": {"target": [], "time": []}}, "mouseout": {"state": {"target": ["1", "1", "3", "2", "1"], "time": [496, 1013, 1630, 2131, 2514]}, "edge": {"target": [], "time": []}}}, "displayed_time": "8.90", "trialTime": 9238, "trial_type": "mouselab-mdp", "trial_index": 78, "time_elapsed": 1587220, "internal_node_id": "0.0-4.0-5.0-1.0"}}, {"uniqueid": "w78184613:a65762408", "current_trial": 79, "dateTime": 1664556453958, "trialdata": {"revealed_states": [], "num_clicks_accrued": [0, 0, 0, 0, 0, 0, 0, 0, 0, 0, 0, 0, 0], "stateRewards": ["", -4, 4, -24, 24, 2, 4, -24, 48, -4, 8, -48, 48], "withholdReward": true, "trial_id": "mdp_422109108860", "block": "test3", "trialIndex": 66, "score": 28, "costs": -1, "simulationMode": [null, null, null], "rewards": [-4, 4, 24], "path": ["0", "0", "1", "2", "4"], "rt": [3143, 13, 135], "actions": ["up", "up", "left"], "actionTimes": [3890, 4433, 5072], "queries": {"click": {"state": {"target": ["3", "4", "2", "1"], "time": [1153, 1761, 2566, 2896]}, "edge": {"target": [], "time": []}}, "mouseover": {"state": {"target": ["1", "3", "2", "4", "2", "1", "7"], "time": [834, 1067, 1500, 1651, 2417, 2785, 3168]}, "edge": {"target": [], "time": []}}, "mouseout": {"state": {"target": ["1", "1", "3", "2", "4", "2", "1", "7", "7", "1", "0", "5"], "time": [516, 902, 1417, 1584, 2117, 2734, 3101, 3217, 5817, 5967, 6817, 7583]}, "edge": {"target": [], "time": []}}}, "displayed_time": "8.75", "trialTime": 9039, "trial_type": "mouselab-mdp", "trial_index": 79, "time_elapsed": 1596451, "internal_node_id": "0.0-4.0-5.0-2.0"}}, {"uniqueid": "w78184613:a65762408", "current_trial": 80, "dateTime": 1664556463998, "trialdata": {"revealed_states": [], "num_clicks_accrued": [0, 0, 0, 0, 0, 0, 0, 0, 0, 0, 0, 0, 0], "stateRewards": ["", -2, -4, -48, -48, -2, -8, 48, -48, 4, -8, -48, 24], "withholdReward": true, "trial_id": "mdp_468495641521", "block": "test3", "trialIndex": 67, "score": 42.25, "costs": -0.75, "simulationMode": [null, null, null], "rewards": [-2, -8, 48], "path": ["0", "0", "5", "6", "7"], "rt": [3682, 5, 113], "actions": ["right", "right", "up"], "actionTimes": [4292, 4805, 5453], "queries": {"click": {"state": {"target": ["7", "6", "5"], "time": [1084, 1836, 2156]}, "edge": {"target": [], "time": []}}, "mouseover": {"state": {"target": ["7", "6", "8", "6", "5", "8"], "time": [994, 1327, 1461, 1696, 2011, 2995]}, "edge": {"target": [], "time": []}}, "mouseout": {"state": {"target": ["0", "7", "6", "8", "6", "5", "6", "8"], "time": [427, 1294, 1378, 1678, 1961, 2398, 2478, 3544]}, "edge": {"target": [], "time": []}}}, "displayed_time": "9.62", "trialTime": 9872, "trial_type": "mouselab-mdp", "trial_index": 80, "time_elapsed": 1606491, "internal_node_id": "0.0-4.0-5.0-3.0"}}, {"uniqueid": "w78184613:a65762408", "current_trial": 81, "dateTime": 1664556474333, "trialdata": {"revealed_states": [], "num_clicks_accrued": [0, 0, 0, 0, 0, 0, 0, 0, 0, 0, 0, 0, 0], "stateRewards": ["", 4, -4, 48, -48, -2, -8, -24, 48, -2, 4, 24, -24], "withholdReward": false, "trial_id": "mdp_507290896735", "block": "test3", "trialIndex": 68, "score": 52.25, "costs": -0.75, "simulationMode": [null, null, null], "rewards": [4, -4, 48], "path": ["0", "0", "1", "2", "3"], "rt": [2952, 106, 81], "actions": ["up", "up", "right"], "actionTimes": [3723, 4338, 4933], "queries": {"click": {"state": {"target": ["3", "2", "1"], "time": [1188, 1832, 2426]}, "edge": {"target": [], "time": []}}, "mouseover": {"state": {"target": ["1", "3", "2", "1", "7"], "time": [880, 1063, 1480, 2046, 2730]}, "edge": {"target": [], "time": []}}, "mouseout": {"state": {"target": ["0", "1", "1", "3", "2", "1", "7"], "time": [279, 479, 913, 1413, 1997, 2597, 2830]}, "edge": {"target": [], "time": []}}}, "displayed_time": "9.78", "trialTime": 10109, "trial_type": "mouselab-mdp", "trial_index": 81, "time_elapsed": 1616825, "internal_node_id": "0.0-4.0-5.0-4.0"}}, {"uniqueid": "w78184613:a65762408", "current_trial": 82, "dateTime": 1664556486158, "trialdata": {"revealed_states": [], "num_clicks_accrued": [0, 0, 0, 0, 0, 0, 0, 0, 0, 0, 0, 0, 0], "stateRewards": ["", -4, -4, 24, -48, -2, 8, -24, -48, -4, 4, 24, -48], "withholdReward": true, "trial_id": "mdp_934626330092", "block": "test3", "trialIndex": 69, "score": 26.5, "costs": -2.5, "simulationMode": [null, null, null], "rewards": [-4, 4, 24], "path": ["0", "0", "9", "10", "11"], "rt": [8469, 14, 163], "actions": ["left", "left", "up"], "actionTimes": [9344, 9878, 10611], "queries": {"click": {"state": {"target": ["3", "2", "1", "4", "7", "8", "12", "11", "10", "9"], "time": [1306, 1898, 2297, 3433, 4541, 5533, 6189, 6606, 7192, 7560]}, "edge": {"target": [], "time": []}}, "mouseover": {"state": {"target": ["3", "2", "1", "7", "7", "4", "7", "6", "8", "8", "12", "10", "11", "10", "9", "5"], "time": [1214, 1715, 2164, 2548, 3099, 3231, 4431, 4781, 4948, 5331, 6015, 6382, 6565, 7098, 7448, 7831]}, "edge": {"target": [], "time": []}}, "mouseout": {"state": {"target": ["7", "0", "0", "3", "2", "1", "7", "7", "4", "2", "3", "7", "6", "8", "8", "12", "10", "11", "10", "9", "5", "6"], "time": [398, 564, 904, 1648, 2082, 2481, 2598, 3117, 3615, 3715, 3782, 4731, 4864, 5114, 5731, 6331, 6481, 7014, 7381, 7748, 8482, 11611]}, "edge": {"target": [], "time": []}}}, "displayed_time": "11.13", "trialTime": 11702, "trial_type": "mouselab-mdp", "trial_index": 82, "time_elapsed": 1628651, "internal_node_id": "0.0-4.0-5.0-5.0"}}, {"uniqueid": "w78184613:a65762408", "current_trial": 83, "dateTime": 1664556495431, "trialdata": {"revealed_states": [], "num_clicks_accrued": [0, 0, 0, 0, 0, 0, 0, 0, 0, 0, 0, 0, 0], "stateRewards": ["", 2, 8, -24, -48, 2, 4, -24, 48, 2, -8, 48, -24], "withholdReward": true, "trial_id": "mdp_791659307216", "block": "test3", "trialIndex": 70, "score": 45.75, "costs": -1.25, "simulationMode": [null, null, null], "rewards": [2, -8, 48], "path": ["0", "0", "9", "10", "11"], "rt": [3783, 36, 274], "actions": ["left", "left", "up"], "actionTimes": [4454, 4999, 5770], "queries": {"click": {"state": {"target": ["3", "4", "11", "10", "9"], "time": [1429, 2214, 2685, 3255, 3626]}, "edge": {"target": [], "time": []}}, "mouseover": {"state": {"target": ["1", "3", "3", "2", "4", "11", "10", "9", "0", "5"], "time": [793, 849, 1259, 1709, 2049, 2659, 3059, 3526, 3860, 3926]}, "edge": {"target": [], "time": []}}, "mouseout": {"state": {"target": ["0", "1", "3", "3", "2", "4", "11", "10", "9", "0", "5", "5", "0", "0"], "time": [441, 809, 992, 1642, 1825, 2459, 3009, 3433, 3826, 3909, 6296, 6426, 6559, 8526]}, "edge": {"target": [], "time": []}}}, "displayed_time": "8.68", "trialTime": 9024, "trial_type": "mouselab-mdp", "trial_index": 83, "time_elapsed": 1637924, "internal_node_id": "0.0-4.0-5.0-6.0"}}, {"uniqueid": "w78184613:a65762408", "current_trial": 84, "dateTime": 1664556505636, "trialdata": {"revealed_states": [], "num_clicks_accrued": [0, 0, 0, 0, 0, 0, 0, 0, 0, 0, 0, 0, 0], "stateRewards": ["", 4, 4, 24, -24, -4, -8, 48, -24, 4, 4, 48, 24], "withholdReward": true, "trial_id": "mdp_822446942217", "block": "test3", "trialIndex": 71, "score": 36, "costs": -1, "simulationMode": [null, null, null], "rewards": [4, 4, 24], "path": ["0", "0", "1", "2", "3"], "rt": [3364, 122, 46], "actions": ["up", "up", "right"], "actionTimes": [4083, 4700, 5259], "queries": {"click": {"state": {"target": ["4", "3", "2", "1"], "time": [1200, 1729, 2689, 3084]}, "edge": {"target": [], "time": []}}, "mouseover": {"state": {"target": ["1", "4", "2", "3", "2", "2", "1"], "time": [859, 1091, 1527, 1593, 2010, 2475, 2943]}, "edge": {"target": [], "time": []}}, "mouseout": {"state": {"target": ["9", "1", "4", "2", "3", "2", "4", "2", "1", "7", "5"], "time": [291, 876, 1509, 1576, 1975, 2027, 2442, 2892, 3259, 6193, 6442]}, "edge": {"target": [], "time": []}}}, "displayed_time": "9.73", "trialTime": 10011, "trial_type": "mouselab-mdp", "trial_index": 84, "time_elapsed": 1648128, "internal_node_id": "0.0-4.0-5.0-7.0"}}, {"uniqueid": "w78184613:a65762408", "current_trial": 85, "dateTime": 1664556517515, "trialdata": {"revealed_states": [], "num_clicks_accrued": [0, 0, 0, 0, 0, 0, 0, 0, 0, 0, 0, 0, 0], "stateRewards": ["", -4, 8, 48, -48, 2, -4, 24, -24, -2, 4, -24, -24], "withholdReward": true, "trial_id": "mdp_804988042722", "block": "test3", "trialIndex": 72, "score": 55.25, "costs": -1.75, "simulationMode": [null, null, null], "rewards": [-4, 8, 48], "path": ["0", "0", "1", "2", "3"], "rt": [8589, 128, 220], "actions": ["up", "up", "right"], "actionTimes": [9470, 10093, 10817], "queries": {"click": {"state": {"target": ["11", "12", "7", "8", "3", "2", "1"], "time": [1612, 2404, 3281, 4209, 5685, 6660, 7028]}, "edge": {"target": [], "time": []}}, "mouseover": {"state": {"target": ["9", "11", "10", "12", "0", "7", "6", "8", "6", "3", "2", "2", "1"], "time": [1045, 1495, 2095, 2212, 2729, 3101, 3563, 3812, 4479, 4913, 6095, 6495, 6895]}, "edge": {"target": [], "time": []}}, "mouseout": {"state": {"target": ["9", "0", "9", "11", "10", "12", "0", "7", "6", "8", "6", "3", "2", "2", "1"], "time"