{"condition": 0, "counterbalance": 0, "assignmentId": "a74318466", "workerId": "w24408039", "hitId": "h58467724", "currenttrial": 965, "bonus": 0, "data": [{"uniqueid": "w24408039:a74318466", "current_trial": 0, "dateTime": 1664554991919, "trialdata": {"success": true, "trial_type": "fullscreen", "trial_index": 0, "time_elapsed": 7034, "internal_node_id": "0.0-0.0"}}, {"uniqueid": "w24408039:a74318466", "current_trial": 1, "dateTime": 1664555024903, "trialdata": {"view_history": [{"page_index": 0, "viewing_time": 32968}], "rt": 32969, "trial_id": "exp_instructions_distractor", "trial_type": "instructions", "trial_index": 1, "time_elapsed": 40017, "internal_node_id": "0.0-1.0"}}, {"uniqueid": "w24408039:a74318466", "current_trial": 2, "dateTime": 1664555059054, "trialdata": {"view_history": [{"page_index": 0, "viewing_time": 34145}], "rt": 34145, "trial_id": "color_game_instructions", "trial_type": "instructions", "trial_index": 2, "time_elapsed": 74168, "internal_node_id": "0.0-2.0"}}, {"uniqueid": "w24408039:a74318466", "current_trial": 3, "dateTime": 1664555061937, "trialdata": {"rt": 2877, "stimulus": "<h1> Get ready to start the game! </h1>\n\nThank you for reading the instructions. Get ready start with the first of 5 block(s) of this game.\n<br><br>\nIn this first block, you will complete 90 rounds of this game before moving on.\n<br><br>\nRemember, the better you perform, the bigger your bonus will be!\n<br><br>\n<div style='text-align: center;'>Press <code>space</code> to begin.</div>", "response": " ", "trial_id": "stroop_1_ready_1", "trial_type": "html-keyboard-response", "trial_index": 3, "time_elapsed": 77052, "internal_node_id": "0.0-3.0"}}, {"uniqueid": "w24408039:a74318466", "current_trial": 4, "dateTime": 1664555062831, "trialdata": {"rt": 887, "stimulus": "<p id='stroop-text' class='stroop-blue'>MONKEY</p>", "response": "b", "stimulus-type": "unrelated", "word": "MONKEY", "color": "blue", "correct_response": "b", "trial_id": "stroop-trial-1-unrelated-26", "trial_type": "html-keyboard-response", "trial_index": 4, "time_elapsed": 77945, "internal_node_id": "0.0-4.0-0.0"}}, {"uniqueid": "w24408039:a74318466", "current_trial": 5, "dateTime": 1664555064331, "trialdata": {"rt": 984, "stimulus": "<p id='stroop-text' class='stroop-green'>FORK</p>", "response": "g", "stimulus-type": "unrelated", "word": "FORK", "color": "green", "correct_response": "g", "trial_id": "stroop-trial-1-unrelated-28", "trial_type": "html-keyboard-response", "trial_index": 5, "time_elapsed": 79445, "internal_node_id": "0.0-4.0-1.0"}}, {"uniqueid": "w24408039:a74318466", "current_trial": 6, "dateTime": 1664555065345, "trialdata": {"rt": 502, "stimulus": "<p id='stroop-text' class='stroop-green'>GREEN</p>", "response": "g", "stimulus-type": "congruent", "word": "green", "color": "green", "correct_response": "g", "trial_id": "stroop-trial-1-congruent-21", "trial_type": "html-keyboard-response", "trial_index": 6, "time_elapsed": 80459, "internal_node_id": "0.0-4.0-2.0"}}, {"uniqueid": "w24408039:a74318466", "current_trial": 7, "dateTime": 1664555066561, "trialdata": {"rt": 702, "stimulus": "<p id='stroop-text' class='stroop-green'>BLUE</p>", "response": "g", "stimulus-type": "incongruent", "word": "blue", "color": "green", "correct_response": "g", "trial_id": "stroop-trial-1-incongruent-15", "trial_type": "html-keyboard-response", "trial_index": 7, "time_elapsed": 81675, "internal_node_id": "0.0-4.0-3.0"}}, {"uniqueid": "w24408039:a74318466", "current_trial": 8, "dateTime": 1664555067662, "trialdata": {"rt": 592, "stimulus": "<p id='stroop-text' class='stroop-yellow'>DOG</p>", "response": "y", "stimulus-type": "unrelated", "word": "DOG", "color": "yellow", "correct_response": "y", "trial_id": "stroop-trial-1-unrelated-20", "trial_type": "html-keyboard-response", "trial_index": 8, "time_elapsed": 82777, "internal_node_id": "0.0-4.0-4.0"}}, {"uniqueid": "w24408039:a74318466", "current_trial": 9, "dateTime": 1664555069054, "trialdata": {"rt": 884, "stimulus": "<p id='stroop-text' class='stroop-blue'>RED</p>", "response": "g", "stimulus-type": "incongruent", "word": "red", "color": "blue", "correct_response": "b", "trial_id": "stroop-trial-1-incongruent-1", "trial_type": "html-keyboard-response", "trial_index": 9, "time_elapsed": 84169, "internal_node_id": "0.0-4.0-5.0"}}, {"uniqueid": "w24408039:a74318466", "current_trial": 10, "dateTime": 1664555070710, "trialdata": {"rt": 1149, "stimulus": "<p id='stroop-text' class='stroop-blue'>YELLOW</p>", "response": "b", "stimulus-type": "incongruent", "word": "yellow", "color": "blue", "correct_response": "b", "trial_id": "stroop-trial-1-incongruent-14", "trial_type": "html-keyboard-response", "trial_index": 10, "time_elapsed": 85824, "internal_node_id": "0.0-4.0-6.0"}}, {"uniqueid": "w24408039:a74318466", "current_trial": 11, "dateTime": 1664555071734, "trialdata": {"rt": 509, "stimulus": "<p id='stroop-text' class='stroop-blue'>BLUE</p>", "response": "b", "stimulus-type": "congruent", "word": "blue", "color": "blue", "correct_response": "b", "trial_id": "stroop-trial-1-congruent-1", "trial_type": "html-keyboard-response", "trial_index": 11, "time_elapsed": 86849, "internal_node_id": "0.0-4.0-7.0"}}, {"uniqueid": "w24408039:a74318466", "current_trial": 12, "dateTime": 1664555072978, "trialdata": {"rt": 739, "stimulus": "<p id='stroop-text' class='stroop-yellow'>YELLOW</p>", "response": "y", "stimulus-type": "congruent", "word": "yellow", "color": "yellow", "correct_response": "y", "trial_id": "stroop-trial-1-congruent-5", "trial_type": "html-keyboard-response", "trial_index": 12, "time_elapsed": 88092, "internal_node_id": "0.0-4.0-8.0"}}, {"uniqueid": "w24408039:a74318466", "current_trial": 13, "dateTime": 1664555074040, "trialdata": {"rt": 544, "stimulus": "<p id='stroop-text' class='stroop-yellow'>YELLOW</p>", "response": "y", "stimulus-type": "congruent", "word": "yellow", "color": "yellow", "correct_response": "y", "trial_id": "stroop-trial-1-congruent-29", "trial_type": "html-keyboard-response", "trial_index": 13, "time_elapsed": 89154, "internal_node_id": "0.0-4.0-9.0"}}, {"uniqueid": "w24408039:a74318466", "current_trial": 14, "dateTime": 1664555075269, "trialdata": {"rt": 711, "stimulus": "<p id='stroop-text' class='stroop-blue'>SHIP</p>", "response": "b", "stimulus-type": "unrelated", "word": "SHIP", "color": "blue", "correct_response": "b", "trial_id": "stroop-trial-1-unrelated-25", "trial_type": "html-keyboard-response", "trial_index": 14, "time_elapsed": 90383, "internal_node_id": "0.0-4.0-10.0"}}, {"uniqueid": "w24408039:a74318466", "current_trial": 15, "dateTime": 1664555076436, "trialdata": {"rt": 661, "stimulus": "<p id='stroop-text' class='stroop-green'>STONE</p>", "response": "g", "stimulus-type": "unrelated", "word": "STONE", "color": "green", "correct_response": "g", "trial_id": "stroop-trial-1-unrelated-21", "trial_type": "html-keyboard-response", "trial_index": 15, "time_elapsed": 91550, "internal_node_id": "0.0-4.0-11.0"}}, {"uniqueid": "w24408039:a74318466", "current_trial": 16, "dateTime": 1664555077572, "trialdata": {"rt": 631, "stimulus": "<p id='stroop-text' class='stroop-red'>GREEN</p>", "response": "r", "stimulus-type": "incongruent", "word": "green", "color": "red", "correct_response": "r", "trial_id": "stroop-trial-1-incongruent-6", "trial_type": "html-keyboard-response", "trial_index": 16, "time_elapsed": 92686, "internal_node_id": "0.0-4.0-12.0"}}, {"uniqueid": "w24408039:a74318466", "current_trial": 17, "dateTime": 1664555078573, "trialdata": {"rt": 498, "stimulus": "<p id='stroop-text' class='stroop-red'>RED</p>", "response": "r", "stimulus-type": "congruent", "word": "red", "color": "red", "correct_response": "r", "trial_id": "stroop-trial-1-congruent-9", "trial_type": "html-keyboard-response", "trial_index": 17, "time_elapsed": 93687, "internal_node_id": "0.0-4.0-13.0"}}, {"uniqueid": "w24408039:a74318466", "current_trial": 18, "dateTime": 1664555079585, "trialdata": {"rt": 497, "stimulus": "<p id='stroop-text' class='stroop-red'>STONE</p>", "response": "r", "stimulus-type": "unrelated", "word": "STONE", "color": "red", "correct_response": "r", "trial_id": "stroop-trial-1-unrelated-22", "trial_type": "html-keyboard-response", "trial_index": 18, "time_elapsed": 94699, "internal_node_id": "0.0-4.0-14.0"}}, {"uniqueid": "w24408039:a74318466", "current_trial": 19, "dateTime": 1664555081071, "trialdata": {"rt": 970, "stimulus": "<p id='stroop-text' class='stroop-green'>DOG</p>", "response": "g", "stimulus-type": "unrelated", "word": "DOG", "color": "green", "correct_response": "g", "trial_id": "stroop-trial-1-unrelated-9", "trial_type": "html-keyboard-response", "trial_index": 19, "time_elapsed": 96185, "internal_node_id": "0.0-4.0-15.0"}}, {"uniqueid": "w24408039:a74318466", "current_trial": 20, "dateTime": 1664555082205, "trialdata": {"rt": 629, "stimulus": "<p id='stroop-text' class='stroop-yellow'>GREEN</p>", "response": "y", "stimulus-type": "incongruent", "word": "green", "color": "yellow", "correct_response": "y", "trial_id": "stroop-trial-1-incongruent-27", "trial_type": "html-keyboard-response", "trial_index": 20, "time_elapsed": 97319, "internal_node_id": "0.0-4.0-16.0"}}, {"uniqueid": "w24408039:a74318466", "current_trial": 21, "dateTime": 1664555083311, "trialdata": {"rt": 599, "stimulus": "<p id='stroop-text' class='stroop-blue'>YELLOW</p>", "response": "b", "stimulus-type": "incongruent", "word": "yellow", "color": "blue", "correct_response": "b", "trial_id": "stroop-trial-1-incongruent-20", "trial_type": "html-keyboard-response", "trial_index": 21, "time_elapsed": 98425, "internal_node_id": "0.0-4.0-17.0"}}, {"uniqueid": "w24408039:a74318466", "current_trial": 22, "dateTime": 1664555084509, "trialdata": {"rt": 691, "stimulus": "<p id='stroop-text' class='stroop-green'>GREEN</p>", "response": "g", "stimulus-type": "congruent", "word": "green", "color": "green", "correct_response": "g", "trial_id": "stroop-trial-1-congruent-20", "trial_type": "html-keyboard-response", "trial_index": 22, "time_elapsed": 99624, "internal_node_id": "0.0-4.0-18.0"}}, {"uniqueid": "w24408039:a74318466", "current_trial": 23, "dateTime": 1664555085555, "trialdata": {"rt": 529, "stimulus": "<p id='stroop-text' class='stroop-blue'>BRAIN</p>", "response": "b", "stimulus-type": "unrelated", "word": "BRAIN", "color": "blue", "correct_response": "b", "trial_id": "stroop-trial-1-unrelated-16", "trial_type": "html-keyboard-response", "trial_index": 23, "time_elapsed": 100670, "internal_node_id": "0.0-4.0-19.0"}}, {"uniqueid": "w24408039:a74318466", "current_trial": 24, "dateTime": 1664555086595, "trialdata": {"rt": 522, "stimulus": "<p id='stroop-text' class='stroop-yellow'>YELLOW</p>", "response": "y", "stimulus-type": "congruent", "word": "yellow", "color": "yellow", "correct_response": "y", "trial_id": "stroop-trial-1-congruent-15", "trial_type": "html-keyboard-response", "trial_index": 24, "time_elapsed": 101709, "internal_node_id": "0.0-4.0-20.0"}}, {"uniqueid": "w24408039:a74318466", "current_trial": 25, "dateTime": 1664555087625, "trialdata": {"rt": 511, "stimulus": "<p id='stroop-text' class='stroop-red'>SHIP</p>", "response": "r", "stimulus-type": "unrelated", "word": "SHIP", "color": "red", "correct_response": "r", "trial_id": "stroop-trial-1-unrelated-8", "trial_type": "html-keyboard-response", "trial_index": 25, "time_elapsed": 102738, "internal_node_id": "0.0-4.0-21.0"}}, {"uniqueid": "w24408039:a74318466", "current_trial": 26, "dateTime": 1664555088833, "trialdata": {"rt": 694, "stimulus": "<p id='stroop-text' class='stroop-green'>GREEN</p>", "response": "g", "stimulus-type": "congruent", "word": "green", "color": "green", "correct_response": "g", "trial_id": "stroop-trial-1-congruent-7", "trial_type": "html-keyboard-response", "trial_index": 26, "time_elapsed": 103948, "internal_node_id": "0.0-4.0-22.0"}}, {"uniqueid": "w24408039:a74318466", "current_trial": 27, "dateTime": 1664555089989, "trialdata": {"rt": 642, "stimulus": "<p id='stroop-text' class='stroop-yellow'>BOTTLE</p>", "response": "y", "stimulus-type": "unrelated", "word": "BOTTLE", "color": "yellow", "correct_response": "y", "trial_id": "stroop-trial-1-unrelated-2", "trial_type": "html-keyboard-response", "trial_index": 27, "time_elapsed": 105104, "internal_node_id": "0.0-4.0-23.0"}}, {"uniqueid": "w24408039:a74318466", "current_trial": 28, "dateTime": 1664555091039, "trialdata": {"rt": 541, "stimulus": "<p id='stroop-text' class='stroop-yellow'>BOTTLE</p>", "response": "y", "stimulus-type": "unrelated", "word": "BOTTLE", "color": "yellow", "correct_response": "y", "trial_id": "stroop-trial-1-unrelated-1", "trial_type": "html-keyboard-response", "trial_index": 28, "time_elapsed": 106154, "internal_node_id": "0.0-4.0-24.0"}}, {"uniqueid": "w24408039:a74318466", "current_trial": 29, "dateTime": 1664555092225, "trialdata": {"rt": 670, "stimulus": "<p id='stroop-text' class='stroop-red'>RED</p>", "response": "r", "stimulus-type": "congruent", "word": "red", "color": "red", "correct_response": "r", "trial_id": "stroop-trial-1-congruent-22", "trial_type": "html-keyboard-response", "trial_index": 29, "time_elapsed": 107339, "internal_node_id": "0.0-4.0-25.0"}}, {"uniqueid": "w24408039:a74318466", "current_trial": 30, "dateTime": 1664555093302, "trialdata": {"rt": 565, "stimulus": "<p id='stroop-text' class='stroop-yellow'>YELLOW</p>", "response": "y", "stimulus-type": "congruent", "word": "yellow", "color": "yellow", "correct_response": "y", "trial_id": "stroop-trial-1-congruent-4", "trial_type": "html-keyboard-response", "trial_index": 30, "time_elapsed": 108417, "internal_node_id": "0.0-4.0-26.0"}}, {"uniqueid": "w24408039:a74318466", "current_trial": 31, "dateTime": 1664555094367, "trialdata": {"rt": 556, "stimulus": "<p id='stroop-text' class='stroop-red'>RED</p>", "response": "r", "stimulus-type": "congruent", "word": "red", "color": "red", "correct_response": "r", "trial_id": "stroop-trial-1-congruent-13", "trial_type": "html-keyboard-response", "trial_index": 31, "time_elapsed": 109482, "internal_node_id": "0.0-4.0-27.0"}}, {"uniqueid": "w24408039:a74318466", "current_trial": 32, "dateTime": 1664555095532, "trialdata": {"rt": 660, "stimulus": "<p id='stroop-text' class='stroop-yellow'>GREEN</p>", "response": "y", "stimulus-type": "incongruent", "word": "green", "color": "yellow", "correct_response": "y", "trial_id": "stroop-trial-1-incongruent-26", "trial_type": "html-keyboard-response", "trial_index": 32, "time_elapsed": 110647, "internal_node_id": "0.0-4.0-28.0"}}, {"uniqueid": "w24408039:a74318466", "current_trial": 33, "dateTime": 1664555096653, "trialdata": {"rt": 615, "stimulus": "<p id='stroop-text' class='stroop-red'>MONKEY</p>", "response": "r", "stimulus-type": "unrelated", "word": "MONKEY", "color": "red", "correct_response": "r", "trial_id": "stroop-trial-1-unrelated-4", "trial_type": "html-keyboard-response", "trial_index": 33, "time_elapsed": 111768, "internal_node_id": "0.0-4.0-29.0"}}, {"uniqueid": "w24408039:a74318466", "current_trial": 34, "dateTime": 1664555097701, "trialdata": {"rt": 540, "stimulus": "<p id='stroop-text' class='stroop-red'>STONE</p>", "response": "r", "stimulus-type": "unrelated", "word": "STONE", "color": "red", "correct_response": "r", "trial_id": "stroop-trial-1-unrelated-6", "trial_type": "html-keyboard-response", "trial_index": 34, "time_elapsed": 112815, "internal_node_id": "0.0-4.0-30.0"}}, {"uniqueid": "w24408039:a74318466", "current_trial": 35, "dateTime": 1664555098727, "trialdata": {"rt": 513, "stimulus": "<p id='stroop-text' class='stroop-green'>GREEN</p>", "response": "g", "stimulus-type": "congruent", "word": "green", "color": "green", "correct_response": "g", "trial_id": "stroop-trial-1-congruent-3", "trial_type": "html-keyboard-response", "trial_index": 35, "time_elapsed": 113841, "internal_node_id": "0.0-4.0-31.0"}}, {"uniqueid": "w24408039:a74318466", "current_trial": 36, "dateTime": 1664555099672, "trialdata": {"rt": 433, "stimulus": "<p id='stroop-text' class='stroop-blue'>GREEN</p>", "response": "b", "stimulus-type": "incongruent", "word": "green", "color": "blue", "correct_response": "b", "trial_id": "stroop-trial-1-incongruent-12", "trial_type": "html-keyboard-response", "trial_index": 36, "time_elapsed": 114786, "internal_node_id": "0.0-4.0-32.0"}}, {"uniqueid": "w24408039:a74318466", "current_trial": 37, "dateTime": 1664555101081, "trialdata": {"rt": 895, "stimulus": "<p id='stroop-text' class='stroop-green'>YELLOW</p>", "response": "g", "stimulus-type": "incongruent", "word": "yellow", "color": "green", "correct_response": "g", "trial_id": "stroop-trial-1-incongruent-21", "trial_type": "html-keyboard-response", "trial_index": 37, "time_elapsed": 116196, "internal_node_id": "0.0-4.0-33.0"}}, {"uniqueid": "w24408039:a74318466", "current_trial": 38, "dateTime": 1664555102197, "trialdata": {"rt": 609, "stimulus": "<p id='stroop-text' class='stroop-blue'>GREEN</p>", "response": "b", "stimulus-type": "incongruent", "word": "green", "color": "blue", "correct_response": "b", "trial_id": "stroop-trial-1-incongruent-2", "trial_type": "html-keyboard-response", "trial_index": 38, "time_elapsed": 117311, "internal_node_id": "0.0-4.0-34.0"}}, {"uniqueid": "w24408039:a74318466", "current_trial": 39, "dateTime": 1664555103190, "trialdata": {"rt": 482, "stimulus": "<p id='stroop-text' class='stroop-yellow'>YELLOW</p>", "response": "y", "stimulus-type": "congruent", "word": "yellow", "color": "yellow", "correct_response": "y", "trial_id": "stroop-trial-1-congruent-24", "trial_type": "html-keyboard-response", "trial_index": 39, "time_elapsed": 118305, "internal_node_id": "0.0-4.0-35.0"}}, {"uniqueid": "w24408039:a74318466", "current_trial": 40, "dateTime": 1664555104366, "trialdata": {"rt": 662, "stimulus": "<p id='stroop-text' class='stroop-green'>RED</p>", "response": "g", "stimulus-type": "incongruent", "word": "red", "color": "green", "correct_response": "g", "trial_id": "stroop-trial-1-incongruent-24", "trial_type": "html-keyboard-response", "trial_index": 40, "time_elapsed": 119480, "internal_node_id": "0.0-4.0-36.0"}}, {"uniqueid": "w24408039:a74318466", "current_trial": 41, "dateTime": 1664555105582, "trialdata": {"rt": 700, "stimulus": "<p id='stroop-text' class='stroop-red'>BLUE</p>", "response": "r", "stimulus-type": "incongruent", "word": "blue", "color": "red", "correct_response": "r", "trial_id": "stroop-trial-1-incongruent-13", "trial_type": "html-keyboard-response", "trial_index": 41, "time_elapsed": 120697, "internal_node_id": "0.0-4.0-37.0"}}, {"uniqueid": "w24408039:a74318466", "current_trial": 42, "dateTime": 1664555106940, "trialdata": {"rt": 843, "stimulus": "<p id='stroop-text' class='stroop-blue'>YELLOW</p>", "response": "b", "stimulus-type": "incongruent", "word": "yellow", "color": "blue", "correct_response": "b", "trial_id": "stroop-trial-1-incongruent-3", "trial_type": "html-keyboard-response", "trial_index": 42, "time_elapsed": 122055, "internal_node_id": "0.0-4.0-38.0"}}, {"uniqueid": "w24408039:a74318466", "current_trial": 43, "dateTime": 1664555108003, "trialdata": {"rt": 551, "stimulus": "<p id='stroop-text' class='stroop-yellow'>YELLOW</p>", "response": "y", "stimulus-type": "congruent", "word": "yellow", "color": "yellow", "correct_response": "y", "trial_id": "stroop-trial-1-congruent-8", "trial_type": "html-keyboard-response", "trial_index": 43, "time_elapsed": 123117, "internal_node_id": "0.0-4.0-39.0"}}, {"uniqueid": "w24408039:a74318466", "current_trial": 44, "dateTime": 1664555109164, "trialdata": {"rt": 652, "stimulus": "<p id='stroop-text' class='stroop-green'>RED</p>", "response": "g", "stimulus-type": "incongruent", "word": "red", "color": "green", "correct_response": "g", "trial_id": "stroop-trial-1-incongruent-16", "trial_type": "html-keyboard-response", "trial_index": 44, "time_elapsed": 124279, "internal_node_id": "0.0-4.0-40.0"}}, {"uniqueid": "w24408039:a74318466", "current_trial": 45, "dateTime": 1664555110450, "trialdata": {"rt": 769, "stimulus": "<p id='stroop-text' class='stroop-blue'>STONE</p>", "response": "b", "stimulus-type": "unrelated", "word": "STONE", "color": "blue", "correct_response": "b", "trial_id": "stroop-trial-1-unrelated-13", "trial_type": "html-keyboard-response", "trial_index": 45, "time_elapsed": 125565, "internal_node_id": "0.0-4.0-41.0"}}, {"uniqueid": "w24408039:a74318466", "current_trial": 46, "dateTime": 1664555111488, "trialdata": {"rt": 534, "stimulus": "<p id='stroop-text' class='stroop-red'>FORK</p>", "response": "r", "stimulus-type": "unrelated", "word": "FORK", "color": "red", "correct_response": "r", "trial_id": "stroop-trial-1-unrelated-14", "trial_type": "html-keyboard-response", "trial_index": 46, "time_elapsed": 126603, "internal_node_id": "0.0-4.0-42.0"}}, {"uniqueid": "w24408039:a74318466", "current_trial": 47, "dateTime": 1664555112415, "trialdata": {"rt": 419, "stimulus": "<p id='stroop-text' class='stroop-red'>RED</p>", "response": "r", "stimulus-type": "congruent", "word": "red", "color": "red", "correct_response": "r", "trial_id": "stroop-trial-1-congruent-26", "trial_type": "html-keyboard-response", "trial_index": 47, "time_elapsed": 127530, "internal_node_id": "0.0-4.0-43.0"}}, {"uniqueid": "w24408039:a74318466", "current_trial": 48, "dateTime": 1664555113560, "trialdata": {"rt": 638, "stimulus": "<p id='stroop-text' class='stroop-green'>RED</p>", "response": "g", "stimulus-type": "incongruent", "word": "red", "color": "green", "correct_response": "g", "trial_id": "stroop-trial-1-incongruent-22", "trial_type": "html-keyboard-response", "trial_index": 48, "time_elapsed": 128675, "internal_node_id": "0.0-4.0-44.0"}}, {"uniqueid": "w24408039:a74318466", "current_trial": 49, "dateTime": 1664555114818, "trialdata": {"rt": 751, "stimulus": "<p id='stroop-text' class='stroop-yellow'>CHAIR</p>", "response": "y", "stimulus-type": "unrelated", "word": "CHAIR", "color": "yellow", "correct_response": "y", "trial_id": "stroop-trial-1-unrelated-29", "trial_type": "html-keyboard-response", "trial_index": 49, "time_elapsed": 129933, "internal_node_id": "0.0-4.0-45.0"}}, {"uniqueid": "w24408039:a74318466", "current_trial": 50, "dateTime": 1664555115790, "trialdata": {"rt": 459, "stimulus": "<p id='stroop-text' class='stroop-yellow'>SHIP</p>", "response": "y", "stimulus-type": "unrelated", "word": "SHIP", "color": "yellow", "correct_response": "y", "trial_id": "stroop-trial-1-unrelated-3", "trial_type": "html-keyboard-response", "trial_index": 50, "time_elapsed": 130904, "internal_node_id": "0.0-4.0-46.0"}}, {"uniqueid": "w24408039:a74318466", "current_trial": 51, "dateTime": 1664555116764, "trialdata": {"rt": 469, "stimulus": "<p id='stroop-text' class='stroop-red'>RED</p>", "response": "r", "stimulus-type": "congruent", "word": "red", "color": "red", "correct_response": "r", "trial_id": "stroop-trial-1-congruent-11", "trial_type": "html-keyboard-response", "trial_index": 51, "time_elapsed": 131878, "internal_node_id": "0.0-4.0-47.0"}}, {"uniqueid": "w24408039:a74318466", "current_trial": 52, "dateTime": 1664555117924, "trialdata": {"rt": 649, "stimulus": "<p id='stroop-text' class='stroop-green'>BRAIN</p>", "response": "g", "stimulus-type": "unrelated", "word": "BRAIN", "color": "green", "correct_response": "g", "trial_id": "stroop-trial-1-unrelated-24", "trial_type": "html-keyboard-response", "trial_index": 52, "time_elapsed": 133039, "internal_node_id": "0.0-4.0-48.0"}}, {"uniqueid": "w24408039:a74318466", "current_trial": 53, "dateTime": 1664555119135, "trialdata": {"rt": 693, "stimulus": "<p id='stroop-text' class='stroop-yellow'>RED</p>", "response": "y", "stimulus-type": "incongruent", "word": "red", "color": "yellow", "correct_response": "y", "trial_id": "stroop-trial-1-incongruent-25", "trial_type": "html-keyboard-response", "trial_index": 53, "time_elapsed": 134249, "internal_node_id": "0.0-4.0-49.0"}}, {"uniqueid": "w24408039:a74318466", "current_trial": 54, "dateTime": 1664555120282, "trialdata": {"rt": 641, "stimulus": "<p id='stroop-text' class='stroop-green'>BRIDGE</p>", "response": "g", "stimulus-type": "unrelated", "word": "BRIDGE", "color": "green", "correct_response": "g", "trial_id": "stroop-trial-1-unrelated-11", "trial_type": "html-keyboard-response", "trial_index": 54, "time_elapsed": 135397, "internal_node_id": "0.0-4.0-50.0"}}, {"uniqueid": "w24408039:a74318466", "current_trial": 55, "dateTime": 1664555121553, "trialdata": {"rt": 760, "stimulus": "<p id='stroop-text' class='stroop-blue'>GREEN</p>", "response": "b", "stimulus-type": "incongruent", "word": "green", "color": "blue", "correct_response": "b", "trial_id": "stroop-trial-1-incongruent-23", "trial_type": "html-keyboard-response", "trial_index": 55, "time_elapsed": 136668, "internal_node_id": "0.0-4.0-51.0"}}, {"uniqueid": "w24408039:a74318466", "current_trial": 56, "dateTime": 1664555123076, "trialdata": {"rt": 1016, "stimulus": "<p id='stroop-text' class='stroop-green'>BLUE</p>", "response": "g", "stimulus-type": "incongruent", "word": "blue", "color": "green", "correct_response": "g", "trial_id": "stroop-trial-1-incongruent-29", "trial_type": "html-keyboard-response", "trial_index": 56, "time_elapsed": 138190, "internal_node_id": "0.0-4.0-52.0"}}, {"uniqueid": "w24408039:a74318466", "current_trial": 57, "dateTime": 1664555124108, "trialdata": {"rt": 519, "stimulus": "<p id='stroop-text' class='stroop-blue'>DOG</p>", "response": "b", "stimulus-type": "unrelated", "word": "DOG", "color": "blue", "correct_response": "b", "trial_id": "stroop-trial-1-unrelated-5", "trial_type": "html-keyboard-response", "trial_index": 57, "time_elapsed": 139222, "internal_node_id": "0.0-4.0-53.0"}}, {"uniqueid": "w24408039:a74318466", "current_trial": 58, "dateTime": 1664555125140, "trialdata": {"rt": 514, "stimulus": "<p id='stroop-text' class='stroop-blue'>MONKEY</p>", "response": "b", "stimulus-type": "unrelated", "word": "MONKEY", "color": "blue", "correct_response": "b", "trial_id": "stroop-trial-1-unrelated-7", "trial_type": "html-keyboard-response", "trial_index": 58, "time_elapsed": 140255, "internal_node_id": "0.0-4.0-54.0"}}, {"uniqueid": "w24408039:a74318466", "current_trial": 59, "dateTime": 1664555126200, "trialdata": {"rt": 547, "stimulus": "<p id='stroop-text' class='stroop-red'>RED</p>", "response": "r", "stimulus-type": "congruent", "word": "red", "color": "red", "correct_response": "r", "trial_id": "stroop-trial-1-congruent-6", "trial_type": "html-keyboard-response", "trial_index": 59, "time_elapsed": 141314, "internal_node_id": "0.0-4.0-55.0"}}, {"uniqueid": "w24408039:a74318466", "current_trial": 60, "dateTime": 1664555127494, "trialdata": {"rt": 785, "stimulus": "<p id='stroop-text' class='stroop-blue'>YELLOW</p>", "response": "b", "stimulus-type": "incongruent", "word": "yellow", "color": "blue", "correct_response": "b", "trial_id": "stroop-trial-1-incongruent-8", "trial_type": "html-keyboard-response", "trial_index": 60, "time_elapsed": 142608, "internal_node_id": "0.0-4.0-56.0"}}, {"uniqueid": "w24408039:a74318466", "current_trial": 61, "dateTime": 1664555128605, "trialdata": {"rt": 601, "stimulus": "<p id='stroop-text' class='stroop-yellow'>DOG</p>", "response": "y", "stimulus-type": "unrelated", "word": "DOG", "color": "yellow", "correct_response": "y", "trial_id": "stroop-trial-1-unrelated-30", "trial_type": "html-keyboard-response", "trial_index": 61, "time_elapsed": 143719, "internal_node_id": "0.0-4.0-57.0"}}, {"uniqueid": "w24408039:a74318466", "current_trial": 62, "dateTime": 1664555129679, "trialdata": {"rt": 569, "stimulus": "<p id='stroop-text' class='stroop-green'>BLUE</p>", "response": "g", "stimulus-type": "incongruent", "word": "blue", "color": "green", "correct_response": "g", "trial_id": "stroop-trial-1-incongruent-9", "trial_type": "html-keyboard-response", "trial_index": 62, "time_elapsed": 144793, "internal_node_id": "0.0-4.0-58.0"}}, {"uniqueid": "w24408039:a74318466", "current_trial": 63, "dateTime": 1664555130649, "trialdata": {"rt": 457, "stimulus": "<p id='stroop-text' class='stroop-green'>YELLOW</p>", "response": "g", "stimulus-type": "incongruent", "word": "yellow", "color": "green", "correct_response": "g", "trial_id": "stroop-trial-1-incongruent-19", "trial_type": "html-keyboard-response", "trial_index": 63, "time_elapsed": 145764, "internal_node_id": "0.0-4.0-59.0"}}, {"uniqueid": "w24408039:a74318466", "current_trial": 64, "dateTime": 1664555131703, "trialdata": {"rt": 543, "stimulus": "<p id='stroop-text' class='stroop-yellow'>SHIP</p>", "response": "y", "stimulus-type": "unrelated", "word": "SHIP", "color": "yellow", "correct_response": "y", "trial_id": "stroop-trial-1-unrelated-15", "trial_type": "html-keyboard-response", "trial_index": 64, "time_elapsed": 146817, "internal_node_id": "0.0-4.0-60.0"}}, {"uniqueid": "w24408039:a74318466", "current_trial": 65, "dateTime": 1664555132704, "trialdata": {"rt": 484, "stimulus": "<p id='stroop-text' class='stroop-yellow'>YELLOW</p>", "response": "y", "stimulus-type": "congruent", "word": "yellow", "color": "yellow", "correct_response": "y", "trial_id": "stroop-trial-1-congruent-14", "trial_type": "html-keyboard-response", "trial_index": 65, "time_elapsed": 147818, "internal_node_id": "0.0-4.0-61.0"}}, {"uniqueid": "w24408039:a74318466", "current_trial": 66, "dateTime": 1664555133690, "trialdata": {"rt": 473, "stimulus": "<p id='stroop-text' class='stroop-yellow'>YELLOW</p>", "response": "y", "stimulus-type": "congruent", "word": "yellow", "color": "yellow", "correct_response": "y", "trial_id": "stroop-trial-1-congruent-25", "trial_type": "html-keyboard-response", "trial_index": 66, "time_elapsed": 148804, "internal_node_id": "0.0-4.0-62.0"}}, {"uniqueid": "w24408039:a74318466", "current_trial": 67, "dateTime": 1664555134790, "trialdata": {"rt": 593, "stimulus": "<p id='stroop-text' class='stroop-green'>GREEN</p>", "response": "g", "stimulus-type": "congruent", "word": "green", "color": "green", "correct_response": "g", "trial_id": "stroop-trial-1-congruent-30", "trial_type": "html-keyboard-response", "trial_index": 67, "time_elapsed": 149905, "internal_node_id": "0.0-4.0-63.0"}}, {"uniqueid": "w24408039:a74318466", "current_trial": 68, "dateTime": 1664555135808, "trialdata": {"rt": 502, "stimulus": "<p id='stroop-text' class='stroop-red'>RED</p>", "response": "r", "stimulus-type": "congruent", "word": "red", "color": "red", "correct_response": "r", "trial_id": "stroop-trial-1-congruent-12", "trial_type": "html-keyboard-response", "trial_index": 68, "time_elapsed": 150923, "internal_node_id": "0.0-4.0-64.0"}}, {"uniqueid": "w24408039:a74318466", "current_trial": 69, "dateTime": 1664555136746, "trialdata": {"rt": 432, "stimulus": "<p id='stroop-text' class='stroop-red'>RED</p>", "response": "g", "stimulus-type": "congruent", "word": "red", "color": "red", "correct_response": "r", "trial_id": "stroop-trial-1-congruent-28", "trial_type": "html-keyboard-response", "trial_index": 69, "time_elapsed": 151860, "internal_node_id": "0.0-4.0-65.0"}}, {"uniqueid": "w24408039:a74318466", "current_trial": 70, "dateTime": 1664555137907, "trialdata": {"rt": 644, "stimulus": "<p id='stroop-text' class='stroop-green'>MONKEY</p>", "response": "g", "stimulus-type": "unrelated", "word": "MONKEY", "color": "green", "correct_response": "g", "trial_id": "stroop-trial-1-unrelated-23", "trial_type": "html-keyboard-response", "trial_index": 70, "time_elapsed": 153022, "internal_node_id": "0.0-4.0-66.0"}}, {"uniqueid": "w24408039:a74318466", "current_trial": 71, "dateTime": 1664555138900, "trialdata": {"rt": 487, "stimulus": "<p id='stroop-text' class='stroop-blue'>GREEN</p>", "response": "b", "stimulus-type": "incongruent", "word": "green", "color": "blue", "correct_response": "b", "trial_id": "stroop-trial-1-incongruent-4", "trial_type": "html-keyboard-response", "trial_index": 71, "time_elapsed": 154015, "internal_node_id": "0.0-4.0-67.0"}}, {"uniqueid": "w24408039:a74318466", "current_trial": 72, "dateTime": 1664555140101, "trialdata": {"rt": 690, "stimulus": "<p id='stroop-text' class='stroop-red'>YELLOW</p>", "response": "r", "stimulus-type": "incongruent", "word": "yellow", "color": "red", "correct_response": "r", "trial_id": "stroop-trial-1-incongruent-11", "trial_type": "html-keyboard-response", "trial_index": 72, "time_elapsed": 155215, "internal_node_id": "0.0-4.0-68.0"}}, {"uniqueid": "w24408039:a74318466", "current_trial": 73, "dateTime": 1664555141114, "trialdata": {"rt": 503, "stimulus": "<p id='stroop-text' class='stroop-red'>RED</p>", "response": "r", "stimulus-type": "congruent", "word": "red", "color": "red", "correct_response": "r", "trial_id": "stroop-trial-1-congruent-19", "trial_type": "html-keyboard-response", "trial_index": 73, "time_elapsed": 156227, "internal_node_id": "0.0-4.0-69.0"}}, {"uniqueid": "w24408039:a74318466", "current_trial": 74, "dateTime": 1664555142162, "trialdata": {"rt": 540, "stimulus": "<p id='stroop-text' class='stroop-yellow'>YELLOW</p>", "response": "y", "stimulus-type": "congruent", "word": "yellow", "color": "yellow", "correct_response": "y", "trial_id": "stroop-trial-1-congruent-17", "trial_type": "html-keyboard-response", "trial_index": 74, "time_elapsed": 157276, "internal_node_id": "0.0-4.0-70.0"}}, {"uniqueid": "w24408039:a74318466", "current_trial": 75, "dateTime": 1664555143142, "trialdata": {"rt": 474, "stimulus": "<p id='stroop-text' class='stroop-blue'>BLUE</p>", "response": "b", "stimulus-type": "congruent", "word": "blue", "color": "blue", "correct_response": "b", "trial_id": "stroop-trial-1-congruent-2", "trial_type": "html-keyboard-response", "trial_index": 75, "time_elapsed": 158256, "internal_node_id": "0.0-4.0-71.0"}}, {"uniqueid": "w24408039:a74318466", "current_trial": 76, "dateTime": 1664555144449, "trialdata": {"rt": 804, "stimulus": "<p id='stroop-text' class='stroop-blue'>RED</p>", "response": "b", "stimulus-type": "incongruent", "word": "red", "color": "blue", "correct_response": "b", "trial_id": "stroop-trial-1-incongruent-18", "trial_type": "html-keyboard-response", "trial_index": 76, "time_elapsed": 159564, "internal_node_id": "0.0-4.0-72.0"}}, {"uniqueid": "w24408039:a74318466", "current_trial": 77, "dateTime": 1664555145524, "trialdata": {"rt": 570, "stimulus": "<p id='stroop-text' class='stroop-red'>BOTTLE</p>", "response": "r", "stimulus-type": "unrelated", "word": "BOTTLE", "color": "red", "correct_response": "r", "trial_id": "stroop-trial-1-unrelated-17", "trial_type": "html-keyboard-response", "trial_index": 77, "time_elapsed": 160639, "internal_node_id": "0.0-4.0-73.0"}}, {"uniqueid": "w24408039:a74318466", "current_trial": 78, "dateTime": 1664555146565, "trialdata": {"rt": 525, "stimulus": "<p id='stroop-text' class='stroop-green'>GREEN</p>", "response": "g", "stimulus-type": "congruent", "word": "green", "color": "green", "correct_response": "g", "trial_id": "stroop-trial-1-congruent-27", "trial_type": "html-keyboard-response", "trial_index": 78, "time_elapsed": 161679, "internal_node_id": "0.0-4.0-74.0"}}, {"uniqueid": "w24408039:a74318466", "current_trial": 79, "dateTime": 1664555147675, "trialdata": {"rt": 605, "stimulus": "<p id='stroop-text' class='stroop-blue'>RED</p>", "response": "b", "stimulus-type": "incongruent", "word": "red", "color": "blue", "correct_response": "b", "trial_id": "stroop-trial-1-incongruent-17", "trial_type": "html-keyboard-response", "trial_index": 79, "time_elapsed": 162789, "internal_node_id": "0.0-4.0-75.0"}}, {"uniqueid": "w24408039:a74318466", "current_trial": 80, "dateTime": 1664555148749, "trialdata": {"rt": 572, "stimulus": "<p id='stroop-text' class='stroop-green'>YELLOW</p>", "response": "y", "stimulus-type": "incongruent", "word": "yellow", "color": "green", "correct_response": "g", "trial_id": "stroop-trial-1-incongruent-10", "trial_type": "html-keyboard-response", "trial_index": 80, "time_elapsed": 163864, "internal_node_id": "0.0-4.0-76.0"}}, {"uniqueid": "w24408039:a74318466", "current_trial": 81, "dateTime": 1664555150355, "trialdata": {"rt": 1091, "stimulus": "<p id='stroop-text' class='stroop-blue'>YELLOW</p>", "response": "b", "stimulus-type": "incongruent", "word": "yellow", "color": "blue", "correct_response": "b", "trial_id": "stroop-trial-1-incongruent-28", "trial_type": "html-keyboard-response", "trial_index": 81, "time_elapsed": 165469, "internal_node_id": "0.0-4.0-77.0"}}, {"uniqueid": "w24408039:a74318466", "current_trial": 82, "dateTime": 1664555151424, "trialdata": {"rt": 560, "stimulus": "<p id='stroop-text' class='stroop-red'>GREEN</p>", "response": "r", "stimulus-type": "incongruent", "word": "green", "color": "red", "correct_response": "r", "trial_id": "stroop-trial-1-incongruent-7", "trial_type": "html-keyboard-response", "trial_index": 82, "time_elapsed": 166539, "internal_node_id": "0.0-4.0-78.0"}}, {"uniqueid": "w24408039:a74318466", "current_trial": 83, "dateTime": 1664555152590, "trialdata": {"rt": 650, "stimulus": "<p id='stroop-text' class='stroop-blue'>BLUE</p>", "response": "b", "stimulus-type": "congruent", "word": "blue", "color": "blue", "correct_response": "b", "trial_id": "stroop-trial-1-congruent-18", "trial_type": "html-keyboard-response", "trial_index": 83, "time_elapsed": 167705, "internal_node_id": "0.0-4.0-79.0"}}, {"uniqueid": "w24408039:a74318466", "current_trial": 84, "dateTime": 1664555153826, "trialdata": {"rt": 718, "stimulus": "<p id='stroop-text' class='stroop-green'>SHIP</p>", "response": "g", "stimulus-type": "unrelated", "word": "SHIP", "color": "green", "correct_response": "g", "trial_id": "stroop-trial-1-unrelated-27", "trial_type": "html-keyboard-response", "trial_index": 84, "time_elapsed": 168940, "internal_node_id": "0.0-4.0-80.0"}}, {"uniqueid": "w24408039:a74318466", "current_trial": 85, "dateTime": 1664555154873, "trialdata": {"rt": 535, "stimulus": "<p id='stroop-text' class='stroop-red'>BRAIN</p>", "response": "r", "stimulus-type": "unrelated", "word": "BRAIN", "color": "red", "correct_response": "r", "trial_id": "stroop-trial-1-unrelated-18", "trial_type": "html-keyboard-response", "trial_index": 85, "time_elapsed": 169987, "internal_node_id": "0.0-4.0-81.0"}}, {"uniqueid": "w24408039:a74318466", "current_trial": 86, "dateTime": 1664555156054, "trialdata": {"rt": 672, "stimulus": "<p id='stroop-text' class='stroop-green'>GREEN</p>", "response": "g", "stimulus-type": "congruent", "word": "green", "color": "green", "correct_response": "g", "trial_id": "stroop-trial-1-congruent-16", "trial_type": "html-keyboard-response", "trial_index": 86, "time_elapsed": 171168, "internal_node_id": "0.0-4.0-82.0"}}, {"uniqueid": "w24408039:a74318466", "current_trial": 87, "dateTime": 1664555157167, "trialdata": {"rt": 599, "stimulus": "<p id='stroop-text' class='stroop-blue'>YELLOW</p>", "response": "b", "stimulus-type": "incongruent", "word": "yellow", "color": "blue", "correct_response": "b", "trial_id": "stroop-trial-1-incongruent-5", "trial_type": "html-keyboard-response", "trial_index": 87, "time_elapsed": 172281, "internal_node_id": "0.0-4.0-83.0"}}, {"uniqueid": "w24408039:a74318466", "current_trial": 88, "dateTime": 1664555158242, "trialdata": {"rt": 570, "stimulus": "<p id='stroop-text' class='stroop-red'>BOTTLE</p>", "response": "r", "stimulus-type": "unrelated", "word": "BOTTLE", "color": "red", "correct_response": "r", "trial_id": "stroop-trial-1-unrelated-12", "trial_type": "html-keyboard-response", "trial_index": 88, "time_elapsed": 173356, "internal_node_id": "0.0-4.0-84.0"}}, {"uniqueid": "w24408039:a74318466", "current_trial": 89, "dateTime": 1664555159362, "trialdata": {"rt": 614, "stimulus": "<p id='stroop-text' class='stroop-green'>STONE</p>", "response": "g", "stimulus-type": "unrelated", "word": "STONE", "color": "green", "correct_response": "g", "trial_id": "stroop-trial-1-unrelated-10", "trial_type": "html-keyboard-response", "trial_index": 89, "time_elapsed": 174477, "internal_node_id": "0.0-4.0-85.0"}}, {"uniqueid": "w24408039:a74318466", "current_trial": 90, "dateTime": 1664555160511, "trialdata": {"rt": 644, "stimulus": "<p id='stroop-text' class='stroop-red'>GREEN</p>", "response": "r", "stimulus-type": "incongruent", "word": "green", "color": "red", "correct_response": "r", "trial_id": "stroop-trial-1-incongruent-30", "trial_type": "html-keyboard-response", "trial_index": 90, "time_elapsed": 175625, "internal_node_id": "0.0-4.0-86.0"}}, {"uniqueid": "w24408039:a74318466", "current_trial": 91, "dateTime": 1664555161523, "trialdata": {"rt": 500, "stimulus": "<p id='stroop-text' class='stroop-blue'>BLUE</p>", "response": "b", "stimulus-type": "congruent", "word": "blue", "color": "blue", "correct_response": "b", "trial_id": "stroop-trial-1-congruent-23", "trial_type": "html-keyboard-response", "trial_index": 91, "time_elapsed": 176637, "internal_node_id": "0.0-4.0-87.0"}}, {"uniqueid": "w24408039:a74318466", "current_trial": 92, "dateTime": 1664555162528, "trialdata": {"rt": 499, "stimulus": "<p id='stroop-text' class='stroop-yellow'>YELLOW</p>", "response": "y", "stimulus-type": "congruent", "word": "yellow", "color": "yellow", "correct_response": "y", "trial_id": "stroop-trial-1-congruent-10", "trial_type": "html-keyboard-response", "trial_index": 92, "time_elapsed": 177643, "internal_node_id": "0.0-4.0-88.0"}}, {"uniqueid": "w24408039:a74318466", "current_trial": 93, "dateTime": 1664555163622, "trialdata": {"rt": 584, "stimulus": "<p id='stroop-text' class='stroop-blue'>BRIDGE</p>", "response": "b", "stimulus-type": "unrelated", "word": "BRIDGE", "color": "blue", "correct_response": "b", "trial_id": "stroop-trial-1-unrelated-19", "trial_type": "html-keyboard-response", "trial_index": 93, "time_elapsed": 178737, "internal_node_id": "0.0-4.0-89.0"}}, {"uniqueid": "w24408039:a74318466", "current_trial": 94, "dateTime": 1664555187193, "trialdata": {"rt": 23063, "stimulus": "  <h1> End of block! </h1>\n\n  You have reached the end of the block 1/5. If you need a short break, feel free to take one now before moving on.\n\n  <br><br>\n  In the next block, you will complete another 90 rounds of this game.\n\n  <br><br>\n  <div style='text-align: center;'>Press <code>space</code> to begin.</div>\n  <br><br>\n<div style='text-align: center;'>(If the experiment doesn't continue, try clicking on the text and then pressing <code>space</code>.)</div>", "response": " ", "trial_id": "stroop_1_ready_2", "trial_type": "html-keyboard-response", "trial_index": 94, "time_elapsed": 202308, "internal_node_id": "0.0-5.0"}}, {"uniqueid": "w24408039:a74318466", "current_trial": 95, "dateTime": 1664555187902, "trialdata": {"rt": 704, "stimulus": "<p id='stroop-text' class='stroop-yellow'>DOG</p>", "response": "y", "stimulus-type": "unrelated", "word": "DOG", "color": "yellow", "correct_response": "y", "trial_id": "stroop-trial-1-unrelated-11", "trial_type": "html-keyboard-response", "trial_index": 95, "time_elapsed": 203016, "internal_node_id": "0.0-6.0-0.0"}}, {"uniqueid": "w24408039:a74318466", "current_trial": 96, "dateTime": 1664555188926, "trialdata": {"rt": 509, "stimulus": "<p id='stroop-text' class='stroop-red'>RED</p>", "response": "r", "stimulus-type": "congruent", "word": "red", "color": "red", "correct_response": "r", "trial_id": "stroop-trial-1-congruent-29", "trial_type": "html-keyboard-response", "trial_index": 96, "time_elapsed": 204040, "internal_node_id": "0.0-6.0-1.0"}}, {"uniqueid": "w24408039:a74318466", "current_trial": 97, "dateTime": 1664555190280, "trialdata": {"rt": 835, "stimulus": "<p id='stroop-text' class='stroop-blue'>BLUE</p>", "response": "b", "stimulus-type": "congruent", "word": "blue", "color": "blue", "correct_response": "b", "trial_id": "stroop-trial-1-congruent-23", "trial_type": "html-keyboard-response", "trial_index": 97, "time_elapsed": 205395, "internal_node_id": "0.0-6.0-2.0"}}, {"uniqueid": "w24408039:a74318466", "current_trial": 98, "dateTime": 1664555191411, "trialdata": {"rt": 625, "stimulus": "<p id='stroop-text' class='stroop-yellow'>YELLOW</p>", "response": "y", "stimulus-type": "congruent", "word": "yellow", "color": "yellow", "correct_response": "y", "trial_id": "stroop-trial-1-congruent-5", "trial_type": "html-keyboard-response", "trial_index": 98, "time_elapsed": 206526, "internal_node_id": "0.0-6.0-3.0"}}, {"uniqueid": "w24408039:a74318466", "current_trial": 99, "dateTime": 1664555192634, "trialdata": {"rt": 705, "stimulus": "<p id='stroop-text' class='stroop-green'>RED</p>", "response": "g", "stimulus-type": "incongruent", "word": "red", "color": "green", "correct_response": "g", "trial_id": "stroop-trial-1-incongruent-17", "trial_type": "html-keyboard-response", "trial_index": 99, "time_elapsed": 207748, "internal_node_id": "0.0-6.0-4.0"}}, {"uniqueid": "w24408039:a74318466", "current_trial": 100, "dateTime": 1664555193782, "trialdata": {"rt": 637, "stimulus": "<p id='stroop-text' class='stroop-yellow'>GREEN</p>", "response": "y", "stimulus-type": "incongruent", "word": "green", "color": "yellow", "correct_response": "y", "trial_id": "stroop-trial-1-incongruent-19", "trial_type": "html-keyboard-response", "trial_index": 100, "time_elapsed": 208896, "internal_node_id": "0.0-6.0-5.0"}}, {"uniqueid": "w24408039:a74318466", "current_trial": 101, "dateTime": 1664555194713, "trialdata": {"rt": 420, "stimulus": "<p id='stroop-text' class='stroop-yellow'>YELLOW</p>", "response": "y", "stimulus-type": "congruent", "word": "yellow", "color": "yellow", "correct_response": "y", "trial_id": "stroop-trial-1-congruent-11", "trial_type": "html-keyboard-response", "trial_index": 101, "time_elapsed": 209827, "internal_node_id": "0.0-6.0-6.0"}}, {"uniqueid": "w24408039:a74318466", "current_trial": 102, "dateTime": 1664555195846, "trialdata": {"rt": 617, "stimulus": "<p id='stroop-text' class='stroop-blue'>RED</p>", "response": "b", "stimulus-type": "incongruent", "word": "red", "color": "blue", "correct_response": "b", "trial_id": "stroop-trial-1-incongruent-11", "trial_type": "html-keyboard-response", "trial_index": 102, "time_elapsed": 210959, "internal_node_id": "0.0-6.0-7.0"}}, {"uniqueid": "w24408039:a74318466", "current_trial": 103, "dateTime": 1664555196852, "trialdata": {"rt": 488, "stimulus": "<p id='stroop-text' class='stroop-blue'>YELLOW</p>", "response": "b", "stimulus-type": "incongruent", "word": "yellow", "color": "blue", "correct_response": "b", "trial_id": "stroop-trial-1-incongruent-30", "trial_type": "html-keyboard-response", "trial_index": 103, "time_elapsed": 211967, "internal_node_id": "0.0-6.0-8.0"}}, {"uniqueid": "w24408039:a74318466", "current_trial": 104, "dateTime": 1664555197971, "trialdata": {"rt": 612, "stimulus": "<p id='stroop-text' class='stroop-green'>WINDOW</p>", "response": "g", "stimulus-type": "unrelated", "word": "WINDOW", "color": "green", "correct_response": "g", "trial_id": "stroop-trial-1-unrelated-28", "trial_type": "html-keyboard-response", "trial_index": 104, "time_elapsed": 213086, "internal_node_id": "0.0-6.0-9.0"}}, {"uniqueid": "w24408039:a74318466", "current_trial": 105, "dateTime": 1664555199130, "trialdata": {"rt": 650, "stimulus": "<p id='stroop-text' class='stroop-yellow'>BLUE</p>", "response": "y", "stimulus-type": "incongruent", "word": "blue", "color": "yellow", "correct_response": "y", "trial_id": "stroop-trial-1-incongruent-14", "trial_type": "html-keyboard-response", "trial_index": 105, "time_elapsed": 214245, "internal_node_id": "0.0-6.0-10.0"}}, {"uniqueid": "w24408039:a74318466", "current_trial": 106, "dateTime": 1664555200146, "trialdata": {"rt": 511, "stimulus": "<p id='stroop-text' class='stroop-green'>GREEN</p>", "response": "g", "stimulus-type": "congruent", "word": "green", "color": "green", "correct_response": "g", "trial_id": "stroop-trial-1-congruent-25", "trial_type": "html-keyboard-response", "trial_index": 106, "time_elapsed": 215261, "internal_node_id": "0.0-6.0-11.0"}}, {"uniqueid": "w24408039:a74318466", "current_trial": 107, "dateTime": 1664555201157, "trialdata": {"rt": 494, "stimulus": "<p id='stroop-text' class='stroop-yellow'>YELLOW</p>", "response": "y", "stimulus-type": "congruent", "word": "yellow", "color": "yellow", "correct_response": "y", "trial_id": "stroop-trial-1-congruent-3", "trial_type": "html-keyboard-response", "trial_index": 107, "time_elapsed": 216272, "internal_node_id": "0.0-6.0-12.0"}}, {"uniqueid": "w24408039:a74318466", "current_trial": 108, "dateTime": 1664555202171, "trialdata": {"rt": 497, "stimulus": "<p id='stroop-text' class='stroop-yellow'>BLUE</p>", "response": "y", "stimulus-type": "incongruent", "word": "blue", "color": "yellow", "correct_response": "y", "trial_id": "stroop-trial-1-incongruent-20", "trial_type": "html-keyboard-response", "trial_index": 108, "time_elapsed": 217286, "internal_node_id": "0.0-6.0-13.0"}}, {"uniqueid": "w24408039:a74318466", "current_trial": 109, "dateTime": 1664555203206, "trialdata": {"rt": 518, "stimulus": "<p id='stroop-text' class='stroop-green'>GREEN</p>", "response": "g", "stimulus-type": "congruent", "word": "green", "color": "green", "correct_response": "g", "trial_id": "stroop-trial-1-congruent-2", "trial_type": "html-keyboard-response", "trial_index": 109, "time_elapsed": 218320, "internal_node_id": "0.0-6.0-14.0"}}, {"uniqueid": "w24408039:a74318466", "current_trial": 110, "dateTime": 1664555204285, "trialdata": {"rt": 564, "stimulus": "<p id='stroop-text' class='stroop-yellow'>YELLOW</p>", "response": "y", "stimulus-type": "congruent", "word": "yellow", "color": "yellow", "correct_response": "y", "trial_id": "stroop-trial-1-congruent-15", "trial_type": "html-keyboard-response", "trial_index": 110, "time_elapsed": 219400, "internal_node_id": "0.0-6.0-15.0"}}, {"uniqueid": "w24408039:a74318466", "current_trial": 111, "dateTime": 1664555205232, "trialdata": {"rt": 435, "stimulus": "<p id='stroop-text' class='stroop-red'>BLUE</p>", "response": "r", "stimulus-type": "incongruent", "word": "blue", "color": "red", "correct_response": "r", "trial_id": "stroop-trial-1-incongruent-10", "trial_type": "html-keyboard-response", "trial_index": 111, "time_elapsed": 220347, "internal_node_id": "0.0-6.0-16.0"}}, {"uniqueid": "w24408039:a74318466", "current_trial": 112, "dateTime": 1664555206151, "trialdata": {"rt": 406, "stimulus": "<p id='stroop-text' class='stroop-blue'>BLUE</p>", "response": "b", "stimulus-type": "congruent", "word": "blue", "color": "blue", "correct_response": "b", "trial_id": "stroop-trial-1-congruent-1", "trial_type": "html-keyboard-response", "trial_index": 112, "time_elapsed": 221265, "internal_node_id": "0.0-6.0-17.0"}}, {"uniqueid": "w24408039:a74318466", "current_trial": 113, "dateTime": 1664555207234, "trialdata": {"rt": 575, "stimulus": "<p id='stroop-text' class='stroop-green'>BOAT</p>", "response": "g", "stimulus-type": "unrelated", "word": "BOAT", "color": "green", "correct_response": "g", "trial_id": "stroop-trial-1-unrelated-25", "trial_type": "html-keyboard-response", "trial_index": 113, "time_elapsed": 222349, "internal_node_id": "0.0-6.0-18.0"}}, {"uniqueid": "w24408039:a74318466", "current_trial": 114, "dateTime": 1664555208257, "trialdata": {"rt": 509, "stimulus": "<p id='stroop-text' class='stroop-yellow'>YELLOW</p>", "response": "y", "stimulus-type": "congruent", "word": "yellow", "color": "yellow", "correct_response": "y", "trial_id": "stroop-trial-1-congruent-24", "trial_type": "html-keyboard-response", "trial_index": 114, "time_elapsed": 223372, "internal_node_id": "0.0-6.0-19.0"}}, {"uniqueid": "w24408039:a74318466", "current_trial": 115, "dateTime": 1664555209328, "trialdata": {"rt": 564, "stimulus": "<p id='stroop-text' class='stroop-blue'>CHAIR</p>", "response": "b", "stimulus-type": "unrelated", "word": "CHAIR", "color": "blue", "correct_response": "b", "trial_id": "stroop-trial-1-unrelated-15", "trial_type": "html-keyboard-response", "trial_index": 115, "time_elapsed": 224443, "internal_node_id": "0.0-6.0-20.0"}}, {"uniqueid": "w24408039:a74318466", "current_trial": 116, "dateTime": 1664555210383, "trialdata": {"rt": 544, "stimulus": "<p id='stroop-text' class='stroop-green'>GREEN</p>", "response": "g", "stimulus-type": "congruent", "word": "green", "color": "green", "correct_response": "g", "trial_id": "stroop-trial-1-congruent-6", "trial_type": "html-keyboard-response", "trial_index": 116, "time_elapsed": 225497, "internal_node_id": "0.0-6.0-21.0"}}, {"uniqueid": "w24408039:a74318466", "current_trial": 117, "dateTime": 1664555211459, "trialdata": {"rt": 567, "stimulus": "<p id='stroop-text' class='stroop-green'>GREEN</p>", "response": "g", "stimulus-type": "congruent", "word": "green", "color": "green", "correct_response": "g", "trial_id": "stroop-trial-1-congruent-16", "trial_type": "html-keyboard-response", "trial_index": 117, "time_elapsed": 226574, "internal_node_id": "0.0-6.0-22.0"}}, {"uniqueid": "w24408039:a74318466", "current_trial": 118, "dateTime": 1664555212572, "trialdata": {"rt": 606, "stimulus": "<p id='stroop-text' class='stroop-blue'>FORK</p>", "response": "b", "stimulus-type": "unrelated", "word": "FORK", "color": "blue", "correct_response": "b", "trial_id": "stroop-trial-1-unrelated-4", "trial_type": "html-keyboard-response", "trial_index": 118, "time_elapsed": 227685, "internal_node_id": "0.0-6.0-23.0"}}, {"uniqueid": "w24408039:a74318466", "current_trial": 119, "dateTime": 1664555213615, "trialdata": {"rt": 533, "stimulus": "<p id='stroop-text' class='stroop-green'>DOG</p>", "response": "g", "stimulus-type": "unrelated", "word": "DOG", "color": "green", "correct_response": "g", "trial_id": "stroop-trial-1-unrelated-22", "trial_type": "html-keyboard-response", "trial_index": 119, "time_elapsed": 228730, "internal_node_id": "0.0-6.0-24.0"}}, {"uniqueid": "w24408039:a74318466", "current_trial": 120, "dateTime": 1664555214581, "trialdata": {"rt": 452, "stimulus": "<p id='stroop-text' class='stroop-red'>RED</p>", "response": "r", "stimulus-type": "congruent", "word": "red", "color": "red", "correct_response": "r", "trial_id": "stroop-trial-1-congruent-26", "trial_type": "html-keyboard-response", "trial_index": 120, "time_elapsed": 229695, "internal_node_id": "0.0-6.0-25.0"}}, {"uniqueid": "w24408039:a74318466", "current_trial": 121, "dateTime": 1664555215684, "trialdata": {"rt": 591, "stimulus": "<p id='stroop-text' class='stroop-yellow'>MONKEY</p>", "response": "y", "stimulus-type": "unrelated", "word": "MONKEY", "color": "yellow", "correct_response": "y", "trial_id": "stroop-trial-1-unrelated-9", "trial_type": "html-keyboard-response", "trial_index": 121, "time_elapsed": 230799, "internal_node_id": "0.0-6.0-26.0"}}, {"uniqueid": "w24408039:a74318466", "current_trial": 122, "dateTime": 1664555216755, "trialdata": {"rt": 561, "stimulus": "<p id='stroop-text' class='stroop-yellow'>YELLOW</p>", "response": "y", "stimulus-type": "congruent", "word": "yellow", "color": "yellow", "correct_response": "y", "trial_id": "stroop-trial-1-congruent-21", "trial_type": "html-keyboard-response", "trial_index": 122, "time_elapsed": 231870, "internal_node_id": "0.0-6.0-27.0"}}, {"uniqueid": "w24408039:a74318466", "current_trial": 123, "dateTime": 1664555217806, "trialdata": {"rt": 537, "stimulus": "<p id='stroop-text' class='stroop-red'>RED</p>", "response": "r", "stimulus-type": "congruent", "word": "red", "color": "red", "correct_response": "r", "trial_id": "stroop-trial-1-congruent-7", "trial_type": "html-keyboard-response", "trial_index": 123, "time_elapsed": 232921, "internal_node_id": "0.0-6.0-28.0"}}, {"uniqueid": "w24408039:a74318466", "current_trial": 124, "dateTime": 1664555218772, "trialdata": {"rt": 450, "stimulus": "<p id='stroop-text' class='stroop-yellow'>YELLOW</p>", "response": "y", "stimulus-type": "congruent", "word": "yellow", "color": "yellow", "correct_response": "y", "trial_id": "stroop-trial-1-congruent-17", "trial_type": "html-keyboard-response", "trial_index": 124, "time_elapsed": 233887, "internal_node_id": "0.0-6.0-29.0"}}, {"uniqueid": "w24408039:a74318466", "current_trial": 125, "dateTime": 1664555219951, "trialdata": {"rt": 666, "stimulus": "<p id='stroop-text' class='stroop-red'>GREEN</p>", "response": "r", "stimulus-type": "incongruent", "word": "green", "color": "red", "correct_response": "r", "trial_id": "stroop-trial-1-incongruent-29", "trial_type": "html-keyboard-response", "trial_index": 125, "time_elapsed": 235065, "internal_node_id": "0.0-6.0-30.0"}}, {"uniqueid": "w24408039:a74318466", "current_trial": 126, "dateTime": 1664555220913, "trialdata": {"rt": 447, "stimulus": "<p id='stroop-text' class='stroop-red'>MONKEY</p>", "response": "r", "stimulus-type": "unrelated", "word": "MONKEY", "color": "red", "correct_response": "r", "trial_id": "stroop-trial-1-unrelated-10", "trial_type": "html-keyboard-response", "trial_index": 126, "time_elapsed": 236028, "internal_node_id": "0.0-6.0-31.0"}}, {"uniqueid": "w24408039:a74318466", "current_trial": 127, "dateTime": 1664555221934, "trialdata": {"rt": 504, "stimulus": "<p id='stroop-text' class='stroop-red'>BLUE</p>", "response": "r", "stimulus-type": "incongruent", "word": "blue", "color": "red", "correct_response": "r", "trial_id": "stroop-trial-1-incongruent-26", "trial_type": "html-keyboard-response", "trial_index": 127, "time_elapsed": 237048, "internal_node_id": "0.0-6.0-32.0"}}, {"uniqueid": "w24408039:a74318466", "current_trial": 128, "dateTime": 1664555222831, "trialdata": {"rt": 389, "stimulus": "<p id='stroop-text' class='stroop-blue'>BRIDGE</p>", "response": "b", "stimulus-type": "unrelated", "word": "BRIDGE", "color": "blue", "correct_response": "b", "trial_id": "stroop-trial-1-unrelated-14", "trial_type": "html-keyboard-response", "trial_index": 128, "time_elapsed": 237945, "internal_node_id": "0.0-6.0-33.0"}}, {"uniqueid": "w24408039:a74318466", "current_trial": 129, "dateTime": 1664555223945, "trialdata": {"rt": 603, "stimulus": "<p id='stroop-text' class='stroop-green'>GREEN</p>", "response": "g", "stimulus-type": "congruent", "word": "green", "color": "green", "correct_response": "g", "trial_id": "stroop-trial-1-congruent-10", "trial_type": "html-keyboard-response", "trial_index": 129, "time_elapsed": 239059, "internal_node_id": "0.0-6.0-34.0"}}, {"uniqueid": "w24408039:a74318466", "current_trial": 130, "dateTime": 1664555224923, "trialdata": {"rt": 462, "stimulus": "<p id='stroop-text' class='stroop-red'>RED</p>", "response": "r", "stimulus-type": "congruent", "word": "red", "color": "red", "correct_response": "r", "trial_id": "stroop-trial-1-congruent-27", "trial_type": "html-keyboard-response", "trial_index": 130, "time_elapsed": 240037, "internal_node_id": "0.0-6.0-35.0"}}, {"uniqueid": "w24408039:a74318466", "current_trial": 131, "dateTime": 1664555226138, "trialdata": {"rt": 712, "stimulus": "<p id='stroop-text' class='stroop-yellow'>SHIP</p>", "response": "y", "stimulus-type": "unrelated", "word": "SHIP", "color": "yellow", "correct_response": "y", "trial_id": "stroop-trial-1-unrelated-20", "trial_type": "html-keyboard-response", "trial_index": 131, "time_elapsed": 241252, "internal_node_id": "0.0-6.0-36.0"}}, {"uniqueid": "w24408039:a74318466", "current_trial": 132, "dateTime": 1664555227213, "trialdata": {"rt": 570, "stimulus": "<p id='stroop-text' class='stroop-green'>RED</p>", "response": "g", "stimulus-type": "incongruent", "word": "red", "color": "green", "correct_response": "g", "trial_id": "stroop-trial-1-incongruent-5", "trial_type": "html-keyboard-response", "trial_index": 132, "time_elapsed": 242328, "internal_node_id": "0.0-6.0-37.0"}}, {"uniqueid": "w24408039:a74318466", "current_trial": 133, "dateTime": 1664555228259, "trialdata": {"rt": 534, "stimulus": "<p id='stroop-text' class='stroop-blue'>BLUE</p>", "response": "b", "stimulus-type": "congruent", "word": "blue", "color": "blue", "correct_response": "b", "trial_id": "stroop-trial-1-congruent-12", "trial_type": "html-keyboard-response", "trial_index": 133, "time_elapsed": 243374, "internal_node_id": "0.0-6.0-38.0"}}, {"uniqueid": "w24408039:a74318466", "current_trial": 134, "dateTime": 1664555229451, "trialdata": {"rt": 679, "stimulus": "<p id='stroop-text' class='stroop-blue'>YELLOW</p>", "response": "b", "stimulus-type": "incongruent", "word": "yellow", "color": "blue", "correct_response": "b", "trial_id": "stroop-trial-1-incongruent-9", "trial_type": "html-keyboard-response", "trial_index": 134, "time_elapsed": 244565, "internal_node_id": "0.0-6.0-39.0"}}, {"uniqueid": "w24408039:a74318466", "current_trial": 135, "dateTime": 1664555230458, "trialdata": {"rt": 494, "stimulus": "<p id='stroop-text' class='stroop-blue'>DOG</p>", "response": "b", "stimulus-type": "unrelated", "word": "DOG", "color": "blue", "correct_response": "b", "trial_id": "stroop-trial-1-unrelated-1", "trial_type": "html-keyboard-response", "trial_index": 135, "time_elapsed": 245572, "internal_node_id": "0.0-6.0-40.0"}}, {"uniqueid": "w24408039:a74318466", "current_trial": 136, "dateTime": 1664555231699, "trialdata": {"rt": 724, "stimulus": "<p id='stroop-text' class='stroop-yellow'>BOTTLE</p>", "response": "y", "stimulus-type": "unrelated", "word": "BOTTLE", "color": "yellow", "correct_response": "y", "trial_id": "stroop-trial-1-unrelated-23", "trial_type": "html-keyboard-response", "trial_index": 136, "time_elapsed": 246813, "internal_node_id": "0.0-6.0-41.0"}}, {"uniqueid": "w24408039:a74318466", "current_trial": 137, "dateTime": 1664555232754, "trialdata": {"rt": 540, "stimulus": "<p id='stroop-text' class='stroop-red'>BOAT</p>", "response": "r", "stimulus-type": "unrelated", "word": "BOAT", "color": "red", "correct_response": "r", "trial_id": "stroop-trial-1-unrelated-19", "trial_type": "html-keyboard-response", "trial_index": 137, "time_elapsed": 247868, "internal_node_id": "0.0-6.0-42.0"}}, {"uniqueid": "w24408039:a74318466", "current_trial": 138, "dateTime": 1664555233646, "trialdata": {"rt": 388, "stimulus": "<p id='stroop-text' class='stroop-red'>GREEN</p>", "response": "r", "stimulus-type": "incongruent", "word": "green", "color": "red", "correct_response": "r", "trial_id": "stroop-trial-1-incongruent-24", "trial_type": "html-keyboard-response", "trial_index": 138, "time_elapsed": 248760, "internal_node_id": "0.0-6.0-43.0"}}, {"uniqueid": "w24408039:a74318466", "current_trial": 139, "dateTime": 1664555234688, "trialdata": {"rt": 531, "stimulus": "<p id='stroop-text' class='stroop-yellow'>BOTTLE</p>", "response": "y", "stimulus-type": "unrelated", "word": "BOTTLE", "color": "yellow", "correct_response": "y", "trial_id": "stroop-trial-1-unrelated-29", "trial_type": "html-keyboard-response", "trial_index": 139, "time_elapsed": 249802, "internal_node_id": "0.0-6.0-44.0"}}, {"uniqueid": "w24408039:a74318466", "current_trial": 140, "dateTime": 1664555235591, "trialdata": {"rt": 392, "stimulus": "<p id='stroop-text' class='stroop-yellow'>RED</p>", "response": "r", "stimulus-type": "incongruent", "word": "red", "color": "yellow", "correct_response": "y", "trial_id": "stroop-trial-1-incongruent-13", "trial_type": "html-keyboard-response", "trial_index": 140, "time_elapsed": 250705, "internal_node_id": "0.0-6.0-45.0"}}, {"uniqueid": "w24408039:a74318466", "current_trial": 141, "dateTime": 1664555236629, "trialdata": {"rt": 524, "stimulus": "<p id='stroop-text' class='stroop-yellow'>FORK</p>", "response": "y", "stimulus-type": "unrelated", "word": "FORK", "color": "yellow", "correct_response": "y", "trial_id": "stroop-trial-1-unrelated-13", "trial_type": "html-keyboard-response", "trial_index": 141, "time_elapsed": 251744, "internal_node_id": "0.0-6.0-46.0"}}, {"uniqueid": "w24408039:a74318466", "current_trial": 142, "dateTime": 1664555237540, "trialdata": {"rt": 393, "stimulus": "<p id='stroop-text' class='stroop-yellow'>WINDOW</p>", "response": "y", "stimulus-type": "unrelated", "word": "WINDOW", "color": "yellow", "correct_response": "y", "trial_id": "stroop-trial-1-unrelated-21", "trial_type": "html-keyboard-response", "trial_index": 142, "time_elapsed": 252655, "internal_node_id": "0.0-6.0-47.0"}}, {"uniqueid": "w24408039:a74318466", "current_trial": 143, "dateTime": 1664555238579, "trialdata": {"rt": 529, "stimulus": "<p id='stroop-text' class='stroop-green'>SHIP</p>", "response": "g", "stimulus-type": "unrelated", "word": "SHIP", "color": "green", "correct_response": "g", "trial_id": "stroop-trial-1-unrelated-17", "trial_type": "html-keyboard-response", "trial_index": 143, "time_elapsed": 253694, "internal_node_id": "0.0-6.0-48.0"}}, {"uniqueid": "w24408039:a74318466", "current_trial": 144, "dateTime": 1664555239658, "trialdata": {"rt": 560, "stimulus": "<p id='stroop-text' class='stroop-green'>GREEN</p>", "response": "g", "stimulus-type": "congruent", "word": "green", "color": "green", "correct_response": "g", "trial_id": "stroop-trial-1-congruent-28", "trial_type": "html-keyboard-response", "trial_index": 144, "time_elapsed": 254772, "internal_node_id": "0.0-6.0-49.0"}}, {"uniqueid": "w24408039:a74318466", "current_trial": 145, "dateTime": 1664555240851, "trialdata": {"rt": 681, "stimulus": "<p id='stroop-text' class='stroop-yellow'>FORK</p>", "response": "y", "stimulus-type": "unrelated", "word": "FORK", "color": "yellow", "correct_response": "y", "trial_id": "stroop-trial-1-unrelated-7", "trial_type": "html-keyboard-response", "trial_index": 145, "time_elapsed": 255966, "internal_node_id": "0.0-6.0-50.0"}}, {"uniqueid": "w24408039:a74318466", "current_trial": 146, "dateTime": 1664555241905, "trialdata": {"rt": 548, "stimulus": "<p id='stroop-text' class='stroop-green'>GREEN</p>", "response": "g", "stimulus-type": "congruent", "word": "green", "color": "green", "correct_response": "g", "trial_id": "stroop-trial-1-congruent-18", "trial_type": "html-keyboard-response", "trial_index": 146, "time_elapsed": 257019, "internal_node_id": "0.0-6.0-51.0"}}, {"uniqueid": "w24408039:a74318466", "current_trial": 147, "dateTime": 1664555242970, "trialdata": {"rt": 557, "stimulus": "<p id='stroop-text' class='stroop-blue'>MONKEY</p>", "response": "b", "stimulus-type": "unrelated", "word": "MONKEY", "color": "blue", "correct_response": "b", "trial_id": "stroop-trial-1-unrelated-16", "trial_type": "html-keyboard-response", "trial_index": 147, "time_elapsed": 258085, "internal_node_id": "0.0-6.0-52.0"}}, {"uniqueid": "w24408039:a74318466", "current_trial": 148, "dateTime": 1664555243891, "trialdata": {"rt": 416, "stimulus": "<p id='stroop-text' class='stroop-blue'>GREEN</p>", "response": "b", "stimulus-type": "incongruent", "word": "green", "color": "blue", "correct_response": "b", "trial_id": "stroop-trial-1-incongruent-2", "trial_type": "html-keyboard-response", "trial_index": 148, "time_elapsed": 259005, "internal_node_id": "0.0-6.0-53.0"}}, {"uniqueid": "w24408039:a74318466", "current_trial": 149, "dateTime": 1664555245125, "trialdata": {"rt": 729, "stimulus": "<p id='stroop-text' class='stroop-yellow'>GREEN</p>", "response": "y", "stimulus-type": "incongruent", "word": "green", "color": "yellow", "correct_response": "y", "trial_id": "stroop-trial-1-incongruent-21", "trial_type": "html-keyboard-response", "trial_index": 149, "time_elapsed": 260238, "internal_node_id": "0.0-6.0-54.0"}}, {"uniqueid": "w24408039:a74318466", "current_trial": 150, "dateTime": 1664555246118, "trialdata": {"rt": 480, "stimulus": "<p id='stroop-text' class='stroop-yellow'>YELLOW</p>", "response": "y", "stimulus-type": "congruent", "word": "yellow", "color": "yellow", "correct_response": "y", "trial_id": "stroop-trial-1-congruent-14", "trial_type": "html-keyboard-response", "trial_index": 150, "time_elapsed": 261232, "internal_node_id": "0.0-6.0-55.0"}}, {"uniqueid": "w24408039:a74318466", "current_trial": 151, "dateTime": 1664555246996, "trialdata": {"rt": 363, "stimulus": "<p id='stroop-text' class='stroop-yellow'>YELLOW</p>", "response": "y", "stimulus-type": "congruent", "word": "yellow", "color": "yellow", "correct_response": "y", "trial_id": "stroop-trial-1-congruent-9", "trial_type": "html-keyboard-response", "trial_index": 151, "time_elapsed": 262110, "internal_node_id": "0.0-6.0-56.0"}}, {"uniqueid": "w24408039:a74318466", "current_trial": 152, "dateTime": 1664555247876, "trialdata": {"rt": 368, "stimulus": "<p id='stroop-text' class='stroop-yellow'>YELLOW</p>", "response": "y", "stimulus-type": "congruent", "word": "yellow", "color": "yellow", "correct_response": "y", "trial_id": "stroop-trial-1-congruent-4", "trial_type": "html-keyboard-response", "trial_index": 152, "time_elapsed": 262990, "internal_node_id": "0.0-6.0-57.0"}}, {"uniqueid": "w24408039:a74318466", "current_trial": 153, "dateTime": 1664555248753, "trialdata": {"rt": 356, "stimulus": "<p id='stroop-text' class='stroop-yellow'>BOTTLE</p>", "response": "y", "stimulus-type": "unrelated", "word": "BOTTLE", "color": "yellow", "correct_response": "y", "trial_id": "stroop-trial-1-unrelated-2", "trial_type": "html-keyboard-response", "trial_index": 153, "time_elapsed": 263867, "internal_node_id": "0.0-6.0-58.0"}}, {"uniqueid": "w24408039:a74318466", "current_trial": 154, "dateTime": 1664555249687, "trialdata": {"rt": 419, "stimulus": "<p id='stroop-text' class='stroop-yellow'>BOAT</p>", "response": "y", "stimulus-type": "unrelated", "word": "BOAT", "color": "yellow", "correct_response": "y", "trial_id": "stroop-trial-1-unrelated-5", "trial_type": "html-keyboard-response", "trial_index": 154, "time_elapsed": 264802, "internal_node_id": "0.0-6.0-59.0"}}, {"uniqueid": "w24408039:a74318466", "current_trial": 155, "dateTime": 1664555250667, "trialdata": {"rt": 471, "stimulus": "<p id='stroop-text' class='stroop-blue'>YELLOW</p>", "response": "b", "stimulus-type": "incongruent", "word": "yellow", "color": "blue", "correct_response": "b", "trial_id": "stroop-trial-1-incongruent-1", "trial_type": "html-keyboard-response", "trial_index": 155, "time_elapsed": 265781, "internal_node_id": "0.0-6.0-60.0"}}, {"uniqueid": "w24408039:a74318466", "current_trial": 156, "dateTime": 1664555251597, "trialdata": {"rt": 418, "stimulus": "<p id='stroop-text' class='stroop-blue'>GREEN</p>", "response": "b", "stimulus-type": "incongruent", "word": "green", "color": "blue", "correct_response": "b", "trial_id": "stroop-trial-1-incongruent-18", "trial_type": "html-keyboard-response", "trial_index": 156, "time_elapsed": 266711, "internal_node_id": "0.0-6.0-61.0"}}, {"uniqueid": "w24408039:a74318466", "current_trial": 157, "dateTime": 1664555252617, "trialdata": {"rt": 504, "stimulus": "<p id='stroop-text' class='stroop-red'>BOAT</p>", "response": "r", "stimulus-type": "unrelated", "word": "BOAT", "color": "red", "correct_response": "r", "trial_id": "stroop-trial-1-unrelated-18", "trial_type": "html-keyboard-response", "trial_index": 157, "time_elapsed": 267731, "internal_node_id": "0.0-6.0-62.0"}}, {"uniqueid": "w24408039:a74318466", "current_trial": 158, "dateTime": 1664555253612, "trialdata": {"rt": 488, "stimulus": "<p id='stroop-text' class='stroop-yellow'>BOAT</p>", "response": "b", "stimulus-type": "unrelated", "word": "BOAT", "color": "yellow", "correct_response": "y", "trial_id": "stroop-trial-1-unrelated-24", "trial_type": "html-keyboard-response", "trial_index": 158, "time_elapsed": 268725, "internal_node_id": "0.0-6.0-63.0"}}, {"uniqueid": "w24408039:a74318466", "current_trial": 159, "dateTime": 1664555254750, "trialdata": {"rt": 621, "stimulus": "<p id='stroop-text' class='stroop-green'>BLUE</p>", "response": "g", "stimulus-type": "incongruent", "word": "blue", "color": "green", "correct_response": "g", "trial_id": "stroop-trial-1-incongruent-27", "trial_type": "html-keyboard-response", "trial_index": 159, "time_elapsed": 269864, "internal_node_id": "0.0-6.0-64.0"}}, {"uniqueid": "w24408039:a74318466", "current_trial": 160, "dateTime": 1664555255919, "trialdata": {"rt": 661, "stimulus": "<p id='stroop-text' class='stroop-yellow'>BLUE</p>", "response": "y", "stimulus-type": "incongruent", "word": "blue", "color": "yellow", "correct_response": "y", "trial_id": "stroop-trial-1-incongruent-25", "trial_type": "html-keyboard-response", "trial_index": 160, "time_elapsed": 271033, "internal_node_id": "0.0-6.0-65.0"}}, {"uniqueid": "w24408039:a74318466", "current_trial": 161, "dateTime": 1664555256966, "trialdata": {"rt": 538, "stimulus": "<p id='stroop-text' class='stroop-green'>GREEN</p>", "response": "g", "stimulus-type": "congruent", "word": "green", "color": "green", "correct_response": "g", "trial_id": "stroop-trial-1-congruent-8", "trial_type": "html-keyboard-response", "trial_index": 161, "time_elapsed": 272081, "internal_node_id": "0.0-6.0-66.0"}}, {"uniqueid": "w24408039:a74318466", "current_trial": 162, "dateTime": 1664555258104, "trialdata": {"rt": 622, "stimulus": "<p id='stroop-text' class='stroop-red'>BRAIN</p>", "response": "r", "stimulus-type": "unrelated", "word": "BRAIN", "color": "red", "correct_response": "r", "trial_id": "stroop-trial-1-unrelated-3", "trial_type": "html-keyboard-response", "trial_index": 162, "time_elapsed": 273219, "internal_node_id": "0.0-6.0-67.0"}}, {"uniqueid": "w24408039:a74318466", "current_trial": 163, "dateTime": 1664555259293, "trialdata": {"rt": 679, "stimulus": "<p id='stroop-text' class='stroop-green'>RED</p>", "response": "g", "stimulus-type": "incongruent", "word": "red", "color": "green", "correct_response": "g", "trial_id": "stroop-trial-1-incongruent-16", "trial_type": "html-keyboard-response", "trial_index": 163, "time_elapsed": 274407, "internal_node_id": "0.0-6.0-68.0"}}, {"uniqueid": "w24408039:a74318466", "current_trial": 164, "dateTime": 1664555260394, "trialdata": {"rt": 591, "stimulus": "<p id='stroop-text' class='stroop-blue'>BLUE</p>", "response": "b", "stimulus-type": "congruent", "word": "blue", "color": "blue", "correct_response": "b", "trial_id": "stroop-trial-1-congruent-22", "trial_type": "html-keyboard-response", "trial_index": 164, "time_elapsed": 275508, "internal_node_id": "0.0-6.0-69.0"}}, {"uniqueid": "w24408039:a74318466", "current_trial": 165, "dateTime": 1664555261561, "trialdata": {"rt": 661, "stimulus": "<p id='stroop-text' class='stroop-blue'>YELLOW</p>", "response": "b", "stimulus-type": "incongruent", "word": "yellow", "color": "blue", "correct_response": "b", "trial_id": "stroop-trial-1-incongruent-15", "trial_type": "html-keyboard-response", "trial_index": 165, "time_elapsed": 276676, "internal_node_id": "0.0-6.0-70.0"}}, {"uniqueid": "w24408039:a74318466", "current_trial": 166, "dateTime": 1664555262599, "trialdata": {"rt": 521, "stimulus": "<p id='stroop-text' class='stroop-yellow'>BRIDGE</p>", "response": "y", "stimulus-type": "unrelated", "word": "BRIDGE", "color": "yellow", "correct_response": "y", "trial_id": "stroop-trial-1-unrelated-8", "trial_type": "html-keyboard-response", "trial_index": 166, "time_elapsed": 277714, "internal_node_id": "0.0-6.0-71.0"}}, {"uniqueid": "w24408039:a74318466", "current_trial": 167, "dateTime": 1664555263775, "trialdata": {"rt": 665, "stimulus": "<p id='stroop-text' class='stroop-green'>RED</p>", "response": "r", "stimulus-type": "incongruent", "word": "red", "color": "green", "correct_response": "g", "trial_id": "stroop-trial-1-incongruent-28", "trial_type": "html-keyboard-response", "trial_index": 167, "time_elapsed": 278889, "internal_node_id": "0.0-6.0-72.0"}}, {"uniqueid": "w24408039:a74318466", "current_trial": 168, "dateTime": 1664555264979, "trialdata": {"rt": 686, "stimulus": "<p id='stroop-text' class='stroop-green'>FORK</p>", "response": "g", "stimulus-type": "unrelated", "word": "FORK", "color": "green", "correct_response": "g", "trial_id": "stroop-trial-1-unrelated-30", "trial_type": "html-keyboard-response", "trial_index": 168, "time_elapsed": 280094, "internal_node_id": "0.0-6.0-73.0"}}, {"uniqueid": "w24408039:a74318466", "current_trial": 169, "dateTime": 1664555266035, "trialdata": {"rt": 540, "stimulus": "<p id='stroop-text' class='stroop-blue'>RED</p>", "response": "b", "stimulus-type": "incongruent", "word": "red", "color": "blue", "correct_response": "b", "trial_id": "stroop-trial-1-incongruent-4", "trial_type": "html-keyboard-response", "trial_index": 169, "time_elapsed": 281149, "internal_node_id": "0.0-6.0-74.0"}}, {"uniqueid": "w24408039:a74318466", "current_trial": 170, "dateTime": 1664555267133, "trialdata": {"rt": 583, "stimulus": "<p id='stroop-text' class='stroop-red'>STONE</p>", "response": "r", "stimulus-type": "unrelated", "word": "STONE", "color": "red", "correct_response": "r", "trial_id": "stroop-trial-1-unrelated-26", "trial_type": "html-keyboard-response", "trial_index": 170, "time_elapsed": 282248, "internal_node_id": "0.0-6.0-75.0"}}, {"uniqueid": "w24408039:a74318466", "current_trial": 171, "dateTime": 1664555268233, "trialdata": {"rt": 585, "stimulus": "<p id='stroop-text' class='stroop-yellow'>GREEN</p>", "response": "y", "stimulus-type": "incongruent", "word": "green", "color": "yellow", "correct_response": "y", "trial_id": "stroop-trial-1-incongruent-22", "trial_type": "html-keyboard-response", "trial_index": 171, "time_elapsed": 283347, "internal_node_id": "0.0-6.0-76.0"}}, {"uniqueid": "w24408039:a74318466", "current_trial": 172, "dateTime": 1664555269312, "trialdata": {"rt": 559, "stimulus": "<p id='stroop-text' class='stroop-green'>YELLOW</p>", "response": "y", "stimulus-type": "incongruent", "word": "yellow", "color": "green", "correct_response": "g", "trial_id": "stroop-trial-1-incongruent-8", "trial_type": "html-keyboard-response", "trial_index": 172, "time_elapsed": 284426, "internal_node_id": "0.0-6.0-77.0"}}, {"uniqueid": "w24408039:a74318466", "current_trial": 173, "dateTime": 1664555271243, "trialdata": {"rt": 1412, "stimulus": "<p id='stroop-text' class='stroop-green'>MONKEY</p>", "response": "g", "stimulus-type": "unrelated", "word": "MONKEY", "color": "green", "correct_response": "g", "trial_id": "stroop-trial-1-unrelated-6", "trial_type": "html-keyboard-response", "trial_index": 173, "time_elapsed": 286357, "internal_node_id": "0.0-6.0-78.0"}}, {"uniqueid": "w24408039:a74318466", "current_trial": 174, "dateTime": 1664555272220, "trialdata": {"rt": 459, "stimulus": "<p id='stroop-text' class='stroop-green'>BLUE</p>", "response": "g", "stimulus-type": "incongruent", "word": "blue", "color": "green", "correct_response": "g", "trial_id": "stroop-trial-1-incongruent-23", "trial_type": "html-keyboard-response", "trial_index": 174, "time_elapsed": 287334, "internal_node_id": "0.0-6.0-79.0"}}, {"uniqueid": "w24408039:a74318466", "current_trial": 175, "dateTime": 1664555273150, "trialdata": {"rt": 418, "stimulus": "<p id='stroop-text' class='stroop-green'>GREEN</p>", "response": "g", "stimulus-type": "congruent", "word": "green", "color": "green", "correct_response": "g", "trial_id": "stroop-trial-1-congruent-19", "trial_type": "html-keyboard-response", "trial_index": 175, "time_elapsed": 288265, "internal_node_id": "0.0-6.0-80.0"}}, {"uniqueid": "w24408039:a74318466", "current_trial": 176, "dateTime": 1664555274035, "trialdata": {"rt": 377, "stimulus": "<p id='stroop-text' class='stroop-green'>GREEN</p>", "response": "g", "stimulus-type": "congruent", "word": "green", "color": "green", "correct_response": "g", "trial_id": "stroop-trial-1-congruent-20", "trial_type": "html-keyboard-response", "trial_index": 176, "time_elapsed": 289149, "internal_node_id": "0.0-6.0-81.0"}}, {"uniqueid": "w24408039:a74318466", "current_trial": 177, "dateTime": 1664555275035, "trialdata": {"rt": 486, "stimulus": "<p id='stroop-text' class='stroop-blue'>BLUE</p>", "response": "b", "stimulus-type": "congruent", "word": "blue", "color": "blue", "correct_response": "b", "trial_id": "stroop-trial-1-congruent-13", "trial_type": "html-keyboard-response", "trial_index": 177, "time_elapsed": 290149, "internal_node_id": "0.0-6.0-82.0"}}, {"uniqueid": "w24408039:a74318466", "current_trial": 178, "dateTime": 1664555276224, "trialdata": {"rt": 673, "stimulus": "<p id='stroop-text' class='stroop-blue'>YELLOW</p>", "response": "b", "stimulus-type": "incongruent", "word": "yellow", "color": "blue", "correct_response": "b", "trial_id": "stroop-trial-1-incongruent-7", "trial_type": "html-keyboard-response", "trial_index": 178, "time_elapsed": 291338, "internal_node_id": "0.0-6.0-83.0"}}, {"uniqueid": "w24408039:a74318466", "current_trial": 179, "dateTime": 1664555277291, "trialdata": {"rt": 561, "stimulus": "<p id='stroop-text' class='stroop-green'>YELLOW</p>", "response": "g", "stimulus-type": "incongruent", "word": "yellow", "color": "green", "correct_response": "g", "trial_id": "stroop-trial-1-incongruent-6", "trial_type": "html-keyboard-response", "trial_index": 179, "time_elapsed": 292406, "internal_node_id": "0.0-6.0-84.0"}}, {"uniqueid": "w24408039:a74318466", "current_trial": 180, "dateTime": 1664555278321, "trialdata": {"rt": 525, "stimulus": "<p id='stroop-text' class='stroop-blue'>WINDOW</p>", "response": "b", "stimulus-type": "unrelated", "word": "WINDOW", "color": "blue", "correct_response": "b", "trial_id": "stroop-trial-1-unrelated-27", "trial_type": "html-keyboard-response", "trial_index": 180, "time_elapsed": 293436, "internal_node_id": "0.0-6.0-85.0"}}, {"uniqueid": "w24408039:a74318466", "current_trial": 181, "dateTime": 1664555279384, "trialdata": {"rt": 544, "stimulus": "<p id='stroop-text' class='stroop-red'>GREEN</p>", "response": "r", "stimulus-type": "incongruent", "word": "green", "color": "red", "correct_response": "r", "trial_id": "stroop-trial-1-incongruent-3", "trial_type": "html-keyboard-response", "trial_index": 181, "time_elapsed": 294498, "internal_node_id": "0.0-6.0-86.0"}}, {"uniqueid": "w24408039:a74318466", "current_trial": 182, "dateTime": 1664555280435, "trialdata": {"rt": 536, "stimulus": "<p id='stroop-text' class='stroop-blue'>BLUE</p>", "response": "b", "stimulus-type": "congruent", "word": "blue", "color": "blue", "correct_response": "b", "trial_id": "stroop-trial-1-congruent-30", "trial_type": "html-keyboard-response", "trial_index": 182, "time_elapsed": 295549, "internal_node_id": "0.0-6.0-87.0"}}, {"uniqueid": "w24408039:a74318466", "current_trial": 183, "dateTime": 1664555281571, "trialdata": {"rt": 628, "stimulus": "<p id='stroop-text' class='stroop-red'>WINDOW</p>", "response": "r", "stimulus-type": "unrelated", "word": "WINDOW", "color": "red", "correct_response": "r", "trial_id": "stroop-trial-1-unrelated-12", "trial_type": "html-keyboard-response", "trial_index": 183, "time_elapsed": 296684, "internal_node_id": "0.0-6.0-88.0"}}, {"uniqueid": "w24408039:a74318466", "current_trial": 184, "dateTime": 1664555282630, "trialdata": {"rt": 550, "stimulus": "<p id='stroop-text' class='stroop-green'>YELLOW</p>", "response": "b", "stimulus-type": "incongruent", "word": "yellow", "color": "green", "correct_response": "g", "trial_id": "stroop-trial-1-incongruent-12", "trial_type": "html-keyboard-response", "trial_index": 184, "time_elapsed": 297744, "internal_node_id": "0.0-6.0-89.0"}}, {"uniqueid": "w24408039:a74318466", "current_trial": 185, "dateTime": 1664555308795, "trialdata": {"rt": 25639, "stimulus": "  <h1> End of block! </h1>\n\n  You have reached the end of the block 2/5. If you need a short break, feel free to take one now before moving on.\n\n  <br><br>\n  In the next block, you will complete another 90 rounds of this game.\n\n  <br><br>\n  <div style='text-align: center;'>Press <code>space</code> to begin.</div>\n  <br><br>\n<div style='text-align: center;'>(If the experiment doesn't continue, try clicking on the text and then pressing <code>space</code>.)</div>", "response": " ", "trial_id": "stroop_1_ready_3", "trial_type": "html-keyboard-response", "trial_index": 185, "time_elapsed": 323908, "internal_node_id": "0.0-7.0"}}, {"uniqueid": "w24408039:a74318466", "current_trial": 186, "dateTime": 1664555309732, "trialdata": {"rt": 918, "stimulus": "<p id='stroop-text' class='stroop-green'>BLUE</p>", "response": "g", "stimulus-type": "incongruent", "word": "blue", "color": "green", "correct_response": "g", "trial_id": "stroop-trial-1-incongruent-12", "trial_type": "html-keyboard-response", "trial_index": 186, "time_elapsed": 324846, "internal_node_id": "0.0-8.0-0.0"}}, {"uniqueid": "w24408039:a74318466", "current_trial": 187, "dateTime": 1664555310869, "trialdata": {"rt": 620, "stimulus": "<p id='stroop-text' class='stroop-yellow'>RED</p>", "response": "y", "stimulus-type": "incongruent", "word": "red", "color": "yellow", "correct_response": "y", "trial_id": "stroop-trial-1-incongruent-22", "trial_type": "html-keyboard-response", "trial_index": 187, "time_elapsed": 325981, "internal_node_id": "0.0-8.0-1.0"}}, {"uniqueid": "w24408039:a74318466", "current_trial": 188, "dateTime": 1664555312101, "trialdata": {"rt": 713, "stimulus": "<p id='stroop-text' class='stroop-yellow'>GREEN</p>", "response": "y", "stimulus-type": "incongruent", "word": "green", "color": "yellow", "correct_response": "y", "trial_id": "stroop-trial-1-incongruent-21", "trial_type": "html-keyboard-response", "trial_index": 188, "time_elapsed": 327214, "internal_node_id": "0.0-8.0-2.0"}}, {"uniqueid": "w24408039:a74318466", "current_trial": 189, "dateTime": 1664555313141, "trialdata": {"rt": 519, "stimulus": "<p id='stroop-text' class='stroop-green'>FORK</p>", "response": "g", "stimulus-type": "unrelated", "word": "FORK", "color": "green", "correct_response": "g", "trial_id": "stroop-trial-1-unrelated-10", "trial_type": "html-keyboard-response", "trial_index": 189, "time_elapsed": 328254, "internal_node_id": "0.0-8.0-3.0"}}, {"uniqueid": "w24408039:a74318466", "current_trial": 190, "dateTime": 1664555314168, "trialdata": {"rt": 518, "stimulus": "<p id='stroop-text' class='stroop-yellow'>BOTTLE</p>", "response": "y", "stimulus-type": "unrelated", "word": "BOTTLE", "color": "yellow", "correct_response": "y", "trial_id": "stroop-trial-1-unrelated-8", "trial_type": "html-keyboard-response", "trial_index": 190, "time_elapsed": 329281, "internal_node_id": "0.0-8.0-4.0"}}, {"uniqueid": "w24408039:a74318466", "current_trial": 191, "dateTime": 1664555315240, "trialdata": {"rt": 564, "stimulus": "<p id='stroop-text' class='stroop-green'>FORK</p>", "response": "g", "stimulus-type": "unrelated", "word": "FORK", "color": "green", "correct_response": "g", "trial_id": "stroop-trial-1-unrelated-14", "trial_type": "html-keyboard-response", "trial_index": 191, "time_elapsed": 330353, "internal_node_id": "0.0-8.0-5.0"}}, {"uniqueid": "w24408039:a74318466", "current_trial": 192, "dateTime": 1664555316245, "trialdata": {"rt": 492, "stimulus": "<p id='stroop-text' class='stroop-red'>DOG</p>", "response": "r", "stimulus-type": "unrelated", "word": "DOG", "color": "red", "correct_response": "r", "trial_id": "stroop-trial-1-unrelated-25", "trial_type": "html-keyboard-response", "trial_index": 192, "time_elapsed": 331359, "internal_node_id": "0.0-8.0-6.0"}}, {"uniqueid": "w24408039:a74318466", "current_trial": 193, "dateTime": 1664555317346, "trialdata": {"rt": 579, "stimulus": "<p id='stroop-text' class='stroop-green'>GREEN</p>", "response": "g", "stimulus-type": "congruent", "word": "green", "color": "green", "correct_response": "g", "trial_id": "stroop-trial-1-congruent-6", "trial_type": "html-keyboard-response", "trial_index": 193, "time_elapsed": 332459, "internal_node_id": "0.0-8.0-7.0"}}, {"uniqueid": "w24408039:a74318466", "current_trial": 194, "dateTime": 1664555318526, "trialdata": {"rt": 659, "stimulus": "<p id='stroop-text' class='stroop-green'>YELLOW</p>", "response": "g", "stimulus-type": "incongruent", "word": "yellow", "color": "green", "correct_response": "g", "trial_id": "stroop-trial-1-incongruent-9", "trial_type": "html-keyboard-response", "trial_index": 194, "time_elapsed": 333640, "internal_node_id": "0.0-8.0-8.0"}}, {"uniqueid": "w24408039:a74318466", "current_trial": 195, "dateTime": 1664555319654, "trialdata": {"rt": 606, "stimulus": "<p id='stroop-text' class='stroop-green'>YELLOW</p>", "response": "g", "stimulus-type": "incongruent", "word": "yellow", "color": "green", "correct_response": "g", "trial_id": "stroop-trial-1-incongruent-5", "trial_type": "html-keyboard-response", "trial_index": 195, "time_elapsed": 334768, "internal_node_id": "0.0-8.0-9.0"}}, {"uniqueid": "w24408039:a74318466", "current_trial": 196, "dateTime": 1664555320765, "trialdata": {"rt": 586, "stimulus": "<p id='stroop-text' class='stroop-red'>BRAIN</p>", "response": "r", "stimulus-type": "unrelated", "word": "BRAIN", "color": "red", "correct_response": "r", "trial_id": "stroop-trial-1-unrelated-28", "trial_type": "html-keyboard-response", "trial_index": 196, "time_elapsed": 335878, "internal_node_id": "0.0-8.0-10.0"}}, {"uniqueid": "w24408039:a74318466", "current_trial": 197, "dateTime": 1664555321875, "trialdata": {"rt": 596, "stimulus": "<p id='stroop-text' class='stroop-yellow'>BRAIN</p>", "response": "y", "stimulus-type": "unrelated", "word": "BRAIN", "color": "yellow", "correct_response": "y", "trial_id": "stroop-trial-1-unrelated-7", "trial_type": "html-keyboard-response", "trial_index": 197, "time_elapsed": 336989, "internal_node_id": "0.0-8.0-11.0"}}, {"uniqueid": "w24408039:a74318466", "current_trial": 198, "dateTime": 1664555322810, "trialdata": {"rt": 424, "stimulus": "<p id='stroop-text' class='stroop-yellow'>BOTTLE</p>", "response": "y", "stimulus-type": "unrelated", "word": "BOTTLE", "color": "yellow", "correct_response": "y", "trial_id": "stroop-trial-1-unrelated-12", "trial_type": "html-keyboard-response", "trial_index": 198, "time_elapsed": 337924, "internal_node_id": "0.0-8.0-12.0"}}, {"uniqueid": "w24408039:a74318466", "current_trial": 199, "dateTime": 1664555323859, "trialdata": {"rt": 539, "stimulus": "<p id='stroop-text' class='stroop-green'>BLUE</p>", "response": "g", "stimulus-type": "incongruent", "word": "blue", "color": "green", "correct_response": "g", "trial_id": "stroop-trial-1-incongruent-13", "trial_type": "html-keyboard-response", "trial_index": 199, "time_elapsed": 338974, "internal_node_id": "0.0-8.0-13.0"}}, {"uniqueid": "w24408039:a74318466", "current_trial": 200, "dateTime": 1664555324961, "trialdata": {"rt": 581, "stimulus": "<p id='stroop-text' class='stroop-red'>BLUE</p>", "response": "r", "stimulus-type": "incongruent", "word": "blue", "color": "red", "correct_response": "r", "trial_id": "stroop-trial-1-incongruent-27", "trial_type": "html-keyboard-response", "trial_index": 200, "time_elapsed": 340075, "internal_node_id": "0.0-8.0-14.0"}}, {"uniqueid": "w24408039:a74318466", "current_trial": 201, "dateTime": 1664555325910, "trialdata": {"rt": 440, "stimulus": "<p id='stroop-text' class='stroop-red'>RED</p>", "response": "r", "stimulus-type": "congruent", "word": "red", "color": "red", "correct_response": "r", "trial_id": "stroop-trial-1-congruent-12", "trial_type": "html-keyboard-response", "trial_index": 201, "time_elapsed": 341025, "internal_node_id": "0.0-8.0-15.0"}}, {"uniqueid": "w24408039:a74318466", "current_trial": 202, "dateTime": 1664555327010, "trialdata": {"rt": 587, "stimulus": "<p id='stroop-text' class='stroop-green'>GREEN</p>", "response": "g", "stimulus-type": "congruent", "word": "green", "color": "green", "correct_response": "g", "trial_id": "stroop-trial-1-congruent-27", "trial_type": "html-keyboard-response", "trial_index": 202, "time_elapsed": 342124, "internal_node_id": "0.0-8.0-16.0"}}, {"uniqueid": "w24408039:a74318466", "current_trial": 203, "dateTime": 1664555328032, "trialdata": {"rt": 504, "stimulus": "<p id='stroop-text' class='stroop-yellow'>DOG</p>", "response": "y", "stimulus-type": "unrelated", "word": "DOG", "color": "yellow", "correct_response": "y", "trial_id": "stroop-trial-1-unrelated-4", "trial_type": "html-keyboard-response", "trial_index": 203, "time_elapsed": 343146, "internal_node_id": "0.0-8.0-17.0"}}, {"uniqueid": "w24408039:a74318466", "current_trial": 204, "dateTime": 1664555329060, "trialdata": {"rt": 520, "stimulus": "<p id='stroop-text' class='stroop-yellow'>STONE</p>", "response": "y", "stimulus-type": "unrelated", "word": "STONE", "color": "yellow", "correct_response": "y", "trial_id": "stroop-trial-1-unrelated-20", "trial_type": "html-keyboard-response", "trial_index": 204, "time_elapsed": 344173, "internal_node_id": "0.0-8.0-18.0"}}, {"uniqueid": "w24408039:a74318466", "current_trial": 205, "dateTime": 1664555330090, "trialdata": {"rt": 522, "stimulus": "<p id='stroop-text' class='stroop-green'>BLUE</p>", "response": "g", "stimulus-type": "incongruent", "word": "blue", "color": "green", "correct_response": "g", "trial_id": "stroop-trial-1-incongruent-10", "trial_type": "html-keyboard-response", "trial_index": 205, "time_elapsed": 345204, "internal_node_id": "0.0-8.0-19.0"}}, {"uniqueid": "w24408039:a74318466", "current_trial": 206, "dateTime": 1664555331091, "trialdata": {"rt": 478, "stimulus": "<p id='stroop-text' class='stroop-red'>RED</p>", "response": "r", "stimulus-type": "congruent", "word": "red", "color": "red", "correct_response": "r", "trial_id": "stroop-trial-1-congruent-15", "trial_type": "html-keyboard-response", "trial_index": 206, "time_elapsed": 346205, "internal_node_id": "0.0-8.0-20.0"}}, {"uniqueid": "w24408039:a74318466", "current_trial": 207, "dateTime": 1664555332221, "trialdata": {"rt": 617, "stimulus": "<p id='stroop-text' class='stroop-blue'>GREEN</p>", "response": "b", "stimulus-type": "incongruent", "word": "green", "color": "blue", "correct_response": "b", "trial_id": "stroop-trial-1-incongruent-17", "trial_type": "html-keyboard-response", "trial_index": 207, "time_elapsed": 347335, "internal_node_id": "0.0-8.0-21.0"}}, {"uniqueid": "w24408039:a74318466", "current_trial": 208, "dateTime": 1664555333293, "trialdata": {"rt": 564, "stimulus": "<p id='stroop-text' class='stroop-red'>BRAIN</p>", "response": "r", "stimulus-type": "unrelated", "word": "BRAIN", "color": "red", "correct_response": "r", "trial_id": "stroop-trial-1-unrelated-15", "trial_type": "html-keyboard-response", "trial_index": 208, "time_elapsed": 348407, "internal_node_id": "0.0-8.0-22.0"}}, {"uniqueid": "w24408039:a74318466", "current_trial": 209, "dateTime": 1664555334596, "trialdata": {"rt": 781, "stimulus": "<p id='stroop-text' class='stroop-green'>YELLOW</p>", "response": "g", "stimulus-type": "incongruent", "word": "yellow", "color": "green", "correct_response": "g", "trial_id": "stroop-trial-1-incongruent-3", "trial_type": "html-keyboard-response", "trial_index": 209, "time_elapsed": 349710, "internal_node_id": "0.0-8.0-23.0"}}, {"uniqueid": "w24408039:a74318466", "current_trial": 210, "dateTime": 1664555335657, "trialdata": {"rt": 550, "stimulus": "<p id='stroop-text' class='stroop-blue'>BLUE</p>", "response": "b", "stimulus-type": "congruent", "word": "blue", "color": "blue", "correct_response": "b", "trial_id": "stroop-trial-1-congruent-18", "trial_type": "html-keyboard-response", "trial_index": 210, "time_elapsed": 350771, "internal_node_id": "0.0-8.0-24.0"}}, {"uniqueid": "w24408039:a74318466", "current_trial": 211, "dateTime": 1664555336709, "trialdata": {"rt": 533, "stimulus": "<p id='stroop-text' class='stroop-yellow'>YELLOW</p>", "response": "y", "stimulus-type": "congruent", "word": "yellow", "color": "yellow", "correct_response": "y", "trial_id": "stroop-trial-1-congruent-17", "trial_type": "html-keyboard-response", "trial_index": 211, "time_elapsed": 351823, "internal_node_id": "0.0-8.0-25.0"}}, {"uniqueid": "w24408039:a74318466", "current_trial": 212, "dateTime": 1664555337805, "trialdata": {"rt": 575, "stimulus": "<p id='stroop-text' class='stroop-red'>BLUE</p>", "response": "r", "stimulus-type": "incongruent", "word": "blue", "color": "red", "correct_response": "r", "trial_id": "stroop-trial-1-incongruent-7", "trial_type": "html-keyboard-response", "trial_index": 212, "time_elapsed": 352919, "internal_node_id": "0.0-8.0-26.0"}}, {"uniqueid": "w24408039:a74318466", "current_trial": 213, "dateTime": 1664555338726, "trialdata": {"rt": 409, "stimulus": "<p id='stroop-text' class='stroop-red'>GREEN</p>", "response": "r", "stimulus-type": "incongruent", "word": "green", "color": "red", "correct_response": "r", "trial_id": "stroop-trial-1-incongruent-6", "trial_type": "html-keyboard-response", "trial_index": 213, "time_elapsed": 353841, "internal_node_id": "0.0-8.0-27.0"}}, {"uniqueid": "w24408039:a74318466", "current_trial": 214, "dateTime": 1664555339615, "trialdata": {"rt": 378, "stimulus": "<p id='stroop-text' class='stroop-red'>BOTTLE</p>", "response": "r", "stimulus-type": "unrelated", "word": "BOTTLE", "color": "red", "correct_response": "r", "trial_id": "stroop-trial-1-unrelated-1", "trial_type": "html-keyboard-response", "trial_index": 214, "time_elapsed": 354729, "internal_node_id": "0.0-8.0-28.0"}}, {"uniqueid": "w24408039:a74318466", "current_trial": 215, "dateTime": 1664555340678, "trialdata": {"rt": 556, "stimulus": "<p id='stroop-text' class='stroop-blue'>YELLOW</p>", "response": "y", "stimulus-type": "incongruent", "word": "yellow", "color": "blue", "correct_response": "b", "trial_id": "stroop-trial-1-incongruent-29", "trial_type": "html-keyboard-response", "trial_index": 215, "time_elapsed": 355792, "internal_node_id": "0.0-8.0-29.0"}}, {"uniqueid": "w24408039:a74318466", "current_trial": 216, "dateTime": 1664555342296, "trialdata": {"rt": 1099, "stimulus": "<p id='stroop-text' class='stroop-blue'>YELLOW</p>", "response": "b", "stimulus-type": "incongruent", "word": "yellow", "color": "blue", "correct_response": "b", "trial_id": "stroop-trial-1-incongruent-26", "trial_type": "html-keyboard-response", "trial_index": 216, "time_elapsed": 357410, "internal_node_id": "0.0-8.0-30.0"}}, {"uniqueid": "w24408039:a74318466", "current_trial": 217, "dateTime": 1664555343293, "trialdata": {"rt": 480, "stimulus": "<p id='stroop-text' class='stroop-blue'>RED</p>", "response": "b", "stimulus-type": "incongruent", "word": "red", "color": "blue", "correct_response": "b", "trial_id": "stroop-trial-1-incongruent-30", "trial_type": "html-keyboard-response", "trial_index": 217, "time_elapsed": 358406, "internal_node_id": "0.0-8.0-31.0"}}, {"uniqueid": "w24408039:a74318466", "current_trial": 218, "dateTime": 1664555344408, "trialdata": {"rt": 597, "stimulus": "<p id='stroop-text' class='stroop-yellow'>BLUE</p>", "response": "y", "stimulus-type": "incongruent", "word": "blue", "color": "yellow", "correct_response": "y", "trial_id": "stroop-trial-1-incongruent-28", "trial_type": "html-keyboard-response", "trial_index": 218, "time_elapsed": 359522, "internal_node_id": "0.0-8.0-32.0"}}, {"uniqueid": "w24408039:a74318466", "current_trial": 219, "dateTime": 1664555345398, "trialdata": {"rt": 480, "stimulus": "<p id='stroop-text' class='stroop-green'>GREEN</p>", "response": "g", "stimulus-type": "congruent", "word": "green", "color": "green", "correct_response": "g", "trial_id": "stroop-trial-1-congruent-13", "trial_type": "html-keyboard-response", "trial_index": 219, "time_elapsed": 360512, "internal_node_id": "0.0-8.0-33.0"}}, {"uniqueid": "w24408039:a74318466", "current_trial": 220, "dateTime": 1664555346357, "trialdata": {"rt": 440, "stimulus": "<p id='stroop-text' class='stroop-green'>STONE</p>", "response": "g", "stimulus-type": "unrelated", "word": "STONE", "color": "green", "correct_response": "g", "trial_id": "stroop-trial-1-unrelated-21", "trial_type": "html-keyboard-response", "trial_index": 220, "time_elapsed": 361471, "internal_node_id": "0.0-8.0-34.0"}}, {"uniqueid": "w24408039:a74318466", "current_trial": 221, "dateTime": 1664555347441, "trialdata": {"rt": 563, "stimulus": "<p id='stroop-text' class='stroop-yellow'>YELLOW</p>", "response": "y", "stimulus-type": "congruent", "word": "yellow", "color": "yellow", "correct_response": "y", "trial_id": "stroop-trial-1-congruent-4", "trial_type": "html-keyboard-response", "trial_index": 221, "time_elapsed": 362555, "internal_node_id": "0.0-8.0-35.0"}}, {"uniqueid": "w24408039:a74318466", "current_trial": 222, "dateTime": 1664555348439, "trialdata": {"rt": 489, "stimulus": "<p id='stroop-text' class='stroop-red'>RED</p>", "response": "r", "stimulus-type": "congruent", "word": "red", "color": "red", "correct_response": "r", "trial_id": "stroop-trial-