{"condition": 1, "counterbalance": 0, "assignmentId": "a89503903", "workerId": "w37093396", "hitId": "h59858992", "currenttrial": 137, "bonus": 0, "data": [{"uniqueid": "w37093396:a89503903", "current_trial": 0, "dateTime": 1664463586917, "trialdata": {"success": true, "trial_type": "fullscreen", "trial_index": 0, "time_elapsed": 3339, "internal_node_id": "0.0-0.0"}}, {"uniqueid": "w37093396:a89503903", "current_trial": 1, "dateTime": 1664463622792, "trialdata": {"view_history": [{"page_index": 0, "viewing_time": 35864}], "rt": 35865, "trial_id": "exp_instructions_no_distractor", "trial_type": "instructions", "trial_index": 1, "time_elapsed": 39215, "internal_node_id": "0.0-1.0"}}, {"uniqueid": "w37093396:a89503903", "current_trial": 2, "dateTime": 1664463627167, "trialdata": {"success": true, "trial_type": "fullscreen", "trial_index": 2, "time_elapsed": 43590, "internal_node_id": "0.0-2.0-0.0"}}, {"uniqueid": "w37093396:a89503903", "current_trial": 3, "dateTime": 1664463797688, "trialdata": {"view_history": [{"page_index": 0, "viewing_time": 77043}, {"page_index": 1, "viewing_time": 3126}, {"page_index": 0, "viewing_time": 1331}, {"page_index": 1, "viewing_time": 37528}, {"page_index": 2, "viewing_time": 14682}, {"page_index": 3, "viewing_time": 11419}, {"page_index": 4, "viewing_time": 25388}], "rt": 170516, "trial_id": "mouselab_instructions_1", "trial_type": "instructions", "trial_index": 3, "time_elapsed": 214111, "internal_node_id": "0.0-2.0-1.0"}}, {"uniqueid": "w37093396:a89503903", "current_trial": 4, "dateTime": 1664463832537, "trialdata": {"revealed_states": [], "num_clicks_accrued": [0, 0, 0, 0, 0, 0, 0, 0, 0, 0, 0, 0, 0], "stateRewards": ["", 10, 10, -10, -10, 10, -10, 10, 10, -10, 10, 10, -10], "withholdReward": false, "trial_id": "practice_1", "block": "test", "trialIndex": 0, "score": 11.75, "costs": -0.25, "simulationMode": [null, null, null], "rewards": [10, 10, -10], "path": ["0", "0", "1", "2", "3"], "rt": [21540, 2423, 1629], "actions": ["up", "up", "right"], "actionTimes": [24300, 27224, 29347], "queries": {"click": {"state": {"target": ["1"], "time": [16346]}, "edge": {"target": [], "time": []}}, "mouseover": {"state": {"target": ["5", "1"], "time": [6166, 15965]}, "edge": {"target": [], "time": []}}, "mouseout": {"state": {"target": ["5", "1", "1"], "time": [15915, 16865, 19728]}, "edge": {"target": [], "time": []}}}, "displayed_time": "29.85", "trialTime": 34555, "trial_type": "mouselab-mdp", "trial_index": 4, "time_elapsed": 248958, "internal_node_id": "0.0-2.0-2.0-0.0"}}, {"uniqueid": "w37093396:a89503903", "current_trial": 5, "dateTime": 1664463849300, "trialdata": {"revealed_states": [], "num_clicks_accrued": [0, 0, 0, 0, 0, 0, 0, 0, 0, 0, 0, 0, 0], "stateRewards": ["", 10, -10, -10, -10, 10, -10, -10, -10, 10, 10, -10, 10], "withholdReward": false, "trial_id": "practice_2", "block": "test", "trialIndex": 1, "score": 31.75, "costs": -0.25, "simulationMode": [null, null, null], "rewards": [10, 10, 10], "path": ["0", "0", "9", "10", "12"], "rt": [6038, 1730, 3282], "actions": ["left", "left", "down"], "actionTimes": [7825, 10057, 13841], "queries": {"click": {"state": {"target": ["9"], "time": [5149]}, "edge": {"target": [], "time": []}}, "mouseover": {"state": {"target": ["0", "9"], "time": [2802, 4940]}, "edge": {"target": [], "time": []}}, "mouseout": {"state": {"target": ["0", "9", "0", "11"], "time": [4888, 5372, 11488, 12303]}, "edge": {"target": [], "time": []}}}, "displayed_time": "14.34", "trialTime": 16677, "trial_type": "mouselab-mdp", "trial_index": 5, "time_elapsed": 265722, "internal_node_id": "0.0-2.0-2.0-1.0"}}, {"uniqueid": "w37093396:a89503903", "current_trial": 6, "dateTime": 1664463952822, "trialdata": {"view_history": [{"page_index": 0, "viewing_time": 70837}, {"page_index": 1, "viewing_time": 19154}, {"page_index": 2, "viewing_time": 13524}], "rt": 103515, "trial_id": "mouselab_instructions_2_scarce", "trial_type": "instructions", "trial_index": 6, "time_elapsed": 369245, "internal_node_id": "0.0-2.0-3.0"}}, {"uniqueid": "w37093396:a89503903", "current_trial": 7, "dateTime": 1664464019373, "trialdata": {"rt": 66547, "response": {"Q0": "$-48 to $48", "Q1": "The cost is always $0.25.", "Q2": "The better I perform the higher my bonus will be.", "Q3": "No, the amount of cash at each node of the web may be different each time.", "Q4": "The values of the nodes walked through from start to finish.", "Q5": "No, the spider might forget to count the money on some rounds."}, "question_order": [0, 1, 2, 3, 4, 5], "correct": {"Q0": "$-48 to $48", "Q1": "The cost is always $0.25.", "Q2": "The better I perform the higher my bonus will be.", "Q3": "No, the amount of cash at each node of the web may be different each time.", "Q4": "The values of the nodes walked through from start to finish.", "Q5": "No, the spider might forget to count the money on some rounds."}, "trial_id": "mouselab_quiz_scarce", "trial_type": "survey-multi-choice", "trial_index": 7, "time_elapsed": 435796, "internal_node_id": "0.0-2.0-4.0"}}, {"uniqueid": "w37093396:a89503903", "current_trial": 8, "dateTime": 1664464042862, "trialdata": {"rt": 23479, "stimulus": "\n<h1> Get ready to start the game! </h1>\n\nThank you for reading the instructions. Get ready start with the first of 4 block(s) of this game.\n<br><br>\nIn this first block, you will complete 30 rounds of this game before moving on.\n<br><br>\nRemember, the more money the spider gets, the bigger your bonus will be!\n<br><br>\n<div style='text-align: center;'>Press <code>space</code> to begin.</div>\n\n<br><br>\n(If, at any point, the <code>space</code> key does not take you to the next page, click once on the text and try again.)", "response": " ", "trial_id": "mdp_ready_1", "trial_type": "html-keyboard-response", "trial_index": 8, "time_elapsed": 459284, "internal_node_id": "0.0-4.0-0.0"}}, {"uniqueid": "w37093396:a89503903", "current_trial": 9, "dateTime": 1664464060910, "trialdata": {"revealed_states": [], "num_clicks_accrued": [0, 0, 0, 0, 0, 0, 0, 0, 0, 0, 0, 0, 0], "stateRewards": ["", 4, 8, 48, -48, -4, 8, -24, -24, -4, 8, 48, 48], "withholdReward": false, "trial_id": "mdp_377640328420", "block": "test1", "trialIndex": 2, "score": -31.25, "costs": -0.25, "simulationMode": [null, null, null], "rewards": [4, 8, -48], "path": ["0", "0", "1", "2", "4"], "rt": [11792, 756, 420], "actions": ["up", "up", "left"], "actionTimes": [13409, 14668, 15596], "queries": {"click": {"state": {"target": ["9"], "time": [9348]}, "edge": {"target": [], "time": []}}, "mouseover": {"state": {"target": ["0", "0", "9"], "time": [2005, 7155, 7222]}, "edge": {"target": [], "time": []}}, "mouseout": {"state": {"target": ["7", "0", "0", "9"], "time": [920, 2088, 7172, 9672]}, "edge": {"target": [], "time": []}}}, "displayed_time": "16.09", "trialTime": 17948, "trial_type": "mouselab-mdp", "trial_index": 9, "time_elapsed": 477332, "internal_node_id": "0.0-4.0-1.0-0.0"}}, {"uniqueid": "w37093396:a89503903", "current_trial": 10, "dateTime": 1664464074893, "trialdata": {"revealed_states": [], "num_clicks_accrued": [0, 0, 0, 0, 0, 0, 0, 0, 0, 0, 0, 0, 0], "stateRewards": ["", -2, 8, 48, -48, 4, -8, 24, 24, 4, 4, -48, -24], "withholdReward": true, "trial_id": "mdp_746937869927", "block": "test1", "trialIndex": 3, "score": 25, "costs": 0, "simulationMode": [null, null, null], "rewards": [4, -8, 24], "path": ["0", "0", "5", "6", "8"], "rt": [1918, 408, 201], "actions": ["right", "right", "down"], "actionTimes": [4364, 5276, 5968], "queries": {"click": {"state": {"target": [], "time": []}, "edge": {"target": [], "time": []}}, "mouseover": {"state": {"target": [], "time": []}, "edge": {"target": [], "time": []}}, "mouseout": {"state": {"target": ["0"], "time": [2148]}, "edge": {"target": [], "time": []}}}, "displayed_time": "12.45", "trialTime": 13907, "trial_type": "mouselab-mdp", "trial_index": 10, "time_elapsed": 491316, "internal_node_id": "0.0-4.0-1.0-1.0"}}, {"uniqueid": "w37093396:a89503903", "current_trial": 11, "dateTime": 1664464086829, "trialdata": {"revealed_states": [], "num_clicks_accrued": [0, 0, 0, 0, 0, 0, 0, 0, 0, 0, 0, 0, 0], "stateRewards": ["", 4, -4, 48, -48, -2, -8, -24, 48, -2, 4, 24, -24], "withholdReward": false, "trial_id": "mdp_507290896735", "block": "test1", "trialIndex": 4, "score": -43.5, "costs": -0.5, "simulationMode": [null, null, null], "rewards": [4, -4, -48], "path": ["0", "0", "1", "2", "4"], "rt": [4762, 1054, 414], "actions": ["up", "up", "left"], "actionTimes": [6209, 7762, 8673], "queries": {"click": {"state": {"target": ["9", "5"], "time": [3640, 5253]}, "edge": {"target": [], "time": []}}, "mouseover": {"state": {"target": ["9", "5"], "time": [3238, 5038]}, "edge": {"target": [], "time": []}}, "mouseout": {"state": {"target": ["0", "9", "5"], "time": [1086, 3855, 5420]}, "edge": {"target": [], "time": []}}}, "displayed_time": "9.45", "trialTime": 11833, "trial_type": "mouselab-mdp", "trial_index": 11, "time_elapsed": 503252, "internal_node_id": "0.0-4.0-1.0-2.0"}}, {"uniqueid": "w37093396:a89503903", "current_trial": 12, "dateTime": 1664464097173, "trialdata": {"revealed_states": [], "num_clicks_accrued": [0, 0, 0, 0, 0, 0, 0, 0, 0, 0, 0, 0, 0], "stateRewards": ["", 2, -8, 24, 24, 4, -4, -24, -48, 4, 8, 24, 24], "withholdReward": false, "trial_id": "mdp_249803813713", "block": "test1", "trialIndex": 5, "score": -43.25, "costs": -0.25, "simulationMode": [null, null, null], "rewards": [4, -4, -48], "path": ["0", "0", "5", "6", "8"], "rt": [2153, 755, 393], "actions": ["right", "right", "down"], "actionTimes": [3941, 5197, 6085], "queries": {"click": {"state": {"target": ["5"], "time": [2510]}, "edge": {"target": [], "time": []}}, "mouseover": {"state": {"target": ["0", "5"], "time": [2207, 2340]}, "edge": {"target": [], "time": []}}, "mouseout": {"state": {"target": ["0", "0", "5"], "time": [2140, 2240, 2657]}, "edge": {"target": [], "time": []}}}, "displayed_time": "8.79", "trialTime": 10245, "trial_type": "mouselab-mdp", "trial_index": 12, "time_elapsed": 513596, "internal_node_id": "0.0-4.0-1.0-3.0"}}, {"uniqueid": "w37093396:a89503903", "current_trial": 13, "dateTime": 1664464108945, "trialdata": {"revealed_states": [], "num_clicks_accrued": [0, 0, 0, 0, 0, 0, 0, 0, 0, 0, 0, 0, 0], "stateRewards": ["", -2, -4, -24, -24, 4, 8, 24, 24, -2, 8, 48, 48], "withholdReward": false, "trial_id": "mdp_620787912291", "block": "test1", "trialIndex": 6, "score": 40.25, "costs": -0.75, "simulationMode": [null, null, null], "rewards": [4, 8, 24], "path": ["0", "0", "5", "6", "7"], "rt": [3388, 158, 251], "actions": ["right", "right", "up"], "actionTimes": [4533, 5197, 5941], "queries": {"click": {"state": {"target": ["5", "6", "7"], "time": [1671, 2652, 3518]}, "edge": {"target": [], "time": []}}, "mouseover": {"state": {"target": ["5", "6", "7"], "time": [1553, 2452, 3337]}, "edge": {"target": [], "time": []}}, "mouseout": {"state": {"target": ["0", "5", "6", "7"], "time": [1453, 1800, 2854, 3634]}, "edge": {"target": [], "time": []}}}, "displayed_time": "9.15", "trialTime": 11697, "trial_type": "mouselab-mdp", "trial_index": 13, "time_elapsed": 525368, "internal_node_id": "0.0-4.0-1.0-4.0"}}, {"uniqueid": "w37093396:a89503903", "current_trial": 14, "dateTime": 1664464120650, "trialdata": {"revealed_states": [], "num_clicks_accrued": [0, 0, 0, 0, 0, 0, 0, 0, 0, 0, 0, 0, 0], "stateRewards": ["", -4, -8, -48, 24, -4, -4, -24, -48, 2, -8, -24, -48], "withholdReward": true, "trial_id": "mdp_628181832088", "block": "test1", "trialIndex": 7, "score": -49.75, "costs": -0.75, "simulationMode": [null, null, null], "rewards": [2, -8, -48], "path": ["0", "0", "9", "10", "12"], "rt": [6225, 212, 204], "actions": ["left", "left", "down"], "actionTimes": [7755, 8467, 9187], "queries": {"click": {"state": {"target": ["1", "9", "11"], "time": [2266, 3174, 5666]}, "edge": {"target": [], "time": []}}, "mouseover": {"state": {"target": ["1", "0", "9", "10", "11"], "time": [2184, 2968, 3101, 4284, 4717]}, "edge": {"target": [], "time": []}}, "mouseout": {"state": {"target": ["1", "0", "9", "9", "10", "11", "10"], "time": [2431, 2984, 3331, 4117, 4651, 6034, 10101]}, "edge": {"target": [], "time": []}}}, "displayed_time": "10.53", "trialTime": 11632, "trial_type": "mouselab-mdp", "trial_index": 14, "time_elapsed": 537073, "internal_node_id": "0.0-4.0-1.0-5.0"}}, {"uniqueid": "w37093396:a89503903", "current_trial": 15, "dateTime": 1664464131602, "trialdata": {"revealed_states": [], "num_clicks_accrued": [0, 0, 0, 0, 0, 0, 0, 0, 0, 0, 0, 0, 0], "stateRewards": ["", -4, -4, 24, -48, 2, 4, -24, -48, -2, -8, -24, 24], "withholdReward": true, "trial_id": "mdp_565569130486", "block": "test1", "trialIndex": 8, "score": 20.5, "costs": -0.5, "simulationMode": [null, null, null], "rewards": [-4, -4, 24], "path": ["0", "0", "1", "2", "3"], "rt": [4959, 196, 184], "actions": ["up", "up", "right"], "actionTimes": [5880, 6568, 7256], "queries": {"click": {"state": {"target": ["1", "3"], "time": [2748, 4974]}, "edge": {"target": [], "time": []}}, "mouseover": {"state": {"target": ["1", "5", "3"], "time": [2635, 3553, 4903]}, "edge": {"target": [], "time": []}}, "mouseout": {"state": {"target": ["5", "1", "5", "3"], "time": [585, 2900, 3570, 5100]}, "edge": {"target": [], "time": []}}}, "displayed_time": "9.92", "trialTime": 10869, "trial_type": "mouselab-mdp", "trial_index": 15, "time_elapsed": 548025, "internal_node_id": "0.0-4.0-1.0-6.0"}}, {"uniqueid": "w37093396:a89503903", "current_trial": 16, "dateTime": 1664464142818, "trialdata": {"revealed_states": [], "num_clicks_accrued": [0, 0, 0, 0, 0, 0, 0, 0, 0, 0, 0, 0, 0], "stateRewards": ["", -2, 8, -48, -24, -2, 8, 48, -48, -4, 8, 24, 48], "withholdReward": true, "trial_id": "mdp_160707003673", "block": "test1", "trialIndex": 9, "score": 58.5, "costs": -0.5, "simulationMode": [null, null, null], "rewards": [-2, 8, 48], "path": ["0", "0", "5", "6", "7"], "rt": [6017, 314, 344], "actions": ["right", "right", "up"], "actionTimes": [6953, 7777, 8640], "queries": {"click": {"state": {"target": ["5", "7"], "time": [2614, 5850]}, "edge": {"target": [], "time": []}}, "mouseover": {"state": {"target": ["0", "5", "6", "7"], "time": [994, 2411, 5494, 5777]}, "edge": {"target": [], "time": []}}, "mouseout": {"state": {"target": ["5", "0", "0", "5", "6", "7", "8"], "time": [444, 793, 1078, 2741, 5511, 5974, 9911]}, "edge": {"target": [], "time": []}}}, "displayed_time": "9.94", "trialTime": 11126, "trial_type": "mouselab-mdp", "trial_index": 16, "time_elapsed": 559241, "internal_node_id": "0.0-4.0-1.0-7.0"}}, {"uniqueid": "w37093396:a89503903", "current_trial": 17, "dateTime": 1664464155756, "trialdata": {"revealed_states": [], "num_clicks_accrued": [0, 0, 0, 0, 0, 0, 0, 0, 0, 0, 0, 0, 0], "stateRewards": ["", 2, -8, -24, 48, 4, -8, -24, -24, 2, 8, -24, 24], "withholdReward": false, "trial_id": "mdp_480787552818", "block": "test1", "trialIndex": 10, "score": 46.25, "costs": -0.75, "simulationMode": [null, null, null], "rewards": [2, -8, 48], "path": ["0", "0", "1", "2", "4"], "rt": [8565, 286, 314], "actions": ["up", "up", "left"], "actionTimes": [9538, 10319, 11130], "queries": {"click": {"state": {"target": ["1", "3", "4"], "time": [5824, 7419, 8617]}, "edge": {"target": [], "time": []}}, "mouseover": {"state": {"target": ["0", "1", "9", "3", "4"], "time": [5230, 5446, 6043, 7229, 8479]}, "edge": {"target": [], "time": []}}, "mouseout": {"state": {"target": ["0", "0", "1", "9", "1", "3", "1", "4", "9"], "time": [1060, 5263, 5976, 6630, 7129, 7544, 8447, 8763, 12230]}, "edge": {"target": [], "time": []}}}, "displayed_time": "11.63", "trialTime": 12850, "trial_type": "mouselab-mdp", "trial_index": 17, "time_elapsed": 572179, "internal_node_id": "0.0-4.0-1.0-8.0"}}, {"uniqueid": "w37093396:a89503903", "current_trial": 18, "dateTime": 1664464167092, "trialdata": {"revealed_states": [], "num_clicks_accrued": [0, 0, 0, 0, 0, 0, 0, 0, 0, 0, 0, 0, 0], "stateRewards": ["", -2, 8, -24, 48, -4, 4, -48, 24, 4, -8, 48, -24], "withholdReward": true, "trial_id": "mdp_425320427962", "block": "test1", "trialIndex": 11, "score": 28.25, "costs": -0.75, "simulationMode": [null, null, null], "rewards": [-4, 4, 24], "path": ["0", "0", "5", "6", "8"], "rt": [7449, 216, 252], "actions": ["right", "right", "down"], "actionTimes": [8433, 9140, 9892], "queries": {"click": {"state": {"target": ["5", "8", "7"], "time": [3626, 4808, 5744]}, "edge": {"target": [], "time": []}}, "mouseover": {"state": {"target": ["5", "8", "7", "6"], "time": [3488, 4687, 5588, 5885]}, "edge": {"target": [], "time": []}}, "mouseout": {"state": {"target": ["0", "5", "8", "7", "6"], "time": [1271, 3805, 4968, 5868, 5901]}, "edge": {"target": [], "time": []}}}, "displayed_time": "10.39", "trialTime": 11244, "trial_type": "mouselab-mdp", "trial_index": 18, "time_elapsed": 583515, "internal_node_id": "0.0-4.0-1.0-9.0"}}, {"uniqueid": "w37093396:a89503903", "current_trial": 19, "dateTime": 1664464178804, "trialdata": {"revealed_states": [], "num_clicks_accrued": [0, 0, 0, 0, 0, 0, 0, 0, 0, 0, 0, 0, 0], "stateRewards": ["", -4, 8, -24, 24, -2, -8, 24, -24, 4, -4, -48, 48], "withholdReward": true, "trial_id": "mdp_297684722007", "block": "test1", "trialIndex": 12, "score": 52.5, "costs": -0.5, "simulationMode": [null, null, null], "rewards": [4, -4, 48], "path": ["0", "0", "9", "10", "12"], "rt": [6193, 222, 457], "actions": ["left", "left", "down"], "actionTimes": [7115, 7838, 8790], "queries": {"click": {"state": {"target": ["9", "12"], "time": [4431, 6132]}, "edge": {"target": [], "time": []}}, "mouseover": {"state": {"target": ["0", "0", "9", "12"], "time": [1011, 1719, 4346, 6079]}, "edge": {"target": [], "time": []}}, "mouseout": {"state": {"target": ["0", "0", "9", "12"], "time": [1262, 4296, 4576, 6310]}, "edge": {"target": [], "time": []}}}, "displayed_time": "9.92", "trialTime": 11613, "trial_type": "mouselab-mdp", "trial_index": 19, "time_elapsed": 595227, "internal_node_id": "0.0-4.0-1.0-10.0"}}, {"uniqueid": "w37093396:a89503903", "current_trial": 20, "dateTime": 1664464189644, "trialdata": {"revealed_states": [], "num_clicks_accrued": [0, 0, 0, 0, 0, 0, 0, 0, 0, 0, 0, 0, 0], "stateRewards": ["", -2, 8, 48, 24, 2, -8, -24, -48, -4, 8, -48, 24], "withholdReward": true, "trial_id": "mdp_224053025943", "block": "test1", "trialIndex": 13, "score": 58.5, "costs": -0.5, "simulationMode": [null, null, null], "rewards": [-2, 8, 48], "path": ["0", "0", "1", "2", "3"], "rt": [4258, 137, 176], "actions": ["up", "up", "right"], "actionTimes": [5532, 6168, 6840], "queries": {"click": {"state": {"target": ["1", "3"], "time": [2733, 4051]}, "edge": {"target": [], "time": []}}, "mouseover": {"state": {"target": ["0", "1", "3"], "time": [1711, 1828, 3945]}, "edge": {"target": [], "time": []}}, "mouseout": {"state": {"target": ["0", "0", "1", "3"], "time": [1462, 1745, 3844, 4191]}, "edge": {"target": [], "time": []}}}, "displayed_time": "10.28", "trialTime": 10751, "trial_type": "mouselab-mdp", "trial_index": 20, "time_elapsed": 606067, "internal_node_id": "0.0-4.0-1.0-11.0"}}, {"uniqueid": "w37093396:a89503903", "current_trial": 21, "dateTime": 1664464200388, "trialdata": {"revealed_states": [], "num_clicks_accrued": [0, 0, 0, 0, 0, 0, 0, 0, 0, 0, 0, 0, 0], "stateRewards": ["", -4, 8, 24, -24, -2, 4, -24, 48, -2, 8, -48, -24], "withholdReward": true, "trial_id": "mdp_799359103169", "block": "test1", "trialIndex": 14, "score": 54.5, "costs": -0.5, "simulationMode": [null, null, null], "rewards": [-2, 4, 48], "path": ["0", "0", "5", "6", "8"], "rt": [3053, 231, 254], "actions": ["right", "right", "down"], "actionTimes": [4034, 4759, 5514], "queries": {"click": {"state": {"target": ["5", "8"], "time": [2103, 2964]}, "edge": {"target": [], "time": []}}, "mouseover": {"state": {"target": ["5", "8"], "time": [1924, 2907]}, "edge": {"target": [], "time": []}}, "mouseout": {"state": {"target": ["0", "5", "8"], "time": [1807, 2238, 3105]}, "edge": {"target": [], "time": []}}}, "displayed_time": "9.98", "trialTime": 10641, "trial_type": "mouselab-mdp", "trial_index": 21, "time_elapsed": 616811, "internal_node_id": "0.0-4.0-1.0-12.0"}}, {"uniqueid": "w37093396:a89503903", "current_trial": 22, "dateTime": 1664464211260, "trialdata": {"revealed_states": [], "num_clicks_accrued": [0, 0, 0, 0, 0, 0, 0, 0, 0, 0, 0, 0, 0], "stateRewards": ["", -2, -8, -24, -24, 4, -4, -48, 48, 2, 8, 48, -48], "withholdReward": true, "trial_id": "mdp_498095124548", "block": "test1", "trialIndex": 15, "score": 62.5, "costs": -0.5, "simulationMode": [null, null, null], "rewards": [2, 8, 48], "path": ["0", "0", "9", "10", "11"], "rt": [3095, 180, 300], "actions": ["left", "left", "up"], "actionTimes": [3958, 4635, 5437], "queries": {"click": {"state": {"target": ["9", "11"], "time": [2121, 2992]}, "edge": {"target": [], "time": []}}, "mouseover": {"state": {"target": ["9", "9", "11", "10"], "time": [1251, 1901, 2818, 3182]}, "edge": {"target": [], "time": []}}, "mouseout": {"state": {"target": ["0", "9", "9", "11", "10"], "time": [965, 1418, 2351, 3115, 3199]}, "edge": {"target": [], "time": []}}}, "displayed_time": "9.86", "trialTime": 10774, "trial_type": "mouselab-mdp", "trial_index": 22, "time_elapsed": 627683, "internal_node_id": "0.0-4.0-1.0-13.0"}}, {"uniqueid": "w37093396:a89503903", "current_trial": 23, "dateTime": 1664464222940, "trialdata": {"revealed_states": [], "num_clicks_accrued": [0, 0, 0, 0, 0, 0, 0, 0, 0, 0, 0, 0, 0], "stateRewards": ["", 4, -4, 48, 24, 2, 4, 24, -24, 2, 4, 24, 48], "withholdReward": true, "trial_id": "mdp_736351885282", "block": "test1", "trialIndex": 16, "score": 52.5, "costs": -0.5, "simulationMode": [null, null, null], "rewards": [4, -4, 48], "path": ["0", "0", "1", "2", "3"], "rt": [2855, 293, 404], "actions": ["up", "up", "right"], "actionTimes": [3970, 4765, 5661], "queries": {"click": {"state": {"target": ["1", "3"], "time": [2013, 2870]}, "edge": {"target": [], "time": []}}, "mouseover": {"state": {"target": ["1", "1", "3"], "time": [1588, 1870, 2770]}, "edge": {"target": [], "time": []}}, "mouseout": {"state": {"target": ["0", "1", "1", "3", "5"], "time": [953, 1670, 2220, 3069, 7304]}, "edge": {"target": [], "time": []}}}, "displayed_time": "11.12", "trialTime": 11589, "trial_type": "mouselab-mdp", "trial_index": 23, "time_elapsed": 639362, "internal_node_id": "0.0-4.0-1.0-14.0"}}, {"uniqueid": "w37093396:a89503903", "current_trial": 24, "dateTime": 1664464240812, "trialdata": {"revealed_states": [], "num_clicks_accrued": [0, 0, 0, 0, 0, 0, 0, 0, 0, 0, 0, 0, 0], "stateRewards": ["", 4, 8, -48, 24, -2, 8, -48, -48, -4, 4, 48, -48], "withholdReward": false, "trial_id": "mdp_693807815190", "block": "test1", "trialIndex": 17, "score": -32, "costs": -1, "simulationMode": [null, null, null], "rewards": [4, 8, -48], "path": ["0", "0", "1", "2", "3"], "rt": [8637, 211, 2780], "actions": ["up", "up", "right"], "actionTimes": [9686, 10390, 13674], "queries": {"click": {"state": {"target": ["5", "7", "8", "2"], "time": [2080, 3008, 4269, 8854]}, "edge": {"target": [], "time": []}}, "mouseover": {"state": {"target": ["5", "6", "5", "6", "7", "6", "8", "2", "1"], "time": [1375, 1491, 1925, 2791, 2941, 3975, 4040, 8608, 9040]}, "edge": {"target": [], "time": []}}, "mouseout": {"state": {"target": ["0", "5", "6", "5", "6", "7", "6", "8", "2", "1", "1", "3", "3"], "time": [1326, 1442, 1759, 2256, 2859, 3959, 4023, 5476, 9007, 9242, 11725, 11791, 14620]}, "edge": {"target": [], "time": []}}}, "displayed_time": "14.18", "trialTime": 17782, "trial_type": "mouselab-mdp", "trial_index": 24, "time_elapsed": 657235, "internal_node_id": "0.0-4.0-1.0-15.0"}}, {"uniqueid": "w37093396:a89503903", "current_trial": 25, "dateTime": 1664464254668, "trialdata": {"revealed_states": [], "num_clicks_accrued": [0, 0, 0, 0, 0, 0, 0, 0, 0, 0, 0, 0, 0], "stateRewards": ["", 4, 4, 24, 24, 4, -4, 48, 48, 4, 4, 24, -48], "withholdReward": false, "trial_id": "mdp_454251689008", "block": "test1", "trialIndex": 18, "score": 36, "costs": -1, "simulationMode": [null, null, null], "rewards": [4, 4, 24], "path": ["0", "0", "9", "10", "11"], "rt": [9844, 159, 153], "actions": ["left", "left", "up"], "actionTimes": [11013, 11661, 12309], "queries": {"click": {"state": {"target": ["9", "12", "11", "10"], "time": [3724, 4614, 5863, 10058]}, "edge": {"target": [], "time": []}}, "mouseover": {"state": {"target": ["0", "0", "9", "12", "11", "10", "10"], "time": [1436, 2578, 3520, 4585, 5519, 9669, 9936]}, "edge": {"target": [], "time": []}}, "mouseout": {"state": {"target": ["3", "0", "0", "9", "12", "11", "9", "9", "10", "10"], "time": [735, 1802, 3402, 3833, 4751, 6119, 6542, 9652, 9686, 10183]}, "edge": {"target": [], "time": []}}}, "displayed_time": "12.81", "trialTime": 13765, "trial_type": "mouselab-mdp", "trial_index": 25, "time_elapsed": 671090, "internal_node_id": "0.0-4.0-1.0-16.0"}}, {"uniqueid": "w37093396:a89503903", "current_trial": 26, "dateTime": 1664464266436, "trialdata": {"revealed_states": [], "num_clicks_accrued": [0, 0, 0, 0, 0, 0, 0, 0, 0, 0, 0, 0, 0], "stateRewards": ["", -2, 8, 48, 24, 2, -4, 48, -48, 2, 8, 24, -24], "withholdReward": true, "trial_id": "mdp_176207245985", "block": "test1", "trialIndex": 19, "score": 58.5, "costs": -0.5, "simulationMode": [null, null, null], "rewards": [-2, 8, 48], "path": ["0", "0", "1", "2", "3"], "rt": [2782, 56, 81], "actions": ["up", "up", "right"], "actionTimes": [5041, 5601, 6177], "queries": {"click": {"state": {"target": ["1", "3"], "time": [3407, 4078]}, "edge": {"target": [], "time": []}}, "mouseover": {"state": {"target": ["1", "3"], "time": [2860, 3976]}, "edge": {"target": [], "time": []}}, "mouseout": {"state": {"target": ["10", "9", "1", "3", "5"], "time": [1876, 1975, 3557, 4190, 6926]}, "edge": {"target": [], "time": []}}}, "displayed_time": "11.26", "trialTime": 11673, "trial_type": "mouselab-mdp", "trial_index": 26, "time_elapsed": 682859, "internal_node_id": "0.0-4.0-1.0-17.0"}}, {"uniqueid": "w37093396:a89503903", "current_trial": 27, "dateTime": 1664464277617, "trialdata": {"revealed_states": [], "num_clicks_accrued": [0, 0, 0, 0, 0, 0, 0, 0, 0, 0, 0, 0, 0], "stateRewards": ["", 2, 4, 48, 48, -2, 4, 48, -24, -4, 8, -48, 48], "withholdReward": true, "trial_id": "mdp_407586865939", "block": "test1", "trialIndex": 20, "score": 54.25, "costs": -0.75, "simulationMode": [null, null, null], "rewards": [-2, 4, 48], "path": ["0", "0", "5", "6", "7"], "rt": [3906, 263, 209], "actions": ["right", "right", "up"], "actionTimes": [4886, 5646, 6359], "queries": {"click": {"state": {"target": ["5", "8", "7"], "time": [2065, 2807, 4025]}, "edge": {"target": [], "time": []}}, "mouseover": {"state": {"target": ["0", "5", "8", "8", "7"], "time": [1132, 1897, 2261, 2697, 3764]}, "edge": {"target": [], "time": []}}, "mouseout": {"state": {"target": ["0", "0", "5", "8", "8", "7", "8"], "time": [880, 1347, 2212, 2512, 2961, 4144, 8331]}, "edge": {"target": [], "time": []}}}, "displayed_time": "9.98", "trialTime": 11090, "trial_type": "mouselab-mdp", "trial_index": 27, "time_elapsed": 694039, "internal_node_id": "0.0-4.0-1.0-18.0"}}, {"uniqueid": "w37093396:a89503903", "current_trial": 28, "dateTime": 1664464289178, "trialdata": {"revealed_states": [], "num_clicks_accrued": [0, 0, 0, 0, 0, 0, 0, 0, 0, 0, 0, 0, 0], "stateRewards": ["", -4, -8, -48, 48, -2, -8, -48, -24, 4, 8, 24, -48], "withholdReward": true, "trial_id": "mdp_509977295685", "block": "test1", "trialIndex": 21, "score": 40, "costs": -1, "simulationMode": [null, null, null], "rewards": [4, 8, 24], "path": ["0", "0", "9", "10", "11"], "rt": [7393, 49, 114], "actions": ["left", "left", "up"], "actionTimes": [8642, 9194, 9826], "queries": {"click": {"state": {"target": ["9", "12", "11", "10"], "time": [2513, 4199, 5705, 7911]}, "edge": {"target": [], "time": []}}, "mouseover": {"state": {"target": ["0", "9", "12", "10", "11", "10"], "time": [1977, 2427, 3923, 5327, 5543, 7743]}, "edge": {"target": [], "time": []}}, "mouseout": {"state": {"target": ["6", "5", "0", "9", "12", "10", "11", "10", "12"], "time": [726, 975, 2293, 2657, 4390, 5376, 6159, 8024, 10741]}, "edge": {"target": [], "time": []}}}, "displayed_time": "10.33", "trialTime": 11463, "trial_type": "mouselab-mdp", "trial_index": 28, "time_elapsed": 705600, "internal_node_id": "0.0-4.0-1.0-19.0"}}, {"uniqueid": "w37093396:a89503903", "current_trial": 29, "dateTime": 1664464299217, "trialdata": {"revealed_states": [], "num_clicks_accrued": [0, 0, 0, 0, 0, 0, 0, 0, 0, 0, 0, 0, 0], "stateRewards": ["", -4, -8, 48, -48, 2, -4, 48, -24, 2, -8, -48, -48], "withholdReward": true, "trial_id": "mdp_624553692913", "block": "test1", "trialIndex": 22, "score": 40.5, "costs": -0.5, "simulationMode": [null, null, null], "rewards": [-4, -8, 48], "path": ["0", "0", "1", "2", "3"], "rt": [4096, 111, 138], "actions": ["up", "up", "right"], "actionTimes": [5124, 5732, 6388], "queries": {"click": {"state": {"target": ["1", "3"], "time": [3107, 4016]}, "edge": {"target": [], "time": []}}, "mouseover": {"state": {"target": ["0", "0", "1", "3", "7"], "time": [1651, 2054, 3002, 3985, 4369]}, "edge": {"target": [], "time": []}}, "mouseout": {"state": {"target": ["0", "0", "0", "1", "3", "7", "5"], "time": [1403, 1719, 2417, 3249, 4183, 7269, 7353]}, "edge": {"target": [], "time": []}}}, "displayed_time": "9.03", "trialTime": 9945, "trial_type": "mouselab-mdp", "trial_index": 29, "time_elapsed": 715640, "internal_node_id": "0.0-4.0-1.0-20.0"}}, {"uniqueid": "w37093396:a89503903", "current_trial": 30, "dateTime": 1664464309937, "trialdata": {"revealed_states": [], "num_clicks_accrued": [0, 0, 0, 0, 0, 0, 0, 0, 0, 0, 0, 0, 0], "stateRewards": ["", 2, 8, 24, -48, 4, 8, 24, 48, 2, -8, -24, 24], "withholdReward": true, "trial_id": "mdp_939899431582", "block": "test1", "trialIndex": 23, "score": 64.75, "costs": -0.25, "simulationMode": [null, null, null], "rewards": [4, 8, 48], "path": ["0", "0", "5", "6", "8"], "rt": [1875, 214, 290], "actions": ["right", "right", "down"], "actionTimes": [2897, 3609, 4401], "queries": {"click": {"state": {"target": ["8"], "time": [1775]}, "edge": {"target": [], "time": []}}, "mouseover": {"state": {"target": ["5", "8", "8"], "time": [1359, 1392, 1725]}, "edge": {"target": [], "time": []}}, "mouseout": {"state": {"target": ["5", "8", "8", "8"], "time": [1375, 1429, 1956, 2209]}, "edge": {"target": [], "time": []}}}, "displayed_time": "10.02", "trialTime": 10638, "trial_type": "mouselab-mdp", "trial_index": 30, "time_elapsed": 726360, "internal_node_id": "0.0-4.0-1.0-21.0"}}, {"uniqueid": "w37093396:a89503903", "current_trial": 31, "dateTime": 1664464320169, "trialdata": {"revealed_states": [], "num_clicks_accrued": [0, 0, 0, 0, 0, 0, 0, 0, 0, 0, 0, 0, 0], "stateRewards": ["", -2, -4, -24, -48, 2, -8, -24, -24, 4, -8, 48, 48], "withholdReward": true, "trial_id": "mdp_950599994674", "block": "test1", "trialIndex": 24, "score": 48.25, "costs": -0.75, "simulationMode": [null, null, null], "rewards": [4, -8, 48], "path": ["0", "0", "9", "10", "11"], "rt": [5034, 88, 138], "actions": ["left", "left", "up"], "actionTimes": [6529, 7113, 7745], "queries": {"click": {"state": {"target": ["11", "10", "9"], "time": [2905, 5400, 5836]}, "edge": {"target": [], "time": []}}, "mouseover": {"state": {"target": ["0", "9", "10", "11", "10", "10", "9", "10", "9"], "time": [2105, 2473, 2655, 2790, 3169, 4639, 4973, 5172, 5756]}, "edge": {"target": [], "time": []}}, "mouseout": {"state": {"target": ["8", "0", "0", "9", "10", "11", "10", "10", "9", "10", "9"], "time": [1072, 1370, 2322, 2556, 2739, 3103, 3186, 4773, 5090, 5690, 5969]}, "edge": {"target": [], "time": []}}}, "displayed_time": "9.50", "trialTime": 10150, "trial_type": "mouselab-mdp", "trial_index": 31, "time_elapsed": 736592, "internal_node_id": "0.0-4.0-1.0-22.0"}}, {"uniqueid": "w37093396:a89503903", "current_trial": 32, "dateTime": 1664464332641, "trialdata": {"revealed_states": [], "num_clicks_accrued": [0, 0, 0, 0, 0, 0, 0, 0, 0, 0, 0, 0, 0], "stateRewards": ["", 2, -4, 48, -48, -4, -8, -48, 24, -4, 4, 48, 48], "withholdReward": false, "trial_id": "mdp_544803968425", "block": "test1", "trialIndex": 25, "score": 50.75, "costs": -0.25, "simulationMode": [null, null, null], "rewards": [2, -4, 48], "path": ["0", "0", "1", "2", "3"], "rt": [2614, 152, 69], "actions": ["up", "up", "right"], "actionTimes": [4100, 4756, 5324], "queries": {"click": {"state": {"target": ["3"], "time": [3157]}, "edge": {"target": [], "time": []}}, "mouseover": {"state": {"target": ["1", "2", "3"], "time": [2620, 2902, 3069]}, "edge": {"target": [], "time": []}}, "mouseout": {"state": {"target": ["0", "1", "2", "3"], "time": [1301, 2785, 2986, 3333]}, "edge": {"target": [], "time": []}}}, "displayed_time": "10.49", "trialTime": 12385, "trial_type": "mouselab-mdp", "trial_index": 32, "time_elapsed": 749064, "internal_node_id": "0.0-4.0-1.0-23.0"}}, {"uniqueid": "w37093396:a89503903", "current_trial": 33, "dateTime": 1664464345452, "trialdata": {"revealed_states": [], "num_clicks_accrued": [0, 0, 0, 0, 0, 0, 0, 0, 0, 0, 0, 0, 0], "stateRewards": ["", -2, 4, -24, 24, -4, -8, 24, -48, -4, -4, -48, -24], "withholdReward": true, "trial_id": "mdp_753137520419", "block": "test1", "trialIndex": 26, "score": 16, "costs": -1, "simulationMode": [null, null, null], "rewards": [-4, -8, 24], "path": ["0", "0", "5", "6", "7"], "rt": [8740, 162, 87], "actions": ["right", "right", "up"], "actionTimes": [9658, 10319, 10922], "queries": {"click": {"state": {"target": ["8", "7", "6", "5"], "time": [1660, 2534, 3392, 4309]}, "edge": {"target": [], "time": []}}, "mouseover": {"state": {"target": ["5", "6", "8", "7", "6", "5"], "time": [1222, 1338, 1555, 2387, 3386, 4154]}, "edge": {"target": [], "time": []}}, "mouseout": {"state": {"target": ["1", "5", "6", "8", "7", "6", "5"], "time": [637, 1271, 1504, 1854, 2651, 3551, 4418]}, "edge": {"target": [], "time": []}}}, "displayed_time": "11.42", "trialTime": 12714, "trial_type": "mouselab-mdp", "trial_index": 33, "time_elapsed": 761874, "internal_node_id": "0.0-4.0-1.0-24.0"}}, {"uniqueid": "w37093396:a89503903", "current_trial": 34, "dateTime": 1664464369524, "trialdata": {"revealed_states": [], "num_clicks_accrued": [0, 0, 0, 0, 0, 0, 0, 0, 0, 0, 0, 0, 0], "stateRewards": ["", -2, -4, -24, -48, -4, -8, -48, 24, -4, -8, -24, -48], "withholdReward": true, "trial_id": "mdp_475782454549", "block": "test1", "trialIndex": 27, "score": 14, "costs": -3, "simulationMode": [null, null, null], "rewards": [-4, -8, 24], "path": ["0", "0", "5", "6", "8"], "rt": [19932, 138, 128], "actions": ["right", "right", "down"], "actionTimes": [20907, 21539, 22163], "queries": {"click": {"state": {"target": ["11", "12", "10", "9", "4", "3", "5", "2", "7", "8", "6", "1"], "time": [7219, 8312, 9519, 10006, 11807, 12464, 13850, 14782, 15360, 15917, 16502, 17971]}, "edge": {"target": [], "time": []}}, "mouseover": {"state": {"target": ["0", "0", "9", "11", "9", "12", "12", "12", "10", "9", "1", "2", "4", "2", "3", "5", "1", "2", "1", "7", "6", "8", "8", "6", "0", "1"], "time": [1297, 1745, 6898, 7114, 7361, 7798, 7978, 8279, 9381, 9932, 10681, 10765, 11215, 12215, 12315, 13548, 14481, 14681, 14928, 15278, 15495, 15628, 15828, 16447, 17764, 17864]}, "edge": {"target": [], "time": []}}, "mouseout": {"state": {"target": ["0", "0", "0", "9", "11", "9", "12", "12", "12", "10", "9", "1", "2", "4", "2", "3", "5", "5", "1", "2", "1", "7", "6", "8", "8", "6", "8", "8", "0", "1"], "time": [1215, 1514, 1952, 6998, 7344, 7378, 7831, 8028, 8461, 9628, 10111, 10732, 11064, 12164, 12264, 12595, 14130, 14397, 14598, 14895, 14995, 15461, 15545, 15661, 16399, 16628, 16678, 17481, 17798, 18095]}, "edge": {"target": [], "time": []}}}, "displayed_time": "22.66", "trialTime": 23979, "trial_type": "mouselab-mdp", "trial_index": 34, "time_elapsed": 785946, "internal_node_id": "0.0-4.0-1.0-25.0"}}, {"uniqueid": "w37093396:a89503903", "current_trial": 35, "dateTime": 1664464380683, "trialdata": {"revealed_states": [], "num_clicks_accrued": [0, 0, 0, 0, 0, 0, 0, 0, 0, 0, 0, 0, 0], "stateRewards": ["", 4, -8, -24, 48, -4, 8, -24, -48, -4, -4, 24, 48], "withholdReward": true, "trial_id": "mdp_282352776624", "block": "test1", "trialIndex": 28, "score": 48.75, "costs": -0.25, "simulationMode": [null, null, null], "rewards": [4, -8, 48], "path": ["0", "0", "1", "2", "4"], "rt": [2899, 469, 94], "actions": ["up", "up", "left"], "actionTimes": [4546, 5509, 6101], "queries": {"click": {"state": {"target": ["4"], "time": [2711]}, "edge": {"target": [], "time": []}}, "mouseover": {"state": {"target": ["1", "4", "1"], "time": [2254, 2620, 3504]}, "edge": {"target": [], "time": []}}, "mouseout": {"state": {"target": ["0", "1", "4"], "time": [1486, 2303, 2867]}, "edge": {"target": [], "time": []}}}, "displayed_time": "10.65", "trialTime": 11061, "trial_type": "mouselab-mdp", "trial_index": 35, "time_elapsed": 797106, "internal_node_id": "0.0-4.0-1.0-26.0"}}, {"uniqueid": "w37093396:a89503903", "current_trial": 36, "dateTime": 1664464392724, "trialdata": {"revealed_states": [], "num_clicks_accrued": [0, 0, 0, 0, 0, 0, 0, 0, 0, 0, 0, 0, 0], "stateRewards": ["", -2, -8, 48, 24, 2, 4, 24, -24, -2, -4, 48, -48], "withholdReward": true, "trial_id": "mdp_411152402386", "block": "test1", "trialIndex": 29, "score": 34, "costs": -1, "simulationMode": [null, null, null], "rewards": [2, 4, 24], "path": ["0", "0", "5", "6", "7"], "rt": [7600, 69, 766], "actions": ["right", "right", "up"], "actionTimes": [8909, 9470, 10750], "queries": {"click": {"state": {"target": ["8", "7", "5", "6"], "time": [2759, 3515, 5575, 8027]}, "edge": {"target": [], "time": []}}, "mouseover": {"state": {"target": ["3", "7", "6", "8", "7", "5", "6"], "time": [1870, 2170, 2203, 2520, 3419, 5036, 7920]}, "edge": {"target": [], "time": []}}, "mouseout": {"state": {"target": ["1", "1", "3", "7", "6", "8", "7", "8", "5", "6", "8"], "time": [685, 952, 2136, 2187, 2220, 2867, 3617, 4870, 5717, 8150, 8217]}, "edge": {"target": [], "time": []}}}, "displayed_time": "11.26", "trialTime": 11950, "trial_type": "mouselab-mdp", "trial_index": 36, "time_elapsed": 809146, "internal_node_id": "0.0-4.0-1.0-27.0"}}, {"uniqueid": "w37093396:a89503903", "current_trial": 37, "dateTime": 1664464409771, "trialdata": {"revealed_states": [], "num_clicks_accrued": [0, 0, 0, 0, 0, 0, 0, 0, 0, 0, 0, 0, 0], "stateRewards": ["", 2, -4, -48, 24, 4, 4, 48, -48, -2, -4, -24, -48], "withholdReward": true, "trial_id": "mdp_858916930936", "block": "test1", "trialIndex": 30, "score": 25.5, "costs": -1.5, "simulationMode": [null, null, null], "rewards": [2, -4, 24], "path": ["0", "0", "1", "2", "4"], "rt": [13556, 125, 7], "actions": ["up", "up", "left"], "actionTimes": [14676, 15300, 15812], "queries": {"click": {"state": {"target": ["11", "12", "3", "4", "2", "1"], "time": [2135, 2858, 7167, 8696, 12981, 13936]}, "edge": {"target": [], "time": []}}, "mouseover": {"state": {"target": ["9", "11", "12", "0", "1", "3", "2", "4", "1", "1", "2", "1", "1"], "time": [1887, 1970, 2670, 3400, 6870, 7087, 8536, 8604, 8901, 10221, 10304, 13117, 13820]}, "edge": {"target": [], "time": []}}, "mouseout": {"state": {"target": ["0", "9", "11", "12", "0", "1", "3", "2", "4", "1", "1", "2", "1", "1"], "time": [1854, 1920, 2319, 3067, 6814, 6887, 7301, 8554, 8834, 8934, 10254, 13101, 13167, 14102]}, "edge": {"target": [], "time": []}}}, "displayed_time": "16.34", "trialTime": 16947, "trial_type": "mouselab-mdp", "trial_index": 37, "time_elapsed": 826194, "internal_node_id": "0.0-4.0-1.0-28.0"}}, {"uniqueid": "w37093396:a89503903", "current_trial": 38, "dateTime": 1664464421515, "trialdata": {"revealed_states": [], "num_clicks_accrued": [0, 0, 0, 0, 0, 0, 0, 0, 0, 0, 0, 0, 0], "stateRewards": ["", 4, 8, 24, 24, 2, -4, 48, -24, -4, 8, -24, 24], "withholdReward": true, "trial_id": "mdp_932292142091", "block": "test1", "trialIndex": 31, "score": 50.75, "costs": -0.25, "simulationMode": [null, null, null], "rewards": [2, -4, 48], "path": ["0", "0", "5", "6", "7"], "rt": [3839, 265, 648], "actions": ["right", "right", "up"], "actionTimes": [4784, 5544, 6693], "queries": {"click": {"state": {"target": ["7"], "time": [3562]}, "edge": {"target": [], "time": []}}, "mouseover": {"state": {"target": ["0", "5", "6", "7"], "time": [1344, 1408, 1858, 2091]}, "edge": {"target": [], "time": []}}, "mouseout": {"state": {"target": ["0", "5", "6", "7", "6"], "time": [1361, 1425, 1975, 3774, 9244]}, "edge": {"target": [], "time": []}}}, "displayed_time": "10.95", "trialTime": 11647, "trial_type": "mouselab-mdp", "trial_index": 38, "time_elapsed": 837938, "internal_node_id": "0.0-4.0-1.0-29.0"}}, {"uniqueid": "w37093396:a89503903", "current_trial": 39, "dateTime": 1664464429323, "trialdata": {"rt": 7798, "stimulus": "<h1> End of block! </h1>\n\nYou have reached the end of the block 1/4. If you need a short break, feel free to take one now before moving on.\n\n<br><br>\nIn the next block, you will complete another 30 rounds of this game.\n\n<br><br>\n<div style='text-align: center;'>Press <code>space</code> to begin.</div>\n<br><br>\n<div style='text-align: center;'>(If the experiment doesn't continue, try clicking on the text and then pressing <code>space</code>.)</div>", "response": " ", "trial_id": "mdp_ready_2", "trial_type": "html-keyboard-response", "trial_index": 39, "time_elapsed": 845746, "internal_node_id": "0.0-4.0-2.0"}}, {"uniqueid": "w37093396:a89503903", "current_trial": 40, "dateTime": 1664464441481, "trialdata": {"revealed_states": [], "num_clicks_accrued": [0, 0, 0, 0, 0, 0, 0, 0, 0, 0, 0, 0, 0], "stateRewards": ["", -2, -4, 48, 48, 2, 4, -48, 24, 4, -8, 24, -24], "withholdReward": false, "trial_id": "mdp_628613319495", "block": "test2", "trialIndex": 32, "score": 34.5, "costs": -0.5, "simulationMode": [null, null, null], "rewards": [2, 4, 24], "path": ["0", "0", "5", "6", "8"], "rt": [6429, 262, 139], "actions": ["right", "right", "down"], "actionTimes": [8080, 8838, 9494], "queries": {"click": {"state": {"target": ["8", "7"], "time": [2992, 6056]}, "edge": {"target": [], "time": []}}, "mouseover": {"state": {"target": ["5", "8", "7", "6"], "time": [2406, 2739, 4806, 7072]}, "edge": {"target": [], "time": []}}, "mouseout": {"state": {"target": ["7", "5", "0", "5", "8", "7"], "time": [938, 971, 2389, 2422, 3186, 7006]}, "edge": {"target": [], "time": []}}}, "displayed_time": "9.99", "trialTime": 12075, "trial_type": "mouselab-mdp", "trial_index": 40, "time_elapsed": 857903, "internal_node_id": "0.0-4.0-3.0-0.0"}}, {"uniqueid": "w37093396:a89503903", "current_trial": 41, "dateTime": 1664464451315, "trialdata": {"revealed_states": [], "num_clicks_accrued": [0, 0, 0, 0, 0, 0, 0, 0, 0, 0, 0, 0, 0], "stateRewards": ["", 2, 4, 48, 48, 4, -8, 24, -48, -4, -8, -24, -48], "withholdReward": false, "trial_id": "mdp_343818007251", "block": "test2", "trialIndex": 33, "score": 58.25, "costs": -0.75, "simulationMode": [null, null, null], "rewards": [2, 4, 48], "path": ["0", "0", "1", "2", "3"], "rt": [3440, 110, 145], "actions": ["up", "up", "right"], "actionTimes": [4513, 5128, 5792], "queries": {"click": {"state": {"target": ["11", "12", "3"], "time": [1758, 2754, 3542]}, "edge": {"target": [], "time": []}}, "mouseover": {"state": {"target": ["11", "9", "12", "3", "7"], "time": [1717, 2149, 2700, 3430, 3713]}, "edge": {"target": [], "time": []}}, "mouseout": {"state": {"target": ["6", "11", "9", "12", "3", "7", "6"], "time": [616, 1847, 2200, 2880, 3680, 3730, 6666]}, "edge": {"target": [], "time": []}}}, "displayed_time": "9.07", "trialTime": 9736, "trial_type": "mouselab-mdp", "trial_index": 41, "time_elapsed": 867738, "internal_node_id": "0.0-4.0-3.0-1.0"}}, {"uniqueid": "w37093396:a89503903", "current_trial": 42, "dateTime": 1664464461035, "trialdata": {"revealed_states": [], "num_clicks_accrued": [0, 0, 0, 0, 0, 0, 0, 0, 0, 0, 0, 0, 0], "stateRewards": ["", 2, -4, 24, 24, 4, -4, -24, 24, -4, -4, 48, 48], "withholdReward": true, "trial_id": "mdp_566306223773", "block": "test2", "trialIndex": 34, "score": 44.25, "costs": -0.75, "simulationMode": [null, null, null], "rewards": [-4, -4, 48], "path": ["0", "0", "9", "10", "12"], "rt": [3731, 197, 205], "actions": ["left", "left", "down"], "actionTimes": [4893, 5581, 6300], "queries": {"click": {"state": {"target": ["8", "7", "12"], "time": [1945, 2601, 3937]}, "edge": {"target": [], "time": []}}, "mouseover": {"state": {"target": ["5", "8", "7", "12"], "time": [1631, 1781, 2464, 3914]}, "edge": {"target": [], "time": []}}, "mouseout": {"state": {"target": ["5", "5", "8", "7", "12"], "time": [913, 1681, 2078, 2711, 4061]}, "edge": {"target": [], "time": []}}}, "displayed_time": "9.16", "trialTime": 9620, "trial_type": "mouselab-mdp", "trial_index": 42, "time_elapsed": 877458, "internal_node_id": "0.0-4.0-3.0-2.0"}}, {"uniqueid": "w37093396:a89503903", "current_trial": 43, "dateTime": 1664464471347, "trialdata": {"revealed_states": [], "num_clicks_accrued": [0, 0, 0, 0, 0, 0, 0, 0, 0, 0, 0, 0, 0], "stateRewards": ["", -2, -8, -24, -48, 4, -8, 48, 24, 2, 4, -48, -48], "withholdReward": true, "trial_id": "mdp_898082967464", "block": "test2", "trialIndex": 35, "score": 48.25, "costs": -0.75, "simulationMode": [null, null, null], "rewards": [4, -8, 48], "path": ["0", "0", "5", "6", "7"], "rt": [4471, 166, 163], "actions": ["right", "right", "up"], "actionTimes": [5738, 6410, 7074], "queries": {"click": {"state": {"target": ["4", "3", "7"], "time": [1942, 2565, 4761]}, "edge": {"target": [], "time": []}}, "mouseover": {"state": {"target": ["4", "1", "3", "5", "6", "7", "7"], "time": [1825, 2239, 2472, 2756, 4326, 4391, 4652]}, "edge": {"target": [], "time": []}}, "mouseout": {"state": {"target": ["0", "4", "1", "3", "5", "6", "7", "7", "8"], "time": [1627, 2056, 2273, 2673, 4259, 4343, 4543, 4906, 7876]}, "edge": {"target": [], "time": []}}}, "displayed_time": "9.27", "trialTime": 10210, "trial_type": "mouselab-mdp", "trial_index": 43, "time_elapsed": 887769, "internal_node_id": "0.0-4.0-3.0-3.0"}}, {"uniqueid": "w37093396:a89503903", "current_trial": 44, "dateTime": 1664464483899, "trialdata": {"revealed_states": [], "num_clicks_accrued": [0, 0, 0, 0, 0, 0, 0, 0, 0, 0, 0, 0, 0], "stateRewards": ["", 2, -4, 48, -48, 2, 4, -24, 24, -4, -8, 24, -48], "withholdReward": false, "trial_id": "mdp_238810765895", "block": "test2", "trialIndex": 36, "score": 50, "costs": -1, "simulationMode": [null, null, null], "rewards": [2, -4, 48], "path": ["0", "0", "1", "2", "3"], "rt": [4712, 149, 83], "actions": ["up", "up", "right"], "actionTimes": [6239, 6887, 7471], "queries": {"click": {"state": {"target": ["12", "11", "4", "3"], "time": [2799, 3491, 4740, 5292]}, "edge": {"target": [], "time": []}}, "mouseover": {"state": {"target": ["0", "12", "9", "11", "9", "4", "1", "3"], "time": [1566, 2736, 3234, 3350, 3683, 4584, 5083, 5233]}, "edge": {"target": [], "time": []}}, "mouseout": {"state": {"target": ["0", "0", "12", "9", "11", "9", "4", "1", "3"], "time": [1440, 1652, 2916, 3251, 3632, 3749, 4866, 5133, 5399]}, "edge": {"target": [], "time": []}}}, "displayed_time": "10.53", "trialTime": 12455, "trial_type": "mouselab-mdp", "trial_index": 44, "time_elapsed": 900322, "internal_node_id": "0.0-4.0-3.0-4.0"}}, {"uniqueid": "w37093396:a89503903", "current_trial": 45, "dateTime": 1664464508544, "trialdata": {"revealed_states": [], "num_clicks_accrued": [0, 0, 0, 0, 0, 0, 0, 0, 0, 0, 0, 0, 0], "stateRewards": ["", -4, 8, 24, -24, 4, 8, -24, -48, 2, 4, 24, -24], "withholdReward": true, "trial_id": "mdp_782187007008", "block": "test2", "trialIndex": 37, "score": 32, "costs": -3, "simulationMode": [null, null, null], "rewards": [2, 4, 24], "path": ["0", "0", "9", "10", "11"], "rt": [15897, 109, 68], "actions": ["left", "left", "up"], "actionTimes": [16861, 17469, 18029], "queries": {"click": {"state": {"target": ["8", "7", "12", "11", "4", "3", "9", "10", "1", "2", "5", "6"], "time": [1818, 2559, 3640, 4292, 5765, 6180, 8432, 9059, 9834, 10246, 11047, 11391]}, "edge": {"target": [], "time": []}}, "mouseover": {"state": {"target": ["5", "6", "8", "7", "6", "5", "12", "12", "9", "11", "10", "1", "2", "4", "1", "3", "9", "10", "1", "2", "5", "5", "6"], "time": [1291, 1339, 1504, 2523, 3158, 3190, 3272, 3541, 4023, 4205, 4404, 4889, 5624, 5707, 5971, 6138, 8341, 9007, 9654, 10204, 10438, 10761, 11304]}, "edge": {"target": [], "time": []}}, "mouseout": {"state": {"target": ["0", "5", "6", "8", "7", "6", "5", "12", "12", "9", "11", "10", "1", "2", "4", "1", "3", "9", "10", "1", "2", "1", "5", "5", "6", "8"], "time": [873, 1322, 1354, 2258, 2721, 3174, 3206, 3322, 3754, 4039, 4388, 4421, 4989, 5674, 5888, 6038, 6271, 8604, 9154, 10021, 10355, 10388, 10554, 11238, 11521, 11588]}, "edge": {"target": [], "time": []}}}, "displayed_time": "18.53", "trialTime": 24538, "trial_type": "mouselab-mdp", "trial_index": 45, "time_elapsed": 924967, "internal_node_id": "0.0-4.0-3.0-5.0"}}, {"uniqueid": "w37093396:a89503903", "current_trial": 46, "dateTime": 1664464519784, "trialdata": {"revealed_states": [], "num_clicks_accrued": [0, 0, 0, 0, 0, 0, 0, 0, 0, 0, 0, 0, 0], "stateRewards": ["", -2, 8, 48, 48, 2, 4, -48, 24, -4, -8, 48, 24], "withholdReward": true, "trial_id": "mdp_572910394648", "block": "test2", "trialIndex": 38, "score": 58.75, "costs": -0.25, "simulationMode": [null, null, null], "rewards": [-2, 8, 48], "path": ["0", "0", "1", "2", "4"], "rt": [1717, 106, 130], "actions": ["up", "up", "left"], "actionTimes": [3085, 3693, 4317], "queries": {"click": {"state": {"target": ["4"], "time": [2059]}, "edge": {"target": [], "time": []}}, "mouseover": {"state": {"target": ["1", "4", "2"], "time": [1784, 1934, 2248]}, "edge": {"target": [], "time": []}}, "mouseout": {"state": {"target": ["0", "1", "4", "2", "0", "5", "7", "7"], "time": [1635, 1834, 2214, 2314, 5184, 7201, 7767, 9267]}, "edge": {"target": [], "time": []}}}, "displayed_time": "10.37", "trialTime": 11154, "trial_type": "mouselab-mdp", "trial_index": 46, "time_elapsed": 936207, "internal_node_id": "0.0-4.0-3.0-6.0"}}, {"uniqueid": "w37093396:a89503903", "current_trial": 47, "dateTime": 1664464530472, "trialdata": {"revealed_states": [], "num_clicks_accrued": [0, 0, 0, 0, 0, 0, 0, 0, 0, 0, 0, 0, 0], "stateRewards": ["", 4, -4, 48, 24, 2, 4, 24, -24, 2, 4, 24, 48], "withholdReward": true, "trial_id": "mdp_736351885282", "block": "test2", "trialIndex": 39, "score": 58.5, "costs": -0.5, "simulationMode": [null, null, null], "rewards": [2, 4, 48], "path": ["0", "0", "9", "10", "12"], "rt": [3507, 195, 546], "actions": ["left", "left", "down"], "actionTimes": [4614, 5310, 6374], "queries": {"click": {"state": {"target": ["11", "12"], "time": [2429, 3195]}, "edge": {"target": [], "time": []}}, "mouseover": {"state": {"target": ["0", "9", "10", "11", "9", "12"], "time": [1263, 1829, 1947, 2346, 2778, 3128]}, "edge": {"target": [], "time": []}}, "mouseout": {"state": {"target": ["7", "0", "0", "9", "10", "11", "9", "12"], "time": [629, 1143, 1746, 1879, 2263, 2612, 2961, 3430]}, "edge": {"target": [], "time": []}}}, "displayed_time": "9.11", "trialTime": 10587, "trial_type": "mouselab-mdp", "trial_index": 47, "time_elapsed": 946895, "internal_node_id": "0.0-4.0-3.0-7.0"}}, {"uniqueid": "w37093396:a89503903", "current_trial": 48, "dateTime": 1664464545347, "trialdata": {"revealed_states": [], "num_clicks_accrued": [0, 0, 0, 0, 0, 0, 0, 0, 0, 0, 0, 0, 0], "stateRewards": ["", 4, 4, -48, -48, 4, 4, -24, -24, -4, 8, -48, 24], "withholdReward": false, "trial_id": "mdp_669785455541", "block": "test2", "trialIndex": 40, "score": 32, "costs": -1, "simulationMode": [null, null, null], "rewards": [-4, 8, 24], "path": ["0", "0", "9", "10", "12"], "rt": [10275, 246, 183], "actions": ["left", "left", "down"], "actionTimes": [11277, 12015, 12703], "queries": {"click": {"state": {"target": ["11", "12", "3", "10"], "time": [1664, 2905, 3773, 9867]}, "edge": {"target": [], "time": []}}, "mouseover": {"state": {"target": ["0", "9", "11", "1", "3", "1", "9", "12", "12", "7", "3", "7", "6", "8", "10", "9"], "time": [1318, 1368, 1466, 2001, 2268, 2534, 2568, 2601, 2718, 3384, 3701, 4084, 7784, 8167, 9651, 10048]}, "edge": {"target": [], "time": []}}, "mouseout": {"state": {"target": ["0", "0", "9", "11", "1", "3", "1", "9", "12", "12", "7", "3", "7", "6", "8", "10", "9"], "time": [883, 1351, 1399, 1934, 2034, 2500, 2551, 2584, 2632, 3184, 3401, 3934, 7751, 7818, 9351, 10015, 10065]}, "edge": {"target": [], "time": []}}}, "displayed_time": "13.20", "trialTime": 14783, "trial_type": "mouselab-mdp", "trial_index": 48, "time_elapsed": 961770, "internal_node_id": "0.0-4.0-3.0-8.0"}}, {"uniqueid": "w37093396:a89503903", "current_trial": 49, "dateTime": 1664464556930, "trialdata": {"revealed_states": [], "num_clicks_accrued": [0, 0, 0, 0, 0, 0, 0, 0, 0, 0, 0, 0, 0], "stateRewards": ["", 2, 4, -48, -24, 2, 8, 24, 48, -2, 4, 48, -48], "withholdReward": true, "trial_id": "mdp_551894842204", "block": "test2", "trialIndex": 41, "score": 54.25, "costs": -0.75, "simulationMode": [null, null, null], "rewards": [-2, 4, 48], "path": ["0", "0", "9", "10", "11"], "rt": [4936, 117, 120], "actions": ["left", "left", "up"], "actionTimes": [6770, 7388, 8020], "queries": {"click": {"state": {"target": ["11", "10", "9"], "time": [2849, 5423, 5720]}, "edge": {"target": [], "time": []}}, "mouseover": {"state": {"target": ["0", "9", "11", "10", "10", "9"], "time": [1985, 2418, 2768, 5035, 5284, 5598]}, "edge": {"target": [], "time": []}}, "mouseout": {"state": {"target": ["0", "0", "9", "11", "10", "10", "9", "10"], "time": [1902, 2318, 2452, 3484, 5052, 5549, 5865, 5899]}, "edge": {"target": [], "time": []}}}, "displayed_time": "10.83", "trialTime": 11484, "trial_type": "mouselab-mdp", "trial_index": 49, "time_elapsed": 973353, "internal_node_id": "0.0-4.0-3.0-9.0"}}, {"uniqueid": "w37093396:a89503903", "current_trial": 50, "dateTime": 1664464566549, "trialdata": {"revealed_states": [], "num_clicks_accrued": [0, 0, 0, 0, 0, 0, 0, 0, 0, 0, 0, 0, 0], "stateRewards": ["", 2, 4, -48, 48, -4, 8, -48, -24, -4, -4, 48, 48], "withholdReward": true, "trial_id": "mdp_613582696541", "block": "test2", "trialIndex": 42, "score": 58.25, "costs": -0.75, "simulationMode": [null, null, null], "rewards": [2, 4, 48], "path": ["0", "0", "1", "2", "4"], "rt": [4270, 29, 81], "actions": ["up", "up", "left"], "actionTimes": [5127, 5653, 6239], "queries": {"click": {"state": {"target": ["7", "8", "4"], "time": [2064, 2781, 3985]}, "edge": {"target": [], "time": []}}, "mouseover": {"state": {"target": ["0", "5", "7", "8", "12", "9", "4"], "time": [918, 1304, 1904, 2634, 3252, 3535, 3835]}, "edge": {"target": [], "time": []}}, "mouseout": {"state": {"target": ["10", "9", "0", "5", "7", "8", "12", "9", "4", "1"], "time": [386, 587, 1171, 1854, 2251, 2952, 3401, 3635, 4237, 7088]}, "edge": {"target": [], "time": []}}}, "displayed_time": "8.86", "trialTime": 9522, "trial_type": "mouselab-mdp", "trial_index": 50, "time_elapsed": 982972, "internal_node_id": "0.0-4.0-3.0-10.0"}}, {"uniqueid": "w37093396:a89503903", "current_trial": 51, "dateTime": 1664464577416, "trialdata": {"revealed_states": [], "num_clicks_accrued": [0, 0, 0, 0, 0, 0, 0, 0, 0, 0, 0, 0, 0], "stateRewards": ["", 4, -8, -48, -24, 2, -8, -48, 48, -4, 8, 48, -48], "withholdReward": true, "trial_id": "mdp_605757196263", "block": "test2", "trialIndex": 43, "score": 56.75, "costs": -0.25, "simulationMode": [null, null, null], "rewards": [-4, 8, 48], "path": ["0", "0", "9", "10", "11"], "rt": [1679, 90, 59], "actions": ["left", "left", "up"], "actionTimes": [2634, 3218, 3770], "queries": {"click": {"state": {"target": ["11"], "time": [1623]}, "edge": {"target": [], "time": []}}, "mouseover": {"state": {"target": ["9", "11"], "time": [1192, 1492]}, "edge": {"target": [], "time": []}}, "mouseout": {"state": {"target": ["0", "9", "11", "10"], "time": [1159, 1209, 1789, 4659]}, "edge": {"target": [], "time": []}}}, "displayed_time": "9.96", "trialTime": 10759, "trial_type": "mouselab-mdp", "trial_index": 51, "time_elapsed": 993839, "internal_node_id": "0.0-4.0-3.0-11.0"}}, {"uniqueid": "w37093396:a89503903", "current_trial": 52, "dateTime": 1664464587331, "trialdata": {"revealed_states": [], "num_clicks_accrued": [0, 0, 0, 0, 0, 0, 0, 0, 0, 0, 0, 0, 0], "stateRewards": ["", 4, 4, 48, -48, -2, 4, 48, -48, -4, 4, -24, -24], "withholdReward": true, "trial_id": "mdp_753324812898", "block": "test2", "trialIndex": 44, "score": 60.5, "costs": -0.5, "simulationMode": [null, null, null], "rewards": [4, 4, 48], "path": ["0", "0", "1", "2", "3"], "rt": [3102, 30, 42], "actions": ["up", "up", "right"], "actionTimes": [4473, 5001, 5560], "queries": {"click": {"state": {"target": ["11", "3"], "time": [2057, 3407]}, "edge": {"target": [], "time": []}}, "mouseover": {"state": {"target": ["12", "10", "11", "0", "3"], "time": [1649, 1700, 1984, 2983, 3202]}, "edge": {"target": [], "time": []}}, "mouseout": {"state": {"target": ["0", "12", "10", "11", "0", "3", "5"], "time": [1466, 1666, 1717, 2267, 3000, 3516, 6469]}, "edge": {"target": [], "time": []}}}, "displayed_time": "9.37", "trialTime": 9817, "trial_type": "mouselab-mdp", "trial_index": 52, "time_elapsed": 1003754, "internal_node_id": "0.0-4.0-3.0-12.0"}}, {"uniqueid": "w37093396:a89503903", "current_trial": 53, "dateTime": 1664464597050, "trialdata": {"revealed_states": [], "num_clicks_accrued": [0, 0, 0, 0, 0, 0, 0, 0, 0, 0, 0, 0, 0], "stateRewards": ["", 4, -8, 24, 48, 2, 4, 48, 48, 2, 8, -48, -48], "withholdReward": true, "trial_id": "mdp_783704746330", "block": "test2", "trialIndex": 45, "score": 58.75, "costs": -0.25, "simulationMode": [null, null, null], "rewards": [2, 4, 48], "path": ["0", "0", "5", "6", "8"], "rt": [1583, 343, 118], "actions": ["right", "right", "down"], "actionTimes": [2526, 3375, 4030], "queries": {"click": {"state": {"target": ["8"], "time": [1514]}, "edge": {"target": [], "time": []}}, "mouseover": {"state": {"target": ["8", "8"], "time": [1176, 1427]}, "edge": {"target": [], "time": []}}, "mouseout": {"state": {"target": ["0", "8", "8"], "time": [1059, 1209, 1643]}, "edge": {"target": [], "time": []}}}, "displayed_time": "8.94", "trialTime": 9629, "trial_type": "mouselab-mdp", "trial_index": 53, "time_elapsed": 1013473, "internal_node_id": "0.0-4.0-3.0-13.0"}}, {"uniqueid": "w37093396:a89503903", "current_trial": 54, "dateTime": 1664464608830, "trialdata": {"revealed_states": [], "num_clicks_accrued": [0, 0, 0, 0, 0, 0, 0, 0, 0, 0, 0, 0, 0], "stateRewards": ["", 2, -4, -48, 24, -4, 4, 24, 24, 2, -8, -24, -48], "withholdReward": false, "trial_id": "mdp_807654778305", "block": "test2", "trialIndex": 46, "score": 25.75, "costs": -1.25, "simulationMode": [null, null, null], "rewards": [2, -4, 24], "path": ["0", "0", "1", "2", "4"], "rt": [7661, 86, 94], "actions": ["up", "up", "left"], "actionTimes": [8396, 8980, 9572], "queries": {"click": {"state": {"target": ["11", "12", "4", "3", "2"], "time": [1859, 2683, 3691, 4267, 6401]}, "edge": {"target": [], "time": []}}, "mouseover": {"state": {"target": ["0", "12", "10", "11", "10", "12", "12", "4", "1", "3", "7", "2", "2", "6", "6"], "time": [755, 1424, 1541, 1673, 2291, 2341, 2541, 3574, 3855, 4125, 5091, 5892, 6275, 6555, 7089]}, "edge": {"target": [], "time": []}}, "mouseout": {"state": {"target": ["0", "0", "12", "10", "11", "10", "12", "12", "4", "1", "3", "7", "2", "2", "6", "6", "6"], "time": [590, 788, 1458, 1624, 2074, 2308, 2408, 2821, 3838, 3888, 4388, 5641, 6156, 6505, 6572, 7172, 10823]}, "edge": {"target": [], "time": []}}}, "displayed_time": "10.09", "trialTime": 11671, "trial_type": "mouselab-mdp", "trial_index": 54, "time_elapsed": 1025253, "internal_node_id": "0.0-4.0-3.0-14.0"}}, {"uniqueid": "w37093396:a89503903", "current_trial": 55, "dateTime": 1664464618994, "trialdata": {"revealed_states": [], "num_clicks_accrued": [0, 0, 0, 0, 0, 0, 0, 0, 0, 0, 0, 0, 0], "stateRewards": ["", 2, 4, 48, -48, 2, -4, 48, 24, -2, -8, -24, 48], "withholdReward": true, "trial_id": "mdp_962424406744", "block": "test2", "trialIndex": 47, "score": 50.75, "costs": -0.25, "simulationMode": [null, null, null], "rewards": [2, -4, 48], "path": ["0", "0", "5", "6", "7"], "rt": [3043, 107, 113], "actions": ["right", "right", "up"], "actionTimes": [3782, 4406, 5014], "queries": {"click": {"state": {"target": ["7"], "time": [2698]}, "edge": {"target": [], "time": []}}, "mouseover": {"state": {"target": ["0", "8", "6", "7"], "time": [781, 1201, 2318, 2518]}, "edge": {"target": [], "time": []}}, "mouseout": {"state": {"target": ["8", "0", "0", "8", "6", "7"], "time": [400, 584, 833, 1650, 2468, 2848]}, "edge": {"target": [], "time": []}}}, "displayed_time": "8.74", "trialTime": 10061, "trial_type": "mouselab-mdp", "trial_index": 55, "time_elapsed": 1035417, "internal_node_id": "0.0-4.0-3.0-15.0"}}, {"uniqueid": "w37093396:a89503903", "current_trial": 56, "dateTime": 1664464629434, "trialdata": {"revealed_states": [], "num_clicks_accrued": [0, 0, 0, 0, 0, 0, 0, 0, 0, 0, 0, 0, 0], "stateRewards": ["", 2, 4, -48, -48, 2, 4, 48, -24, -2, 8, 48, -48], "withholdReward": true, "trial_id": "mdp_258528916140", "block": "test2", "trialIndex": 48, "score": 58.75, "costs": -0.25, "simulationMode": [null, null, null], "rewards": [-2, 8, 48], "path": ["0", "0", "9", "10", "11"], "rt": [1730, 27, 16], "actions": ["left", "left", "up"], "actionTimes": [2488, 3016, 3551], "queries": {"click": {"state": {"target": ["11"], "time": [1434]}, "edge": {"target": [], "time": []}}, "mouseover": {"state": {"target": ["9", "10", "11"], "time": [1016, 1253, 1318]}, "edge": {"target": [], "time": []}}, "mouseout": {"state": {"target": ["0", "9", "10", "11"], "time": [983, 1068, 1302, 1615]}, "edge": {"target": [], "time": []}}}, "displayed_time": "9.76", "trialTime": 10335, "trial_type": "mouselab-mdp", "trial_index": 56, "time_elapsed": 1045857, "internal_node_id": "0.0-4.0-3.0-16.0"}}, {"uniqueid": "w37093396:a89503903", "current_trial": 57, "dateTime": 1664464640290, "trialdata": {"revealed_states": [], "num_clicks_accrued": [0, 0, 0, 0, 0, 0, 0, 0, 0, 0, 0, 0, 0], "stateRewards": ["", -2, -8, 48, 24, 4, -8, 24, 48, 4, -4, 24, -48], "withholdReward": true, "trial_id": "mdp_871576155740", "block": "test2", "trialIndex": 49, "score": 42.75, "costs": -0.25, "simulationMode": [null, null, null], "rewards": [-2, -8, 48], "path": ["0", "0", "1", "2", "3"], "rt": [1960, 84, 5], "actions": ["up", "up", "right"], "actionTimes": [2826, 3410, 3914], "queries": {"click": {"state": {"target": ["3"], "time": [1658]}, "edge": {"target": [], "time": []}}, "mouseover": {"state": {"target": ["1", "3"], "time": [1122, 1404]}, "edge": {"target": [], "time": []}}, "mouseout": {"state": {"target": ["0", "1", "3"], "time": [1040, 1222, 1889]}, "edge": {"target": [], "time": []}}}, "displayed_time": "9.87", "trialTime": 10745, "trial_type": "mouselab-mdp", "trial_index": 57, "time_elapsed": 1056713, "internal_node_id": "0.0-4.0-3.0-17.0"}}, {"uniqueid": "w37093396:a89503903", "current_trial": 58, "dateTime": 1664464650874, "trialdata": {"revealed_states": [], "num_clicks_accrued": [0, 0, 0, 0, 0, 0, 0, 0, 0, 0, 0, 0, 0], "stateRewards": ["", -4, 8, 24, -24, -2, 4, -24, 48, -2, 8, -48, -24], "withholdReward": true, "trial_id": "mdp_799359103169", "block": "test2", "trialIndex": 50, "score": 54.5, "costs": -0.5, "simulationMode": [null, null, null], "rewards": [-2, 4, 48], "path": ["0", "0", "5", "6", "8"], "rt": [4057, 287, 127], "actions": ["right", "right", "down"], "actionTimes": [5895, 6679, 7304], "queries": {"click": {"state": {"target": ["8", "6"], "time": [2630, 3851]}, "edge": {"target": [], "time": []}}, "mouseover": {"state": {"target": ["0", "5", "8", "8", "6"], "time": [2207, 2240, 2323, 2540, 3723]}, "edge": {"target": [], "time": []}}, "mouseout": {"state": {"target": ["0", "0", "5", "8", "8", "8", "6"], "time": [1688, 2224, 2273, 2390, 2787, 3690, 4003]}, "edge": {"target": [], "time": []}}}, "displayed_time": "9.84", "trialTime": 10479, "trial_type": "mouselab-mdp", "trial_index": 58, "time_elapsed": 1067297, "internal_node_id": "0.0-4.0-3.0-18.0"}}, {"uniqueid": "w37093396:a89503903", "current_trial": 59, "dateTime": 1664464661474, "trialdata": {"revealed_states": [], "num_clicks_accrued": [0, 0, 0, 0, 0, 0, 0, 0, 0, 0, 0, 0, 0], "stateRewards": ["", -2, 8, 48, -24, 2, 4, -48, -24, -4, 8, -48, -48], "withholdReward": true, "trial_id": "mdp_539167561933", "block": "test2", "trialIndex": 51, "score": 58, "costs": -1, "simulationMode": [null, null, null], "rewards": [-2, 8, 48], "path": ["0", "0", "1", "2", "3"], "rt": [6521, 181, 48], "actions": ["up", "up", "right"], "actionTimes": [7342, 8031, 8582], "queries": {"click": {"state": {"target": ["11", "12", "4", "3"], "time": [2284, 2972, 3722, 6094]}, "edge": {"target": [], "time": []}}, "mouseover": {"state": {"target": ["10", "10", "11", "12", "4", "2", "3"], "time": [1380, 1597, 2231, 2814, 3680, 3947, 5697]}, "edge": {"target": [], "time": []}}, "mouseout": {"state": {"target": ["0", "10", "10", "11", "12", "4", "2", "3", "5"], "time": [930, 1412, 2131, 2411, 3127, 3877, 3980, 6227, 9947]}, "edge": {"target": [], "time": []}}}, "displayed_time": "9.82", "trialTime": 10486, "trial_type": "mouselab-mdp", "trial_index": 59, "time_elapsed": 1077896, "internal_node_id": "0.0-4.0-3.0-19.0"}}, {"uniqueid": "w37093396:a89503903", "current_trial": 60, "dateTime": 1664464671986, "trialdata": {"revealed_states": [], "num_clicks_accrued": [0, 0, 0, 0, 0, 0, 0, 0, 0, 0, 0, 0, 0], "stateRewards": ["", 2, 8, 24, -48, 4, 8, 24, 48, 2, -8, -24, 24], "withholdReward": false, "trial_id": "mdp_939899431582", "block": "test2", "trialIndex": 52, "score": 64.75, "costs": -0.25, "simulationMode": [null, null, null], "rewards": [4, 8, 48], "path": ["0", "0", "5", "6", "8"], "rt": [1384, 170, 143], "actions": ["right", "right", "down"], "actionTimes": [2212, 2884, 3525], "queries": {"click": {"state": {"target": ["8"], "time": [1271]}, "edge": {"target": [], "time": []}}, "mouseover": {"state": {"target": ["8"], "time": [1059]}, "edge": {"target": [], "time": []}}, "mouseout": {"state": {"target": ["0", "8"], "time": [942, 4678]}, "edge": {"target": [], "time": []}}}, "displayed_time": "8.83", "trialTime": 10412, "trial_type": "mouselab-mdp", "trial_index": 60, "time_elapsed": 1088408, "internal_node_id": "0.0-4.0-3.0-20.0"}}, {"uniqueid": "w37093396:a89503903", "current_trial": 61, "dateTime": 1664464684032, "trialdata": {"revealed_states": [], "num_clicks_accrued": [0, 0, 0, 0, 0, 0, 0, 0, 0, 0, 0, 0, 0], "stateRewards": ["", 4, -8, 48, -24, -4, 4, 24, 24, -2, -4, 24, 24], "withholdReward": false, "trial_id": "mdp_542168715839", "block": "test2", "trialIndex": 53, "score": 22.25, "costs": -0.75, "simulationMode": [null, null, null], "rewards": [-2, -4, 24], "path": ["0", "0", "9", "10", "12"], "rt": [7695, 160, 115], "actions": ["left", "left", "down"], "actionTimes": [9195, 9859, 10467], "queries": {"click": {"state": {"target": ["11", "12", "10"], "time": [1967, 2772, 8259]}, "edge": {"target": [], "time": []}}, "mouseover": {"state": {"target": ["9", "10", "11", "12", "10"], "time": [1579, 1631, 1864, 2665, 8181]}, "edge": {"target": [], "time": []}}, "mouseout": {"state": {"target": ["0", "9", "10", "11", "12", "12", "10", "12"], "time": [1562, 1615, 1664, 2096, 2896, 4732, 8396, 11299]}, "edge": {"target": [], "time": []}}}, "displayed_time": "10.97", "trialTime": 11944, "trial_type": "mouselab-mdp", "trial_index": 61, "time_elapsed": 1100455, "internal_node_id": "0.0-4.0-3.0-21.0"}}, {"uniqueid": "w37093396:a89503903", "current_trial": 62, "dateTime": 1664464693002, "trialdata": {"revealed_states": [], "num_clicks_accrued": [0, 0, 0, 0, 0, 0, 0, 0, 0, 0, 0, 0, 0], "stateRewards": ["", -2, -4, -48, -48, 4, -4, 48, 24, 4, 4, 48, 48], "withholdReward": true, "trial_id": "mdp_950960813932", "block": "test2", "trialIndex": 54, "score": 52.5, "costs": -0.5, "simulationMode": [null, null, null], "rewards": [4, -4, 48], "path": ["0", "0", "5", "6", "7"], "rt": [4256, 617, 166], "actions": ["right", "right", "up"], "actionTimes": [5506, 6634, 7298], "queries": {"click": {"state": {"target": ["3", "7"], "time": [2613, 4348]}, "edge": {"target": [], "time": []}}, "mouseover": {"state": {"target": ["3", "7"], "time": [2484, 4267]}, "edge": {"target": [], "time": []}}, "mouseout": {"state": {"target": ["0", "3", "7", "6"], "time": [1297, 2850, 4514, 8083]}, "edge": {"target": [], "time": []}}}, "displayed_time": "8.25", "trialTime": 8866, "trial_type": "mouselab-mdp", "trial_index": 62, "time_elapsed": 1109424, "internal_node_id": "0.0-4.0-3.0-22.0"}}, {"uniqueid": "w37093396:a89503903", "current_trial": 63, "dateTime": 1664464702841, "trialdata": {"revealed_states": [], "num_clicks_accrued": [0, 0, 0, 0, 0, 0, 0, 0, 0, 0, 0, 0, 0], "stateRewards": ["", 2, 4, 48, -48, 2, 8, -24, 48, 4, 8, 48, -48], "withholdReward": true, "trial_id": "mdp_110142964375", "block": "test2", "trialIndex": 55, "score": 64.75, "costs": -0.25, "simulationMode": [null, null, null], "rewards": [4, 8, 48], "path": ["0", "0", "9", "10", "11"], "rt": [1359, 49, 28], "actions": ["left", "left", "up"], "actionTimes": [2482, 3034, 3594], "queries": {"click": {"state": {"target": ["11"], "time": [1607]}, "edge": {"target": [], "time": []}}, "mouseover": {"state": {"target": ["9", "11", "10"], "time": [1313, 1529, 1763]}, "edge": {"target": [], "time": []}}, "mouseout": {"state": {"target": ["0", "9", "11", "10"], "time": [1263, 1413, 1713, 1779]}, "edge": {"target": [], "time": []}}}, "displayed_time": "9.13", "trialTime": 9738, "trial_type": "mouselab-mdp", "trial_index": 63, "time_elapsed": 1119264, "internal_node_id": "0.0-4.0-3.0-23.0"}}, {"uniqueid": "w37093396:a89503903", "current_trial": 64, "dateTime": 1664464717050, "trialdata": {"revealed_states": [], "num_clicks_accrued": [0, 0, 0, 0, 0, 0, 0, 0, 0, 0, 0, 0, 0], "stateRewards": ["", -4, -4, 24, -48, 2, 4, -24, -48, -2, -8, -24, 24], "withholdReward": true, "trial_id": "mdp_565569130486", "block": "test2", "trialIndex": 56, "score": 19, "costs": -2, "simulationMode": [null, null, null], "rewards": [-4, -4, 24], "path": ["0", "0", "1", "2", "3"], "rt": [11173, 22, 15], "actions": ["up", "up", "right"], "actionTimes": [11836, 12359, 12883], "queries": {"click": {"state": {"target": ["3", "4", "7", "8", "12", "11", "2", "10"], "time": [1107, 2259, 5208, 5876, 6890, 7404, 9595, 10513]}, "edge": {"target": [], "time": []}}, "mouseover": {"state": {"target": ["3", "1", "4", "7", "5", "8", "12", "10", "11", "9", "1", "1", "2", "9", "10", "1"], "time": [1037, 1770, 2204, 5137, 5367, 5802, 6620, 7204, 7287, 8302, 8354, 8968, 9484, 9869, 10285, 11221]}, "edge": {"target": [], "time": []}}, "mouseout": {"state": {"target": ["0", "3", "1", "4", "7", "5", "8", "12", "10", "11", "12", "9", "1", "1", "2", "9", "12", "12", "10", "1"], "time": [771, 1267, 2103, 2367, 5334, 5737, 6050, 7170, 7253, 7668, 8270, 8319, 8386, 9451, 9769, 9935, 10086, 10253, 11170, 11254]}, "edge": {"target": [], "time": []}}}, "displayed_time": "13.40", "trialTime": 14100, "trial_type": "mouselab-mdp", "trial_index": 64, "time_elapsed": 1133472, "internal_node_id": "0.0-4.0-3.0-24.0"}}, {"uniqueid": "w37093396:a89503903", "current_trial": 65, "dateTime": 1664464726368, "trialdata": {"revealed_states": [], "num_clicks_accrued": [0, 0, 0, 0, 0, 0, 0, 0, 0, 0, 0, 0, 0], "stateRewards": ["", -2, -8, 48, -24, 2, -4, -48, -24, -2, -4, -48, 48], "withholdReward": true, "trial_id": "mdp_143798438087", "block": "test2", "trialIndex": 57, "score": 46, "costs": -1, "simulationMode": [null, null, null], "rewards": [-2, -4, 48], "path": ["0", "0", "9", "10", "12"], "rt": [6390, 28, 31], "actions": ["left", "left", "down"], "actionTimes": [6950, 7470, 8006], "queries": {"click": {"state": {"target": ["7", "8", "11", "12"], "time": [3333, 3996, 5307, 5863]}, "edge": {"target": [], "time": []}}, "mouseover": {"state": {"target": ["5", "7", "6", "8", "0", "9", "5", "7", "5", "8", "10", "10", "11", "12"], "time": [1104, 1254, 1738, 1805, 2190, 2306, 2973, 3238, 3503, 3956, 4721, 4987, 5188, 5823]}, "edge": {"target": [], "time": []}}, "mouseout": {"state": {"target": ["0", "5", "7", "6", "8", "0", "9", "5", "7", "5", "8", "10", "10", "11", "12"], "time": [871, 1138, 1721, 1771, 1923, 2223, 2587, 3007, 3470, 3587, 4103, 4755, 5156, 5387, 6003]}, "edge": {"target": [], "time": []}}}, "displayed_time": "8.56", "trialTime": 9203, "trial_type": "mouselab-mdp", "trial_index": 65, "time_elapsed": 1142790, "internal_node_id": "0.0-4.0-3.0-25.0"}}, {"uniqueid": "w37093396:a89503903", "current_trial": 66, "dateTime": 1664464745241, "trialdata": {"revealed_states": [], "num_clicks_accrued": [0, 0, 0, 0, 0, 0, 0, 0, 0, 0, 0, 0, 0], "stateRewards": ["", 2, 8, -48, -24, 2, -4, -48, 24, 2, -4, -24, -24], "withholdReward": true, "trial_id": "mdp_954659099093", "block": "test2", "trialIndex": 58, "score": 24.5, "costs": -2.5, "simulationMode": [null, null, null], "rewards": [2, -4, 24], "path": ["0", "0", "5", "6", "8"], "rt": [14657, 317, 175], "actions": ["right", "right", "down"], "actionTimes": [15323, 16139, 16811], "queries": {"click": {"state": {"target": ["3", "4", "7", "8", "12", "11", "6", "5", "2", "9"], "time": [1707, 2364, 3293, 3803, 4610, 5103, 7366, 10174, 11758, 14397]}, "edge": {"target": [], "time": []}}, "mouseover": {"state": {"target": ["4", "2", "3", "3", "4", "1", "6", "7", "6", "8", "12", "10", "11", "10", "6", "5", "5", "2", "1", "9", "10", "10", "9", "0"], "time": [1199, 1383, 1419, 1616, 2299, 2563, 3131, 3231, 3430, 3782, 4450, 4966, 5014, 5247, 7230, 9784, 10083, 11650, 12064, 13167, 13217, 13632, 13917, 14547]}, "edge": {"target": [], "time": []}}, "mouseout": {"state": {"target": ["0", "4", "2", "3", "3", "4", "1", "6", "7", "6", "8", "12", "12", "10", "11", "10", "6", "5", "5", "2", "1", "9", "10", "10", "9", "0"], "time": [984, 1350, 1416, 1435, 1880, 2480, 2984, 3182, 3397, 3447, 3913, 4780, 4949, 4982, 5230, 5264, 9767, 9815, 11299, 11930, 13116, 13200, 13234, 13700, 14530, 14564]}, "edge": {"target": [], "time": []}}}, "displayed_time": "17.30", "trialTime": 18771, "trial_type": "mouselab-mdp", "trial_index": 66, "time_elapsed": 1161664, "internal_node_id": "0.0-4.0-3.0-26.0"}}, {"uniqueid": "w37093396:a89503903", "current_trial": 67, "dateTime": 1664464755002, "trialdata": {"revealed_states": [], "num_clicks_accrued": [0, 0, 0, 0, 0, 0, 0, 0, 0, 0, 0, 0, 0], "stateRewards": ["", 2, -8, 48, -24, 2, 8, 24, -24, 4, -4, -48, -48], "withholdReward": false, "trial_id": "mdp_130946197263", "block": "test2", "trialIndex": 59, "score": 46.75, "costs": -0.25, "simulationMode": [null, null, null], "rewards": [2, -8, 48], "path": ["0", "0", "1", "2", "3"], "rt": [2015, 90, 61], "actions": ["up", "up", "right"], "actionTimes": [3157, 3749, 4301], "queries": {"click": {"state": {"target": ["3"], "time": [2130]}, "edge": {"target": [], "time": []}}, "mouseover": {"state": {"target": ["0", "3"], "time": [1203, 2040]}, "edge": {"target": [], "time": []}}, "mouseout": {"state": {"target": ["0", "0", "3"], "time": [989, 1439, 2236]}, "edge": {"target": [], "time": []}}}, "displayed_time": "9.14", "trialTime": 9653, "trial_type": "mouselab-mdp", "trial_index": 67, "time_elapsed": 1171425, "internal_node_id": "0.0-4.0-3.0-27.0"}}, {"uniqueid": "w37093396:a89503903", "current_trial": 68, "dateTime": 1664464765985, "trialdata": {"revealed_states": [], "num_clicks_accrued": [0, 0, 0, 0, 0, 0, 0, 0, 0, 0, 0, 0, 0], "stateRewards": ["", 4, 4, 24, 24, 4, -4, 48, 48, 4, 4, 24, -48], "withholdReward": true, "trial_id": "mdp_454251689008", "block": "test2", "trialIndex": 60, "score": 52.75, "costs": -0.25, "simulationMode": [null, null, null], "rewards": [4, -4, 48], "path": ["0", "0", "5", "6", "8"], "rt": [1650, 67, 43], "actions": ["right", "right", "down"], "actionTimes": [3025, 3595, 4139], "queries": {"click": {"state": {"target": ["8"], "time": [2079]}, "edge": {"target": [], "time": []}}, "mouseover": {"state": {"target": ["0", "5", "8", "8"], "time": [1527, 1762, 1808, 1976]}, "edge": {"target": [], "time": []}}, "mouseout": {"state": {"target": ["0", "5", "8", "8"], "time": [1743, 1791, 1858, 2223]}, "edge": {"target": [], "time": []}}}, "displayed_time": "10.38", "trialTime": 10890, "trial_type": "mouselab-mdp", "trial_index": 68, "time_elapsed": 1182408, "internal_node_id": "0.0-4.0-3.0-28.0"}}, {"uniqueid": "w37093396:a89503903", "current_trial": 69, "dateTime": 1664464776593, "trialdata": {"revealed_states": [], "num_clicks_accrued": [0, 0, 0, 0, 0, 0, 0, 0, 0, 0, 0, 0, 0], "stateRewards": ["", 2, -4, 24, 24, 2, 4, 24, 24, -4, 8, 24, 48], "withholdReward": true, "trial_id": "mdp_268430387178", "block": "test2", "trialIndex": 61, "score": 56.25, "costs": -0.75, "simulationMode": [null, null, null], "rewards": [-4, 8, 48], "path": ["0", "0", "9", "10", "12"], "rt": [3741, 569, 131], "actions": ["left", "left", "down"], "actionTimes": [4407, 5479, 6119], "queries": {"click": {"state": {"target": ["11", "12", "10"], "time": [1013, 1952, 3556]}, "edge": {"target": [], "time": []}}, "mouseover": {"state": {"target": ["9", "11", "9", "12", "10"], "time": [820, 870, 1253, 1838, 3438]}, "edge": {"target": [], "time": []}}, "mouseout": {"state": {"target": ["0", "9", "11", "9", "12", "10"], "time": [787, 837, 1187, 1738, 2107, 3670]}, "edge": {"target": [], "time": []}}}, "displayed_time": "9.67", "trialTime": 10494, "trial_type": "mouselab-mdp", "trial_index": 69, "time_elapsed": 1193016, "internal_node_id": "0.0-4.0-3.0-29.0"}}, {"uniqueid": "w37093396:a89503903", "current_trial": 70, "dateTime": 1664464778283, "trialdata": {"rt": 1678, "stimulus": "<h1> End of block! </h1>\n\nYou have reached the end of the block 2/4. If you need a short break, feel free to take one now before moving on.\n\n<br><br>\nIn the next block, you will complete another 30 rounds of this game.\n\n<br><br>\n<div style='text-align: center;'>Press <code>space</code> to begin.</div>\n<br><br>\n<div style='text-align: center;'>(If the experiment doesn't continue, try clicking on the text and then pressing <code>space</code>.)</div>", "response": " ", "trial_id": "mdp_ready_3", "trial_type": "html-keyboard-response", "trial_index": 70, "time_elapsed": 1194706, "internal_node_id": "0.0-4.0-4.0"}}, {"uniqueid": "w37093396:a89503903", "current_trial": 71, "dateTime": 1664464792191, "trialdata": {"revealed_states": [], "num_clicks_accrued": [0, 0, 0, 0, 0, 0, 0, 0, 0, 0, 0, 0, 0], "stateRewards": ["", 2, -8, 48, -24, 2, 8, 24, -24, 4, -4, -48, -48], "withholdReward": true, "trial_id": "mdp_130946197263", "block": "test3", "trialIndex": 62, "score": 46.5, "costs": -0.5, "simulationMode": [null, null, null], "rewards": [2, -8, 48], "path": ["0", "0", "1", "2", "3"], "rt": [3381, 41, 13], "actions": ["up", "up", "right"], "actionTimes": [4331, 4867, 5373], "queries": {"click": {"state": {"target": ["3", "2"], "time": [2104, 3411]}, "edge": {"target": [], "time": []}}, "mouseover": {"state": {"target": ["0", "4", "3", "2"], "time": [1020, 1687, 1956, 3290]}, "edge": {"target": [], "time": []}}, "mouseout": {"state": {"target": ["0", "0", "4", "3", "2", "7", "6"], "time": [838, 1307, 1823, 2237, 3520, 7723, 7823]}, "edge": {"target": [], "time": []}}}, "displayed_time": "8.95", "trialTime": 13792, "trial_type": "mouselab-mdp", "trial_index": 71, "time_elapsed": 1208614, "internal_node_id": "0.0-4.0-5.0-0.0"}}, {"uniqueid": "w37093396:a89503903", "current_trial": 72, "dateTime": 1664464802710, "trialdata": {"revealed_states": [], "num_clicks_accrued": [0, 0, 0, 0, 0, 0, 0, 0, 0, 0, 0, 0, 0], "stateRewards": ["", 2, 4, -48, -24, 2, 8, 24, 48, -2, 4, 48, -48], "withholdReward": true, "trial_id": "mdp_551894842204", "block": "test3", "trialIndex": 63, "score": 62.5, "costs": -0.5, "simulationMode": [null, null, null], "rewards": [2, 8, 48], "path": ["0", "0", "5", "6", "8"], "rt": [4041, 67, 2518], "actions": ["right", "right", "down"], "actionTimes": [4989, 5589, 8613], "queries": {"click": {"state": {"target": ["8", "5"], "time": [1442, 2548]}, "edge": {"target": [], "time": []}}, "mouseover": {"state": {"target": ["8", "5", "6"], "time": [1270, 2521, 3205]}, "edge": {"target": [], "time": []}}, "mouseout": {"state": {"target": ["0", "8", "8", "5", "6"], "time": [1087, 1652, 2338, 2772, 9671]}, "edge": {"target": [], "time": []}}}, "displayed_time": "9.95", "trialTime": 10409, "trial_type": "mouselab-mdp", "trial_index": 72, "time_elapsed": 1219133, "internal_node_id": "0.0-4.0-5.0-1.0"}}, {"uniqueid": "w37093396:a89503903", "current_trial": 73, "dateTime": 1664464812089, "trialdata": {"revealed_states": [], "num_clicks_accrued": [0, 0, 0, 0, 0, 0, 0, 0, 0, 0, 0, 0, 0], "stateRewards": ["", -4, -4, 24, -24, 4, 4, 24, 48, 4, -4, 48, -48], "withholdReward": false, "trial_id": "mdp_522385334882", "block": "test3", "trialIndex": 64, "score": 52.25, "costs": -0.75, "simulationMode": [null, null, null], "rewards": [4, -4, 48], "path": ["0", "0", "9", "10", "11"], "rt": [3111, 22, 7], "actions": ["left", "left", "up"], "actionTimes": [3959, 4487, 4990], "queries": {"click": {"state": {"target": ["11", "10", "9"], "time": [1453, 2483, 3053]}, "edge": {"target": [], "time": []}}, "mouseover": {"state": {"target": ["9", "11", "9", "10", "9"], "time": [1230, 1430, 1677, 2378, 2996]}, "edge": {"target": [], "time": []}}, "mouseout": {"state": {"target": ["0", "9", "11", "9", "10", "9"], "time": [946, 1280, 1544, 2278, 2610, 3144]}, "edge": {"target": [], "time": []}}}, "displayed_time": "8.85", "trialTime": 9263, "trial_type": "mouselab-mdp", "trial_index": 73, "time_elapsed": 1228512, "internal_node_id": "0.0-4.0-5.0-2.0"}}, {"uniqueid": "w37093396:a89503903", "current_trial": 74, "dateTime": 1664464822713, "trialdata": {"revealed_states": [], "num_clicks_accrued": [0, 0, 0, 0, 0, 0, 0, 0, 0, 0, 0, 0, 0], "stateRewards": ["", -2, 8, -48, 48, 4, -8, -48, 48, 4, -4, -24, 48], "withholdReward": false, "trial_id": "mdp_144739116828", "block": "test3", "trialIndex": 65, "score": 58.25, "costs": -0.75, "simulationMode": [null, null, null], "rewards": [-2, 8, 48], "path": ["0", "0", "1", "2", "4"], "rt": [4861, 10, 113], "actions": ["up", "up", "left"], "actionTimes": [5631, 6134, 6766], "queries": {"click": {"state": {"target": ["3", "4", "2"], "time": [1111, 3270, 4648]}, "edge": {"target": [], "time": []}}, "mouseover": {"state": {"target": ["3", "7", "1", "4", "1", "2", "1"], "time": [919, 1620, 2871, 3170, 4437, 4571, 4851]}, "edge": {"target": [], "time": []}}, "mouseout": {"state": {"target": ["5", "5", "3", "7", "1", "4", "1", "2", "1"], "time": [86, 570, 1234, 1654, 2889, 3401, 4537, 4801, 7789]}, "edge": {"target": [], "time": []}}}, "displayed_time": "9.77", "trialTime": 10494, "trial_type": "mouselab-mdp", "trial_index": 74, "time_elapsed": 1239135, "internal_node_id": "0.0-4.0-5.0-3.0"}}, {"uniqueid": "w37093396:a89503903", "current_trial": 75, "dateTime": 1664464834982, "trialdata": {"revealed_states": [], "num_clicks_accrued": [0, 0, 0, 0, 0, 0, 0, 0, 0, 0, 0, 0, 0], "stateRewards": ["", 4, 4, 48, -48, 4, 4, -48, 24, 2, 8, 24, -48], "withholdReward": true, "trial_id": "mdp_291674656283", "block": "test3", "trialIndex": 66, "score": 59.75, "costs": -1.25, "simulationMode": [null, null, null], "rewards": [4, 4, 48], "path": ["0", "0", "1", "2", "3"], "rt": [8117, 502, 78], "actions": ["up", "up", "right"], "actionTimes": [8922, 9930, 10506], "queries": {"click": {"state": {"target": ["8", "7", "11", "12", "3"], "time": [1356, 2187, 3597, 4559, 7771]}, "edge": {"target": [], "time": []}}, "mouseover": {"state": {"target": ["8", "8", "7", "6", "11", "9", "12", "1", "2", "2", "3", "3"], "time": [1091, 1272, 2109, 2323, 3424, 3756, 4526, 6724, 6741, 6974, 7307, 7573]}, "edge": {"target": [], "time": []}}, "mouseout": {"state": {"target": ["0", "8", "8", "7", "6", "11", "9", "12", "1", "2", "2", "3", "3"], "time": [925, 1108, 1456, 2306, 2356, 3739, 3823, 4639, 6740, 6773, 7043, 7424, 7957]}, "edge": {"target": [], "time": []}}}, "displayed_time": "11.01", "trialTime": 12151, "trial_type": "mouselab-mdp", "trial_index": 75, "time_elapsed": 1251404, "internal_node_id": "0.0-4.0-5.0-4.0"}}, {"uniqueid": "w37093396:a89503903", "current_trial": 76, "dateTime": 1664464863257, "trialdata": {"revealed_states": [], "num_clicks_accrued": [0, 0, 0, 0, 0, 0, 0, 0, 0, 0, 0, 0, 0], "stateRewards": ["", -2, -4, -24, 24, -2, 4, -24, -24, -4, 4, 24, -24], "withholdReward": false, "trial_id": "mdp_999419261719", "block": "test3", "trialIndex": 67, "score": 26.5, "costs": -2.5, "simulationMode": [null, null, null], "rewards": [-4, 4, 24], "path": ["0", "0", "9", "10", "11"], "rt": [24060, 40, 24], "actions": ["left", "left", "up"], "actionTimes": [25043, 25580, 26101], "queries": {"click": {"state": {"target": ["12", "8", "7", "11", "10", "9", "4", "3", "2", "1"], "time": [1870, 3545, 4075, 4942, 6177, 6746, 7635, 8096, 9755, 10363]}, "edge": {"target": [], "time": []}}, "mouseover": {"state": {"target": ["9", "10", "12", "10", "5", "6", "7", "8", "6", "7", "9", "11", "9", "9", "10", "9", "0", "4", "1", "1", "3", "5", "0", "5", "1", "2", "2", "1", "1", "0", "0"], "time": [1474, 1623, 1672, 2505, 2688, 2721, 3058, 3439, 3957, 4021, 4689, 4822, 5087, 5857, 6105, 6707, 7204, 7572, 7806, 7940, 8021, 8287, 8521, 9258, 9322, 9405, 9640, 9892, 10289, 10504, 23241]}, "edge": {"target": [], "time": []}}, "mouseout": {"state": {"target": ["0", "9", "10", "12", "12", "10", "5", "6", "7", "8", "6", "7", "9", "11", "9", "9", "10", "9", "0", "4", "1", "1", "3", "5", "0", "5", "1", "2", "2", "1", "1", "0", "0"], "time": [1424, 1506, 1657, 2218, 2488, 2571, 2705, 2737, 3223, 3704, 3975, 4170, 4705, 5037, 5123, 6022, 6337, 6854, 7237, 7737, 7823, 7960, 8237, 8354, 8690, 9289, 9355, 9422, 9873, 9924, 10471, 10523, 23261]}, "edge": {"target": [], "time": []}}}, "displayed_time": "26.63", "trialTime": 28158, "trial_type": "mouselab-mdp", "trial_index": 76, "time_elapsed": 1279680, "internal_node_id": "0.0-4.0-5.0-5.0"}}, {"uniqueid": "w37093396:a89503903", "current_trial": 77, "dateTime": 1664464872559, "trialdata": {"revealed_states": [], "num_clicks_accrued": [0, 0, 0, 0, 0, 0, 0, 0, 0, 0, 0, 0, 0], "stateRewards": ["", 4, -8, -48, 48, -2, 8, -48, 48, -2, -4, 24, -48], "withholdReward": true, "trial_id": "mdp_400558136089", "block": "test3", "trialIndex": 68, "score": 58.25, "costs": -0.75, "simulationMode": [null, null, null], "rewards": [-2, 8, 48], "path": ["0", "0", "5", "6", "8"], "rt": [3477, 130, 186], "actions": ["right", "right", "down"], "actionTimes": [4319, 4951, 5654], "queries": {"click": {"state": {"target": ["8", "6", "5"], "time": [1745, 2764, 3230]}, "edge": {"target": [], "time": []}}, "mouseover": {"state": {"target": ["5", "6", "8", "6", "5"], "time": [1287, 1519, 1552, 2639, 3151]}, "edge": {"target": [], "time": []}}, "mouseout": {"state": {"target": ["0", "5", "6", "8", "6"], "time": [1154, 1320, 1536, 2321, 2951]}, "edge": {"target": [], "time": []}}}, "displayed_time": "8.84", "trialTime": 9188, "trial_type": "mouselab-mdp", "trial_index": 77, "time_elapsed": 1288981, "internal_node_id": "0.0-4.0-5.0-6.0"}}, {"uniqueid": "w37093396:a89503903", "current_trial": 78, "dateTime": 1664464883615, "trialdata": {"revealed_states": [], "num_clicks_accrued": [0, 0, 0, 0, 0, 0, 0, 0, 0, 0, 0, 0, 0], "stateRewards": ["", 2, 4, 48, -48, 2, -4, 48, 24, -2, -8, -24, 48], "withholdReward": false, "trial_id": "mdp_962424406744", "block": "test3", "trialIndex": 69, "score": 42, "costs": -1, "simulationMode": [null, null, null], "rewards": [-2, -8, 48], "path": ["0", "0", "9", "10", "12"], "rt": [4615, 34, 54], "actions": ["left", "left", "down"], "actionTimes": [6107, 6643, 7195], "queries": {"click": {"state": {"target": ["11", "12", "10", "9"], "time": [1815, 2484, 3418, 4917]}, "edge": {"target": [], "time": []}}, "mouseover": {"state": {"target": ["11", "9", "12", "10", "9", "9"], "time": [1719, 2202, 2319, 3287, 4538, 4805]}, "edge": {"target": [], "time": []}}, "mouseout": {"state": {"target": ["5", "6", "9", "11", "9", "12", "10", "9", "9", "0"], "time": [672, 690, 1271, 1952, 2253, 2635, 3535, 4587, 7586, 7956]}, "edge": {"target": [], "time": []}}}, "displayed_time": "10.49", "trialTime": 10945, "trial_type": "mouselab-mdp", "trial_index": 78, "time_elapsed": 1300037, "internal_node_id": "0.0-4.0-5.0-7.0"}}, {"uniqueid": "w37093396:a89503903", "current_trial": 79, "dateTime": 1664464907761, "trialdata": {"revealed_states": [], "num_clicks_accrued": [0, 0, 0, 0, 0, 0, 0, 0, 0, 0, 0, 0, 0], "stateRewards": ["", -4, -8, -24, -48, -2, -8, 24, -48, -4, -8, 24, -48], "withholdReward": true, "trial_id": "mdp_621812384092", "block": "test3", "trialIndex": 70, "score": 16.5, "costs": -2.5, "simulationMode": [null, null, null], "rewards": [-2, -8, 24], "path": ["0", "0", "5", "6", "7"], "rt": [18980, 116, 143], "actions": ["right", "right", "up"], "actionTimes": [21310, 21928, 22568], "queries": {"click": {"state": {"target": ["3", "8", "7", "4", "12", "11", "10", "6", "5", "9"], "time": [3331, 4417, 5021, 5680, 6755, 7213, 10002, 14981, 19205, 19691]}, "edge": {"target": [], "time": []}}, "mouseover": {"state": {"target": ["3", "7", "6", "8", "6", "7", "1", "4", "1", "9", "12", "11", "10", "6", "5", "1", "9", "10", "6", "5", "9"], "time": [3255, 3937, 4189, 4237, 4837, 4920, 5452, 5635, 5935, 6273, 6689, 7155, 7454, 8503, 8887, 9455, 9754, 9887, 14889, 18122, 19653]}, "edge": {"target": [], "time": []}}, "mouseout": {"state": {"target": ["0", "0", "3", "7", "6", "8", "6", "7", "1", "4", "1", "9", "12", "11", "10", "12", "6", "5", "1", "9", "10", "6", "8", "5", "9", "8"], "time": [1655, 3022, 3485, 4155, 4220, 4804, 4887, 5169, 5469, 5802, 6005, 6305, 6919, 7402, 7539, 8006, 8805, 8937, 9689, 9803, 10152, 15086, 15654, 19353, 19819, 20186]}, "edge": {"target": [], "time": []}}}, "displayed_time": "23.07", "trialTime": 24024, "trial_type": "mouselab-mdp", "trial_index": 79, "time_elapsed": 1324183, "internal_node_id": "0.0-4.0-5.0-8.0"}}, {"uniqueid": "w37093396:a89503903", "current_trial": 80, "dateTime": 1664464928248, "trialdata": {"revealed_states": [], "num_clicks_accrued": [0, 0, 0, 0, 0, 0, 0, 0, 0, 0, 0, 0, 0], "stateRewards": ["", 4, 4, 24, -24, -4, -8, 48, -24, 4, 4, 48, 24], "withholdReward": false, "trial_id": "mdp_822446942217", "block": "test3", "trialIndex": 71, "score": 59.5, "costs": -1.5, "simulationMode": [null, null, null], "rewards": [4, 4, 48], "path": ["0", "0", "9", "10", "11"], "rt": [16378, 310, 146], "actions": ["left", "left", "up"], "actionTimes": [17517, 18317, 18957], "queries": {"click": {"state": {"target": ["11", "7", "5", "9", "10", "6"], "time": [2246, 5600, 12458, 13103, 15639, 16156]}, "edge": {"target": [], "time": []}}, "mouseover": {"state": {"target": ["9", "10", "11", "10", "9", "0", "5", "6", "7", "5", "9", "10", "6"], "time": [1775, 1827, 2040, 2522, 2706, 2789, 2822, 2889, 5538, 12324, 13023, 15490, 16055]}, "edge": {"target": [], "time": []}}, "mouseout": {"state": {"target": ["6", "0", "9", "10", "11", "10", "9", "0", "5", "6", "7", "5", "9", "10", "6", "10", "10"], "time": [357, 1375, 1808, 1845, 2472, 2655, 2755, 2822, 2872, 5455, 5788, 12641, 13238, 15772, 16305, 16722, 19809]}, "edge": {"target": [], "time": []}}}, "displayed_time": "19.46", "trialTime": 20364, "trial_type": "mouselab-mdp", "trial_index": 80, "time_elapsed": 1344671, "internal_node_id": "0.0-4.0-5.0-9.0"}}, {"uniqueid": "w37093396:a89503903", "current_trial": 81, "dateTime": 1664464943567, "trialdata": {"revealed_states": [], "num_clicks_accrued": [0, 0, 0, 0, 0, 0, 0, 0, 0, 0, 0, 0, 0], "stateRewards": ["", -4, 4, -24, 24, -2, -4, 48, 24, 2, 8, -48, 24], "withholdReward": true, "trial_id": "mdp_150340189492", "block": "test3", "trialIndex": 72, "score": 45.5, "costs": -1.5, "simulationMode": [null, null, null], "rewards": [-2, -4, 48], "path": ["0", "0", "5", "6", "7"], "rt": [11542, 21, 31], "actions": ["right", "right", "up"], "actionTimes": [12201, 12721, 13281], "queries": {"click": {"state": {"target": ["11", "3", "8", "12", "7", "6"], "time": [1225, 4615, 5471, 6372, 8436, 9817]}, "edge": {"target": [], "time": []}}, "mouseover": {"state": {"target": ["9", "11", "3", "7", "6", "8", "12", "7", "6", "6", "5", "0", "9", "10", "9"], "time": [1065, 1165, 4567, 4914, 5182, 5282, 6331, 8083, 8767, 9483, 10257, 10499, 10533, 10564, 11237]}, "edge": {"target": [], "time": []}}, "mouseout": {"state": {"target": ["0", "9", "11", "3", "7", "6", "8", "12", "7", "6", "6", "5", "0", "9", "10", "9", "6", "8"], "time": [1003, 1081, 1330, 4747, 5116, 5248, 6014, 6514, 8667, 8865, 10229, 10482, 10532, 10548, 11217, 11253, 14050, 14084]}, "edge": {"target": [], "time": []}}}, "displayed_time": "13.80", "trialTime": 15207, "trial_type": "mouselab-mdp", "trial_index": 81, "time_elapsed": 1359989, "internal_node_id": "0.0-4.0-5.0-10.0"}}, {"uniqueid": "w37093396:a89503903", "current_trial": 82, "dateTime": 1664464955449, "trialdata": {"revealed_states": [], "num_clicks_accrued": [0, 0, 0, 0, 0, 0, 0, 0, 0, 0, 0, 0, 0], "stateRewards": ["", 4, -8, 48, 24, 4, -4, 48, 48, -4, 8, -48, 24], "withholdReward": true, "trial_id": "mdp_303828806348", "block": "test3", "trialIndex": 73, "score": 51.5, "costs": -1.5, "simulationMode": [null, null, null], "rewards": [4, -4, 48], "path": ["0", "0", "5", "6", "8"], "rt": [8573, 70, 132], "actions": ["right", "right", "down"], "actionTimes": [9508, 10081, 10724], "queries": {"click": {"state": {"target": ["11", "7", "12", "8", "6", "5"], "time": [1636, 2611, 5211, 5965, 7831, 8534]}, "edge": {"target": [], "time": []}}, "mouseover": {"state": {"target": ["0", "9", "11", "9", "0", "5", "7", "6", "8", "12", "8", "6", "5"], "time": [1342, 1378, 1557, 1889, 2174, 2274, 2474, 2773, 3742, 5042, 5873, 7524, 8376]}, "edge": {"target": [], "time": []}}, "mouseout": {"state": {"target": ["0", "0", "9", "11", "9", "0", "5", "7", "6", "8", "12", "8", "6", "5"], "time": [1056, 1376, 1440, 1739, 1922, 2240, 2374, 2739, 2856, 4892, 5323, 6089, 8257, 8623]}, "edge": {"target": [], "time": []}}}, "displayed_time": "11.24", "trialTime": 11764, "trial_type": "mouselab-mdp", "trial_index": 82, "time_elapsed": 1371872, "internal_node_id": "0.0-4.0-5.0-11.0"}}, {"uniqueid": "w37093396:a89503903", "current_trial": 83, "dateTime": 1664464965534, "trialdata": {"revealed_states": [], "num_clicks_accrued": [0, 0, 0, 0, 0, 0, 0, 0, 0, 0, 0, 0, 0], "stateRewards": ["", 4, -4, 48, -48, 2, 8, -48, 24, -2, -4, -24, 48], "withholdReward": true, "trial_id": "mdp_937564992306", "block": "test3", "trialIndex": 74, "score": 45.5, "costs": -1.5, "simulationMode": [null, null, null], "rewards": [-2, -4, 48], "path": ["0", "0", "9", "10", "12"], "rt": [7390, 41, 22], "actions": ["left", "left", "down"], "actionTimes": [7996, 8537, 9051], "queries": {"click": {"state": {"target": ["7", "11", "12", "8", "10", "9"], "time": [1337, 2471, 3291, 4988, 5867, 6976]}, "edge": {"target": [], "time": []}}, "mouseover": {"state": {"target": ["5", "6", "7", "8", "10", "11", "10", "12", "8", "10", "9"], "time": [995, 1078, 1195, 1878, 2294, 2411, 2643, 3209, 4704, 5729, 6821]}, "edge": {"target": [], "time": []}}, "mouseout": {"state": {"target": ["0", "5", "6", "7", "8", "10", "11", "10", "12", "8", "10", "9"], "time": [962, 1044, 1094, 1529, 1911, 2361, 2610, 2826, 3410, 5129, 5993, 9881]}, "edge": {"target": [], "time": []}}}, "displayed_time": "9.56", "trialTime": 9969, "trial_type": "mouselab-mdp", "trial_index": 83, "time_elapsed": 1381957, "internal_node_id": "0.0-4.0-5.0-12.0"}}, {"uniqueid": "w37093396:a89503903", "current_trial": 84, "dateTime": 1664464981289, "trialdata": {"revealed_states": [], "num_clicks_accrued": [0, 0, 0, 0, 0, 0, 0, 0, 0, 0, 0, 0, 0], "stateRewards": ["", -4, -4, 24, -48, -2, 8, -24, -48, -4, 4, 24, -48], "withholdReward": true, "trial_id": "mdp_934626330092", "block": "test3", "trialIndex": 75, "score": 27, "costs": -2, "simulationMode": [null, null, null], "rewards": [-4, 4, 24], "path": ["0", "0", "9", "10", "11"], "rt": [12887, 19, 69], "actions": ["left", "left", "up"], "actionTimes": [13739, 14266, 14851], "queries": {"click": {"state": {"target": ["3", "8", "4", "11", "12", "7", "2", "10"], "time": [2118, 3135, 3913, 5103, 6007, 6671, 11959, 12626]}, "edge": {"target": [], "time": []}}, "mouseover": {"state": {"target": ["11", "1", "3", "6", "8", "5", "4", "9", "11", "9", "12", "6", "7", "0", "9", "1", "2", "9", "10"], "time": [1531, 1847, 2046, 2796, 3063, 3564, 3865, 4413, 5029, 5262, 6001, 6379, 6613, 7547, 8646, 11164, 11847, 12214, 12563]}, "edge": {"target": [], "time": []}}, "mouseout": {"state": {"target": ["0", "11", "1", "3", "6", "8", "8", "5", "4", "9", "11", "9", "12", "6", "7", "8", "0", "9", "1", "2", "9", "10"], "time": [1248, 1731, 1881, 2261, 2879, 3295, 3531, 3598, 4062, 4881, 5212, 5345, 6265, 6395, 6778, 7080, 7613, 9964, 11798, 12095, 12463, 12745]}, "edge": {"target": [], "time": []}}}, "displayed_time": "15.35", "trialTime": 15659, "trial_type": "mouselab-mdp", "trial_index": 84, "time_elapsed": 1397711, "internal_node_id": "0.0-4.0-5.0-13.0"}}, {"uniqueid": "w37093396:a89503903", "current_trial": 85, "dateTime": 1664464991449, "trialdata": {"revealed_states": [], "num_clicks_accrued": [0, 0, 0, 0, 0, 0, 0, 0, 0, 0, 0, 0, 0], "stateRewards": ["", -4, -4, -24, -24, -2, 4, 48, -24, -2, -4, -24, 48], "withholdReward": true, "trial_id": "mdp_855903341564", "block": "test3", "trialIndex": 76, "score": 54.25, "costs": -0.75, "simulationMode": [null, null, null], "rewards": [-2, 4, 48], "path": ["0", "0", "5", "6", "7"], "rt": [4110, 48, 27], "actions": ["right", "right", "up"], "actionTimes": [4946, 5490, 6033], "queries": {"click": {"state": {"target": ["7", "11", "6"], "time": [1565, 2932, 3771]}, "edge": {"target": [], "time": []}}, "mouseover": {"state": {"target": ["5", "7", "6", "5", "0", "11", "9", "8", "6", "8", "8"], "time": [1321, 1472, 1769, 2654, 2688, 2787, 3205, 3522, 3637, 3919, 4170]}, "edge": {"target": [], "time": []}}, "mouseout": {"state": {"target": ["0", "5", "7", "6", "5", "0", "11", "9", "8", "6", "8", "8", "8", "6"], "time": [1289, 1353, 1719, 2637, 2687, 2704, 3106, 3226, 3554, 3902, 3970, 7272, 7639, 9047]}, "edge": {"target": [], "time": []}}}, "displayed_time": "8.84", "trialTime": 10026, "trial_type": "mouselab-mdp", "trial_index": 85, "time_elapsed": 1407871, "internal_node_id": "0.0-4.0-5.0-14.0"}}, {"uniqueid": "w37093396:a89503903", "current_trial": 86, "dateTime": 1664465004352, "trialdata": {"revealed_states": [], "num_clicks_accrued": [0, 0, 0, 0, 0, 0, 0, 0, 0, 0, 0, 0, 0], "stateRewards": ["", -4, -8, -48, 24, -4, -4, -24, -48, 2, -8, -24, -48], "withholdReward": true, "trial_id": "mdp_628181832088", "block": "test3", "trialIndex": 77, "score": 15, "costs": -2, "simulationMode": [null, null, null], "rewards": [-4, -8, 24], "path": ["0", "0", "1", "2", "4"], "rt": [9479, 62, 176], "actions": ["up", "up", "left"], "actionTimes": [10450, 11010, 11690], "queries": {"click": {"state": {"target": ["11", "12", "3", "8", "7", "4", "2", "1"], "time": [1430, 2196, 2856, 3561, 4083, 5031, 6269, 7047]}, "edge": {"target": [], "time": []}}, "mouseover": {"state": {"target": ["11", "9", "12", "3", "6", "6", "8", "6", "7", "6", "5", "4", "9", "1", "2", "1", "1", "0"], "time": [1344, 1727, 2144, 2809, 3210, 3378, 3427, 3960, 4043, 4293, 4427, 4993, 5344, 6078, 6176, 6475, 6978, 9510]}, "edge": {"target": [], "time": []}}, "mouseout": {"state": {"target": ["0", "11", "9", "12", "3", "6", "6", "8", "6", "7", "6", "5", "4", "9", "1", "2", "1", "1", "0", "0", "5"], "time": [443, 1594, 1912, 2344, 2992, 3277, 3410, 3944, 4009, 4260, 4376, 4460, 5225, 5360, 6127, 6442, 6509, 7175, 9627, 12245, 12528]}, "edge": {"target": [], "time": []}}}, "displayed_time": "12.18", "trialTime": 12785, "trial_type": "mouselab-mdp", "trial_index": 86, "time_elapsed": 1420775, "internal_node_id": "0.0-4.0-5.0-15.0"}}, {"uniqueid": "w37093396:a89503903", "current_trial": 87, "dateTime": 1664465014864, "trialdata": {"revealed_states": [], "num_clicks_accrued": [0, 0, 0, 0, 0, 0, 0, 0, 0, 0