{"condition": 0, "counterbalance": 0, "assignmentId": "a64861023", "workerId": "w49201585", "hitId": "h32130337", "currenttrial": 971, "bonus": 0, "data": [{"uniqueid": "w49201585:a64861023", "current_trial": 0, "dateTime": 1664464121944, "trialdata": {"success": true, "trial_type": "fullscreen", "trial_index": 0, "time_elapsed": 8592, "internal_node_id": "0.0-0.0"}}, {"uniqueid": "w49201585:a64861023", "current_trial": 1, "dateTime": 1664464246300, "trialdata": {"view_history": [{"page_index": 0, "viewing_time": 124342}], "rt": 124343, "trial_id": "exp_instructions_distractor", "trial_type": "instructions", "trial_index": 1, "time_elapsed": 132950, "internal_node_id": "0.0-1.0"}}, {"uniqueid": "w49201585:a64861023", "current_trial": 2, "dateTime": 1664464293871, "trialdata": {"view_history": [{"page_index": 0, "viewing_time": 47567}], "rt": 47568, "trial_id": "color_game_instructions", "trial_type": "instructions", "trial_index": 2, "time_elapsed": 180521, "internal_node_id": "0.0-2.0"}}, {"uniqueid": "w49201585:a64861023", "current_trial": 3, "dateTime": 1664464316673, "trialdata": {"rt": 22796, "stimulus": "<h1> Get ready to start the game! </h1>\n\nThank you for reading the instructions. Get ready start with the first of 5 block(s) of this game.\n<br><br>\nIn this first block, you will complete 90 rounds of this game before moving on.\n<br><br>\nRemember, the better you perform, the bigger your bonus will be!\n<br><br>\n<div style='text-align: center;'>Press <code>space</code> to begin.</div>", "response": " ", "trial_id": "stroop_1_ready_1", "trial_type": "html-keyboard-response", "trial_index": 3, "time_elapsed": 203323, "internal_node_id": "0.0-3.0"}}, {"uniqueid": "w49201585:a64861023", "current_trial": 4, "dateTime": 1664464318865, "trialdata": {"rt": 2158, "stimulus": "<p id='stroop-text' class='stroop-yellow'>RED</p>", "response": "y", "stimulus-type": "incongruent", "word": "red", "color": "yellow", "correct_response": "y", "trial_id": "stroop-trial-1-incongruent-10", "trial_type": "html-keyboard-response", "trial_index": 4, "time_elapsed": 205513, "internal_node_id": "0.0-4.0-0.0"}}, {"uniqueid": "w49201585:a64861023", "current_trial": 5, "dateTime": 1664464321066, "trialdata": {"rt": 1694, "stimulus": "<p id='stroop-text' class='stroop-green'>MONKEY</p>", "response": "g", "stimulus-type": "unrelated", "word": "MONKEY", "color": "green", "correct_response": "g", "trial_id": "stroop-trial-1-unrelated-16", "trial_type": "html-keyboard-response", "trial_index": 5, "time_elapsed": 207716, "internal_node_id": "0.0-4.0-1.0"}}, {"uniqueid": "w49201585:a64861023", "current_trial": 6, "dateTime": 1664464323118, "trialdata": {"rt": 1541, "stimulus": "<p id='stroop-text' class='stroop-red'>BOTTLE</p>", "response": "r", "stimulus-type": "unrelated", "word": "BOTTLE", "color": "red", "correct_response": "r", "trial_id": "stroop-trial-1-unrelated-5", "trial_type": "html-keyboard-response", "trial_index": 6, "time_elapsed": 209768, "internal_node_id": "0.0-4.0-2.0"}}, {"uniqueid": "w49201585:a64861023", "current_trial": 7, "dateTime": 1664464324745, "trialdata": {"rt": 1117, "stimulus": "<p id='stroop-text' class='stroop-green'>GREEN</p>", "response": "g", "stimulus-type": "congruent", "word": "green", "color": "green", "correct_response": "g", "trial_id": "stroop-trial-1-congruent-22", "trial_type": "html-keyboard-response", "trial_index": 7, "time_elapsed": 211394, "internal_node_id": "0.0-4.0-3.0"}}, {"uniqueid": "w49201585:a64861023", "current_trial": 8, "dateTime": 1664464326761, "trialdata": {"rt": 1511, "stimulus": "<p id='stroop-text' class='stroop-green'>RED</p>", "response": "g", "stimulus-type": "incongruent", "word": "red", "color": "green", "correct_response": "g", "trial_id": "stroop-trial-1-incongruent-28", "trial_type": "html-keyboard-response", "trial_index": 8, "time_elapsed": 213410, "internal_node_id": "0.0-4.0-4.0"}}, {"uniqueid": "w49201585:a64861023", "current_trial": 9, "dateTime": 1664464329337, "trialdata": {"rt": 2071, "stimulus": "<p id='stroop-text' class='stroop-yellow'>GREEN</p>", "response": "y", "stimulus-type": "incongruent", "word": "green", "color": "yellow", "correct_response": "y", "trial_id": "stroop-trial-1-incongruent-14", "trial_type": "html-keyboard-response", "trial_index": 9, "time_elapsed": 215986, "internal_node_id": "0.0-4.0-5.0"}}, {"uniqueid": "w49201585:a64861023", "current_trial": 10, "dateTime": 1664464331469, "trialdata": {"rt": 1628, "stimulus": "<p id='stroop-text' class='stroop-green'>GREEN</p>", "response": "g", "stimulus-type": "congruent", "word": "green", "color": "green", "correct_response": "g", "trial_id": "stroop-trial-1-congruent-6", "trial_type": "html-keyboard-response", "trial_index": 10, "time_elapsed": 218118, "internal_node_id": "0.0-4.0-6.0"}}, {"uniqueid": "w49201585:a64861023", "current_trial": 11, "dateTime": 1664464332993, "trialdata": {"rt": 1017, "stimulus": "<p id='stroop-text' class='stroop-yellow'>YELLOW</p>", "response": "y", "stimulus-type": "congruent", "word": "yellow", "color": "yellow", "correct_response": "y", "trial_id": "stroop-trial-1-congruent-23", "trial_type": "html-keyboard-response", "trial_index": 11, "time_elapsed": 219642, "internal_node_id": "0.0-4.0-7.0"}}, {"uniqueid": "w49201585:a64861023", "current_trial": 12, "dateTime": 1664464335148, "trialdata": {"rt": 1649, "stimulus": "<p id='stroop-text' class='stroop-blue'>YELLOW</p>", "response": "b", "stimulus-type": "incongruent", "word": "yellow", "color": "blue", "correct_response": "b", "trial_id": "stroop-trial-1-incongruent-8", "trial_type": "html-keyboard-response", "trial_index": 12, "time_elapsed": 221798, "internal_node_id": "0.0-4.0-8.0"}}, {"uniqueid": "w49201585:a64861023", "current_trial": 13, "dateTime": 1664464337643, "trialdata": {"rt": 1984, "stimulus": "<p id='stroop-text' class='stroop-blue'>CHAIR</p>", "response": "b", "stimulus-type": "unrelated", "word": "CHAIR", "color": "blue", "correct_response": "b", "trial_id": "stroop-trial-1-unrelated-22", "trial_type": "html-keyboard-response", "trial_index": 13, "time_elapsed": 224291, "internal_node_id": "0.0-4.0-9.0"}}, {"uniqueid": "w49201585:a64861023", "current_trial": 14, "dateTime": 1664464339279, "trialdata": {"rt": 1127, "stimulus": "<p id='stroop-text' class='stroop-red'>RED</p>", "response": "r", "stimulus-type": "congruent", "word": "red", "color": "red", "correct_response": "r", "trial_id": "stroop-trial-1-congruent-17", "trial_type": "html-keyboard-response", "trial_index": 14, "time_elapsed": 225928, "internal_node_id": "0.0-4.0-10.0"}}, {"uniqueid": "w49201585:a64861023", "current_trial": 15, "dateTime": 1664464340911, "trialdata": {"rt": 1121, "stimulus": "<p id='stroop-text' class='stroop-green'>BRAIN</p>", "response": "g", "stimulus-type": "unrelated", "word": "BRAIN", "color": "green", "correct_response": "g", "trial_id": "stroop-trial-1-unrelated-1", "trial_type": "html-keyboard-response", "trial_index": 15, "time_elapsed": 227560, "internal_node_id": "0.0-4.0-11.0"}}, {"uniqueid": "w49201585:a64861023", "current_trial": 16, "dateTime": 1664464342953, "trialdata": {"rt": 1536, "stimulus": "<p id='stroop-text' class='stroop-yellow'>BLUE</p>", "response": "y", "stimulus-type": "incongruent", "word": "blue", "color": "yellow", "correct_response": "y", "trial_id": "stroop-trial-1-incongruent-9", "trial_type": "html-keyboard-response", "trial_index": 16, "time_elapsed": 229602, "internal_node_id": "0.0-4.0-12.0"}}, {"uniqueid": "w49201585:a64861023", "current_trial": 17, "dateTime": 1664464345109, "trialdata": {"rt": 1646, "stimulus": "<p id='stroop-text' class='stroop-blue'>WINDOW</p>", "response": "b", "stimulus-type": "unrelated", "word": "WINDOW", "color": "blue", "correct_response": "b", "trial_id": "stroop-trial-1-unrelated-30", "trial_type": "html-keyboard-response", "trial_index": 17, "time_elapsed": 231758, "internal_node_id": "0.0-4.0-13.0"}}, {"uniqueid": "w49201585:a64861023", "current_trial": 18, "dateTime": 1664464347307, "trialdata": {"rt": 1690, "stimulus": "<p id='stroop-text' class='stroop-green'>YELLOW</p>", "response": "g", "stimulus-type": "incongruent", "word": "yellow", "color": "green", "correct_response": "g", "trial_id": "stroop-trial-1-incongruent-2", "trial_type": "html-keyboard-response", "trial_index": 18, "time_elapsed": 233956, "internal_node_id": "0.0-4.0-14.0"}}, {"uniqueid": "w49201585:a64861023", "current_trial": 19, "dateTime": 1664464349359, "trialdata": {"rt": 1542, "stimulus": "<p id='stroop-text' class='stroop-red'>RED</p>", "response": "r", "stimulus-type": "congruent", "word": "red", "color": "red", "correct_response": "r", "trial_id": "stroop-trial-1-congruent-4", "trial_type": "html-keyboard-response", "trial_index": 19, "time_elapsed": 236009, "internal_node_id": "0.0-4.0-15.0"}}, {"uniqueid": "w49201585:a64861023", "current_trial": 20, "dateTime": 1664464351012, "trialdata": {"rt": 1140, "stimulus": "<p id='stroop-text' class='stroop-blue'>BOAT</p>", "response": "b", "stimulus-type": "unrelated", "word": "BOAT", "color": "blue", "correct_response": "b", "trial_id": "stroop-trial-1-unrelated-11", "trial_type": "html-keyboard-response", "trial_index": 20, "time_elapsed": 237662, "internal_node_id": "0.0-4.0-16.0"}}, {"uniqueid": "w49201585:a64861023", "current_trial": 21, "dateTime": 1664464352806, "trialdata": {"rt": 1290, "stimulus": "<p id='stroop-text' class='stroop-green'>GREEN</p>", "response": "g", "stimulus-type": "congruent", "word": "green", "color": "green", "correct_response": "g", "trial_id": "stroop-trial-1-congruent-5", "trial_type": "html-keyboard-response", "trial_index": 21, "time_elapsed": 239455, "internal_node_id": "0.0-4.0-17.0"}}, {"uniqueid": "w49201585:a64861023", "current_trial": 22, "dateTime": 1664464354168, "trialdata": {"rt": 853, "stimulus": "<p id='stroop-text' class='stroop-blue'>BLUE</p>", "response": "b", "stimulus-type": "congruent", "word": "blue", "color": "blue", "correct_response": "b", "trial_id": "stroop-trial-1-congruent-26", "trial_type": "html-keyboard-response", "trial_index": 22, "time_elapsed": 240818, "internal_node_id": "0.0-4.0-18.0"}}, {"uniqueid": "w49201585:a64861023", "current_trial": 23, "dateTime": 1664464355989, "trialdata": {"rt": 1311, "stimulus": "<p id='stroop-text' class='stroop-green'>BLUE</p>", "response": "g", "stimulus-type": "incongruent", "word": "blue", "color": "green", "correct_response": "g", "trial_id": "stroop-trial-1-incongruent-12", "trial_type": "html-keyboard-response", "trial_index": 23, "time_elapsed": 242638, "internal_node_id": "0.0-4.0-19.0"}}, {"uniqueid": "w49201585:a64861023", "current_trial": 24, "dateTime": 1664464357930, "trialdata": {"rt": 1432, "stimulus": "<p id='stroop-text' class='stroop-yellow'>WINDOW</p>", "response": "y", "stimulus-type": "unrelated", "word": "WINDOW", "color": "yellow", "correct_response": "y", "trial_id": "stroop-trial-1-unrelated-10", "trial_type": "html-keyboard-response", "trial_index": 24, "time_elapsed": 244580, "internal_node_id": "0.0-4.0-20.0"}}, {"uniqueid": "w49201585:a64861023", "current_trial": 25, "dateTime": 1664464359866, "trialdata": {"rt": 1428, "stimulus": "<p id='stroop-text' class='stroop-green'>GREEN</p>", "response": "g", "stimulus-type": "congruent", "word": "green", "color": "green", "correct_response": "g", "trial_id": "stroop-trial-1-congruent-27", "trial_type": "html-keyboard-response", "trial_index": 25, "time_elapsed": 246516, "internal_node_id": "0.0-4.0-21.0"}}, {"uniqueid": "w49201585:a64861023", "current_trial": 26, "dateTime": 1664464361323, "trialdata": {"rt": 953, "stimulus": "<p id='stroop-text' class='stroop-green'>WINDOW</p>", "response": "g", "stimulus-type": "unrelated", "word": "WINDOW", "color": "green", "correct_response": "g", "trial_id": "stroop-trial-1-unrelated-23", "trial_type": "html-keyboard-response", "trial_index": 26, "time_elapsed": 247972, "internal_node_id": "0.0-4.0-22.0"}}, {"uniqueid": "w49201585:a64861023", "current_trial": 27, "dateTime": 1664464362338, "trialdata": {"rt": 510, "stimulus": "<p id='stroop-text' class='stroop-green'>GREEN</p>", "response": "g", "stimulus-type": "congruent", "word": "green", "color": "green", "correct_response": "g", "trial_id": "stroop-trial-1-congruent-3", "trial_type": "html-keyboard-response", "trial_index": 27, "time_elapsed": 248987, "internal_node_id": "0.0-4.0-23.0"}}, {"uniqueid": "w49201585:a64861023", "current_trial": 28, "dateTime": 1664464363931, "trialdata": {"rt": 1079, "stimulus": "<p id='stroop-text' class='stroop-yellow'>SHIP</p>", "response": "y", "stimulus-type": "unrelated", "word": "SHIP", "color": "yellow", "correct_response": "y", "trial_id": "stroop-trial-1-unrelated-2", "trial_type": "html-keyboard-response", "trial_index": 28, "time_elapsed": 250581, "internal_node_id": "0.0-4.0-24.0"}}, {"uniqueid": "w49201585:a64861023", "current_trial": 29, "dateTime": 1664464365529, "trialdata": {"rt": 1088, "stimulus": "<p id='stroop-text' class='stroop-red'>RED</p>", "response": "r", "stimulus-type": "congruent", "word": "red", "color": "red", "correct_response": "r", "trial_id": "stroop-trial-1-congruent-11", "trial_type": "html-keyboard-response", "trial_index": 29, "time_elapsed": 252178, "internal_node_id": "0.0-4.0-25.0"}}, {"uniqueid": "w49201585:a64861023", "current_trial": 30, "dateTime": 1664464366756, "trialdata": {"rt": 718, "stimulus": "<p id='stroop-text' class='stroop-red'>RED</p>", "response": "r", "stimulus-type": "congruent", "word": "red", "color": "red", "correct_response": "r", "trial_id": "stroop-trial-1-congruent-14", "trial_type": "html-keyboard-response", "trial_index": 30, "time_elapsed": 253406, "internal_node_id": "0.0-4.0-26.0"}}, {"uniqueid": "w49201585:a64861023", "current_trial": 31, "dateTime": 1664464368094, "trialdata": {"rt": 827, "stimulus": "<p id='stroop-text' class='stroop-red'>YELLOW</p>", "response": "r", "stimulus-type": "incongruent", "word": "yellow", "color": "red", "correct_response": "r", "trial_id": "stroop-trial-1-incongruent-17", "trial_type": "html-keyboard-response", "trial_index": 31, "time_elapsed": 254744, "internal_node_id": "0.0-4.0-27.0"}}, {"uniqueid": "w49201585:a64861023", "current_trial": 32, "dateTime": 1664464371770, "trialdata": {"rt": 3161, "stimulus": "<p id='stroop-text' class='stroop-yellow'>WINDOW</p>", "response": "y", "stimulus-type": "unrelated", "word": "WINDOW", "color": "yellow", "correct_response": "y", "trial_id": "stroop-trial-1-unrelated-21", "trial_type": "html-keyboard-response", "trial_index": 32, "time_elapsed": 258420, "internal_node_id": "0.0-4.0-28.0"}}, {"uniqueid": "w49201585:a64861023", "current_trial": 33, "dateTime": 1664464373724, "trialdata": {"rt": 1443, "stimulus": "<p id='stroop-text' class='stroop-red'>BLUE</p>", "response": "r", "stimulus-type": "incongruent", "word": "blue", "color": "red", "correct_response": "r", "trial_id": "stroop-trial-1-incongruent-3", "trial_type": "html-keyboard-response", "trial_index": 33, "time_elapsed": 260373, "internal_node_id": "0.0-4.0-29.0"}}, {"uniqueid": "w49201585:a64861023", "current_trial": 34, "dateTime": 1664464375377, "trialdata": {"rt": 1143, "stimulus": "<p id='stroop-text' class='stroop-blue'>BLUE</p>", "response": "b", "stimulus-type": "congruent", "word": "blue", "color": "blue", "correct_response": "b", "trial_id": "stroop-trial-1-congruent-15", "trial_type": "html-keyboard-response", "trial_index": 34, "time_elapsed": 262026, "internal_node_id": "0.0-4.0-30.0"}}, {"uniqueid": "w49201585:a64861023", "current_trial": 35, "dateTime": 1664464377010, "trialdata": {"rt": 1122, "stimulus": "<p id='stroop-text' class='stroop-red'>RED</p>", "response": "r", "stimulus-type": "congruent", "word": "red", "color": "red", "correct_response": "r", "trial_id": "stroop-trial-1-congruent-21", "trial_type": "html-keyboard-response", "trial_index": 35, "time_elapsed": 263659, "internal_node_id": "0.0-4.0-31.0"}}, {"uniqueid": "w49201585:a64861023", "current_trial": 36, "dateTime": 1664464379123, "trialdata": {"rt": 1603, "stimulus": "<p id='stroop-text' class='stroop-blue'>GREEN</p>", "response": "b", "stimulus-type": "incongruent", "word": "green", "color": "blue", "correct_response": "b", "trial_id": "stroop-trial-1-incongruent-24", "trial_type": "html-keyboard-response", "trial_index": 36, "time_elapsed": 265773, "internal_node_id": "0.0-4.0-32.0"}}, {"uniqueid": "w49201585:a64861023", "current_trial": 37, "dateTime": 1664464380848, "trialdata": {"rt": 1218, "stimulus": "<p id='stroop-text' class='stroop-blue'>GREEN</p>", "response": "b", "stimulus-type": "incongruent", "word": "green", "color": "blue", "correct_response": "b", "trial_id": "stroop-trial-1-incongruent-30", "trial_type": "html-keyboard-response", "trial_index": 37, "time_elapsed": 267497, "internal_node_id": "0.0-4.0-33.0"}}, {"uniqueid": "w49201585:a64861023", "current_trial": 38, "dateTime": 1664464382532, "trialdata": {"rt": 1168, "stimulus": "<p id='stroop-text' class='stroop-yellow'>SHIP</p>", "response": "y", "stimulus-type": "unrelated", "word": "SHIP", "color": "yellow", "correct_response": "y", "trial_id": "stroop-trial-1-unrelated-25", "trial_type": "html-keyboard-response", "trial_index": 38, "time_elapsed": 269182, "internal_node_id": "0.0-4.0-34.0"}}, {"uniqueid": "w49201585:a64861023", "current_trial": 39, "dateTime": 1664464383956, "trialdata": {"rt": 915, "stimulus": "<p id='stroop-text' class='stroop-red'>BOTTLE</p>", "response": "r", "stimulus-type": "unrelated", "word": "BOTTLE", "color": "red", "correct_response": "r", "trial_id": "stroop-trial-1-unrelated-13", "trial_type": "html-keyboard-response", "trial_index": 39, "time_elapsed": 270606, "internal_node_id": "0.0-4.0-35.0"}}, {"uniqueid": "w49201585:a64861023", "current_trial": 40, "dateTime": 1664464385424, "trialdata": {"rt": 956, "stimulus": "<p id='stroop-text' class='stroop-yellow'>BRIDGE</p>", "response": "y", "stimulus-type": "unrelated", "word": "BRIDGE", "color": "yellow", "correct_response": "y", "trial_id": "stroop-trial-1-unrelated-19", "trial_type": "html-keyboard-response", "trial_index": 40, "time_elapsed": 272073, "internal_node_id": "0.0-4.0-36.0"}}, {"uniqueid": "w49201585:a64861023", "current_trial": 41, "dateTime": 1664464387590, "trialdata": {"rt": 1660, "stimulus": "<p id='stroop-text' class='stroop-blue'>RED</p>", "response": "b", "stimulus-type": "incongruent", "word": "red", "color": "blue", "correct_response": "b", "trial_id": "stroop-trial-1-incongruent-26", "trial_type": "html-keyboard-response", "trial_index": 41, "time_elapsed": 274240, "internal_node_id": "0.0-4.0-37.0"}}, {"uniqueid": "w49201585:a64861023", "current_trial": 42, "dateTime": 1664464389279, "trialdata": {"rt": 1183, "stimulus": "<p id='stroop-text' class='stroop-yellow'>YELLOW</p>", "response": "y", "stimulus-type": "congruent", "word": "yellow", "color": "yellow", "correct_response": "y", "trial_id": "stroop-trial-1-congruent-16", "trial_type": "html-keyboard-response", "trial_index": 42, "time_elapsed": 275928, "internal_node_id": "0.0-4.0-38.0"}}, {"uniqueid": "w49201585:a64861023", "current_trial": 43, "dateTime": 1664464390674, "trialdata": {"rt": 882, "stimulus": "<p id='stroop-text' class='stroop-yellow'>YELLOW</p>", "response": "y", "stimulus-type": "congruent", "word": "yellow", "color": "yellow", "correct_response": "y", "trial_id": "stroop-trial-1-congruent-18", "trial_type": "html-keyboard-response", "trial_index": 43, "time_elapsed": 277323, "internal_node_id": "0.0-4.0-39.0"}}, {"uniqueid": "w49201585:a64861023", "current_trial": 44, "dateTime": 1664464392351, "trialdata": {"rt": 1173, "stimulus": "<p id='stroop-text' class='stroop-green'>GREEN</p>", "response": "g", "stimulus-type": "congruent", "word": "green", "color": "green", "correct_response": "g", "trial_id": "stroop-trial-1-congruent-13", "trial_type": "html-keyboard-response", "trial_index": 44, "time_elapsed": 279001, "internal_node_id": "0.0-4.0-40.0"}}, {"uniqueid": "w49201585:a64861023", "current_trial": 45, "dateTime": 1664464393864, "trialdata": {"rt": 1007, "stimulus": "<p id='stroop-text' class='stroop-blue'>DOG</p>", "response": "b", "stimulus-type": "unrelated", "word": "DOG", "color": "blue", "correct_response": "b", "trial_id": "stroop-trial-1-unrelated-29", "trial_type": "html-keyboard-response", "trial_index": 45, "time_elapsed": 280514, "internal_node_id": "0.0-4.0-41.0"}}, {"uniqueid": "w49201585:a64861023", "current_trial": 46, "dateTime": 1664464396169, "trialdata": {"rt": 1796, "stimulus": "<p id='stroop-text' class='stroop-yellow'>BLUE</p>", "response": "y", "stimulus-type": "incongruent", "word": "blue", "color": "yellow", "correct_response": "y", "trial_id": "stroop-trial-1-incongruent-16", "trial_type": "html-keyboard-response", "trial_index": 46, "time_elapsed": 282818, "internal_node_id": "0.0-4.0-42.0"}}, {"uniqueid": "w49201585:a64861023", "current_trial": 47, "dateTime": 1664464397816, "trialdata": {"rt": 1135, "stimulus": "<p id='stroop-text' class='stroop-green'>GREEN</p>", "response": "g", "stimulus-type": "congruent", "word": "green", "color": "green", "correct_response": "g", "trial_id": "stroop-trial-1-congruent-24", "trial_type": "html-keyboard-response", "trial_index": 47, "time_elapsed": 284465, "internal_node_id": "0.0-4.0-43.0"}}, {"uniqueid": "w49201585:a64861023", "current_trial": 48, "dateTime": 1664464399296, "trialdata": {"rt": 971, "stimulus": "<p id='stroop-text' class='stroop-red'>YELLOW</p>", "response": "r", "stimulus-type": "incongruent", "word": "yellow", "color": "red", "correct_response": "r", "trial_id": "stroop-trial-1-incongruent-29", "trial_type": "html-keyboard-response", "trial_index": 48, "time_elapsed": 285945, "internal_node_id": "0.0-4.0-44.0"}}, {"uniqueid": "w49201585:a64861023", "current_trial": 49, "dateTime": 1664464400932, "trialdata": {"rt": 1126, "stimulus": "<p id='stroop-text' class='stroop-yellow'>YELLOW</p>", "response": "y", "stimulus-type": "congruent", "word": "yellow", "color": "yellow", "correct_response": "y", "trial_id": "stroop-trial-1-congruent-25", "trial_type": "html-keyboard-response", "trial_index": 49, "time_elapsed": 287582, "internal_node_id": "0.0-4.0-45.0"}}, {"uniqueid": "w49201585:a64861023", "current_trial": 50, "dateTime": 1664464402648, "trialdata": {"rt": 1205, "stimulus": "<p id='stroop-text' class='stroop-red'>BRIDGE</p>", "response": "r", "stimulus-type": "unrelated", "word": "BRIDGE", "color": "red", "correct_response": "r", "trial_id": "stroop-trial-1-unrelated-28", "trial_type": "html-keyboard-response", "trial_index": 50, "time_elapsed": 289297, "internal_node_id": "0.0-4.0-46.0"}}, {"uniqueid": "w49201585:a64861023", "current_trial": 51, "dateTime": 1664464404416, "trialdata": {"rt": 1254, "stimulus": "<p id='stroop-text' class='stroop-yellow'>RED</p>", "response": "y", "stimulus-type": "incongruent", "word": "red", "color": "yellow", "correct_response": "y", "trial_id": "stroop-trial-1-incongruent-20", "trial_type": "html-keyboard-response", "trial_index": 51, "time_elapsed": 291065, "internal_node_id": "0.0-4.0-47.0"}}, {"uniqueid": "w49201585:a64861023", "current_trial": 52, "dateTime": 1664464406521, "trialdata": {"rt": 1594, "stimulus": "<p id='stroop-text' class='stroop-blue'>GREEN</p>", "response": "b", "stimulus-type": "incongruent", "word": "green", "color": "blue", "correct_response": "b", "trial_id": "stroop-trial-1-incongruent-19", "trial_type": "html-keyboard-response", "trial_index": 52, "time_elapsed": 293170, "internal_node_id": "0.0-4.0-48.0"}}, {"uniqueid": "w49201585:a64861023", "current_trial": 53, "dateTime": 1664464407985, "trialdata": {"rt": 955, "stimulus": "<p id='stroop-text' class='stroop-blue'>BLUE</p>", "response": "b", "stimulus-type": "congruent", "word": "blue", "color": "blue", "correct_response": "b", "trial_id": "stroop-trial-1-congruent-28", "trial_type": "html-keyboard-response", "trial_index": 53, "time_elapsed": 294634, "internal_node_id": "0.0-4.0-49.0"}}, {"uniqueid": "w49201585:a64861023", "current_trial": 54, "dateTime": 1664464409554, "trialdata": {"rt": 1061, "stimulus": "<p id='stroop-text' class='stroop-yellow'>BOTTLE</p>", "response": "y", "stimulus-type": "unrelated", "word": "BOTTLE", "color": "yellow", "correct_response": "y", "trial_id": "stroop-trial-1-unrelated-20", "trial_type": "html-keyboard-response", "trial_index": 54, "time_elapsed": 296203, "internal_node_id": "0.0-4.0-50.0"}}, {"uniqueid": "w49201585:a64861023", "current_trial": 55, "dateTime": 1664464411364, "trialdata": {"rt": 1303, "stimulus": "<p id='stroop-text' class='stroop-red'>BRAIN</p>", "response": "r", "stimulus-type": "unrelated", "word": "BRAIN", "color": "red", "correct_response": "r", "trial_id": "stroop-trial-1-unrelated-24", "trial_type": "html-keyboard-response", "trial_index": 55, "time_elapsed": 298013, "internal_node_id": "0.0-4.0-51.0"}}, {"uniqueid": "w49201585:a64861023", "current_trial": 56, "dateTime": 1664464412926, "trialdata": {"rt": 1041, "stimulus": "<p id='stroop-text' class='stroop-green'>RED</p>", "response": "r", "stimulus-type": "incongruent", "word": "red", "color": "green", "correct_response": "g", "trial_id": "stroop-trial-1-incongruent-1", "trial_type": "html-keyboard-response", "trial_index": 56, "time_elapsed": 299575, "internal_node_id": "0.0-4.0-52.0"}}, {"uniqueid": "w49201585:a64861023", "current_trial": 57, "dateTime": 1664464416955, "trialdata": {"rt": 3525, "stimulus": "<p id='stroop-text' class='stroop-green'>BLUE</p>", "response": "g", "stimulus-type": "incongruent", "word": "blue", "color": "green", "correct_response": "g", "trial_id": "stroop-trial-1-incongruent-6", "trial_type": "html-keyboard-response", "trial_index": 57, "time_elapsed": 303605, "internal_node_id": "0.0-4.0-53.0"}}, {"uniqueid": "w49201585:a64861023", "current_trial": 58, "dateTime": 1664464419620, "trialdata": {"rt": 2153, "stimulus": "<p id='stroop-text' class='stroop-red'>RED</p>", "response": "r", "stimulus-type": "congruent", "word": "red", "color": "red", "correct_response": "r", "trial_id": "stroop-trial-1-congruent-20", "trial_type": "html-keyboard-response", "trial_index": 58, "time_elapsed": 306269, "internal_node_id": "0.0-4.0-54.0"}}, {"uniqueid": "w49201585:a64861023", "current_trial": 59, "dateTime": 1664464421604, "trialdata": {"rt": 1466, "stimulus": "<p id='stroop-text' class='stroop-blue'>RED</p>", "response": "b", "stimulus-type": "incongruent", "word": "red", "color": "blue", "correct_response": "b", "trial_id": "stroop-trial-1-incongruent-15", "trial_type": "html-keyboard-response", "trial_index": 59, "time_elapsed": 308253, "internal_node_id": "0.0-4.0-55.0"}}, {"uniqueid": "w49201585:a64861023", "current_trial": 60, "dateTime": 1664464423857, "trialdata": {"rt": 1747, "stimulus": "<p id='stroop-text' class='stroop-red'>GREEN</p>", "response": "r", "stimulus-type": "incongruent", "word": "green", "color": "red", "correct_response": "r", "trial_id": "stroop-trial-1-incongruent-7", "trial_type": "html-keyboard-response", "trial_index": 60, "time_elapsed": 310506, "internal_node_id": "0.0-4.0-56.0"}}, {"uniqueid": "w49201585:a64861023", "current_trial": 61, "dateTime": 1664464425935, "trialdata": {"rt": 1571, "stimulus": "<p id='stroop-text' class='stroop-yellow'>GREEN</p>", "response": "y", "stimulus-type": "incongruent", "word": "green", "color": "yellow", "correct_response": "y", "trial_id": "stroop-trial-1-incongruent-11", "trial_type": "html-keyboard-response", "trial_index": 61, "time_elapsed": 312585, "internal_node_id": "0.0-4.0-57.0"}}, {"uniqueid": "w49201585:a64861023", "current_trial": 62, "dateTime": 1664464427687, "trialdata": {"rt": 1238, "stimulus": "<p id='stroop-text' class='stroop-green'>GREEN</p>", "response": "g", "stimulus-type": "congruent", "word": "green", "color": "green", "correct_response": "g", "trial_id": "stroop-trial-1-congruent-30", "trial_type": "html-keyboard-response", "trial_index": 62, "time_elapsed": 314336, "internal_node_id": "0.0-4.0-58.0"}}, {"uniqueid": "w49201585:a64861023", "current_trial": 63, "dateTime": 1664464429154, "trialdata": {"rt": 948, "stimulus": "<p id='stroop-text' class='stroop-blue'>RED</p>", "response": "b", "stimulus-type": "incongruent", "word": "red", "color": "blue", "correct_response": "b", "trial_id": "stroop-trial-1-incongruent-18", "trial_type": "html-keyboard-response", "trial_index": 63, "time_elapsed": 315803, "internal_node_id": "0.0-4.0-59.0"}}, {"uniqueid": "w49201585:a64861023", "current_trial": 64, "dateTime": 1664464430629, "trialdata": {"rt": 965, "stimulus": "<p id='stroop-text' class='stroop-yellow'>BOAT</p>", "response": "y", "stimulus-type": "unrelated", "word": "BOAT", "color": "yellow", "correct_response": "y", "trial_id": "stroop-trial-1-unrelated-6", "trial_type": "html-keyboard-response", "trial_index": 64, "time_elapsed": 317279, "internal_node_id": "0.0-4.0-60.0"}}, {"uniqueid": "w49201585:a64861023", "current_trial": 65, "dateTime": 1664464433244, "trialdata": {"rt": 2096, "stimulus": "<p id='stroop-text' class='stroop-green'>RED</p>", "response": "g", "stimulus-type": "incongruent", "word": "red", "color": "green", "correct_response": "g", "trial_id": "stroop-trial-1-incongruent-27", "trial_type": "html-keyboard-response", "trial_index": 65, "time_elapsed": 319894, "internal_node_id": "0.0-4.0-61.0"}}, {"uniqueid": "w49201585:a64861023", "current_trial": 66, "dateTime": 1664464434771, "trialdata": {"rt": 1018, "stimulus": "<p id='stroop-text' class='stroop-blue'>BLUE</p>", "response": "b", "stimulus-type": "congruent", "word": "blue", "color": "blue", "correct_response": "b", "trial_id": "stroop-trial-1-congruent-10", "trial_type": "html-keyboard-response", "trial_index": 66, "time_elapsed": 321420, "internal_node_id": "0.0-4.0-62.0"}}, {"uniqueid": "w49201585:a64861023", "current_trial": 67, "dateTime": 1664464436222, "trialdata": {"rt": 945, "stimulus": "<p id='stroop-text' class='stroop-yellow'>YELLOW</p>", "response": "y", "stimulus-type": "congruent", "word": "yellow", "color": "yellow", "correct_response": "y", "trial_id": "stroop-trial-1-congruent-12", "trial_type": "html-keyboard-response", "trial_index": 67, "time_elapsed": 322872, "internal_node_id": "0.0-4.0-63.0"}}, {"uniqueid": "w49201585:a64861023", "current_trial": 68, "dateTime": 1664464437979, "trialdata": {"rt": 1236, "stimulus": "<p id='stroop-text' class='stroop-yellow'>BLUE</p>", "response": "y", "stimulus-type": "incongruent", "word": "blue", "color": "yellow", "correct_response": "y", "trial_id": "stroop-trial-1-incongruent-4", "trial_type": "html-keyboard-response", "trial_index": 68, "time_elapsed": 324628, "internal_node_id": "0.0-4.0-64.0"}}, {"uniqueid": "w49201585:a64861023", "current_trial": 69, "dateTime": 1664464439666, "trialdata": {"rt": 1180, "stimulus": "<p id='stroop-text' class='stroop-red'>GREEN</p>", "response": "r", "stimulus-type": "incongruent", "word": "green", "color": "red", "correct_response": "r", "trial_id": "stroop-trial-1-incongruent-13", "trial_type": "html-keyboard-response", "trial_index": 69, "time_elapsed": 326315, "internal_node_id": "0.0-4.0-65.0"}}, {"uniqueid": "w49201585:a64861023", "current_trial": 70, "dateTime": 1664464440914, "trialdata": {"rt": 743, "stimulus": "<p id='stroop-text' class='stroop-red'>YELLOW</p>", "response": "r", "stimulus-type": "incongruent", "word": "yellow", "color": "red", "correct_response": "r", "trial_id": "stroop-trial-1-incongruent-21", "trial_type": "html-keyboard-response", "trial_index": 70, "time_elapsed": 327564, "internal_node_id": "0.0-4.0-66.0"}}, {"uniqueid": "w49201585:a64861023", "current_trial": 71, "dateTime": 1664464442151, "trialdata": {"rt": 719, "stimulus": "<p id='stroop-text' class='stroop-red'>BLUE</p>", "response": "r", "stimulus-type": "incongruent", "word": "blue", "color": "red", "correct_response": "r", "trial_id": "stroop-trial-1-incongruent-22", "trial_type": "html-keyboard-response", "trial_index": 71, "time_elapsed": 328800, "internal_node_id": "0.0-4.0-67.0"}}, {"uniqueid": "w49201585:a64861023", "current_trial": 72, "dateTime": 1664464444746, "trialdata": {"rt": 2088, "stimulus": "<p id='stroop-text' class='stroop-green'>BRAIN</p>", "response": "g", "stimulus-type": "unrelated", "word": "BRAIN", "color": "green", "correct_response": "g", "trial_id": "stroop-trial-1-unrelated-17", "trial_type": "html-keyboard-response", "trial_index": 72, "time_elapsed": 331396, "internal_node_id": "0.0-4.0-68.0"}}, {"uniqueid": "w49201585:a64861023", "current_trial": 73, "dateTime": 1664464446318, "trialdata": {"rt": 1063, "stimulus": "<p id='stroop-text' class='stroop-green'>GREEN</p>", "response": "g", "stimulus-type": "congruent", "word": "green", "color": "green", "correct_response": "g", "trial_id": "stroop-trial-1-congruent-29", "trial_type": "html-keyboard-response", "trial_index": 73, "time_elapsed": 332967, "internal_node_id": "0.0-4.0-69.0"}}, {"uniqueid": "w49201585:a64861023", "current_trial": 74, "dateTime": 1664464447893, "trialdata": {"rt": 1069, "stimulus": "<p id='stroop-text' class='stroop-blue'>BLUE</p>", "response": "b", "stimulus-type": "congruent", "word": "blue", "color": "blue", "correct_response": "b", "trial_id": "stroop-trial-1-congruent-2", "trial_type": "html-keyboard-response", "trial_index": 74, "time_elapsed": 334543, "internal_node_id": "0.0-4.0-70.0"}}, {"uniqueid": "w49201585:a64861023", "current_trial": 75, "dateTime": 1664464448898, "trialdata": {"rt": 493, "stimulus": "<p id='stroop-text' class='stroop-blue'>BLUE</p>", "response": "b", "stimulus-type": "congruent", "word": "blue", "color": "blue", "correct_response": "b", "trial_id": "stroop-trial-1-congruent-8", "trial_type": "html-keyboard-response", "trial_index": 75, "time_elapsed": 335547, "internal_node_id": "0.0-4.0-71.0"}}, {"uniqueid": "w49201585:a64861023", "current_trial": 76, "dateTime": 1664464449894, "trialdata": {"rt": 476, "stimulus": "<p id='stroop-text' class='stroop-blue'>RED</p>", "response": "b", "stimulus-type": "incongruent", "word": "red", "color": "blue", "correct_response": "b", "trial_id": "stroop-trial-1-incongruent-5", "trial_type": "html-keyboard-response", "trial_index": 76, "time_elapsed": 336543, "internal_node_id": "0.0-4.0-72.0"}}, {"uniqueid": "w49201585:a64861023", "current_trial": 77, "dateTime": 1664464452109, "trialdata": {"rt": 1706, "stimulus": "<p id='stroop-text' class='stroop-red'>CHAIR</p>", "response": "r", "stimulus-type": "unrelated", "word": "CHAIR", "color": "red", "correct_response": "r", "trial_id": "stroop-trial-1-unrelated-3", "trial_type": "html-keyboard-response", "trial_index": 77, "time_elapsed": 338759, "internal_node_id": "0.0-4.0-73.0"}}, {"uniqueid": "w49201585:a64861023", "current_trial": 78, "dateTime": 1664464453910, "trialdata": {"rt": 1293, "stimulus": "<p id='stroop-text' class='stroop-blue'>SHIP</p>", "response": "b", "stimulus-type": "unrelated", "word": "SHIP", "color": "blue", "correct_response": "b", "trial_id": "stroop-trial-1-unrelated-9", "trial_type": "html-keyboard-response", "trial_index": 78, "time_elapsed": 340560, "internal_node_id": "0.0-4.0-74.0"}}, {"uniqueid": "w49201585:a64861023", "current_trial": 79, "dateTime": 1664464455451, "trialdata": {"rt": 1030, "stimulus": "<p id='stroop-text' class='stroop-yellow'>CHAIR</p>", "response": "y", "stimulus-type": "unrelated", "word": "CHAIR", "color": "yellow", "correct_response": "y", "trial_id": "stroop-trial-1-unrelated-4", "trial_type": "html-keyboard-response", "trial_index": 79, "time_elapsed": 342100, "internal_node_id": "0.0-4.0-75.0"}}, {"uniqueid": "w49201585:a64861023", "current_trial": 80, "dateTime": 1664464457172, "trialdata": {"rt": 1214, "stimulus": "<p id='stroop-text' class='stroop-red'>BRIDGE</p>", "response": "r", "stimulus-type": "unrelated", "word": "BRIDGE", "color": "red", "correct_response": "r", "trial_id": "stroop-trial-1-unrelated-18", "trial_type": "html-keyboard-response", "trial_index": 80, "time_elapsed": 343822, "internal_node_id": "0.0-4.0-76.0"}}, {"uniqueid": "w49201585:a64861023", "current_trial": 81, "dateTime": 1664464458562, "trialdata": {"rt": 887, "stimulus": "<p id='stroop-text' class='stroop-yellow'>YELLOW</p>", "response": "y", "stimulus-type": "congruent", "word": "yellow", "color": "yellow", "correct_response": "y", "trial_id": "stroop-trial-1-congruent-7", "trial_type": "html-keyboard-response", "trial_index": 81, "time_elapsed": 345211, "internal_node_id": "0.0-4.0-77.0"}}, {"uniqueid": "w49201585:a64861023", "current_trial": 82, "dateTime": 1664464459996, "trialdata": {"rt": 925, "stimulus": "<p id='stroop-text' class='stroop-red'>BRAIN</p>", "response": "r", "stimulus-type": "unrelated", "word": "BRAIN", "color": "red", "correct_response": "r", "trial_id": "stroop-trial-1-unrelated-15", "trial_type": "html-keyboard-response", "trial_index": 82, "time_elapsed": 346645, "internal_node_id": "0.0-4.0-78.0"}}, {"uniqueid": "w49201585:a64861023", "current_trial": 83, "dateTime": 1664464462161, "trialdata": {"rt": 1659, "stimulus": "<p id='stroop-text' class='stroop-yellow'>RED</p>", "response": "y", "stimulus-type": "incongruent", "word": "red", "color": "yellow", "correct_response": "y", "trial_id": "stroop-trial-1-incongruent-25", "trial_type": "html-keyboard-response", "trial_index": 83, "time_elapsed": 348810, "internal_node_id": "0.0-4.0-79.0"}}, {"uniqueid": "w49201585:a64861023", "current_trial": 84, "dateTime": 1664464463993, "trialdata": {"rt": 1322, "stimulus": "<p id='stroop-text' class='stroop-blue'>BRAIN</p>", "response": "b", "stimulus-type": "unrelated", "word": "BRAIN", "color": "blue", "correct_response": "b", "trial_id": "stroop-trial-1-unrelated-27", "trial_type": "html-keyboard-response", "trial_index": 84, "time_elapsed": 350642, "internal_node_id": "0.0-4.0-80.0"}}, {"uniqueid": "w49201585:a64861023", "current_trial": 85, "dateTime": 1664464465922, "trialdata": {"rt": 1414, "stimulus": "<p id='stroop-text' class='stroop-green'>BOAT</p>", "response": "g", "stimulus-type": "unrelated", "word": "BOAT", "color": "green", "correct_response": "g", "trial_id": "stroop-trial-1-unrelated-12", "trial_type": "html-keyboard-response", "trial_index": 85, "time_elapsed": 352571, "internal_node_id": "0.0-4.0-81.0"}}, {"uniqueid": "w49201585:a64861023", "current_trial": 86, "dateTime": 1664464467599, "trialdata": {"rt": 1171, "stimulus": "<p id='stroop-text' class='stroop-yellow'>RED</p>", "response": "y", "stimulus-type": "incongruent", "word": "red", "color": "yellow", "correct_response": "y", "trial_id": "stroop-trial-1-incongruent-23", "trial_type": "html-keyboard-response", "trial_index": 86, "time_elapsed": 354248, "internal_node_id": "0.0-4.0-82.0"}}, {"uniqueid": "w49201585:a64861023", "current_trial": 87, "dateTime": 1664464470411, "trialdata": {"rt": 2294, "stimulus": "<p id='stroop-text' class='stroop-red'>BOAT</p>", "response": "r", "stimulus-type": "unrelated", "word": "BOAT", "color": "red", "correct_response": "r", "trial_id": "stroop-trial-1-unrelated-26", "trial_type": "html-keyboard-response", "trial_index": 87, "time_elapsed": 357061, "internal_node_id": "0.0-4.0-83.0"}}, {"uniqueid": "w49201585:a64861023", "current_trial": 88, "dateTime": 1664464472447, "trialdata": {"rt": 1532, "stimulus": "<p id='stroop-text' class='stroop-blue'>BRIDGE</p>", "response": "b", "stimulus-type": "unrelated", "word": "BRIDGE", "color": "blue", "correct_response": "b", "trial_id": "stroop-trial-1-unrelated-7", "trial_type": "html-keyboard-response", "trial_index": 88, "time_elapsed": 359097, "internal_node_id": "0.0-4.0-84.0"}}, {"uniqueid": "w49201585:a64861023", "current_trial": 89, "dateTime": 1664464474078, "trialdata": {"rt": 1127, "stimulus": "<p id='stroop-text' class='stroop-yellow'>YELLOW</p>", "response": "y", "stimulus-type": "congruent", "word": "yellow", "color": "yellow", "correct_response": "y", "trial_id": "stroop-trial-1-congruent-19", "trial_type": "html-keyboard-response", "trial_index": 89, "time_elapsed": 360728, "internal_node_id": "0.0-4.0-85.0"}}, {"uniqueid": "w49201585:a64861023", "current_trial": 90, "dateTime": 1664464475295, "trialdata": {"rt": 697, "stimulus": "<p id='stroop-text' class='stroop-yellow'>YELLOW</p>", "response": "y", "stimulus-type": "congruent", "word": "yellow", "color": "yellow", "correct_response": "y", "trial_id": "stroop-trial-1-congruent-9", "trial_type": "html-keyboard-response", "trial_index": 90, "time_elapsed": 361944, "internal_node_id": "0.0-4.0-86.0"}}, {"uniqueid": "w49201585:a64861023", "current_trial": 91, "dateTime": 1664464476740, "trialdata": {"rt": 935, "stimulus": "<p id='stroop-text' class='stroop-red'>BRIDGE</p>", "response": "r", "stimulus-type": "unrelated", "word": "BRIDGE", "color": "red", "correct_response": "r", "trial_id": "stroop-trial-1-unrelated-14", "trial_type": "html-keyboard-response", "trial_index": 91, "time_elapsed": 363389, "internal_node_id": "0.0-4.0-87.0"}}, {"uniqueid": "w49201585:a64861023", "current_trial": 92, "dateTime": 1664464478782, "trialdata": {"rt": 1531, "stimulus": "<p id='stroop-text' class='stroop-blue'>MONKEY</p>", "response": "b", "stimulus-type": "unrelated", "word": "MONKEY", "color": "blue", "correct_response": "b", "trial_id": "stroop-trial-1-unrelated-8", "trial_type": "html-keyboard-response", "trial_index": 92, "time_elapsed": 365432, "internal_node_id": "0.0-4.0-88.0"}}, {"uniqueid": "w49201585:a64861023", "current_trial": 93, "dateTime": 1664464480058, "trialdata": {"rt": 765, "stimulus": "<p id='stroop-text' class='stroop-blue'>BLUE</p>", "response": "b", "stimulus-type": "congruent", "word": "blue", "color": "blue", "correct_response": "b", "trial_id": "stroop-trial-1-congruent-1", "trial_type": "html-keyboard-response", "trial_index": 93, "time_elapsed": 366708, "internal_node_id": "0.0-4.0-89.0"}}, {"uniqueid": "w49201585:a64861023", "current_trial": 94, "dateTime": 1664464499556, "trialdata": {"rt": 18981, "stimulus": "  <h1> End of block! </h1>\n\n  You have reached the end of the block 1/5. If you need a short break, feel free to take one now before moving on.\n\n  <br><br>\n  In the next block, you will complete another 90 rounds of this game.\n\n  <br><br>\n  <div style='text-align: center;'>Press <code>space</code> to begin.</div>\n  <br><br>\n<div style='text-align: center;'>(If the experiment doesn't continue, try clicking on the text and then pressing <code>space</code>.)</div>", "response": " ", "trial_id": "stroop_1_ready_2", "trial_type": "html-keyboard-response", "trial_index": 94, "time_elapsed": 386206, "internal_node_id": "0.0-5.0"}}, {"uniqueid": "w49201585:a64861023", "current_trial": 95, "dateTime": 1664464501658, "trialdata": {"rt": 2097, "stimulus": "<p id='stroop-text' class='stroop-yellow'>YELLOW</p>", "response": "y", "stimulus-type": "congruent", "word": "yellow", "color": "yellow", "correct_response": "y", "trial_id": "stroop-trial-1-congruent-10", "trial_type": "html-keyboard-response", "trial_index": 95, "time_elapsed": 388308, "internal_node_id": "0.0-6.0-0.0"}}, {"uniqueid": "w49201585:a64861023", "current_trial": 96, "dateTime": 1664464503785, "trialdata": {"rt": 1614, "stimulus": "<p id='stroop-text' class='stroop-red'>BLUE</p>", "response": "r", "stimulus-type": "incongruent", "word": "blue", "color": "red", "correct_response": "r", "trial_id": "stroop-trial-1-incongruent-6", "trial_type": "html-keyboard-response", "trial_index": 96, "time_elapsed": 390434, "internal_node_id": "0.0-6.0-1.0"}}, {"uniqueid": "w49201585:a64861023", "current_trial": 97, "dateTime": 1664464505660, "trialdata": {"rt": 1370, "stimulus": "<p id='stroop-text' class='stroop-blue'>BLUE</p>", "response": "b", "stimulus-type": "congruent", "word": "blue", "color": "blue", "correct_response": "b", "trial_id": "stroop-trial-1-congruent-3", "trial_type": "html-keyboard-response", "trial_index": 97, "time_elapsed": 392310, "internal_node_id": "0.0-6.0-2.0"}}, {"uniqueid": "w49201585:a64861023", "current_trial": 98, "dateTime": 1664464507144, "trialdata": {"rt": 977, "stimulus": "<p id='stroop-text' class='stroop-red'>RED</p>", "response": "r", "stimulus-type": "congruent", "word": "red", "color": "red", "correct_response": "r", "trial_id": "stroop-trial-1-congruent-8", "trial_type": "html-keyboard-response", "trial_index": 98, "time_elapsed": 393793, "internal_node_id": "0.0-6.0-3.0"}}, {"uniqueid": "w49201585:a64861023", "current_trial": 99, "dateTime": 1664464508786, "trialdata": {"rt": 1130, "stimulus": "<p id='stroop-text' class='stroop-red'>STONE</p>", "response": "r", "stimulus-type": "unrelated", "word": "STONE", "color": "red", "correct_response": "r", "trial_id": "stroop-trial-1-unrelated-22", "trial_type": "html-keyboard-response", "trial_index": 99, "time_elapsed": 395436, "internal_node_id": "0.0-6.0-4.0"}}, {"uniqueid": "w49201585:a64861023", "current_trial": 100, "dateTime": 1664464509890, "trialdata": {"rt": 587, "stimulus": "<p id='stroop-text' class='stroop-red'>DOG</p>", "response": "r", "stimulus-type": "unrelated", "word": "DOG", "color": "red", "correct_response": "r", "trial_id": "stroop-trial-1-unrelated-21", "trial_type": "html-keyboard-response", "trial_index": 100, "time_elapsed": 396540, "internal_node_id": "0.0-6.0-5.0"}}, {"uniqueid": "w49201585:a64861023", "current_trial": 101, "dateTime": 1664464511496, "trialdata": {"rt": 1099, "stimulus": "<p id='stroop-text' class='stroop-green'>GREEN</p>", "response": "g", "stimulus-type": "congruent", "word": "green", "color": "green", "correct_response": "g", "trial_id": "stroop-trial-1-congruent-26", "trial_type": "html-keyboard-response", "trial_index": 101, "time_elapsed": 398145, "internal_node_id": "0.0-6.0-6.0"}}, {"uniqueid": "w49201585:a64861023", "current_trial": 102, "dateTime": 1664464513429, "trialdata": {"rt": 1424, "stimulus": "<p id='stroop-text' class='stroop-yellow'>YELLOW</p>", "response": "y", "stimulus-type": "congruent", "word": "yellow", "color": "yellow", "correct_response": "y", "trial_id": "stroop-trial-1-congruent-12", "trial_type": "html-keyboard-response", "trial_index": 102, "time_elapsed": 400079, "internal_node_id": "0.0-6.0-7.0"}}, {"uniqueid": "w49201585:a64861023", "current_trial": 103, "dateTime": 1664464515588, "trialdata": {"rt": 1647, "stimulus": "<p id='stroop-text' class='stroop-green'>BRAIN</p>", "response": "g", "stimulus-type": "unrelated", "word": "BRAIN", "color": "green", "correct_response": "g", "trial_id": "stroop-trial-1-unrelated-11", "trial_type": "html-keyboard-response", "trial_index": 103, "time_elapsed": 402238, "internal_node_id": "0.0-6.0-8.0"}}, {"uniqueid": "w49201585:a64861023", "current_trial": 104, "dateTime": 1664464517257, "trialdata": {"rt": 1148, "stimulus": "<p id='stroop-text' class='stroop-blue'>SHIP</p>", "response": "b", "stimulus-type": "unrelated", "word": "SHIP", "color": "blue", "correct_response": "b", "trial_id": "stroop-trial-1-unrelated-10", "trial_type": "html-keyboard-response", "trial_index": 104, "time_elapsed": 403907, "internal_node_id": "0.0-6.0-9.0"}}, {"uniqueid": "w49201585:a64861023", "current_trial": 105, "dateTime": 1664464518798, "trialdata": {"rt": 1031, "stimulus": "<p id='stroop-text' class='stroop-green'>RED</p>", "response": "g", "stimulus-type": "incongruent", "word": "red", "color": "green", "correct_response": "g", "trial_id": "stroop-trial-1-incongruent-20", "trial_type": "html-keyboard-response", "trial_index": 105, "time_elapsed": 405448, "internal_node_id": "0.0-6.0-10.0"}}, {"uniqueid": "w49201585:a64861023", "current_trial": 106, "dateTime": 1664464520316, "trialdata": {"rt": 1000, "stimulus": "<p id='stroop-text' class='stroop-green'>YELLOW</p>", "response": "g", "stimulus-type": "incongruent", "word": "yellow", "color": "green", "correct_response": "g", "trial_id": "stroop-trial-1-incongruent-22", "trial_type": "html-keyboard-response", "trial_index": 106, "time_elapsed": 406965, "internal_node_id": "0.0-6.0-11.0"}}, {"uniqueid": "w49201585:a64861023", "current_trial": 107, "dateTime": 1664464521985, "trialdata": {"rt": 1165, "stimulus": "<p id='stroop-text' class='stroop-yellow'>MONKEY</p>", "response": "y", "stimulus-type": "unrelated", "word": "MONKEY", "color": "yellow", "correct_response": "y", "trial_id": "stroop-trial-1-unrelated-29", "trial_type": "html-keyboard-response", "trial_index": 107, "time_elapsed": 408635, "internal_node_id": "0.0-6.0-12.0"}}, {"uniqueid": "w49201585:a64861023", "current_trial": 108, "dateTime": 1664464523562, "trialdata": {"rt": 1065, "stimulus": "<p id='stroop-text' class='stroop-red'>RED</p>", "response": "r", "stimulus-type": "congruent", "word": "red", "color": "red", "correct_response": "r", "trial_id": "stroop-trial-1-congruent-15", "trial_type": "html-keyboard-response", "trial_index": 108, "time_elapsed": 410212, "internal_node_id": "0.0-6.0-13.0"}}, {"uniqueid": "w49201585:a64861023", "current_trial": 109, "dateTime": 1664464525030, "trialdata": {"rt": 956, "stimulus": "<p id='stroop-text' class='stroop-green'>SHIP</p>", "response": "g", "stimulus-type": "unrelated", "word": "SHIP", "color": "green", "correct_response": "g", "trial_id": "stroop-trial-1-unrelated-16", "trial_type": "html-keyboard-response", "trial_index": 109, "time_elapsed": 411680, "internal_node_id": "0.0-6.0-14.0"}}, {"uniqueid": "w49201585:a64861023", "current_trial": 110, "dateTime": 1664464526651, "trialdata": {"rt": 1108, "stimulus": "<p id='stroop-text' class='stroop-green'>GREEN</p>", "response": "g", "stimulus-type": "congruent", "word": "green", "color": "green", "correct_response": "g", "trial_id": "stroop-trial-1-congruent-9", "trial_type": "html-keyboard-response", "trial_index": 110, "time_elapsed": 413301, "internal_node_id": "0.0-6.0-15.0"}}, {"uniqueid": "w49201585:a64861023", "current_trial": 111, "dateTime": 1664464527697, "trialdata": {"rt": 533, "stimulus": "<p id='stroop-text' class='stroop-green'>RED</p>", "response": "g", "stimulus-type": "incongruent", "word": "red", "color": "green", "correct_response": "g", "trial_id": "stroop-trial-1-incongruent-28", "trial_type": "html-keyboard-response", "trial_index": 111, "time_elapsed": 414347, "internal_node_id": "0.0-6.0-16.0"}}, {"uniqueid": "w49201585:a64861023", "current_trial": 112, "dateTime": 1664464529112, "trialdata": {"rt": 906, "stimulus": "<p id='stroop-text' class='stroop-yellow'>YELLOW</p>", "response": "y", "stimulus-type": "congruent", "word": "yellow", "color": "yellow", "correct_response": "y", "trial_id": "stroop-trial-1-congruent-27", "trial_type": "html-keyboard-response", "trial_index": 112, "time_elapsed": 415762, "internal_node_id": "0.0-6.0-17.0"}}, {"uniqueid": "w49201585:a64861023", "current_trial": 113, "dateTime": 1664464530912, "trialdata": {"rt": 1282, "stimulus": "<p id='stroop-text' class='stroop-green'>BLUE</p>", "response": "g", "stimulus-type": "incongruent", "word": "blue", "color": "green", "correct_response": "g", "trial_id": "stroop-trial-1-incongruent-16", "trial_type": "html-keyboard-response", "trial_index": 113, "time_elapsed": 417561, "internal_node_id": "0.0-6.0-18.0"}}, {"uniqueid": "w49201585:a64861023", "current_trial": 114, "dateTime": 1664464532656, "trialdata": {"rt": 1237, "stimulus": "<p id='stroop-text' class='stroop-red'>YELLOW</p>", "response": "r", "stimulus-type": "incongruent", "word": "yellow", "color": "red", "correct_response": "r", "trial_id": "stroop-trial-1-incongruent-12", "trial_type": "html-keyboard-response", "trial_index": 114, "time_elapsed": 419306, "internal_node_id": "0.0-6.0-19.0"}}, {"uniqueid": "w49201585:a64861023", "current_trial": 115, "dateTime": 1664464534280, "trialdata": {"rt": 1111, "stimulus": "<p id='stroop-text' class='stroop-yellow'>BOTTLE</p>", "response": "y", "stimulus-type": "unrelated", "word": "BOTTLE", "color": "yellow", "correct_response": "y", "trial_id": "stroop-trial-1-unrelated-15", "trial_type": "html-keyboard-response", "trial_index": 115, "time_elapsed": 420930, "internal_node_id": "0.0-6.0-20.0"}}, {"uniqueid": "w49201585:a64861023", "current_trial": 116, "dateTime": 1664464537697, "trialdata": {"rt": 2898, "stimulus": "<p id='stroop-text' class='stroop-green'>GREEN</p>", "response": "g", "stimulus-type": "congruent", "word": "green", "color": "green", "correct_response": "g", "trial_id": "stroop-trial-1-congruent-17", "trial_type": "html-keyboard-response", "trial_index": 116, "time_elapsed": 424347, "internal_node_id": "0.0-6.0-21.0"}}, {"uniqueid": "w49201585:a64861023", "current_trial": 117, "dateTime": 1664464539767, "trialdata": {"rt": 1564, "stimulus": "<p id='stroop-text' class='stroop-green'>RED</p>", "response": "g", "stimulus-type": "incongruent", "word": "red", "color": "green", "correct_response": "g", "trial_id": "stroop-trial-1-incongruent-7", "trial_type": "html-keyboard-response", "trial_index": 117, "time_elapsed": 426416, "internal_node_id": "0.0-6.0-22.0"}}, {"uniqueid": "w49201585:a64861023", "current_trial": 118, "dateTime": 1664464541427, "trialdata": {"rt": 1143, "stimulus": "<p id='stroop-text' class='stroop-red'>GREEN</p>", "response": "r", "stimulus-type": "incongruent", "word": "green", "color": "red", "correct_response": "r", "trial_id": "stroop-trial-1-incongruent-29", "trial_type": "html-keyboard-response", "trial_index": 118, "time_elapsed": 428077, "internal_node_id": "0.0-6.0-23.0"}}, {"uniqueid": "w49201585:a64861023", "current_trial": 119, "dateTime": 1664464543359, "trialdata": {"rt": 1426, "stimulus": "<p id='stroop-text' class='stroop-blue'>WINDOW</p>", "response": "b", "stimulus-type": "unrelated", "word": "WINDOW", "color": "blue", "correct_response": "b", "trial_id": "stroop-trial-1-unrelated-20", "trial_type": "html-keyboard-response", "trial_index": 119, "time_elapsed": 430008, "internal_node_id": "0.0-6.0-24.0"}}, {"uniqueid": "w49201585:a64861023", "current_trial": 120, "dateTime": 1664464544846, "trialdata": {"rt": 979, "stimulus": "<p id='stroop-text' class='stroop-red'>GREEN</p>", "response": "r", "stimulus-type": "incongruent", "word": "green", "color": "red", "correct_response": "r", "trial_id": "stroop-trial-1-incongruent-11", "trial_type": "html-keyboard-response", "trial_index": 120, "time_elapsed": 431496, "internal_node_id": "0.0-6.0-25.0"}}, {"uniqueid": "w49201585:a64861023", "current_trial": 121, "dateTime": 1664464546408, "trialdata": {"rt": 1053, "stimulus": "<p id='stroop-text' class='stroop-yellow'>BLUE</p>", "response": "y", "stimulus-type": "incongruent", "word": "blue", "color": "yellow", "correct_response": "y", "trial_id": "stroop-trial-1-incongruent-27", "trial_type": "html-keyboard-response", "trial_index": 121, "time_elapsed": 433057, "internal_node_id": "0.0-6.0-26.0"}}, {"uniqueid": "w49201585:a64861023", "current_trial": 122, "dateTime": 1664464549029, "trialdata": {"rt": 2107, "stimulus": "<p id='stroop-text' class='stroop-blue'>BLUE</p>", "response": "b", "stimulus-type": "congruent", "word": "blue", "color": "blue", "correct_response": "b", "trial_id": "stroop-trial-1-congruent-23", "trial_type": "html-keyboard-response", "trial_index": 122, "time_elapsed": 435679, "internal_node_id": "0.0-6.0-27.0"}}, {"uniqueid": "w49201585:a64861023", "current_trial": 123, "dateTime": 1664464551241, "trialdata": {"rt": 1699, "stimulus": "<p id='stroop-text' class='stroop-red'>RED</p>", "response": "r", "stimulus-type": "congruent", "word": "red", "color": "red", "correct_response": "r", "trial_id": "stroop-trial-1-congruent-4", "trial_type": "html-keyboard-response", "trial_index": 123, "time_elapsed": 437890, "internal_node_id": "0.0-6.0-28.0"}}, {"uniqueid": "w49201585:a64861023", "current_trial": 124, "dateTime": 1664464552528, "trialdata": {"rt": 776, "stimulus": "<p id='stroop-text' class='stroop-red'>SHIP</p>", "response": "r", "stimulus-type": "unrelated", "word": "SHIP", "color": "red", "correct_response": "r", "trial_id": "stroop-trial-1-unrelated-27", "trial_type": "html-keyboard-response", "trial_index": 124, "time_elapsed": 439178, "internal_node_id": "0.0-6.0-29.0"}}, {"uniqueid": "w49201585:a64861023", "current_trial": 125, "dateTime": 1664464553932, "trialdata": {"rt": 892, "stimulus": "<p id='stroop-text' class='stroop-blue'>WINDOW</p>", "response": "b", "stimulus-type": "unrelated", "word": "WINDOW", "color": "blue", "correct_response": "b", "trial_id": "stroop-trial-1-unrelated-30", "trial_type": "html-keyboard-response", "trial_index": 125, "time_elapsed": 440581, "internal_node_id": "0.0-6.0-30.0"}}, {"uniqueid": "w49201585:a64861023", "current_trial": 126, "dateTime": 1664464555611, "trialdata": {"rt": 1166, "stimulus": "<p id='stroop-text' class='stroop-yellow'>GREEN</p>", "response": "y", "stimulus-type": "incongruent", "word": "green", "color": "yellow", "correct_response": "y", "trial_id": "stroop-trial-1-incongruent-13", "trial_type": "html-keyboard-response", "trial_index": 126, "time_elapsed": 442260, "internal_node_id": "0.0-6.0-31.0"}}, {"uniqueid": "w49201585:a64861023", "current_trial": 127, "dateTime": 1664464557410, "trialdata": {"rt": 1290, "stimulus": "<p id='stroop-text' class='stroop-yellow'>RED</p>", "response": "y", "stimulus-type": "incongruent", "word": "red", "color": "yellow", "correct_response": "y", "trial_id": "stroop-trial-1-incongruent-10", "trial_type": "html-keyboard-response", "trial_index": 127, "time_elapsed": 444060, "internal_node_id": "0.0-6.0-32.0"}}, {"uniqueid": "w49201585:a64861023", "current_trial": 128, "dateTime": 1664464559271, "trialdata": {"rt": 1341, "stimulus": "<p id='stroop-text' class='stroop-green'>YELLOW</p>", "response": "g", "stimulus-type": "incongruent", "word": "yellow", "color": "green", "correct_response": "g", "trial_id": "stroop-trial-1-incongruent-23", "trial_type": "html-keyboard-response", "trial_index": 128, "time_elapsed": 445920, "internal_node_id": "0.0-6.0-33.0"}}, {"uniqueid": "w49201585:a64861023", "current_trial": 129, "dateTime": 1664464561087, "trialdata": {"rt": 1309, "stimulus": "<p id='stroop-text' class='stroop-yellow'>RED</p>", "response": "y", "stimulus-type": "incongruent", "word": "red", "color": "yellow", "correct_response": "y", "trial_id": "stroop-trial-1-incongruent-25", "trial_type": "html-keyboard-response", "trial_index": 129, "time_elapsed": 447737, "internal_node_id": "0.0-6.0-34.0"}}, {"uniqueid": "w49201585:a64861023", "current_trial": 130, "dateTime": 1664464562419, "trialdata": {"rt": 822, "stimulus": "<p id='stroop-text' class='stroop-red'>WINDOW</p>", "response": "r", "stimulus-type": "unrelated", "word": "WINDOW", "color": "red", "correct_response": "r", "trial_id": "stroop-trial-1-unrelated-14", "trial_type": "html-keyboard-response", "trial_index": 130, "time_elapsed": 449068, "internal_node_id": "0.0-6.0-35.0"}}, {"uniqueid": "w49201585:a64861023", "current_trial": 131, "dateTime": 1664464563751, "trialdata": {"rt": 822, "stimulus": "<p id='stroop-text' class='stroop-red'>BLUE</p>", "response": "r", "stimulus-type": "incongruent", "word": "blue", "color": "red", "correct_response": "r", "trial_id": "stroop-trial-1-incongruent-8", "trial_type": "html-keyboard-response", "trial_index": 131, "time_elapsed": 450400, "internal_node_id": "0.0-6.0-36.0"}}, {"uniqueid": "w49201585:a64861023", "current_trial": 132, "dateTime": 1664464565309, "trialdata": {"rt": 1050, "stimulus": "<p id='stroop-text' class='stroop-yellow'>STONE</p>", "response": "y", "stimulus-type": "unrelated", "word": "STONE", "color": "yellow", "correct_response": "y", "trial_id": "stroop-trial-1-unrelated-28", "trial_type": "html-keyboard-response", "trial_index": 132, "time_elapsed": 451959, "internal_node_id": "0.0-6.0-37.0"}}, {"uniqueid": "w49201585:a64861023", "current_trial": 133, "dateTime": 1664464567174, "trialdata": {"rt": 1350, "stimulus": "<p id='stroop-text' class='stroop-green'>BLUE</p>", "response": "g", "stimulus-type": "incongruent", "word": "blue", "color": "green", "correct_response": "g", "trial_id": "stroop-trial-1-incongruent-26", "trial_type": "html-keyboard-response", "trial_index": 133, "time_elapsed": 453824, "internal_node_id": "0.0-6.0-38.0"}}, {"uniqueid": "w49201585:a64861023", "current_trial": 134, "dateTime": 1664464569190, "trialdata": {"rt": 1511, "stimulus": "<p id='stroop-text' class='stroop-red'>YELLOW</p>", "response": "r", "stimulus-type": "incongruent", "word": "yellow", "color": "red", "correct_response": "r", "trial_id": "stroop-trial-1-incongruent-21", "trial_type": "html-keyboard-response", "trial_index": 134, "time_elapsed": 455840, "internal_node_id": "0.0-6.0-39.0"}}, {"uniqueid": "w49201585:a64861023", "current_trial": 135, "dateTime": 1664464570574, "trialdata": {"rt": 864, "stimulus": "<p id='stroop-text' class='stroop-green'>BRAIN</p>", "response": "g", "stimulus-type": "unrelated", "word": "BRAIN", "color": "green", "correct_response": "g", "trial_id": "stroop-trial-1-unrelated-6", "trial_type": "html-keyboard-response", "trial_index": 135, "time_elapsed": 457224, "internal_node_id": "0.0-6.0-40.0"}}, {"uniqueid": "w49201585:a64861023", "current_trial": 136, "dateTime": 1664464572101, "trialdata": {"rt": 1011, "stimulus": "<p id='stroop-text' class='stroop-blue'>BLUE</p>", "response": "b", "stimulus-type": "congruent", "word": "blue", "color": "blue", "correct_response": "b", "trial_id": "stroop-trial-1-congruent-7", "trial_type": "html-keyboard-response", "trial_index": 136, "time_elapsed": 458750, "internal_node_id": "0.0-6.0-41.0"}}, {"uniqueid": "w49201585:a64861023", "current_trial": 137, "dateTime": 1664464573219, "trialdata": {"rt": 599, "stimulus": "<p id='stroop-text' class='stroop-blue'>BLUE</p>", "response": "b", "stimulus-type": "congruent", "word": "blue", "color": "blue", "correct_response": "b", "trial_id": "stroop-trial-1-congruent-22", "trial_type": "html-keyboard-response", "trial_index": 137, "time_elapsed": 459868, "internal_node_id": "0.0-6.0-42.0"}}, {"uniqueid": "w49201585:a64861023", "current_trial": 138, "dateTime": 1664464574275, "trialdata": {"rt": 545, "stimulus": "<p id='stroop-text' class='stroop-blue'>DOG</p>", "response": "b", "stimulus-type": "unrelated", "word": "DOG", "color": "blue", "correct_response": "b", "trial_id": "stroop-trial-1-unrelated-7", "trial_type": "html-keyboard-response", "trial_index": 138, "time_elapsed": 460924, "internal_node_id": "0.0-6.0-43.0"}}, {"uniqueid": "w49201585:a64861023", "current_trial": 139, "dateTime": 1664464575290, "trialdata": {"rt": 506, "stimulus": "<p id='stroop-text' class='stroop-blue'>BLUE</p>", "response": "b", "stimulus-type": "congruent", "word": "blue", "color": "blue", "correct_response": "b", "trial_id": "stroop-trial-1-congruent-14", "trial_type": "html-keyboard-response", "trial_index": 139, "time_elapsed": 461940, "internal_node_id": "0.0-6.0-44.0"}}, {"uniqueid": "w49201585:a64861023", "current_trial": 140, "dateTime": 1664464576979, "trialdata": {"rt": 1176, "stimulus": "<p id='stroop-text' class='stroop-green'>BOTTLE</p>", "response": "g", "stimulus-type": "unrelated", "word": "BOTTLE", "color": "green", "correct_response": "g", "trial_id": "stroop-trial-1-unrelated-4", "trial_type": "html-keyboard-response", "trial_index": 140, "time_elapsed": 463629, "internal_node_id": "0.0-6.0-45.0"}}, {"uniqueid": "w49201585:a64861023", "current_trial": 141, "dateTime": 1664464578601, "trialdata": {"rt": 1102, "stimulus": "<p id='stroop-text' class='stroop-yellow'>DOG</p>", "response": "y", "stimulus-type": "unrelated", "word": "DOG", "color": "yellow", "correct_response": "y", "trial_id": "stroop-trial-1-unrelated-12", "trial_type": "html-keyboard-response", "trial_index": 141, "time_elapsed": 465250, "internal_node_id": "0.0-6.0-46.0"}}, {"uniqueid": "w49201585:a64861023", "current_trial": 142, "dateTime": 1664464580155, "trialdata": {"rt": 1044, "stimulus": "<p id='stroop-text' class='stroop-green'>CHAIR</p>", "response": "g", "stimulus-type": "unrelated", "word": "CHAIR", "color": "green", "correct_response": "g", "trial_id": "stroop-trial-1-unrelated-25", "trial_type": "html-keyboard-response", "trial_index": 142, "time_elapsed": 466804, "internal_node_id": "0.0-6.0-47.0"}}, {"uniqueid": "w49201585:a64861023", "current_trial": 143, "dateTime": 1664464581798, "trialdata": {"rt": 1126, "stimulus": "<p id='stroop-text' class='stroop-yellow'>YELLOW</p>", "response": "y", "stimulus-type": "congruent", "word": "yellow", "color": "yellow", "correct_response": "y", "trial_id": "stroop-trial-1-congruent-30", "trial_type": "html-keyboard-response", "trial_index": 143, "time_elapsed": 468448, "internal_node_id": "0.0-6.0-48.0"}}, {"uniqueid": "w49201585:a64861023", "current_trial": 144, "dateTime": 1664464583952, "trialdata": {"rt": 1643, "stimulus": "<p id='stroop-text' class='stroop-blue'>YELLOW</p>", "response": "b", "stimulus-type": "incongruent", "word": "yellow", "color": "blue", "correct_response": "b", "trial_id": "stroop-trial-1-incongruent-9", "trial_type": "html-keyboard-response", "trial_index": 144, "time_elapsed": 470602, "internal_node_id": "0.0-6.0-49.0"}}, {"uniqueid": "w49201585:a64861023", "current_trial": 145, "dateTime": 1664464585935, "trialdata": {"rt": 1474, "stimulus": "<p id='stroop-text' class='stroop-yellow'>GREEN</p>", "response": "y", "stimulus-type": "incongruent", "word": "green", "color": "yellow", "correct_response": "y", "trial_id": "stroop-trial-1-incongruent-15", "trial_type": "html-keyboard-response", "trial_index": 145, "time_elapsed": 472585, "internal_node_id": "0.0-6.0-50.0"}}, {"uniqueid": "w49201585:a64861023", "current_trial": 146, "dateTime": 1664464587245, "trialdata": {"rt": 786, "stimulus": "<p id='stroop-text' class='stroop-red'>RED</p>", "response": "r", "stimulus-type": "congruent", "word": "red", "color": "red", "correct_response": "r", "trial_id": "stroop-trial-1-congruent-6", "trial_type": "html-keyboard-response", "trial_index": 146, "time_elapsed": 473895, "internal_node_id": "0.0-6.0-51.0"}}, {"uniqueid": "w49201585:a64861023", "current_trial": 147, "dateTime": 1664464588506, "trialdata": {"rt": 753, "stimulus": "<p id='stroop-text' class='stroop-yellow'>BOTTLE</p>", "response": "y", "stimulus-type": "unrelated", "word": "BOTTLE", "color": "yellow", "correct_response": "y", "trial_id": "stroop-trial-1-unrelated-18", "trial_type": "html-keyboard-response", "trial_index": 147, "time_elapsed": 475155, "internal_node_id": "0.0-6.0-52.0"}}, {"uniqueid": "w49201585:a64861023", "current_trial": 148, "dateTime": 1664464589662, "trialdata": {"rt": 649, "stimulus": "<p id='stroop-text' class='stroop-red'>RED</p>", "response": "r", "stimulus-type": "congruent", "word": "red", "color": "red", "correct_response": "r", "trial_id": "stroop-trial-1-congruent-13", "trial_type": "html-keyboard-response", "trial_index": 148, "time_elapsed": 476311, "internal_node_id": "0.0-6.0-53.0"}}, {"uniqueid": "w49201585:a64861023", "current_trial": 149, "dateTime": 1664464591558, "trialdata": {"rt": 1387, "stimulus": "<p id='stroop-text' class='stroop-green'>DOG</p>", "response": "g", "stimulus-type": "unrelated", "word": "DOG", "color": "green", "correct_response": "g", "trial_id": "stroop-trial-1-unrelated-5", "trial_type": "html-keyboard-response", "trial_index": 149, "time_elapsed": 478208, "internal_node_id": "0.0-6.0-54.0"}}, {"uniqueid": "w49201585:a64861023", "current_trial": 150, "dateTime": 1664464593214, "trialdata": {"rt": 1145, "stimulus": "<p id='stroop-text' class='stroop-blue'>BLUE</p>", "response": "b", "stimulus-type": "congruent", "word": "blue", "color": "blue", "correct_response": "b", "trial_id": "stroop-trial-1-congruent-18", "trial_type": "html-keyboard-response", "trial_index": 150, "time_elapsed": 479864, "internal_node_id": "0.0-6.0-55.0"}}, {"uniqueid": "w49201585:a64861023", "current_trial": 151, "dateTime": 1664464594636, "trialdata": {"rt": 911, "stimulus": "<p id='stroop-text' class='stroop-red'>FORK</p>", "response": "r", "stimulus-type": "unrelated", "word": "FORK", "color": "red", "correct_response": "r", "trial_id": "stroop-trial-1-unrelated-13", "trial_type": "html-keyboard-response", "trial_index": 151, "time_elapsed": 481286, "internal_node_id": "0.0-6.0-56.0"}}, {"uniqueid": "w49201585:a64861023", "current_trial": 152, "dateTime": 1664464595903, "trialdata": {"rt": 756, "stimulus": "<p id='stroop-text' class='stroop-red'>RED</p>", "response": "r", "stimulus-type": "congruent", "word": "red", "color": "red", "correct_response": "r", "trial_id": "stroop-trial-1-congruent-19", "trial_type": "html-keyboard-response", "trial_index": 152, "time_elapsed": 482553, "internal_node_id": "0.0-6.0-57.0"}}, {"uniqueid": "w49201585:a64861023", "current_trial": 153, "dateTime": 1664464597540, "trialdata": {"rt": 1128, "stimulus": "<p id='stroop-text' class='stroop-yellow'>RED</p>", "response": "y", "stimulus-type": "incongruent", "word": "red", "color": "yellow", "correct_response": "y", "trial_id": "stroop-trial-1-incongruent-18", "trial_type": "html-keyboard-response", "trial_index": 153, "time_elapsed": 484189, "internal_node_id": "0.0-6.0-58.0"}}, {"uniqueid": "w49201585:a64861023", "current_trial": 154, "dateTime": 1664464599507, "trialdata": {"rt": 1463, "stimulus": "<p id='stroop-text' class='stroop-red'>RED</p>", "response": "r", "stimulus-type": "congruent", "word": "red", "color": "red", "correct_response": "r", "trial_id": "stroop-trial-1-congruent-29", "trial_type": "html-keyboard-response", "trial_index": 154, "time_elapsed": 486157, "internal_node_id": "0.0-6.0-59.0"}}, {"uniqueid": "w49201585:a64861023", "current_trial": 155, "dateTime": 1664464601244, "trialdata": {"rt": 1219, "stimulus": "<p id='stroop-text' class='stroop-green'>BLUE</p>", "response": "g", "stimulus-type": "incongruent", "word": "blue", "color": "green", "correct_response": "g", "trial_id": "stroop-trial-1-incongruent-3", "trial_type": "html-keyboard-response", "trial_index": 155, "time_elapsed": 487894, "internal_node_id": "0.0-6.0-60.0"}}, {"uniqueid": "w49201585:a64861023", "current_trial": 156, "dateTime": 1664464602705, "trialdata": {"rt": 954, "stimulus": "<p id='stroop-text' class='stroop-yellow'>YELLOW</p>", "response": "y", "stimulus-type": "congruent", "word": "yellow", "color": "yellow", "correct_response": "y", "trial_id": "stroop-trial-1-congruent-2", "trial_type": "html-keyboard-response", "trial_index": 156, "time_elapsed": 489354, "internal_node_id": "0.0-6.0-61.0"}}, {"uniqueid": "w49201585:a64861023", "current_trial": 157, "dateTime": 1664464608167, "trialdata": {"rt": 4952, "stimulus": "<p id='stroop-text' class='stroop-green'>BOAT</p>", "response": "g", "stimulus-type": "unrelated", "word": "BOAT", "color": "green", "correct_response": "g", "trial_id": "stroop-trial-1-unrelated-23", "trial_type": "html-keyboard-response", "trial_index": 157, "time_elapsed": 494816, "internal_node_id": "0.0-6.0-62.0"}}, {"uniqueid": "w49201585:a64861023", "current_trial": 158, "dateTime": 1664464609787, "trialdata": {"rt": 1111, "stimulus": "<p id='stroop-text' class='stroop-yellow'>RED</p>", "response": "y", "stimulus-type": "incongruent", "word": "red", "color": "yellow", "correct_response": "y", "trial_id": "stroop-trial-1-incongruent-30", "trial_type": "html-keyboard-response", "trial_index": 158, "time_elapsed": 496436, "internal_node_id": "0.0-6.0-63.0"}}, {"uniqueid": "w49201585:a64861023", "current_trial": 159, "dateTime": 1664464612808, "trialdata": {"rt": 2516, "stimulus": "<p id='stroop-text' class='stroop-red'>YELLOW</p>", "response": "r", "stimulus-type": "incongruent", "word": "yellow", "color": "red", "correct_response": "r", "trial_id": "stroop-trial-1-incongruent-1", "trial_type": "html-keyboard-response", "trial_index": 159, "time_elapsed": 499458, "internal_node_id": "0.0-6.0-64.0"}}, {"uniqueid": "w49201585:a64861023", "current_trial": 160, "dateTime": 1664464614351, "trialdata": {"rt": 1038, "stimulus": "<p id='stroop-text' class='stroop-blue'>BLUE</p>", "response": "b", "stimulus-type": "congruent", "word": "blue", "color": "blue", "correct_response": "b", "trial_id": "stroop-trial-1-congruent-21", "trial_type": "html-keyboard-response", "trial_index": 160, "time_elapsed": 501001, "internal_node_id": "0.0-6.0-65.0"}}, {"uniqueid": "w49201585:a64861023", "current_trial": 161, "dateTime": 1664464616524, "trialdata": {"rt": 1664, "stimulus": "<p id='stroop-text' class='stroop-yellow'>RED</p>", "response": "y", "stimulus-type": "incongruent", "word": "red", "color": "yellow", "correct_response": "y", "trial_id": "stroop-trial-1-incongruent-5", "trial_type": "html-keyboard-response", "trial_index": 161, "time_elapsed": 503173, "internal_node_id": "0.0-6.0-66.0"}}, {"uniqueid": "w49201585:a64861023", "current_trial": 162, "dateTime": 1664464618336, "trialdata": {"rt": 1305, "stimulus": "<p id='stroop-text' class='stroop-blue'>BRAIN</p>", "response": "b", "stimulus-type": "unrelated", "word": "BRAIN", "color": "blue", "correct_response": "b", "trial_id": "stroop-trial-1-unrelated-8", "trial_type": "html-keyboard-response", "trial_index": 162, "time_elapsed": 504985, "internal_node_id": "0.0-6.0-67.0"}}, {"uniqueid": "w49201585:a64861023", "current_trial": 163, "dateTime": 1664464620066, "trialdata": {"rt": 1224, "stimulus": "<p id='stroop-text' class='stroop-yellow'>BOAT</p>", "response": "y", "stimulus-type": "unrelated", "word": "BOAT", "color": "yellow", "correct_response": "y", "trial_id": "stroop-trial-1-unrelated-9", "trial_type": "html-keyboard-response", "trial_index": 163, "time_elapsed": 506716, "internal_node_id": "0.0-6.0-68.0"}}, {"uniqueid": "w49201585:a64861023", "current_trial": 164, "dateTime": 1664464621613, "trialdata": {"rt": 1041, "stimulus": "<p id='stroop-text' class='stroop-green'>BRAIN</p>", "response": "g", "stimulus-type": "unrelated", "word": "BRAIN", "color": "green", "correct_response": "g", "trial_id": "stroop-trial-1-unrelated-2", "trial_type": "html-keyboard-response", "trial_index": 164, "time_elapsed": 508263, "internal_node_id": "0.0-6.0-69.0"}}, {"uniqueid": "w49201585:a64861023", "current_trial": 165, "dateTime": 1664464622797, "trialdata": {"rt": 672, "stimulus": "<p id='stroop-text' class='stroop-red'>YELLOW</p>", "response": "r", "stimulus-type": "incongruent", "word": "yellow", "color": "red", "correct_response": "r", "trial_id": "stroop-trial-1-incongruent-4", "trial_type": "html-keyboard-response", "trial_index": 165, "time_elapsed": 509447, "internal_node_id": "0.0-6.0-70.0"}}, {"uniqueid": "w49201585:a64861023", "current_trial": 166, "dateTime": 1664464624505, "trialdata": {"rt": 1200, "stimulus": "<p id='stroop-text' class='stroop-yellow'>GREEN</p>", "response": "y", "stimulus-type": "incongruent", "word": "green", "color": "yellow", "correct_response": "y", "trial_id": "stroop-trial-1-incongruent-14", "trial_type": "html-keyboard-response", "trial_index": 166, "time_elapsed": 511154, "internal_node_id": "0.0-6.0-71.0"}}, {"uniqueid": "w49201585:a64861023", "current_trial": 167, "dateTime": 1664464626490, "trialdata": {"rt": 1464, "stimulus": "<p id='stroop-text' class='stroop-blue'>RED</p>", "response": "b", "stimulus-type": "incongruent", "word": "red", "color": "blue", "correct_response": "b", "trial_id": "stroop-trial-1-incongruent-19", "trial_type": "html-keyboard-response", "trial_index": 167, "time_elapsed": 513140, "internal_node_id": "0.0-6.0-72.0"}}, {"uniqueid": "w49201585:a64861023", "current_trial": 168, "dateTime": 1664464628157, "trialdata": {"rt": 1159, "stimulus": "<p id='stroop-text' class='stroop-green'>BRIDGE</p>", "response": "g", "stimulus-type": "unrelated", "word": "BRIDGE", "color": "green", "correct_response": "g", "trial_id": "stroop-trial-1-unrelated-24", "trial_type": "html-keyboard-response", "trial_index": 168, "time_elapsed": 514806, "internal_node_id": "0.0-6.0-73.0"}}, {"uniqueid": "w49201585:a64861023", "current_trial": 169, "dateTime": 1664464629422, "trialdata": {"rt": 759, "stimulus": "<p id='stroop-text' class='stroop-red'>RED</p>", "response": "r", "stimulus-type": "congruent", "word": "red", "color": "red", "correct_response": "r", "trial_id": "stroop-trial-1-congruent-28", "trial_type": "html-keyboard-response", "trial_index": 169, "time_elapsed": 516072, "internal_node_id": "0.0-6.0-74.0"}}, {"uniqueid": "w49201585:a64861023", "current_trial": 170, "dateTime": 1664464630717, "trialdata": {"rt": 787, "stimulus": "<p id='stroop-text' class='stroop-green'>WINDOW</p>", "response": "g", "stimulus-type": "unrelated", "word": "WINDOW", "color": "green", "correct_response": "g", "trial_id": "stroop-trial-1-unrelated-3", "trial_type": "html-keyboard-response", "trial_index": 170, "time_elapsed": 517366, "internal_node_id": "0.0-6.0-75.0"}}, {"uniqueid": "w49201585:a64861023", "current_trial": 171, "dateTime": 1664464632166, "trialdata": {"rt": 942, "stimulus": "<p id='stroop-text' class='stroop-yellow'>BOAT</p>", "response": "y", "stimulus-type": "unrelated", "word": "BOAT", "color": "yellow", "correct_response": "y", "trial_id": "stroop-trial-1-unrelated-26", "trial_type": "html-keyboard-response", "trial_index": 171, "time_elapsed": 518815, "internal_node_id": "0.0-6.0-76.0"}}, {"uniqueid": "w49201585:a64861023", "current_trial": 172, "dateTime": 1664464633876, "trialdata": {"rt": 1197, "stimulus": "<p id='stroop-text' class='stroop-green'>YELLOW</p>", "response": "g", "stimulus-type": "incongruent", "word": "yellow", "color": "green", "correct_response": "g", "trial_id": "stroop-trial-1-incongruent-17", "trial_type": "html-keyboard-response", "trial_index": 172, "time_elapsed": 520525, "internal_node_id": "0.0-6.0-77.0"}}, {"uniqueid": "w49201585:a64861023", "current_trial": 173, "dateTime": 1664464635163, "trialdata": {"rt": 780, "stimulus": "<p id='stroop-text' class='stroop-red'>WINDOW</p>", "response": "r", "stimulus-type": "unrelated", "word": "WINDOW", "color": "red", "correct_response": "r", "trial_id": "stroop-trial-1-unrelated-19", "trial_type": "html-keyboard-response", "trial_index": 173, "time_elapsed": 521813, "internal_node_id": "0.0-6.0-78.0"}}, {"uniqueid": "w49201585:a64861023", "current_trial": 174, "dateTime": 1664464636207, "trialdata": {"rt": 539, "stimulus": "<p id='stroop-text' class='stroop-red'>RED</p>", "response": "r", "stimulus-type": "congruent", "word": "red", "color": "red", "correct_response": "r", "trial_id": "stroop-trial-1-congruent-24", "trial_type": "html-keyboard-response", "trial_index": 174, "time_elapsed": 522857, "internal_node_id": "0.0-6.0-79.0"}}, {"uniqueid": "w49201585:a64861023", "current_trial": 175, "dateTime": 1664464637733, "trialdata": {"rt": 1012, "stimulus": "<p id='stroop-text' class='stroop-blue'>CHAIR</p>", "response": "b", "stimulus-type": "unrelated", "word": "CHAIR", "color": "blue", "correct_response": "b", "trial_id": "stroop-trial-1-unrelated-17", "trial_type": "html-keyboard-response", "trial_index": 175, "time_elapsed": 524383, "internal_node_id": "0.0-6.0-80.0"}}, {"uniqueid": "w49201585:a64861023", "current_trial": 176, "dateTime": 1664464639587, "trialdata": {"rt": 1348, "stimulus": "<p id='stroop-text' class='stroop-yellow'>SHIP</p>", "response": "y", "stimulus-type": "unrelated", "word": "SHIP", "color": "yellow", "correct_response": "y", "trial_id": "stroop-trial-1-unrelated-1", "trial_type": "html-keyboard-response", "trial_index": 176, "time_elapsed": 526236, "internal_node_id": "0.0-6.0-81.0"}}, {"uniqueid": "w49201585:a64861023", "current_trial": 177, "dateTime": 1664464640840, "trialdata": {"rt": 741, "stimulus": "<p id='stroop-text' class='stroop-red'>RED</p>", "response": "r", "stimulus-type": "congruent", "word": "red", "color": "red", "correct_response": "r", "trial_id": "stroop-trial-1-congruent-5", "trial_type": "html-keyboard-response", "trial_index": 177, "time_elapsed": 527489, "internal_node_id": "0.0-6.0-82.0"}}, {"uniqueid": "w49201585:a64861023", "current_trial": 178, "dateTime": 1664464642339, "trialdata": {"rt": 984, "stimulus": "<p id='stroop-text' class='stroop-green'>GREEN</p>", "response": "g", "stimulus-type": "congruent", "word": "green", "color": "green", "correct_response": "g", "trial_id": "stroop-trial-1-congruent-11", "trial_type": "html-keyboard-response", "trial_index": 178, "time_elapsed": 528989, "internal_node_id": "0.0-6.0-83.0"}}, {"uniqueid": "w49201585:a64861023", "current_trial": 179, "dateTime": 1664464643597, "trialdata": {"rt": 748, "stimulus": "<p id='stroop-text' class='stroop-red'>RED</p>", "response": "r", "stimulus-type": "congruent", "word": "red", "color": "red", "correct_response": "r", "trial_id": "stroop-trial-1-congruent-16", "trial_type": "html-keyboard-response", "trial_index": 179, "time_elapsed": 530247, "internal_node_id": "0.0-6.0-84.0"}}, {"uniqueid": "w49201585:a64861023", "current_trial": 180, "dateTime": 1664464645143, "trialdata": {"rt": 1040, "stimulus": "<p id='stroop-text' class='stroop-blue'>YELLOW</p>", "response": "b", "stimulus-type": "incongruent", "word": "yellow", "color": "blue", "correct_response": "b", "trial_id": "stroop-trial-1-incongruent-24", "trial_type": "html-keyboard-response", "trial_index": 180, "time_elapsed": 531793, "internal_node_id": "0.0-6.0-85.0"}}, {"uniqueid": "w49201585:a64861023", "current_trial": 181, "dateTime": 1664464646881, "trialdata": {"rt": 1228, "stimulus": "<p id='stroop-text' class='stroop-red'>YELLOW</p>", "response": "r", "stimulus-type": "incongruent", "word": "yellow", "color": "red", "correct_response": "r", "trial_id": "stroop-trial-1-incongruent-2", "trial_type": "html-keyboard-response", "trial_index": 181, "time_elapsed": 533531, "internal_node_id": "0.0-6.0-86.0"}}, {"uniqueid": "w49201585:a64861023", "current_trial": 182, "dateTime": 1664464648577, "trialdata": {"rt": 1187, "stimulus": "<p id='stroop-text' class='stroop-blue'>BLUE</p>", "response": "b", "stimulus-type": "congruent", "word": "blue", "color": "blue", "correct_response": "b", "trial_id": "stroop-trial-1-congruent-1", "trial_type": "html-keyboard-response", "trial_index": 182, "time_elapsed": 535226, "internal_node_id": "0.0-6.0-87.0"}}, {"uniqueid": "w49201585:a64861023", "current_trial": 183, "dateTime": 1664464650324, "trialdata": {"rt": 1241, "stimulus": "<p id='stroop-text' class='stroop-yellow'>YELLOW</p>", "response": "y", "stimulus-type": "congruent", "word": "yellow", "color": "yellow", "correct_response": "y", "trial_id": "stroop-trial-1-congruent-20", "trial_type": "html-keyboard-response", "trial_index": 183, "time_elapsed": 536973, "internal_node_id": "0.0-6.0-88.0"}}, {"uniqueid": "w49201585:a64861023", "current_trial": 184, "dateTime": 1664464651328, "trialdata": {"rt": 492, "stimulus": "<p id='stroop-text' class='stroop-yellow'>YELLOW</p>", "response": "y", "stimulus-type": "congruent", "word": "yellow", "color": "yellow", "correct_response": "y", "trial_id": "stroop-trial-1-congruent-25", "trial_type": "html-keyboard-response", "trial_index": 184, "time_elapsed": 537977, "internal_node_id": "0.0-6.0-89.0"}}, {"uniqueid": "w49201585:a64861023", "current_trial": 185, "dateTime": 1664464656755, "trialdata": {"rt": 4914, "stimulus": "  <h1> End of block! </h1>\n\n  You have reached the end of the block 2/5. If you need a short break, feel free to take one now before moving on.\n\n  <br><br>\n  In the next block, you will complete another 90 rounds of this game.\n\n  <br><br>\n  <div style='text-align: center;'>Press <code>space</code> to begin.</div>\n  <br><br>\n<div style='text-align: center;'>(If the experiment doesn't continue, try clicking on the text and then pressing <code>space</code>.)</div>", "response": " ", "trial_id": "stroop_1_ready_3", "trial_type": "html-keyboard-response", "trial_index": 185, "time_elapsed": 543405, "internal_node_id": "0.0-7.0"}}, {"uniqueid": "w49201585:a64861023", "current_trial": 186, "dateTime": 1664464658331, "trialdata": {"rt": 1569, "stimulus": "<p id='stroop-text' class='stroop-green'>GREEN</p>", "response": "g", "stimulus-type": "congruent", "word": "green", "color": "green", "correct_response": "g", "trial_id": "stroop-trial-1-congruent-1", "trial_type": "html-keyboard-response", "trial_index": 186, "time_elapsed": 544980, "internal_node_id": "0.0-8.0-0.0"}}, {"uniqueid": "w49201585:a64861023", "current_trial": 187, "dateTime": 1664464660376, "trialdata": {"rt": 1536, "stimulus": "<p id='stroop-text' class='stroop-blue'>YELLOW</p>", "response": "b", "stimulus-type": "incongruent", "word": "yellow", "color": "blue", "correct_response": "b", "trial_id": "stroop-trial-1-incongruent-13", "trial_type": "html-keyboard-response", "trial_index": 187, "time_elapsed": 547025, "internal_node_id": "0.0-8.0-1.0"}}, {"uniqueid": "w49201585:a64861023", "current_trial": 188, "dateTime": 1664464662322, "trialdata": {"rt": 1440, "stimulus": "<p id='stroop-text' class='stroop-red'>RED</p>", "response": "r", "stimulus-type": "congruent", "word": "red", "color": "red", "correct_response": "r", "trial_id": "stroop-trial-1-congruent-7", "trial_type": "html-keyboard-response", "trial_index": 188, "time_elapsed": 548971, "internal_node_id": "0.0-8.0-2.0"}}, {"uniqueid": "w49201585:a64861023", "current_trial": 189, "dateTime": 1664464663266, "trialdata": {"rt": 435, "stimulus": "<p id='stroop-text' class='stroop-red'>RED</p>", "response": "r", "stimulus-type": "congruent", "word": "red", "color": "red", "correct_response": "r", "trial_id": "stroop-trial-1-congruent-10", "trial_type": "html-keyboard-response", "trial_index": 189, "time_elapsed": 549915, "internal_node_id": "0.0-8.0-3.0"}}, {"uniqueid": "w49201585:a64861023", "current_trial": 190, "dateTime": 1664464665203, "trialdata": {"rt": 1427, "stimulus": "<p id='stroop-text' class='stroop-yellow'>CHAIR</p>", "response": "y", "stimulus-type": "unrelated", "word": "CHAIR", "color": "yellow", "correct_response": "y", "trial_id": "stroop-trial-1-unrelated-21", "trial_type": "html-keyboard-response", "trial_index": 190, "time_elapsed": 551852, "internal_node_id": "0.0-8.0-4.0"}}, {"uniqueid": "w49201585:a64861023", "current_trial": 191, "dateTime": 1664464667144, "trialdata": {"rt": 1431, "stimulus": "<p id='stroop-text' class='stroop-green'>GREEN</p>", "response": "g", "stimulus-type": "congruent", "word": "green", "color": "green", "correct_response": "g", "trial_id": "stroop-trial-1-congruent-27", "trial_type": "html-keyboard-response", "trial_index": 191, "time_elapsed": 553794, "internal_node_id": "0.0-8.0-5.0"}}, {"uniqueid": "w49201585:a64861023", "current_trial": 192, "dateTime": 1664464668942, "trialdata": {"rt": 1291, "stimulus": "<p id='stroop-text' class='stroop-yellow'>GREEN</p>", "response": "y", "stimulus-type": "incongruent", "word": "green", "color": "yellow", "correct_response": "y", "trial_id": "stroop-trial-1-incongruent-10", "trial_type": "html-keyboard-response", "trial_index": 192, "time_elapsed": 555592, "internal_node_id": "0.0-8.0-6.0"}}, {"uniqueid": "w49201585:a64861023", "current_trial": 193, "dateTime": 1664464670301, "trialdata": {"rt": 850, "stimulus": "<p id='stroop-text' class='stroop-green'>GREEN</p>", "response": "g", "stimulus-type": "congruent", "word": "green", "color": "green", "correct_response": "g", "trial_id": "stroop-trial-1-congruent-24", "trial_type": "html-keyboard-response", "trial_index": 193, "time_elapsed": 556951, "internal_node_id": "0.0-8.0-7.0"}}, {"uniqueid": "w49201585:a64861023", "current_trial": 194, "dateTime": 1664464671522, "trialdata": {"rt": 710, "stimulus": "<p id='stroop-text' class='stroop-yellow'>YELLOW</p>", "response": "y", "stimulus-type": "congruent", "word": "yellow", "color": "yellow", "correct_response": "y", "trial_id": "stroop-trial-1-congruent-22", "trial_type": "html-keyboard-response", "trial_index": 194, "time_elapsed": 558172, "internal_node_id": "0.0-8.0-8.0"}}, {"uniqueid": "w49201585:a64861023", "current_trial": 195, "dateTime": 1664464673185, "trialdata": {"rt": 1147, "stimulus": "<p id='stroop-text' class='stroop-blue'>RED</p>", "response": "b", "stimulus-type": "incongruent", "word": "red", "color": "blue", "correct_response": "b", "trial_id": "stroop-trial-1-incongruent-15", "trial_type": "html-keyboard-response", "trial_index": 195, "time_elapsed": 559835, "internal_node_id": "0.0-8.0-9.0"}}, {"uniqueid": "w49201585:a64861023", "current_trial": 196, "dateTime": 1664464674979, "trialdata": {"rt": 1281, "stimulus": "<p id='stroop-text' class='stroop-green'>BOAT</p>", "response": "g", "stimulus-type": "unrelated", "word": "BOAT", "color": "green", "correct_response": "g", "trial_id": "stroop-trial-1-unrelated-10", "trial_type": "html-keyboard-response", "trial_index": 196, "time_elapsed": 561628, "internal_node_id": "0.0-8.0-10.0"}}, {"uniqueid": "w49201585:a64861023", "current_trial": 197, "dateTime": 1664464676948, "trialdata": {"rt": 1457, "stimulus": "<p id='stroop-text' class='stroop-blue'>RED</p>", "response": "b", "stimulus-type": "incongruent", "word": "red", "color": "blue", "correct_response": "b", "trial_id": "stroop-trial-1-incongruent-12", "trial_type": "html-keyboard-response", "trial_index": 197, "time_elapsed": 563598, "internal_node_id": "0.0-8.0-11.0"}}, {"uniqueid": "w49201585:a64861023", "current_trial": 198, "dateTime": 1664464678281, "trialdata": {"rt": 826, "stimulus": "<p id='stroop-text' class='stroop-red'>WINDOW</p>", "response": "r", "stimulus-type": "unrelated", "word": "WINDOW", "color": "red", "correct_response": "r", "trial_id": "stroop-trial-1-unrelated-26", "trial_type": "html-keyboard-response", "trial_index": 198, "time_elapsed": 564931, "internal_node_id": "0.0-8.0-12.0"}}, {"uniqueid": "w49201585:a64861023", "current_trial": 199, "dateTime": 1664464679141, "trialdata": {"rt": 349, "stimulus": "<p id='stroop-text' class='stroop-red'>RED</p>", "response": "r", "stimulus-type": "congruent", "word": "red", "color": "red", "correct_response": "r", "trial_id": "stroop-trial-1-congruent-29", "trial_type": "html-keyboard-response", "trial_index": 199, "time_elapsed": 565791, "internal_node_id": "0.0-8.0-13.0"}}, {"uniqueid": "w49201585:a64861023", "current_trial": 200, "dateTime": 1664464680681, "trialdata": {"rt": 1026, "stimulus": "<p id='stroop-text' class='stroop-yellow'>GREEN</p>", "response": "y", "stimulus-type": "incongruent", "word": "green", "color": "yellow", "correct_response": "y", "trial_id": "stroop-trial-1-incongruent-16", "trial_type": "html-keyboard-response", "trial_index": 200, "time_elapsed": 567331, "internal_node_id": "0.0-8.0-14.0"}}, {"uniqueid": "w49201585:a64861023", "current_trial": 201, "dateTime": 1664464682418, "trialdata": {"rt": 1220, "stimulus": "<p id='stroop-text' class='stroop-blue'>YELLOW</p>", "response": "b", "stimulus-type": "incongruent", "word": "yellow", "color": "blue", "correct_response": "b", "trial_id": "stroop-trial-1-incongruent-26", "trial_type": "html-keyboard-response", "trial_index": 201, "time_elapsed": 569067, "internal_node_id": "0.0-8.0-15.0"}}, {"uniqueid": "w49201585:a64861023", "current_trial": 202, "dateTime": 1664464683474, "trialdata": {"rt": 538, "stimulus": "<p id='stroop-text' class='stroop-blue'>BLUE</p>", "response": "b", "stimulus-type": "congruent", "word": "blue", "color": "blue", "correct_response": "b", "trial_id": "stroop-trial-1-congruent-11", "trial_type": "html-keyboard-response", "trial_index": 202, "time_elapsed": 570124, "internal_node_id": "0.0-8.0-16.0"}}, {"uniqueid": "w49201585:a64861023", "current_trial": 203, "dateTime": 1664464684430, "trialdata": {"rt": 443, "stimulus": "<p id='stroop-text' class='stroop-blue'>YELLOW</p>", "response": "b", "stimulus-type": "incongruent", "word": "yellow", "color": "blue", "correct_response": "b", "trial_id": "stroop-trial-1-incongruent-1", "trial_type": "html-keyboard-response", "trial_index": 203, "time_elapsed": 571079, "internal_node_id": "0.0-8.0-17.0"}}, {"uniqueid": "w49201585:a64861023", "current_trial": 204, "dateTime": 1664464685355, "trialdata": {"rt": 406, "stimulus": "<p id='stroop-text' class='stroop-blue'>BLUE</p>", "response": "b", "stimulus-type": "congruent", "word": "blue", "color": "blue", "correct_response": "b", "trial_id": "stroop-trial-1-congruent-3", "trial_type": "html-keyboard-response", "trial_index": 204, "time_elapsed": 572004, "internal_node_id": "0.0-8.0-18.0"}}, {"uniqueid": "w49201585:a64861023", "current_trial": 205, "dateTime": 1664464686878, "trialdata": {"rt": 1009, "stimulus": "<p id='stroop-text' class='stroop-green'>STONE</p>", "response": "g", "stimulus-type": "unrelated", "word": "STONE", "color": "green", "correct_response": "g", "trial_id": "stroop-trial-1-unrelated-6", "trial_type": "html-keyboard-response", "trial_index": 205, "time_elapsed": 573527, "internal_node_id": "0.0-8.0-19.0"}}, {"uniqueid": "w49201585:a64861023", "current_trial": 206, "dateTime": 1664464688466, "trialdata": {"rt": 1080, "stimulus": "<p id='stroop-text' class='stroop-yellow'>MONKEY</p>", "response": "y", "stimulus-type": "unrelated", "word": "MONKEY", "color": "yellow", "correct_response": "y", "trial_id": "stroop-trial-1-unrelated-14", "trial_type": "html-keyboard-response", "trial_index": 206, "time_elapsed": 575116, "internal_node_id": "0.0-8.0-20.0"}}, {"uniqueid": "w49201585:a64861023", "current_trial": 207, "dateTime": 1664464689994, "trialdata": {"rt": 1016, "stimulus": "<p id='stroop-text' class='stroop-green'>GREEN</p>", "response": "g", "stimulus-type": "congruent", "word": "green", "color": "green", "correct_response": "g", "trial_id": "stroop-trial-1-congruent-5", "trial_type": "html-keyboard-response", "trial_index": 207, "time_elapsed": 576643, "internal_node_id": "0.0-8.0-21.0"}}, {"uniqueid": "w49201585:a64861023", "current_trial": 208, "dateTime": 1664464690921, "trialdata": {"rt": 420, "stimulus": "<p id='stroop-text' class='stroop-red'>BLUE</p>", "response": "r", "stimulus-type": "incongruent", "word": "blue", "color": "red", "correct_response": "r", "trial_id": "stroop-trial-1-incongruent-8", "trial_type": "html-keyboard-response", "trial_index": 208, "time_elapsed": 577571, "internal_node_id": "0.0-8.0-22.0"}}, {"uniqueid": "w49201585:a64861023", "current_trial": 209, "dateTime": 1664464692377, "trialdata": {"rt": 937, "stimulus": "<p id='stroop-text' class='stroop-yellow'>GREEN</p>", "response": "y", "stimulus-type": "incongruent", "word": "green", "color": "yellow", "correct_response": "y", "trial_id": "stroop-trial-1-incongruent-23", "trial_type": "html-keyboard-response", "trial_index": 209, "time_elapsed": 579027, "internal_node_id": "0.0-8.0-23.0"}}, {"uniqueid": "w49201585:a64861023", "current_trial": 210, "dateTime": 1664464694000, "trialdata": {"rt": 1115, "stimulus": "<p id='stroop-text' class='stroop-blue'>BLUE</p>", "response": "b", "stimulus-type": "congruent", "word": "blue", "color": "blue", "correct_response": "b", "trial_id": "stroop-trial-1-congruent-4", "trial_type": "html-keyboard-response", "trial_index": 210, "time_elapsed": 580649, "internal_node_id": "0.0-8.0-24.0"}}, {"uniqueid": "w49201585:a64861023", "current_trial": 211, "dateTime": 1664464695304, "trialdata": {"rt": 792, "stimulus": "<p id='stroop-text' class='stroop-blue'>YELLOW</p>", "response": "b", "stimulus-type": "incongruent", "word": "yellow", "color": "blue", "correct_response": "b", "trial_id": "stroop-trial-1-incongruent-4", "trial_type": "html-keyboard-response", "trial_index": 211, "time_elapsed": 581954, "internal_node_id": "0.0-8.0-25.0"}}, {"uniqueid": "w49201585:a64861023", "current_trial": 212, "dateTime": 1664464696826, "trialdata": {"rt": 1011, "stimulus": "<p id='stroop-text' class='stroop-red'>CHAIR</p>", "response": "g", "stimulus-type": "unrelated", "word": "CHAIR", "color": "red", "correct_response": "r", "trial_id": "stroop-trial-1-unrelated-9", "trial_type": "html-keyboard-response", "trial_index": 212, "time_elapsed": 583476, "internal_node_id": "0.0-8.0-26.0"}}, {"uniqueid": "w49201585:a64861023", "current_trial": 213, "dateTime": 1664464699324, "trialdata": {"rt": 1988, "stimulus": "<p id='stroop-text' class='stroop-blue'>MONKEY</p>", "response": "b", "stimulus-type": "unrelated", "word": "MONKEY", "color": "blue", "correct_response": "b", "trial_id": "stroop-trial-1-unrelated-8", "trial_type": "html-keyboard-response", "trial_index": 213, "time_elapsed": 585973, "internal_node_id": "0.0-8.0-27.0"}}, {"uniqueid": "w49201585:a64861023", "current_trial": 214, "dateTime": 1664464700792, "trialdata": {"rt": 959, "stimulus": "<p id='stroop-text' class='stroop-red'>BRAIN</p>", "response": "r", "stimulus-type": "unrelated", "word": "BRAIN", "color": "red", "correct_response": "r", "trial_id": "stroop-trial-1-unrelated-28", "trial_type": "html-keyboard-response", "trial_index": 214, "time_elapsed": 587442, "internal_node_id": "0.0-8.0-28.0"}}, {"uniqueid": "w49201585:a64861023", "current_trial": 215, "dateTime": 1664464703167, "trialdata": {"rt": 1868, "stimulus": "<p id='stroop-text' class='stroop-blue'>GREEN</p>", "response": "b", "stimulus-type": "incongruent", "word": "green", "color": "blue", "correct_response": "b", "trial_id": "stroop-trial-1-incongruent-24", "trial_type": "html-keyboard-response", "trial_index": 215, "time_elapsed": 589817, "internal_node_id": "0.0-8.0-29.0"}}, {"uniqueid": "w49201585:a64861023", "current_trial": 216, "dateTime": 1664464704660, "trialdata": {"rt": 973, "stimulus": "<p id='stroop-text' class='stroop-red'>GREEN</p>", "response": "r", "stimulus-type": "incongruent", "word": "green", "color": "red", "correct_response": "r", "trial_id": "stroop-trial-1-incongruent-18", "trial_type": "html-keyboard-response", "trial_index": 216, "time_elapsed": 591309, "internal_node_id": "0.0-8.0-30.0"}}, {"uniqueid": "w49201585:a64861023", "current_trial": 217, "dateTime": 1664464706289, "trialdata": {"rt": 1117, "stimulus": "<p id='stroop-text' class='stroop-yellow'>WINDOW</p>", "response": "y", "stimulus-type": "unrelated", "word": "WINDOW", "color": "yellow", "correct_response": "y", "trial_id": "stroop-trial-1-unrelated-3", "trial_type": "html-keyboard-response", "trial_index": 217, "time_elapsed": 592938, "internal_node_id": "0.0-8.0-31.0"}}, {"uniqueid": "w49201585:a64861023", "current_trial": 218, "dateTime": 1664464708189, "trialdata": {"rt": 1382, "stimulus": "<p id='stroop-text' class='stroop-green'>MONKEY</p>", "response": "g", "stimulus-type": "unrelated", "word": "MONKEY", "color": "green", "correct_response": "g", "trial_id": "stroop-trial-1-unrelated-18", "trial_type": "html-keyboard-response", "trial_index": 218, "time_elapsed": 594839, "internal_node_id": "0.0-8.0-32.0"}}, {"uniqueid": "w49201585:a64861023", "current_trial": 219, "dateTime": 1664464710184, "trialdata": {"rt": 1483, "stimulus": "<p id='stroop-text' class='stroop-blue'>BLUE</p>", "response": "b", "stimulus-type": "congruent", "word": "blue", "color": "blue", "correct_response": "b", "trial_id": "stroop-trial-1-congruent-6", "trial_type": "html-keyboard-response", "trial_index": 219, "time_elapsed": 596834, "internal_node_id": "0.0-8.0-33.0"}}, {"uniqueid": "w49201585:a64861023", "current_trial": 220, "dateTime": 1664464712088, "trialdata": {"rt": 1390, "stimulus": "<p id='stroop-text' class='stroop-yellow'>GREEN</p>", "response": "y", "stimulus-type": "incongruent", "word": "green", "color": "yellow", "correct_response": "y", "trial_id": "stroop-trial-1-incongruent-27", "trial_type": "html-keyboard-response", "trial_index": 220, "time_elapsed": 598738, "internal_node_id": "0.0-8.0-34.0"}}, {"uniqueid": "w49201585:a64861023", "current_trial": 221, "dateTime": 1664464713263, "trialdata": {"rt": 663, "stimulus": "<p id='stroop-text' class='stroop-yellow'>YELLOW</p>", "response": "y", "stimulus-type": "congruent", "word": "yellow", "color": "yellow", "correct_response": "y", "trial_id": "stroop-trial-1-congruent-12", "trial_type": "html-keyboard-response", "trial_index": 221, "time_elapsed": 599912, "internal_node_id": "0.0-8.0-35.0"}}, {"uniqueid": "w49201585:a64861023", "current_trial": 222, "dateTime": 1664464714787, "trialdata": {"rt": 1015, "stimulus": "<p id='stroop-text' class='stroop-green'>GREEN</p>", "response": "g", "stimulus-type": "congruent", "word": "g