{"condition": 1, "counterbalance": 0, "assignmentId": "a26745017", "workerId": "w93883600", "hitId": "h89785257", "currenttrial": 155, "bonus": 0, "data": [{"uniqueid": "w93883600:a26745017", "current_trial": 0, "dateTime": 1664873096037, "trialdata": {"success": true, "trial_type": "fullscreen", "trial_index": 0, "time_elapsed": 5242, "internal_node_id": "0.0-0.0"}}, {"uniqueid": "w93883600:a26745017", "current_trial": 1, "dateTime": 1664873129726, "trialdata": {"view_history": [{"page_index": 0, "viewing_time": 33683}], "rt": 33683, "trial_id": "exp_instructions_no_distractor", "trial_type": "instructions", "trial_index": 1, "time_elapsed": 38930, "internal_node_id": "0.0-1.0"}}, {"uniqueid": "w93883600:a26745017", "current_trial": 2, "dateTime": 1664873132679, "trialdata": {"success": true, "trial_type": "fullscreen", "trial_index": 2, "time_elapsed": 41884, "internal_node_id": "0.0-2.0-0.0"}}, {"uniqueid": "w93883600:a26745017", "current_trial": 3, "dateTime": 1664873237797, "trialdata": {"view_history": [{"page_index": 0, "viewing_time": 37309}, {"page_index": 1, "viewing_time": 35975}, {"page_index": 2, "viewing_time": 10048}, {"page_index": 3, "viewing_time": 8426}, {"page_index": 4, "viewing_time": 13359}], "rt": 105117, "trial_id": "mouselab_instructions_1", "trial_type": "instructions", "trial_index": 3, "time_elapsed": 147001, "internal_node_id": "0.0-2.0-1.0"}}, {"uniqueid": "w93883600:a26745017", "current_trial": 4, "dateTime": 1664873250768, "trialdata": {"revealed_states": [], "num_clicks_accrued": [0, 0, 0, 0, 0, 0, 0, 0, 0, 0, 0, 0, 0], "stateRewards": ["", -10, -10, 10, 10, 10, -10, -10, -10, 10, -10, -10, -10], "withholdReward": false, "trial_id": "practice_1", "block": "test", "trialIndex": 0, "score": -8, "costs": 0, "simulationMode": [null, null, null], "rewards": [10, -10, -10], "path": ["0", "0", "5", "6", "7"], "rt": [844, 918, 2431], "actions": ["right", "right", "up"], "actionTimes": [3729, 5162, 8152], "queries": {"click": {"state": {"target": [], "time": []}, "edge": {"target": [], "time": []}}, "mouseover": {"state": {"target": [], "time": []}, "edge": {"target": [], "time": []}}, "mouseout": {"state": {"target": ["5", "0"], "time": [972, 11677]}, "edge": {"target": [], "time": []}}}, "displayed_time": "8.66", "trialTime": 12678, "trial_type": "mouselab-mdp", "trial_index": 4, "time_elapsed": 159973, "internal_node_id": "0.0-2.0-2.0-0.0"}}, {"uniqueid": "w93883600:a26745017", "current_trial": 5, "dateTime": 1664873258315, "trialdata": {"revealed_states": [], "num_clicks_accrued": [0, 0, 0, 0, 0, 0, 0, 0, 0, 0, 0, 0, 0], "stateRewards": ["", 10, 10, -10, -10, -10, 10, 10, -10, 10, 10, -10, -10], "withholdReward": false, "trial_id": "practice_2", "block": "test", "trialIndex": 1, "score": 12, "costs": 0, "simulationMode": [null, null, null], "rewards": [10, 10, -10], "path": ["0", "0", "1", "2", "3"], "rt": [1147, 356, 384], "actions": ["up", "up", "right"], "actionTimes": [3500, 4388, 5294], "queries": {"click": {"state": {"target": [], "time": []}, "edge": {"target": [], "time": []}}, "mouseover": {"state": {"target": [], "time": []}, "edge": {"target": [], "time": []}}, "mouseout": {"state": {"target": ["0"], "time": [2592]}, "edge": {"target": [], "time": []}}}, "displayed_time": "5.81", "trialTime": 7461, "trial_type": "mouselab-mdp", "trial_index": 5, "time_elapsed": 167520, "internal_node_id": "0.0-2.0-2.0-1.0"}}, {"uniqueid": "w93883600:a26745017", "current_trial": 6, "dateTime": 1664873277292, "trialdata": {"view_history": [{"page_index": 0, "viewing_time": 5384}, {"page_index": 1, "viewing_time": 9119}, {"page_index": 2, "viewing_time": 4472}], "rt": 18975, "trial_id": "mouselab_instructions_2_scarce", "trial_type": "instructions", "trial_index": 6, "time_elapsed": 186497, "internal_node_id": "0.0-2.0-3.0"}}, {"uniqueid": "w93883600:a26745017", "current_trial": 7, "dateTime": 1664873317038, "trialdata": {"rt": 39737, "response": {"Q0": "$-48 to $48", "Q1": "The cost is always $0.25.", "Q2": "I will receive a $1 bonus if I perform well, otherwise I will receive no bonus.", "Q3": "No, the amount of cash at each node of the web may be different each time.", "Q4": "The values of the nodes walked through from start to finish.", "Q5": "No, the score will only be displayed once at the end of the game."}, "question_order": [0, 1, 2, 3, 4, 5], "correct": {"Q0": "$-48 to $48", "Q1": "The cost is always $0.25.", "Q2": "The better I perform the higher my bonus will be.", "Q3": "No, the amount of cash at each node of the web may be different each time.", "Q4": "The values of the nodes walked through from start to finish.", "Q5": "No, the spider might forget to count the money on some rounds."}, "trial_id": "mouselab_quiz_scarce", "trial_type": "survey-multi-choice", "trial_index": 7, "time_elapsed": 226243, "internal_node_id": "0.0-2.0-4.0"}}, {"uniqueid": "w93883600:a26745017", "current_trial": 8, "dateTime": 1664873326230, "trialdata": {"success": true, "trial_type": "fullscreen", "trial_index": 8, "time_elapsed": 235435, "internal_node_id": "0.0-2.1-0.1"}}, {"uniqueid": "w93883600:a26745017", "current_trial": 9, "dateTime": 1664873336290, "trialdata": {"view_history": [{"page_index": 0, "viewing_time": 2029}, {"page_index": 1, "viewing_time": 937}, {"page_index": 2, "viewing_time": 921}, {"page_index": 3, "viewing_time": 1854}, {"page_index": 4, "viewing_time": 4311}], "rt": 10052, "trial_id": "mouselab_instructions_1", "trial_type": "instructions", "trial_index": 9, "time_elapsed": 245495, "internal_node_id": "0.0-2.1-1.1"}}, {"uniqueid": "w93883600:a26745017", "current_trial": 10, "dateTime": 1664873345411, "trialdata": {"revealed_states": [], "num_clicks_accrued": [0, 0, 0, 0, 0, 0, 0, 0, 0, 0, 0, 0, 0], "stateRewards": ["", -10, -10, 10, 10, 10, -10, -10, -10, 10, -10, -10, -10], "withholdReward": false, "trial_id": "practice_1", "block": "test", "trialIndex": 2, "score": -8, "costs": 0, "simulationMode": [null, null, null], "rewards": [10, -10, -10], "path": ["0", "0", "9", "10", "11"], "rt": [1052, 269, 1319], "actions": ["left", "left", "up"], "actionTimes": [4561, 5341, 7185], "queries": {"click": {"state": {"target": [], "time": []}, "edge": {"target": [], "time": []}}, "mouseover": {"state": {"target": ["0"], "time": [3625]}, "edge": {"target": [], "time": []}}, "mouseout": {"state": {"target": ["0", "0", "0"], "time": [1553, 3248, 3666]}, "edge": {"target": [], "time": []}}}, "displayed_time": "7.72", "trialTime": 9016, "trial_type": "mouselab-mdp", "trial_index": 10, "time_elapsed": 254615, "internal_node_id": "0.0-2.1-2.1-0.1"}}, {"uniqueid": "w93883600:a26745017", "current_trial": 11, "dateTime": 1664873352166, "trialdata": {"revealed_states": [], "num_clicks_accrued": [0, 0, 0, 0, 0, 0, 0, 0, 0, 0, 0, 0, 0], "stateRewards": ["", 10, 10, -10, -10, -10, 10, 10, -10, 10, 10, -10, -10], "withholdReward": false, "trial_id": "practice_2", "block": "test", "trialIndex": 3, "score": 12, "costs": 0, "simulationMode": [null, null, null], "rewards": [10, 10, -10], "path": ["0", "0", "9", "10", "12"], "rt": [1416, 651, 777], "actions": ["left", "left", "down"], "actionTimes": [2790, 3967, 5292], "queries": {"click": {"state": {"target": [], "time": []}, "edge": {"target": [], "time": []}}, "mouseover": {"state": {"target": [], "time": []}, "edge": {"target": [], "time": []}}, "mouseout": {"state": {"target": [], "time": []}, "edge": {"target": [], "time": []}}}, "displayed_time": "5.83", "trialTime": 6675, "trial_type": "mouselab-mdp", "trial_index": 11, "time_elapsed": 261371, "internal_node_id": "0.0-2.1-2.1-1.1"}}, {"uniqueid": "w93883600:a26745017", "current_trial": 12, "dateTime": 1664873383221, "trialdata": {"view_history": [{"page_index": 0, "viewing_time": 25476}, {"page_index": 1, "viewing_time": 1944}, {"page_index": 2, "viewing_time": 3632}], "rt": 31052, "trial_id": "mouselab_instructions_2_scarce", "trial_type": "instructions", "trial_index": 12, "time_elapsed": 292426, "internal_node_id": "0.0-2.1-3.1"}}, {"uniqueid": "w93883600:a26745017", "current_trial": 13, "dateTime": 1664873410102, "trialdata": {"rt": 26872, "response": {"Q0": "$-48 to $48", "Q1": "The cost is always $0.25.", "Q2": "I will receive a $1 bonus if I perform well, otherwise I will receive no bonus.", "Q3": "No, the amount of cash at each node of the web may be different each time.", "Q4": "The values of the nodes walked through from start to finish.", "Q5": "No, the spider might forget to count the money on some rounds."}, "question_order": [0, 1, 2, 3, 4, 5], "correct": {"Q0": "$-48 to $48", "Q1": "The cost is always $0.25.", "Q2": "The better I perform the higher my bonus will be.", "Q3": "No, the amount of cash at each node of the web may be different each time.", "Q4": "The values of the nodes walked through from start to finish.", "Q5": "No, the spider might forget to count the money on some rounds."}, "trial_id": "mouselab_quiz_scarce", "trial_type": "survey-multi-choice", "trial_index": 13, "time_elapsed": 319306, "internal_node_id": "0.0-2.1-4.1"}}, {"uniqueid": "w93883600:a26745017", "current_trial": 14, "dateTime": 1664873418030, "trialdata": {"success": true, "trial_type": "fullscreen", "trial_index": 14, "time_elapsed": 327234, "internal_node_id": "0.0-2.2-0.2"}}, {"uniqueid": "w93883600:a26745017", "current_trial": 15, "dateTime": 1664873452549, "trialdata": {"view_history": [{"page_index": 0, "viewing_time": 9174}, {"page_index": 1, "viewing_time": 2275}, {"page_index": 2, "viewing_time": 8972}, {"page_index": 3, "viewing_time": 3761}, {"page_index": 4, "viewing_time": 10333}], "rt": 34515, "trial_id": "mouselab_instructions_1", "trial_type": "instructions", "trial_index": 15, "time_elapsed": 361753, "internal_node_id": "0.0-2.2-1.2"}}, {"uniqueid": "w93883600:a26745017", "current_trial": 16, "dateTime": 1664873458555, "trialdata": {"revealed_states": [], "num_clicks_accrued": [0, 0, 0, 0, 0, 0, 0, 0, 0, 0, 0, 0, 0], "stateRewards": ["", -10, -10, 10, 10, 10, -10, -10, -10, 10, -10, -10, -10], "withholdReward": false, "trial_id": "practice_1", "block": "test", "trialIndex": 4, "score": -8, "costs": 0, "simulationMode": [null, null, null], "rewards": [10, -10, -10], "path": ["0", "0", "5", "6", "8"], "rt": [676, 696, 150], "actions": ["right", "right", "down"], "actionTimes": [2510, 3732, 4398], "queries": {"click": {"state": {"target": [], "time": []}, "edge": {"target": [], "time": []}}, "mouseover": {"state": {"target": [], "time": []}, "edge": {"target": [], "time": []}}, "mouseout": {"state": {"target": ["9"], "time": [1233]}, "edge": {"target": [], "time": []}}}, "displayed_time": "4.93", "trialTime": 5922, "trial_type": "mouselab-mdp", "trial_index": 16, "time_elapsed": 367760, "internal_node_id": "0.0-2.2-2.2-0.2"}}, {"uniqueid": "w93883600:a26745017", "current_trial": 17, "dateTime": 1664873463435, "trialdata": {"revealed_states": [], "num_clicks_accrued": [0, 0, 0, 0, 0, 0, 0, 0, 0, 0, 0, 0, 0], "stateRewards": ["", 10, 10, -10, -10, -10, 10, 10, -10, 10, 10, -10, -10], "withholdReward": false, "trial_id": "practice_2", "block": "test", "trialIndex": 5, "score": 12, "costs": 0, "simulationMode": [null, null, null], "rewards": [10, 10, -10], "path": ["0", "0", "1", "2", "4"], "rt": [688, 198, 606], "actions": ["up", "up", "left"], "actionTimes": [1620, 2332, 3486], "queries": {"click": {"state": {"target": [], "time": []}, "edge": {"target": [], "time": []}}, "mouseover": {"state": {"target": [], "time": []}, "edge": {"target": [], "time": []}}, "mouseout": {"state": {"target": ["0"], "time": [4347]}, "edge": {"target": [], "time": []}}}, "displayed_time": "4.04", "trialTime": 4802, "trial_type": "mouselab-mdp", "trial_index": 17, "time_elapsed": 372639, "internal_node_id": "0.0-2.2-2.2-1.2"}}, {"uniqueid": "w93883600:a26745017", "current_trial": 18, "dateTime": 1664873509708, "trialdata": {"view_history": [{"page_index": 0, "viewing_time": 28028}, {"page_index": 1, "viewing_time": 12720}, {"page_index": 2, "viewing_time": 5520}], "rt": 46268, "trial_id": "mouselab_instructions_2_scarce", "trial_type": "instructions", "trial_index": 18, "time_elapsed": 418913, "internal_node_id": "0.0-2.2-3.2"}}, {"uniqueid": "w93883600:a26745017", "current_trial": 19, "dateTime": 1664873565216, "trialdata": {"rt": 55501, "response": {"Q0": "$-48 to $48", "Q1": "The cost for clicking on nodes varies between nodes.", "Q2": "The better I perform the higher my bonus will be.", "Q3": "No, the amount of cash at each node of the web may be different each time.", "Q4": "The values of the nodes walked through from start to finish.", "Q5": "No, the spider might forget to count the money on some rounds."}, "question_order": [0, 1, 2, 3, 4, 5], "correct": {"Q0": "$-48 to $48", "Q1": "The cost is always $0.25.", "Q2": "The better I perform the higher my bonus will be.", "Q3": "No, the amount of cash at each node of the web may be different each time.", "Q4": "The values of the nodes walked through from start to finish.", "Q5": "No, the spider might forget to count the money on some rounds."}, "trial_id": "mouselab_quiz_scarce", "trial_type": "survey-multi-choice", "trial_index": 19, "time_elapsed": 474420, "internal_node_id": "0.0-2.2-4.2"}}, {"uniqueid": "w93883600:a26745017", "current_trial": 20, "dateTime": 1664873572623, "trialdata": {"success": true, "trial_type": "fullscreen", "trial_index": 20, "time_elapsed": 481828, "internal_node_id": "0.0-2.3-0.3"}}, {"uniqueid": "w93883600:a26745017", "current_trial": 21, "dateTime": 1664873608635, "trialdata": {"view_history": [{"page_index": 0, "viewing_time": 16923}, {"page_index": 1, "viewing_time": 12736}, {"page_index": 2, "viewing_time": 4388}, {"page_index": 3, "viewing_time": 970}, {"page_index": 4, "viewing_time": 991}], "rt": 36008, "trial_id": "mouselab_instructions_1", "trial_type": "instructions", "trial_index": 21, "time_elapsed": 517840, "internal_node_id": "0.0-2.3-1.3"}}, {"uniqueid": "w93883600:a26745017", "current_trial": 22, "dateTime": 1664873614367, "trialdata": {"revealed_states": [], "num_clicks_accrued": [0, 0, 0, 0, 0, 0, 0, 0, 0, 0, 0, 0, 0], "stateRewards": ["", -10, -10, 10, 10, 10, -10, -10, -10, 10, -10, -10, -10], "withholdReward": false, "trial_id": "practice_1", "block": "test", "trialIndex": 6, "score": -8, "costs": 0, "simulationMode": [null, null, null], "rewards": [10, -10, -10], "path": ["0", "0", "5", "6", "7"], "rt": [1742, 294, 165], "actions": ["right", "right", "up"], "actionTimes": [2828, 3629, 4305], "queries": {"click": {"state": {"target": [], "time": []}, "edge": {"target": [], "time": []}}, "mouseover": {"state": {"target": [], "time": []}, "edge": {"target": [], "time": []}}, "mouseout": {"state": {"target": ["5", "0", "0"], "time": [400, 749, 1410]}, "edge": {"target": [], "time": []}}}, "displayed_time": "4.84", "trialTime": 5572, "trial_type": "mouselab-mdp", "trial_index": 22, "time_elapsed": 523571, "internal_node_id": "0.0-2.3-2.3-0.3"}}, {"uniqueid": "w93883600:a26745017", "current_trial": 23, "dateTime": 1664873620726, "trialdata": {"revealed_states": [], "num_clicks_accrued": [0, 0, 0, 0, 0, 0, 0, 0, 0, 0, 0, 0, 0], "stateRewards": ["", 10, 10, -10, -10, -10, 10, 10, -10, 10, 10, -10, -10], "withholdReward": false, "trial_id": "practice_2", "block": "test", "trialIndex": 7, "score": 12, "costs": 0, "simulationMode": [null, null, null], "rewards": [10, 10, -10], "path": ["0", "0", "9", "10", "12"], "rt": [1214, 389, 246], "actions": ["left", "left", "down"], "actionTimes": [3571, 4487, 5241], "queries": {"click": {"state": {"target": [], "time": []}, "edge": {"target": [], "time": []}}, "mouseover": {"state": {"target": [], "time": []}, "edge": {"target": [], "time": []}}, "mouseout": {"state": {"target": ["0", "9", "10", "9", "0"], "time": [1187, 1195, 1210, 1945, 2737]}, "edge": {"target": [], "time": []}}}, "displayed_time": "5.78", "trialTime": 6260, "trial_type": "mouselab-mdp", "trial_index": 23, "time_elapsed": 529930, "internal_node_id": "0.0-2.3-2.3-1.3"}}, {"uniqueid": "w93883600:a26745017", "current_trial": 24, "dateTime": 1664873632627, "trialdata": {"view_history": [{"page_index": 0, "viewing_time": 9044}, {"page_index": 1, "viewing_time": 1584}, {"page_index": 2, "viewing_time": 1272}], "rt": 11900, "trial_id": "mouselab_instructions_2_scarce", "trial_type": "instructions", "trial_index": 24, "time_elapsed": 541832, "internal_node_id": "0.0-2.3-3.3"}}, {"uniqueid": "w93883600:a26745017", "current_trial": 25, "dateTime": 1664873665253, "trialdata": {"rt": 32623, "response": {"Q0": "$-48 to $48", "Q1": "The cost is always $0.25.", "Q2": "The better I perform the higher my bonus will be.", "Q3": "No, the amount of cash at each node of the web may be different each time.", "Q4": "The values of the nodes walked through from start to finish.", "Q5": "No, the spider might forget to count the money on some rounds."}, "question_order": [0, 1, 2, 3, 4, 5], "correct": {"Q0": "$-48 to $48", "Q1": "The cost is always $0.25.", "Q2": "The better I perform the higher my bonus will be.", "Q3": "No, the amount of cash at each node of the web may be different each time.", "Q4": "The values of the nodes walked through from start to finish.", "Q5": "No, the spider might forget to count the money on some rounds."}, "trial_id": "mouselab_quiz_scarce", "trial_type": "survey-multi-choice", "trial_index": 25, "time_elapsed": 574458, "internal_node_id": "0.0-2.3-4.3"}}, {"uniqueid": "w93883600:a26745017", "current_trial": 26, "dateTime": 1664873676735, "trialdata": {"rt": 11478, "stimulus": "\n<h1> Get ready to start the game! </h1>\n\nThank you for reading the instructions. Get ready start with the first of 4 block(s) of this game.\n<br><br>\nIn this first block, you will complete 30 rounds of this game before moving on.\n<br><br>\nRemember, the more money the spider gets, the bigger your bonus will be!\n<br><br>\n<div style='text-align: center;'>Press <code>space</code> to begin.</div>\n\n<br><br>\n(If, at any point, the <code>space</code> key does not take you to the next page, click once on the text and try again.)", "response": " ", "trial_id": "mdp_ready_1", "trial_type": "html-keyboard-response", "trial_index": 26, "time_elapsed": 585940, "internal_node_id": "0.0-4.0-0.0"}}, {"uniqueid": "w93883600:a26745017", "current_trial": 27, "dateTime": 1664873690165, "trialdata": {"revealed_states": [], "num_clicks_accrued": [0, 0, 0, 0, 0, 0, 0, 0, 0, 0, 0, 0, 0], "stateRewards": ["", -4, -4, -24, -24, -2, 4, 48, -24, -2, -4, -24, 48], "withholdReward": true, "trial_id": "mdp_855903341564", "block": "test1", "trialIndex": 8, "score": -27, "costs": 0, "simulationMode": [null, null, null], "rewards": [-4, -4, -24], "path": ["0", "0", "1", "2", "4"], "rt": [1036, 252, 234], "actions": ["up", "up", "left"], "actionTimes": [3077, 3844, 4597], "queries": {"click": {"state": {"target": [], "time": []}, "edge": {"target": [], "time": []}}, "mouseover": {"state": {"target": [], "time": []}, "edge": {"target": [], "time": []}}, "mouseout": {"state": {"target": ["5", "6", "6", "5"], "time": [297, 1185, 1575, 1792]}, "edge": {"target": [], "time": []}}}, "displayed_time": "11.16", "trialTime": 13346, "trial_type": "mouselab-mdp", "trial_index": 27, "time_elapsed": 599370, "internal_node_id": "0.0-4.0-1.0-0.0"}}, {"uniqueid": "w93883600:a26745017", "current_trial": 28, "dateTime": 1664873701250, "trialdata": {"revealed_states": [], "num_clicks_accrued": [0, 0, 0, 0, 0, 0, 0, 0, 0, 0, 0, 0, 0], "stateRewards": ["", 2, 8, 48, -48, -2, -4, -24, 24, 4, -4, 48, -48], "withholdReward": false, "trial_id": "mdp_105734044587", "block": "test1", "trialIndex": 9, "score": -43, "costs": 0, "simulationMode": [null, null, null], "rewards": [4, -4, -48], "path": ["0", "0", "9", "10", "12"], "rt": [1229, 1464, 340], "actions": ["left", "left", "down"], "actionTimes": [3700, 5670, 6512], "queries": {"click": {"state": {"target": [], "time": []}, "edge": {"target": [], "time": []}}, "mouseover": {"state": {"target": [], "time": []}, "edge": {"target": [], "time": []}}, "mouseout": {"state": {"target": ["0"], "time": [2097]}, "edge": {"target": [], "time": []}}}, "displayed_time": "9.53", "trialTime": 11014, "trial_type": "mouselab-mdp", "trial_index": 28, "time_elapsed": 610455, "internal_node_id": "0.0-4.0-1.0-1.0"}}, {"uniqueid": "w93883600:a26745017", "current_trial": 29, "dateTime": 1664873712590, "trialdata": {"revealed_states": [], "num_clicks_accrued": [0, 0, 0, 0, 0, 0, 0, 0, 0, 0, 0, 0, 0], "stateRewards": ["", 2, -8, -48, 24, 4, 8, 48, -48, 2, -4, 24, 24], "withholdReward": false, "trial_id": "mdp_130475327289", "block": "test1", "trialIndex": 10, "score": -31, "costs": 0, "simulationMode": [null, null, null], "rewards": [4, 8, -48], "path": ["0", "0", "5", "6", "8"], "rt": [1375, 324, 837], "actions": ["right", "right", "down"], "actionTimes": [3383, 4210, 5559], "queries": {"click": {"state": {"target": [], "time": []}, "edge": {"target": [], "time": []}}, "mouseover": {"state": {"target": ["4"], "time": [2070]}, "edge": {"target": [], "time": []}}, "mouseout": {"state": {"target": ["0", "4"], "time": [1956, 2086]}, "edge": {"target": [], "time": []}}}, "displayed_time": "10.08", "trialTime": 11271, "trial_type": "mouselab-mdp", "trial_index": 29, "time_elapsed": 621795, "internal_node_id": "0.0-4.0-1.0-2.0"}}, {"uniqueid": "w93883600:a26745017", "current_trial": 30, "dateTime": 1664873724989, "trialdata": {"revealed_states": [], "num_clicks_accrued": [0, 0, 0, 0, 0, 0, 0, 0, 0, 0, 0, 0, 0], "stateRewards": ["", 4, -8, -24, 24, 2, -4, 24, 24, 2, -4, 48, 48], "withholdReward": true, "trial_id": "mdp_457607480918", "block": "test1", "trialIndex": 11, "score": 25, "costs": 0, "simulationMode": [null, null, null], "rewards": [4, -8, 24], "path": ["0", "0", "1", "2", "4"], "rt": [1617, 2060, 3391], "actions": ["up", "up", "left"], "actionTimes": [3609, 6189, 10086], "queries": {"click": {"state": {"target": [], "time": []}, "edge": {"target": [], "time": []}}, "mouseover": {"state": {"target": ["0"], "time": [2110]}, "edge": {"target": [], "time": []}}, "mouseout": {"state": {"target": ["9", "0"], "time": [1528, 1710]}, "edge": {"target": [], "time": []}}}, "displayed_time": "10.60", "trialTime": 12330, "trial_type": "mouselab-mdp", "trial_index": 30, "time_elapsed": 634193, "internal_node_id": "0.0-4.0-1.0-3.0"}}, {"uniqueid": "w93883600:a26745017", "current_trial": 31, "dateTime": 1664873738814, "trialdata": {"revealed_states": [], "num_clicks_accrued": [0, 0, 0, 0, 0, 0, 0, 0, 0, 0, 0, 0, 0], "stateRewards": ["", 4, -4, 48, 24, 2, 4, 24, -24, 2, 4, 24, 48], "withholdReward": true, "trial_id": "mdp_736351885282", "block": "test1", "trialIndex": 12, "score": 59, "costs": 0, "simulationMode": [null, null, null], "rewards": [2, 4, 48], "path": ["0", "0", "9", "10", "12"], "rt": [1118, 225, 318], "actions": ["left", "left", "down"], "actionTimes": [4658, 5404, 6232], "queries": {"click": {"state": {"target": [], "time": []}, "edge": {"target": [], "time": []}}, "mouseover": {"state": {"target": [], "time": []}, "edge": {"target": [], "time": []}}, "mouseout": {"state": {"target": ["0", "0", "0"], "time": [1279, 3261, 7444]}, "edge": {"target": [], "time": []}}}, "displayed_time": "12.64", "trialTime": 13759, "trial_type": "mouselab-mdp", "trial_index": 31, "time_elapsed": 648018, "internal_node_id": "0.0-4.0-1.0-4.0"}}, {"uniqueid": "w93883600:a26745017", "current_trial": 32, "dateTime": 1664873750660, "trialdata": {"revealed_states": [], "num_clicks_accrued": [0, 0, 0, 0, 0, 0, 0, 0, 0, 0, 0, 0, 0], "stateRewards": ["", -2, -4, -24, 24, -2, 4, -24, -24, -4, 4, 24, -24], "withholdReward": false, "trial_id": "mdp_999419261719", "block": "test1", "trialIndex": 13, "score": 29, "costs": 0, "simulationMode": [null, null, null], "rewards": [-4, 4, 24], "path": ["0", "0", "9", "10", "11"], "rt": [923, 1470, 1072], "actions": ["left", "left", "up"], "actionTimes": [2363, 4364, 5966], "queries": {"click": {"state": {"target": [], "time": []}, "edge": {"target": [], "time": []}}, "mouseover": {"state": {"target": ["0"], "time": [1576]}, "edge": {"target": [], "time": []}}, "mouseout": {"state": {"target": ["0", "0"], "time": [1243, 1629]}, "edge": {"target": [], "time": []}}}, "displayed_time": "10.54", "trialTime": 11774, "trial_type": "mouselab-mdp", "trial_index": 32, "time_elapsed": 659865, "internal_node_id": "0.0-4.0-1.0-5.0"}}, {"uniqueid": "w93883600:a26745017", "current_trial": 33, "dateTime": 1664873764914, "trialdata": {"revealed_states": [], "num_clicks_accrued": [0, 0, 0, 0, 0, 0, 0, 0, 0, 0, 0, 0, 0], "stateRewards": ["", -4, -8, 24, -48, 2, 4, -48, -48, 2, -8, 24, 48], "withholdReward": true, "trial_id": "mdp_111262146724", "block": "test1", "trialIndex": 14, "score": -37, "costs": 0, "simulationMode": [null, null, null], "rewards": [2, 4, -48], "path": ["0", "0", "5", "6", "8"], "rt": [541, 2536, 233], "actions": ["right", "right", "down"], "actionTimes": [4355, 7396, 8158], "queries": {"click": {"state": {"target": [], "time": []}, "edge": {"target": [], "time": []}}, "mouseover": {"state": {"target": [], "time": []}, "edge": {"target": [], "time": []}}, "mouseout": {"state": {"target": ["0", "0"], "time": [1609, 4293]}, "edge": {"target": [], "time": []}}}, "displayed_time": "12.90", "trialTime": 14179, "trial_type": "mouselab-mdp", "trial_index": 33, "time_elapsed": 674119, "internal_node_id": "0.0-4.0-1.0-6.0"}}, {"uniqueid": "w93883600:a26745017", "current_trial": 34, "dateTime": 1664873775764, "trialdata": {"revealed_states": [], "num_clicks_accrued": [0, 0, 0, 0, 0, 0, 0, 0, 0, 0, 0, 0, 0], "stateRewards": ["", 2, -8, -24, 48, 4, -8, -24, -24, 2, 8, -24, 24], "withholdReward": true, "trial_id": "mdp_480787552818", "block": "test1", "trialIndex": 15, "score": -25, "costs": 0, "simulationMode": [null, null, null], "rewards": [2, -8, -24], "path": ["0", "0", "1", "2", "3"], "rt": [386, 3196, 944], "actions": ["up", "up", "right"], "actionTimes": [1792, 5512, 6974], "queries": {"click": {"state": {"target": [], "time": []}, "edge": {"target": [], "time": []}}, "mouseover": {"state": {"target": [], "time": []}, "edge": {"target": [], "time": []}}, "mouseout": {"state": {"target": ["0"], "time": [1165]}, "edge": {"target": [], "time": []}}}, "displayed_time": "9.47", "trialTime": 10756, "trial_type": "mouselab-mdp", "trial_index": 34, "time_elapsed": 684969, "internal_node_id": "0.0-4.0-1.0-7.0"}}, {"uniqueid": "w93883600:a26745017", "current_trial": 35, "dateTime": 1664873787918, "trialdata": {"revealed_states": [], "num_clicks_accrued": [0, 0, 0, 0, 0, 0, 0, 0, 0, 0, 0, 0, 0], "stateRewards": ["", 4, -8, 48, -24, -4, 4, 24, 24, -2, -4, 24, 24], "withholdReward": true, "trial_id": "mdp_542168715839", "block": "test1", "trialIndex": 16, "score": 23, "costs": 0, "simulationMode": [null, null, null], "rewards": [-2, -4, 24], "path": ["0", "0", "9", "10", "12"], "rt": [4800, 749, 607], "actions": ["left", "left", "down"], "actionTimes": [6755, 8015, 9159], "queries": {"click": {"state": {"target": [], "time": []}, "edge": {"target": [], "time": []}}, "mouseover": {"state": {"target": [], "time": []}, "edge": {"target": [], "time": []}}, "mouseout": {"state": {"target": ["0"], "time": [1630]}, "edge": {"target": [], "time": []}}}, "displayed_time": "11.11", "trialTime": 12081, "trial_type": "mouselab-mdp", "trial_index": 35, "time_elapsed": 697123, "internal_node_id": "0.0-4.0-1.0-8.0"}}, {"uniqueid": "w93883600:a26745017", "current_trial": 36, "dateTime": 1664873798728, "trialdata": {"revealed_states": [], "num_clicks_accrued": [0, 0, 0, 0, 0, 0, 0, 0, 0, 0, 0, 0, 0], "stateRewards": ["", 4, -8, -48, -24, 2, -8, -48, 48, -4, 8, 48, -48], "withholdReward": true, "trial_id": "mdp_605757196263", "block": "test1", "trialIndex": 17, "score": -49, "costs": 0, "simulationMode": [null, null, null], "rewards": [2, -8, -48], "path": ["0", "0", "5", "6", "7"], "rt": [592, 1178, 2369], "actions": ["right", "right", "up"], "actionTimes": [1402, 3090, 5962], "queries": {"click": {"state": {"target": [], "time": []}, "edge": {"target": [], "time": []}}, "mouseover": {"state": {"target": ["0"], "time": [816]}, "edge": {"target": [], "time": []}}, "mouseout": {"state": {"target": ["0"], "time": [756]}, "edge": {"target": [], "time": []}}}, "displayed_time": "8.89", "trialTime": 10737, "trial_type": "mouselab-mdp", "trial_index": 36, "time_elapsed": 707933, "internal_node_id": "0.0-4.0-1.0-9.0"}}, {"uniqueid": "w93883600:a26745017", "current_trial": 37, "dateTime": 1664873810991, "trialdata": {"revealed_states": [], "num_clicks_accrued": [0, 0, 0, 0, 0, 0, 0, 0, 0, 0, 0, 0, 0], "stateRewards": ["", 4, 4, 24, -48, 2, -8, -24, -48, 4, 8, 48, 48], "withholdReward": true, "trial_id": "mdp_592471239511", "block": "test1", "trialIndex": 18, "score": -35, "costs": 0, "simulationMode": [null, null, null], "rewards": [4, 4, -48], "path": ["0", "0", "1", "2", "4"], "rt": [2852, 4248, 1753], "actions": ["up", "up", "left"], "actionTimes": [3598, 8370, 10640], "queries": {"click": {"state": {"target": [], "time": []}, "edge": {"target": [], "time": []}}, "mouseover": {"state": {"target": [], "time": []}, "edge": {"target": [], "time": []}}, "mouseout": {"state": {"target": [], "time": []}, "edge": {"target": [], "time": []}}}, "displayed_time": "11.15", "trialTime": 12163, "trial_type": "mouselab-mdp", "trial_index": 37, "time_elapsed": 720196, "internal_node_id": "0.0-4.0-1.0-10.0"}}, {"uniqueid": "w93883600:a26745017", "current_trial": 38, "dateTime": 1664873821186, "trialdata": {"revealed_states": [], "num_clicks_accrued": [0, 0, 0, 0, 0, 0, 0, 0, 0, 0, 0, 0, 0], "stateRewards": ["", -4, 4, 24, 24, 4, -8, 48, -48, -2, -8, 24, 24], "withholdReward": true, "trial_id": "mdp_395264223239", "block": "test1", "trialIndex": 19, "score": 19, "costs": 0, "simulationMode": [null, null, null], "rewards": [-2, -8, 24], "path": ["0", "0", "9", "10", "12"], "rt": [2890, 2079, 1425], "actions": ["left", "left", "down"], "actionTimes": [4002, 6599, 8529], "queries": {"click": {"state": {"target": [], "time": []}, "edge": {"target": [], "time": []}}, "mouseover": {"state": {"target": [], "time": []}, "edge": {"target": [], "time": []}}, "mouseout": {"state": {"target": [], "time": []}, "edge": {"target": [], "time": []}}}, "displayed_time": "9.22", "trialTime": 10110, "trial_type": "mouselab-mdp", "trial_index": 38, "time_elapsed": 730391, "internal_node_id": "0.0-4.0-1.0-11.0"}}, {"uniqueid": "w93883600:a26745017", "current_trial": 39, "dateTime": 1664873831907, "trialdata": {"revealed_states": [], "num_clicks_accrued": [0, 0, 0, 0, 0, 0, 0, 0, 0, 0, 0, 0, 0], "stateRewards": ["", 2, -4, 24, 48, -2, 4, -48, -48, -4, 4, 24, -24], "withholdReward": true, "trial_id": "mdp_900363662757", "block": "test1", "trialIndex": 20, "score": 27, "costs": 0, "simulationMode": [null, null, null], "rewards": [2, -4, 24], "path": ["0", "0", "1", "2", "3"], "rt": [447, 679, 389], "actions": ["up", "up", "right"], "actionTimes": [1001, 2198, 3107], "queries": {"click": {"state": {"target": [], "time": []}, "edge": {"target": [], "time": []}}, "mouseover": {"state": {"target": [], "time": []}, "edge": {"target": [], "time": []}}, "mouseout": {"state": {"target": ["0"], "time": [7399]}, "edge": {"target": [], "time": []}}}, "displayed_time": "9.67", "trialTime": 10646, "trial_type": "mouselab-mdp", "trial_index": 39, "time_elapsed": 741111, "internal_node_id": "0.0-4.0-1.0-12.0"}}, {"uniqueid": "w93883600:a26745017", "current_trial": 40, "dateTime": 1664873844086, "trialdata": {"revealed_states": [], "num_clicks_accrued": [0, 0, 0, 0, 0, 0, 0, 0, 0, 0, 0, 0, 0], "stateRewards": ["", -2, -8, 24, -48, -4, 8, -48, -24, 4, 8, -24, 24], "withholdReward": true, "trial_id": "mdp_940444641142", "block": "test1", "trialIndex": 21, "score": -39, "costs": 0, "simulationMode": [null, null, null], "rewards": [-4, 8, -48], "path": ["0", "0", "5", "6", "7"], "rt": [1788, 2601, 1643], "actions": ["right", "right", "up"], "actionTimes": [2758, 5876, 8039], "queries": {"click": {"state": {"target": [], "time": []}, "edge": {"target": [], "time": []}}, "mouseover": {"state": {"target": [], "time": []}, "edge": {"target": [], "time": []}}, "mouseout": {"state": {"target": [], "time": []}, "edge": {"target": [], "time": []}}}, "displayed_time": "11.15", "trialTime": 12102, "trial_type": "mouselab-mdp", "trial_index": 40, "time_elapsed": 753291, "internal_node_id": "0.0-4.0-1.0-13.0"}}, {"uniqueid": "w93883600:a26745017", "current_trial": 41, "dateTime": 1664873856884, "trialdata": {"revealed_states": [], "num_clicks_accrued": [0, 0, 0, 0, 0, 0, 0, 0, 0, 0, 0, 0, 0], "stateRewards": ["", 4, -8, 48, 48, 2, 4, 48, -48, 4, -4, -48, 48], "withholdReward": false, "trial_id": "mdp_519605841135", "block": "test1", "trialIndex": 22, "score": 48.75, "costs": -0.25, "simulationMode": [null, null, null], "rewards": [4, -8, 48], "path": ["0", "0", "1", "2", "3"], "rt": [3606, 545, 201], "actions": ["up", "up", "right"], "actionTimes": [4362, 5416, 6136], "queries": {"click": {"state": {"target": ["1"], "time": [2337]}, "edge": {"target": [], "time": []}}, "mouseover": {"state": {"target": ["1"], "time": [1667]}, "edge": {"target": [], "time": []}}, "mouseout": {"state": {"target": ["0", "1", "1", "1", "0"], "time": [1203, 2667, 3450, 7395, 7466]}, "edge": {"target": [], "time": []}}}, "displayed_time": "9.91", "trialTime": 12680, "trial_type": "mouselab-mdp", "trial_index": 41, "time_elapsed": 766089, "internal_node_id": "0.0-4.0-1.0-14.0"}}, {"uniqueid": "w93883600:a26745017", "current_trial": 42, "dateTime": 1664873869002, "trialdata": {"revealed_states": [], "num_clicks_accrued": [0, 0, 0, 0, 0, 0, 0, 0, 0, 0, 0, 0, 0], "stateRewards": ["", 2, 4, -48, 24, -4, -4, -24, 24, 2, -4, 24, -24], "withholdReward": true, "trial_id": "mdp_163600331068", "block": "test1", "trialIndex": 23, "score": -21, "costs": 0, "simulationMode": [null, null, null], "rewards": [2, -4, -24], "path": ["0", "0", "9", "10", "12"], "rt": [887, 2589, 4096], "actions": ["left", "left", "down"], "actionTimes": [2003, 5101, 9708], "queries": {"click": {"state": {"target": [], "time": []}, "edge": {"target": [], "time": []}}, "mouseover": {"state": {"target": [], "time": []}, "edge": {"target": [], "time": []}}, "mouseout": {"state": {"target": ["0", "12", "10", "12"], "time": [1428, 6443, 7143, 10243]}, "edge": {"target": [], "time": []}}}, "displayed_time": "11.21", "trialTime": 12045, "trial_type": "mouselab-mdp", "trial_index": 42, "time_elapsed": 778206, "internal_node_id": "0.0-4.0-1.0-15.0"}}, {"uniqueid": "w93883600:a26745017", "current_trial": 43, "dateTime": 1664873878484, "trialdata": {"revealed_states": [], "num_clicks_accrued": [0, 0, 0, 0, 0, 0, 0, 0, 0, 0, 0, 0, 0], "stateRewards": ["", 4, 8, -48, 24, -2, 8, -48, -48, -4, 4, 48, -48], "withholdReward": true, "trial_id": "mdp_693807815190", "block": "test1", "trialIndex": 24, "score": -37.25, "costs": -0.25, "simulationMode": [null, null, null], "rewards": [-2, 8, -48], "path": ["0", "0", "5", "6", "7"], "rt": [2050, 703, 1825], "actions": ["right", "right", "up"], "actionTimes": [2935, 4157, 6492], "queries": {"click": {"state": {"target": ["9"], "time": [1857]}, "edge": {"target": [], "time": []}}, "mouseover": {"state": {"target": ["9"], "time": [1349]}, "edge": {"target": [], "time": []}}, "mouseout": {"state": {"target": ["0", "9"], "time": [700, 2233]}, "edge": {"target": [], "time": []}}}, "displayed_time": "8.97", "trialTime": 9401, "trial_type": "mouselab-mdp", "trial_index": 43, "time_elapsed": 787688, "internal_node_id": "0.0-4.0-1.0-16.0"}}, {"uniqueid": "w93883600:a26745017", "current_trial": 44, "dateTime": 1664873887547, "trialdata": {"revealed_states": [], "num_clicks_accrued": [0, 0, 0, 0, 0, 0, 0, 0, 0, 0, 0, 0, 0], "stateRewards": ["", -4, 4, 48, 24, -4, 4, -24, 48, -2, -8, 24, -48], "withholdReward": true, "trial_id": "mdp_261501605436", "block": "test1", "trialIndex": 25, "score": 29, "costs": 0, "simulationMode": [null, null, null], "rewards": [-4, 4, 24], "path": ["0", "0", "1", "2", "4"], "rt": [2489, 1104, 493], "actions": ["up", "up", "left"], "actionTimes": [3405, 5043, 6049], "queries": {"click": {"state": {"target": [], "time": []}, "edge": {"target": [], "time": []}}, "mouseover": {"state": {"target": ["5"], "time": [1938]}, "edge": {"target": [], "time": []}}, "mouseout": {"state": {"target": ["0", "5"], "time": [1855, 7205]}, "edge": {"target": [], "time": []}}}, "displayed_time": "7.99", "trialTime": 8973, "trial_type": "mouselab-mdp", "trial_index": 44, "time_elapsed": 796752, "internal_node_id": "0.0-4.0-1.0-17.0"}}, {"uniqueid": "w93883600:a26745017", "current_trial": 45, "dateTime": 1664873897660, "trialdata": {"revealed_states": [], "num_clicks_accrued": [0, 0, 0, 0, 0, 0, 0, 0, 0, 0, 0, 0, 0], "stateRewards": ["", -4, -4, -48, 48, -4, -8, -24, -48, -2, 8, 48, 24], "withholdReward": true, "trial_id": "mdp_365393526663", "block": "test1", "trialIndex": 26, "score": -55, "costs": 0, "simulationMode": [null, null, null], "rewards": [-4, -8, -48], "path": ["0", "0", "5", "6", "8"], "rt": [3368, 490, 1049], "actions": ["right", "right", "down"], "actionTimes": [4621, 5621, 7194], "queries": {"click": {"state": {"target": [], "time": []}, "edge": {"target": [], "time": []}}, "mouseover": {"state": {"target": ["5", "0"], "time": [2543, 3028]}, "edge": {"target": [], "time": []}}, "mouseout": {"state": {"target": ["5", "0", "5"], "time": [794, 2494, 2893]}, "edge": {"target": [], "time": []}}}, "displayed_time": "9.33", "trialTime": 10044, "trial_type": "mouselab-mdp", "trial_index": 45, "time_elapsed": 806865, "internal_node_id": "0.0-4.0-1.0-18.0"}}, {"uniqueid": "w93883600:a26745017", "current_trial": 46, "dateTime": 1664873910741, "trialdata": {"revealed_states": [], "num_clicks_accrued": [0, 0, 0, 0, 0, 0, 0, 0, 0, 0, 0, 0, 0], "stateRewards": ["", 2, 4, -48, -24, -4, 4, -24, 24, -2, -8, -24, 24], "withholdReward": true, "trial_id": "mdp_640720803523", "block": "test1", "trialIndex": 27, "score": -37, "costs": 0, "simulationMode": [null, null, null], "rewards": [2, 4, -48], "path": ["0", "0", "1", "2", "3"], "rt": [897, 1506, 1672], "actions": ["up", "up", "right"], "actionTimes": [2417, 4434, 6626], "queries": {"click": {"state": {"target": [], "time": []}, "edge": {"target": [], "time": []}}, "mouseover": {"state": {"target": ["0"], "time": [1940]}, "edge": {"target": [], "time": []}}, "mouseout": {"state": {"target": ["0", "5", "0"], "time": [921, 1156, 10737]}, "edge": {"target": [], "time": []}}}, "displayed_time": "11.72", "trialTime": 13004, "trial_type": "mouselab-mdp", "trial_index": 46, "time_elapsed": 819946, "internal_node_id": "0.0-4.0-1.0-19.0"}}, {"uniqueid": "w93883600:a26745017", "current_trial": 47, "dateTime": 1664873922069, "trialdata": {"revealed_states": [], "num_clicks_accrued": [0, 0, 0, 0, 0, 0, 0, 0, 0, 0, 0, 0, 0], "stateRewards": ["", 2, -8, 48, -24, 2, -4, 24, 48, 4, -4, 48, -24], "withholdReward": false, "trial_id": "mdp_656500928756", "block": "test1", "trialIndex": 28, "score": -19, "costs": 0, "simulationMode": [null, null, null], "rewards": [4, -4, -24], "path": ["0", "0", "9", "10", "12"], "rt": [1293, 2016, 1132], "actions": ["left", "left", "down"], "actionTimes": [3367, 5905, 7552], "queries": {"click": {"state": {"target": [], "time": []}, "edge": {"target": [], "time": []}}, "mouseover": {"state": {"target": [], "time": []}, "edge": {"target": [], "time": []}}, "mouseout": {"state": {"target": ["0"], "time": [10734]}, "edge": {"target": [], "time": []}}}, "displayed_time": "10.15", "trialTime": 11235, "trial_type": "mouselab-mdp", "trial_index": 47, "time_elapsed": 831274, "internal_node_id": "0.0-4.0-1.0-20.0"}}, {"uniqueid": "w93883600:a26745017", "current_trial": 48, "dateTime": 1664873932962, "trialdata": {"revealed_states": [], "num_clicks_accrued": [0, 0, 0, 0, 0, 0, 0, 0, 0, 0, 0, 0, 0], "stateRewards": ["", 2, -8, -24, -48, -2, -4, 48, 48, 4, 8, 48, 48], "withholdReward": true, "trial_id": "mdp_347285045422", "block": "test1", "trialIndex": 29, "score": -25, "costs": 0, "simulationMode": [null, null, null], "rewards": [2, -8, -24], "path": ["0", "0", "1", "2", "3"], "rt": [1513, 506, 1397], "actions": ["up", "up", "right"], "actionTimes": [2513, 3554, 5465], "queries": {"click": {"state": {"target": [], "time": []}, "edge": {"target": [], "time": []}}, "mouseover": {"state": {"target": [], "time": []}, "edge": {"target": [], "time": []}}, "mouseout": {"state": {"target": [], "time": []}, "edge": {"target": [], "time": []}}}, "displayed_time": "10.10", "trialTime": 10822, "trial_type": "mouselab-mdp", "trial_index": 48, "time_elapsed": 842166, "internal_node_id": "0.0-4.0-1.0-21.0"}}, {"uniqueid": "w93883600:a26745017", "current_trial": 49, "dateTime": 1664873942936, "trialdata": {"revealed_states": [], "num_clicks_accrued": [0, 0, 0, 0, 0, 0, 0, 0, 0, 0, 0, 0, 0], "stateRewards": ["", -2, 4, -24, 48, 4, -8, 48, -48, 2, -8, 48, 24], "withholdReward": true, "trial_id": "mdp_501111216502", "block": "test1", "trialIndex": 30, "score": 55, "costs": 0, "simulationMode": [null, null, null], "rewards": [-2, 4, 48], "path": ["0", "0", "1", "2", "4"], "rt": [2371, 1719, 990], "actions": ["up", "up", "left"], "actionTimes": [3203, 5453, 6965], "queries": {"click": {"state": {"target": [], "time": []}, "edge": {"target": [], "time": []}}, "mouseover": {"state": {"target": [], "time": []}, "edge": {"target": [], "time": []}}, "mouseout": {"state": {"target": [], "time": []}, "edge": {"target": [], "time": []}}}, "displayed_time": "8.91", "trialTime": 9886, "trial_type": "mouselab-mdp", "trial_index": 49, "time_elapsed": 852141, "internal_node_id": "0.0-4.0-1.0-22.0"}}, {"uniqueid": "w93883600:a26745017", "current_trial": 50, "dateTime": 1664873952835, "trialdata": {"revealed_states": [], "num_clicks_accrued": [0, 0, 0, 0, 0, 0, 0, 0, 0, 0, 0, 0, 0], "stateRewards": ["", -2, 8, -48, 48, -4, -8, 24, 24, -2, -4, 48, -48], "withholdReward": true, "trial_id": "mdp_867247318592", "block": "test1", "trialIndex": 31, "score": 17, "costs": 0, "simulationMode": [null, null, null], "rewards": [-4, -8, 24], "path": ["0", "0", "5", "6", "7"], "rt": [1365, 1796, 2137], "actions": ["right", "right", "up"], "actionTimes": [2217, 4545, 7217], "queries": {"click": {"state": {"target": [], "time": []}, "edge": {"target": [], "time": []}}, "mouseover": {"state": {"target": [], "time": []}, "edge": {"target": [], "time": []}}, "mouseout": {"state": {"target": ["0"], "time": [8293]}, "edge": {"target": [], "time": []}}}, "displayed_time": "8.93", "trialTime": 9832, "trial_type": "mouselab-mdp", "trial_index": 50, "time_elapsed": 862039, "internal_node_id": "0.0-4.0-1.0-23.0"}}, {"uniqueid": "w93883600:a26745017", "current_trial": 51, "dateTime": 1664873966132, "trialdata": {"revealed_states": [], "num_clicks_accrued": [0, 0, 0, 0, 0, 0, 0, 0, 0, 0, 0, 0, 0], "stateRewards": ["", -2, -4, -48, 48, -4, 4, -48, 24, -4, -8, 24, 48], "withholdReward": true, "trial_id": "mdp_264482284450", "block": "test1", "trialIndex": 32, "score": 41, "costs": 0, "simulationMode": [null, null, null], "rewards": [-4, -8, 48], "path": ["0", "0", "9", "10", "12"], "rt": [1962, 1451, 1153], "actions": ["left", "left", "down"], "actionTimes": [5335, 7326, 8992], "queries": {"click": {"state": {"target": [], "time": []}, "edge": {"target": [], "time": []}}, "mouseover": {"state": {"target": [], "time": []}, "edge": {"target": [], "time": []}}, "mouseout": {"state": {"target": ["8", "6", "5", "9"], "time": [2542, 2687, 2737, 2989]}, "edge": {"target": [], "time": []}}}, "displayed_time": "12.56", "trialTime": 13224, "trial_type": "mouselab-mdp", "trial_index": 51, "time_elapsed": 875336, "internal_node_id": "0.0-4.0-1.0-24.0"}}, {"uniqueid": "w93883600:a26745017", "current_trial": 52, "dateTime": 1664873977202, "trialdata": {"revealed_states": [], "num_clicks_accrued": [0, 0, 0, 0, 0, 0, 0, 0, 0, 0, 0, 0, 0], "stateRewards": ["", -2, 8, -48, 48, 4, -8, -48, 48, 4, -4, -24, 48], "withholdReward": false, "trial_id": "mdp_144739116828", "block": "test1", "trialIndex": 33, "score": -47, "costs": 0, "simulationMode": [null, null, null], "rewards": [4, -8, -48], "path": ["0", "0", "5", "6", "7"], "rt": [1303, 2065, 2530], "actions": ["right", "right", "up"], "actionTimes": [2357, 4926, 7978], "queries": {"click": {"state": {"target": [], "time": []}, "edge": {"target": [], "time": []}}, "mouseover": {"state": {"target": ["0"], "time": [1249]}, "edge": {"target": [], "time": []}}, "mouseout": {"state": {"target": ["0"], "time": [350]}, "edge": {"target": [], "time": []}}}, "displayed_time": "10.18", "trialTime": 11004, "trial_type": "mouselab-mdp", "trial_index": 52, "time_elapsed": 886406, "internal_node_id": "0.0-4.0-1.0-25.0"}}, {"uniqueid": "w93883600:a26745017", "current_trial": 53, "dateTime": 1664873989284, "trialdata": {"revealed_states": [], "num_clicks_accrued": [0, 0, 0, 0, 0, 0, 0, 0, 0, 0, 0, 0, 0], "stateRewards": ["", -2, -8, 48, 24, 2, 8, -48, 24, -4, 8, 48, 48], "withholdReward": true, "trial_id": "mdp_875436109858", "block": "test1", "trialIndex": 34, "score": 39, "costs": 0, "simulationMode": [null, null, null], "rewards": [2, 8, 24], "path": ["0", "0", "5", "6", "8"], "rt": [760, 2341, 2552], "actions": ["right", "right", "down"], "actionTimes": [1970, 4823, 7879], "queries": {"click": {"state": {"target": [], "time": []}, "edge": {"target": [], "time": []}}, "mouseover": {"state": {"target": [], "time": []}, "edge": {"target": [], "time": []}}, "mouseout": {"state": {"target": [], "time": []}, "edge": {"target": [], "time": []}}}, "displayed_time": "10.43", "trialTime": 12022, "trial_type": "mouselab-mdp", "trial_index": 53, "time_elapsed": 898489, "internal_node_id": "0.0-4.0-1.0-26.0"}}, {"uniqueid": "w93883600:a26745017", "current_trial": 54, "dateTime": 1664874000061, "trialdata": {"revealed_states": [], "num_clicks_accrued": [0, 0, 0, 0, 0, 0, 0, 0, 0, 0, 0, 0, 0], "stateRewards": ["", -2, -8, 48, 24, -2, 8, -48, -24, -2, 4, -48, 48], "withholdReward": true, "trial_id": "mdp_295220852217", "block": "test1", "trialIndex": 35, "score": 55, "costs": 0, "simulationMode": [null, null, null], "rewards": [-2, 4, 48], "path": ["0", "0", "9", "10", "12"], "rt": [488, 1770, 1455], "actions": ["left", "left", "down"], "actionTimes": [1385, 3671, 5634], "queries": {"click": {"state": {"target": [], "time": []}, "edge": {"target": [], "time": []}}, "mouseover": {"state": {"target": [], "time": []}, "edge": {"target": [], "time": []}}, "mouseout": {"state": {"target": [], "time": []}, "edge": {"target": [], "time": []}}}, "displayed_time": "10.08", "trialTime": 10702, "trial_type": "mouselab-mdp", "trial_index": 54, "time_elapsed": 909266, "internal_node_id": "0.0-4.0-1.0-27.0"}}, {"uniqueid": "w93883600:a26745017", "current_trial": 55, "dateTime": 1664874010015, "trialdata": {"revealed_states": [], "num_clicks_accrued": [0, 0, 0, 0, 0, 0, 0, 0, 0, 0, 0, 0, 0], "stateRewards": ["", -2, -4, -48, 48, -2, -4, 24, 48, -4, -8, -24, 24], "withholdReward": false, "trial_id": "mdp_917590390609", "block": "test1", "trialIndex": 36, "score": -31, "costs": 0, "simulationMode": [null, null, null], "rewards": [-4, -8, -24], "path": ["0", "0", "9", "10", "11"], "rt": [1390, 2242, 1333], "actions": ["left", "left", "up"], "actionTimes": [2133, 4897, 6763], "queries": {"click": {"state": {"target": [], "time": []}, "edge": {"target": [], "time": []}}, "mouseover": {"state": {"target": [], "time": []}, "edge": {"target": [], "time": []}}, "mouseout": {"state": {"target": [], "time": []}, "edge": {"target": [], "time": []}}}, "displayed_time": "8.90", "trialTime": 9818, "trial_type": "mouselab-mdp", "trial_index": 55, "time_elapsed": 919220, "internal_node_id": "0.0-4.0-1.0-28.0"}}, {"uniqueid": "w93883600:a26745017", "current_trial": 56, "dateTime": 1664874020958, "trialdata": {"revealed_states": [], "num_clicks_accrued": [0, 0, 0, 0, 0, 0, 0, 0, 0, 0, 0, 0, 0], "stateRewards": ["", -4, 8, -24, -24, 2, 4, 48, 48, -2, 4, 24, -48], "withholdReward": false, "trial_id": "mdp_397308196941", "block": "test1", "trialIndex": 37, "score": -15, "costs": 0, "simulationMode": [null, null, null], "rewards": [-4, 8, -24], "path": ["0", "0", "1", "2", "4"], "rt": [1134, 1263, 1156], "actions": ["up", "up", "left"], "actionTimes": [1818, 3631, 5306], "queries": {"click": {"state": {"target": [], "time": []}, "edge": {"target": [], "time": []}}, "mouseover": {"state": {"target": [], "time": []}, "edge": {"target": [], "time": []}}, "mouseout": {"state": {"target": [], "time": []}, "edge": {"target": [], "time": []}}}, "displayed_time": "9.77", "trialTime": 10859, "trial_type": "mouselab-mdp", "trial_index": 56, "time_elapsed": 930163, "internal_node_id": "0.0-4.0-1.0-29.0"}}, {"uniqueid": "w93883600:a26745017", "current_trial": 57, "dateTime": 1664874031770, "trialdata": {"rt": 10806, "stimulus": "<h1> End of block! </h1>\n\nYou have reached the end of the block 1/4. If you need a short break, feel free to take one now before moving on.\n\n<br><br>\nIn the next block, you will complete another 30 rounds of this game.\n\n<br><br>\n<div style='text-align: center;'>Press <code>space</code> to begin.</div>\n<br><br>\n<div style='text-align: center;'>(If the experiment doesn't continue, try clicking on the text and then pressing <code>space</code>.)</div>", "response": " ", "trial_id": "mdp_ready_2", "trial_type": "html-keyboard-response", "trial_index": 57, "time_elapsed": 940975, "internal_node_id": "0.0-4.0-2.0"}}, {"uniqueid": "w93883600:a26745017", "current_trial": 58, "dateTime": 1664874043786, "trialdata": {"revealed_states": [], "num_clicks_accrued": [0, 0, 0, 0, 0, 0, 0, 0, 0, 0, 0, 0, 0], "stateRewards": ["", 4, -8, -24, 48, -4, 8, -24, -48, -4, -4, 24, 48], "withholdReward": true, "trial_id": "mdp_282352776624", "block": "test2", "trialIndex": 38, "score": 45, "costs": 0, "simulationMode": [null, null, null], "rewards": [-4, -4, 48], "path": ["0", "0", "9", "10", "12"], "rt": [794, 331, 307], "actions": ["left", "left", "down"], "actionTimes": [2427, 3294, 4116], "queries": {"click": {"state": {"target": [], "time": []}, "edge": {"target": [], "time": []}}, "mouseover": {"state": {"target": [], "time": []}, "edge": {"target": [], "time": []}}, "mouseout": {"state": {"target": ["0", "0", "0"], "time": [6090, 7274, 10456]}, "edge": {"target": [], "time": []}}}, "displayed_time": "10.71", "trialTime": 11950, "trial_type": "mouselab-mdp", "trial_index": 58, "time_elapsed": 952991, "internal_node_id": "0.0-4.0-3.0-0.0"}}, {"uniqueid": "w93883600:a26745017", "current_trial": 59, "dateTime": 1664874055655, "trialdata": {"revealed_states": [], "num_clicks_accrued": [0, 0, 0, 0, 0, 0, 0, 0, 0, 0, 0, 0, 0], "stateRewards": ["", -2, 8, -48, 48, -4, -8, 24, 24, -2, -4, 48, -48], "withholdReward": false, "trial_id": "mdp_867247318592", "block": "test2", "trialIndex": 39, "score": 47, "costs": 0, "simulationMode": [null, null, null], "rewards": [-2, -4, 48], "path": ["0", "0", "9", "10", "11"], "rt": [899, 2224, 2739], "actions": ["left", "left", "up"], "actionTimes": [1739, 4493, 7747], "queries": {"click": {"state": {"target": [], "time": []}, "edge": {"target": [], "time": []}}, "mouseover": {"state": {"target": [], "time": []}, "edge": {"target": [], "time": []}}, "mouseout": {"state": {"target": [], "time": []}, "edge": {"target": [], "time": []}}}, "displayed_time": "11.02", "trialTime": 11783, "trial_type": "mouselab-mdp", "trial_index": 59, "time_elapsed": 964859, "internal_node_id": "0.0-4.0-3.0-1.0"}}, {"uniqueid": "w93883600:a26745017", "current_trial": 60, "dateTime": 1664874066633, "trialdata": {"revealed_states": [], "num_clicks_accrued": [0, 0, 0, 0, 0, 0, 0, 0, 0, 0, 0, 0, 0], "stateRewards": ["", -4, -8, -48, 24, -4, -4, -24, -48, 2, -8, -24, -48], "withholdReward": true, "trial_id": "mdp_628181832088", "block": "test2", "trialIndex": 40, "score": 17, "costs": 0, "simulationMode": [null, null, null], "rewards": [-4, -8, 24], "path": ["0", "0", "1", "2", "4"], "rt": [1296, 2156, 3603], "actions": ["up", "up", "left"], "actionTimes": [2579, 5272, 9397], "queries": {"click": {"state": {"target": [], "time": []}, "edge": {"target": [], "time": []}}, "mouseover": {"state": {"target": [], "time": []}, "edge": {"target": [], "time": []}}, "mouseout": {"state": {"target": ["0"], "time": [727]}, "edge": {"target": [], "time": []}}}, "displayed_time": "9.91", "trialTime": 10891, "trial_type": "mouselab-mdp", "trial_index": 60, "time_elapsed": 975836, "internal_node_id": "0.0-4.0-3.0-2.0"}}, {"uniqueid": "w93883600:a26745017", "current_trial": 61, "dateTime": 1664874076549, "trialdata": {"revealed_states": [], "num_clicks_accrued": [0, 0, 0, 0, 0, 0, 0, 0, 0, 0, 0, 0, 0], "stateRewards": ["", -4, 4, 24, 24, 4, -8, 48, -48, -2, -8, 24, 24], "withholdReward": false, "trial_id": "mdp_395264223239", "block": "test2", "trialIndex": 41, "score": 29, "costs": 0, "simulationMode": [null, null, null], "rewards": [-4, 4, 24], "path": ["0", "0", "1", "2", "3"], "rt": [564, 2377, 1773], "actions": ["up", "up", "right"], "actionTimes": [1716, 4608, 6910], "queries": {"click": {"state": {"target": [], "time": []}, "edge": {"target": [], "time": []}}, "mouseover": {"state": {"target": [], "time": []}, "edge": {"target": [], "time": []}}, "mouseout": {"state": {"target": ["0"], "time": [985]}, "edge": {"target": [], "time": []}}}, "displayed_time": "9.33", "trialTime": 9841, "trial_type": "mouselab-mdp", "trial_index": 61, "time_elapsed": 985754, "internal_node_id": "0.0-4.0-3.0-3.0"}}, {"uniqueid": "w93883600:a26745017", "current_trial": 62, "dateTime": 1664874086365, "trialdata": {"revealed_states": [], "num_clicks_accrued": [0, 0, 0, 0, 0, 0, 0, 0, 0, 0, 0, 0, 0], "stateRewards": ["", 2, 4, 24, 48, -2, 8, 24, -24, -4, -4, 48, 48], "withholdReward": true, "trial_id": "mdp_753439303214", "block": "test2", "trialIndex": 42, "score": 35, "costs": 0, "simulationMode": [null, null, null], "rewards": [-2, 8, 24], "path": ["0", "0", "5", "6", "7"], "rt": [493, 2535, 2518], "actions": ["right", "right", "up"], "actionTimes": [1540, 4591, 7626], "queries": {"click": {"state": {"target": [], "time": []}, "edge": {"target": [], "time": []}}, "mouseover": {"state": {"target": [], "time": []}, "edge": {"target": [], "time": []}}, "mouseout": {"state": {"target": [], "time": []}, "edge": {"target": [], "time": []}}}, "displayed_time": "9.16", "trialTime": 9754, "trial_type": "mouselab-mdp", "trial_index": 62, "time_elapsed": 995570, "internal_node_id": "0.0-4.0-3.0-4.0"}}, {"uniqueid": "w93883600:a26745017", "current_trial": 63, "dateTime": 1664874097930, "trialdata": {"revealed_states": [], "num_clicks_accrued": [0, 0, 0, 0, 0, 0, 0, 0, 0, 0, 0, 0, 0], "stateRewards": ["", 2, 4, 48, -48, 2, -4, 48, 24, -2, -8, -24, 48], "withholdReward": true, "trial_id": "mdp_962424406744", "block": "test2", "trialIndex": 43, "score": 27, "costs": 0, "simulationMode": [null, null, null], "rewards": [2, -4, 24], "path": ["0", "0", "5", "6", "8"], "rt": [581, 3740, 1797], "actions": ["right", "right", "down"], "actionTimes": [1667, 5920, 8230], "queries": {"click": {"state": {"target": [], "time": []}, "edge": {"target": [], "time": []}}, "mouseover": {"state": {"target": [], "time": []}, "edge": {"target": [], "time": []}}, "mouseout": {"state": {"target": [], "time": []}, "edge": {"target": [], "time": []}}}, "displayed_time": "10.17", "trialTime": 11476, "trial_type": "mouselab-mdp", "trial_index": 63, "time_elapsed": 1007135, "internal_node_id": "0.0-4.0-3.0-5.0"}}, {"uniqueid": "w93883600:a26745017", "current_trial": 64, "dateTime": 1664874110272, "trialdata": {"revealed_states": [], "num_clicks_accrued": [0, 0, 0, 0, 0, 0, 0, 0, 0, 0, 0, 0, 0], "stateRewards": ["", -2, -8, -24, 48, -2, -8, -48, -48, 2, -8, -48, 24], "withholdReward": false, "trial_id": "mdp_288324580942", "block": "test2", "trialIndex": 44, "score": 23, "costs": 0, "simulationMode": [null, null, null], "rewards": [2, -8, 24], "path": ["0", "0", "9", "10", "12"], "rt": [544, 800, 250], "actions": ["left", "left", "down"], "actionTimes": [1375, 2705, 3478], "queries": {"click": {"state": {"target": [], "time": []}, "edge": {"target": [], "time": []}}, "mouseover": {"state": {"target": [], "time": []}, "edge": {"target": [], "time": []}}, "mouseout": {"state": {"target": ["0"], "time": [10660]}, "edge": {"target": [], "time": []}}}, "displayed_time": "10.98", "trialTime": 12267, "trial_type": "mouselab-mdp", "trial_index": 64, "time_elapsed": 1019476, "internal_node_id": "0.0-4.0-3.0-6.0"}}, {"uniqueid": "w93883600:a26745017", "current_trial": 65, "dateTime": 1664874121228, "trialdata": {"revealed_states": [], "num_clicks_accrued": [0, 0, 0, 0, 0, 0, 0, 0, 0, 0, 0, 0, 0], "stateRewards": ["", -4, -8, 48, -48, 2, -4, 48, -24, 2, -8, -48, -48], "withholdReward": false, "trial_id": "mdp_624553692913", "block": "test2", "trialIndex": 45, "score": -49, "costs": 0, "simulationMode": [null, null, null], "rewards": [2, -8, -48], "path": ["0", "0", "9", "10", "11"], "rt": [953, 259, 219], "actions": ["left", "left", "up"], "actionTimes": [2328, 3116, 3845], "queries": {"click": {"state": {"target": [], "time": []}, "edge": {"target": [], "time": []}}, "mouseover": {"state": {"target": [], "time": []}, "edge": {"target": [], "time": []}}, "mouseout": {"state": {"target": ["0"], "time": [1175]}, "edge": {"target": [], "time": []}}}, "displayed_time": "10.55", "trialTime": 10878, "trial_type": "mouselab-mdp", "trial_index": 65, "time_elapsed": 1030433, "internal_node_id": "0.0-4.0-3.0-7.0"}}, {"uniqueid": "w93883600:a26745017", "current_trial": 66, "dateTime": 1664874131461, "trialdata": {"revealed_states": [], "num_clicks_accrued": [0, 0, 0, 0, 0, 0, 0, 0, 0, 0, 0, 0, 0], "stateRewards": ["", -4, 8, 24, 24, 2, 4, -48, 24, -2, -4, -24, -24], "withholdReward": true, "trial_id": "mdp_752328329546", "block": "test2", "trialIndex": 46, "score": 33, "costs": 0, "simulationMode": [null, null, null], "rewards": [-4, 8, 24], "path": ["0", "0", "1", "2", "4"], "rt": [523, 211, 3800], "actions": ["up", "up", "left"], "actionTimes": [1752, 2498, 6822], "queries": {"click": {"state": {"target": [], "time": []}, "edge": {"target": [], "time": []}}, "mouseover": {"state": {"target": [], "time": []}, "edge": {"target": [], "time": []}}, "mouseout": {"state": {"target": ["0"], "time": [1175]}, "edge": {"target": [], "time": []}}}, "displayed_time": "9.34", "trialTime": 10168, "trial_type": "mouselab-mdp", "trial_index": 66, "time_elapsed": 1040666, "internal_node_id": "0.0-4.0-3.0-8.0"}}, {"uniqueid": "w93883600:a26745017", "current_trial": 67, "dateTime": 1664874141602, "trialdata": {"revealed_states": [], "num_clicks_accrued": [0, 0, 0, 0, 0, 0, 0, 0, 0, 0, 0, 0, 0], "stateRewards": ["", 2, 8, -48, 48, -4, -8, 24, 24, -2, -8, 24, -24], "withholdReward": true, "trial_id": "mdp_910248289075", "block": "test2", "trialIndex": 47, "score": -33, "costs": 0, "simulationMode": [null, null, null], "rewards": [2, 8, -48], "path": ["0", "0", "1", "2", "3"], "rt": [383, 2470, 1809], "actions": ["up", "up", "right"], "actionTimes": [1325, 4312, 6645], "queries": {"click": {"state": {"target": [], "time": []}, "edge": {"target": [], "time": []}}, "mouseover": {"state": {"target": [], "time": []}, "edge": {"target": [], "time": []}}, "mouseout": {"state": {"target": ["0"], "time": [893]}, "edge": {"target": [], "time": []}}}, "displayed_time": "9.14", "trialTime": 10067, "trial_type": "mouselab-mdp", "trial_index": 67, "time_elapsed": 1050807, "internal_node_id": "0.0-4.0-3.0-9.0"}}, {"uniqueid": "w93883600:a26745017", "current_trial": 68, "dateTime": 1664874154078, "trialdata": {"revealed_states": [], "num_clicks_accrued": [0, 0, 0, 0, 0, 0, 0, 0, 0, 0, 0, 0, 0], "stateRewards": ["", -2, 4, 24, 48, 2, 4, -48, -48, -2, 8, 48, -24], "withholdReward": true, "trial_id": "mdp_305701202606", "block": "test2", "trialIndex": 48, "score": -37, "costs": 0, "simulationMode": [null, null, null], "rewards": [2, 4, -48], "path": ["0", "0", "5", "6", "7"], "rt": [659, 342, 1019], "actions": ["right", "right", "up"], "actionTimes": [1786, 2656, 4189], "queries": {"click": {"state": {"target": [], "time": []}, "edge": {"target": [], "time": []}}, "mouseover": {"state": {"target": [], "time": []}, "edge": {"target": [], "time": []}}, "mouseout": {"state": {"target": ["0"], "time": [1604]}, "edge": {"target": [], "time": []}}}, "displayed_time": "10.30", "trialTime": 12405, "trial_type": "mouselab-mdp", "trial_index": 68, "time_elapsed": 1063282, "internal_node_id": "0.0-4.0-3.0-10.0"}}, {"uniqueid": "w93883600:a26745017", "current_trial": 69, "dateTime": 1664874180348, "trialdata": {"revealed_states": [], "num_clicks_accrued": [0, 0, 0, 0, 0, 0, 0, 0, 0, 0, 0, 0, 0], "stateRewards": ["", -2, 8, 24, -48, -4, -8, -24, -48, -4, 8, -24, 48], "withholdReward": true, "trial_id": "mdp_464339499860", "block": "test2", "trialIndex": 49, "score": 57, "costs": 0, "simulationMode": [null, null, null], "rewards": [-4, 8, 48], "path": ["0", "0", "9", "10", "12"], "rt": [1324, 259, 168], "actions": ["left", "left", "down"], "actionTimes": [17610, 18406, 19089], "queries": {"click": {"state": {"target": [], "time": []}, "edge": {"target": [], "time": []}}, "mouseover": {"state": {"target": [], "time": []}, "edge": {"target": [], "time": []}}, "mouseout": {"state": {"target": ["0", "9", "0"], "time": [14443, 15138, 21819]}, "edge": {"target": [], "time": []}}}, "displayed_time": "24.35", "trialTime": 26191, "trial_type": "mouselab-mdp", "trial_index": 69, "time_elapsed": 1089553, "internal_node_id": "0.0-4.0-3.0-11.0"}}, {"uniqueid": "w93883600:a26745017", "current_trial": 70, "dateTime": 1664874193481, "trialdata": {"revealed_states": [], "num_clicks_accrued": [0, 0, 0, 0, 0, 0, 0, 0, 0, 0, 0, 0, 0], "stateRewards": ["", 2, -4, 48, -24, 4, -8, -24, 48, -2, -4, 24, -48], "withholdReward": false, "trial_id": "mdp_357328205509", "block": "test2", "trialIndex": 50, "score": -21, "costs": 0, "simulationMode": [null, null, null], "rewards": [2, -4, -24], "path": ["0", "0", "1", "2", "4"], "rt": [492, 219, 283], "actions": ["up", "up", "left"], "actionTimes": [4544, 5282, 6080], "queries": {"click": {"state": {"target": [], "time": []}, "edge": {"target": [], "time": []}}, "mouseover": {"state": {"target": [], "time": []}, "edge": {"target": [], "time": []}}, "mouseout": {"state": {"target": ["0"], "time": [7086]}, "edge": {"target": [], "time": []}}}, "displayed_time": "12.10", "trialTime": 13054, "trial_type": "mouselab-mdp", "trial_index": 70, "time_elapsed": 1102686, "internal_node_id": "0.0-4.0-3.0-12.0"}}, {"uniqueid": "w93883600:a26745017", "current_trial": 71, "dateTime": 1664874222777, "trialdata": {"revealed_states": [], "num_clicks_accrued": [0, 0, 0, 0, 0, 0, 0, 0, 0, 0, 0, 0, 0], "stateRewards": ["", -4, -4, -48, -24, 2, 8, 24, -48, 4, 4, 48, 48], "withholdReward": true, "trial_id": "mdp_693501840209", "block": "test2", "trialIndex": 51, "score": -51, "costs": 0, "simulationMode": [null, null, null], "rewards": [-4, -4, -48], "path": ["0", "0", "1", "2", "3"], "rt": [908, 295, 187], "actions": ["up", "up", "right"], "actionTimes": [2013, 2826, 3530], "queries": {"click": {"state": {"target": [], "time": []}, "edge": {"target": [], "time": []}}, "mouseover": {"state": {"target": [], "time": []}, "edge": {"target": [], "time": []}}, "mouseout": {"state": {"target": ["0", "0"], "time": [938, 4309]}, "edge": {"target": [], "time": []}}}, "displayed_time": "9.40", "trialTime": 29228, "trial_type": "mouselab-mdp", "trial_index": 71, "time_elapsed": 1131982, "internal_node_id": "0.0-4.0-3.0-13.0"}}, {"uniqueid": "w93883600:a26745017", "current_trial": 72, "dateTime": 1664874250350, "trialdata": {"revealed_states": [], "num_clicks_accrued": [0, 0, 0, 0, 0, 0, 0, 0, 0, 0, 0, 0, 0], "stateRewards": ["", 2, 4, 48, 48, 4, -8, 24, -48, -4, -8, -24, -48], "withholdReward": true, "trial_id": "mdp_343818007251", "block": "test2", "trialIndex": 52, "score": -55, "costs": 0, "simulationMode": [null, null, null], "rewards": [-4, -8, -48], "path": ["0", "0", "9", "10", "12"], "rt": [1198, 401, 293], "actions": ["left", "left", "down"], "actionTimes": [15515, 16436, 17261], "queries": {"click": {"state": {"target": [], "time": []}, "edge": {"target": [], "time": []}}, "mouseover": {"state": {"target": [], "time": []}, "edge": {"target": [], "time": []}}, "mouseout": {"state": {"target": ["0", "0", "1", "2", "0"], "time": [14139, 26103, 26118, 26399, 26619]}, "edge": {"target": [], "time": []}}}, "displayed_time": "22.36", "trialTime": 27490, "trial_type": "mouselab-mdp", "trial_index": 72, "time_elapsed": 1159554, "internal_node_id": "0.0-4.0-3.0-14.0"}}, {"uniqueid": "w93883600:a26745017", "current_trial": 73, "dateTime": 1664874276106, "trialdata": {"revealed_states": [], "num_clicks_accrued": [0, 0, 0, 0, 0, 0, 0, 0, 0, 0, 0, 0, 0], "stateRewards": ["", -2, -8, -24, -48, 4, -8, 48, 24, 2, 4, -48, -48], "withholdReward": true, "trial_id": "mdp_898082967464", "block": "test2", "trialIndex": 53, "score": -37, "costs": 0, "simulationMode": [null, null, null], "rewards": [2, 4, -48], "path": ["0", "0", "9", "10", "11"], "rt": [968, 366, 464], "actions": ["left", "left", "up"], "actionTimes": [2751, 3638, 4607], "queries": {"click": {"state": {"target": [], "time": []}, "edge": {"target": [], "time": []}}, "mouseover": {"state": {"target": [], "time": []}, "edge": {"target": [], "time": []}}, "mouseout": {"state": {"target": ["0", "0", "10"], "time": [2232, 7630, 7658]}, "edge": {"target": [], "time": []}}}, "displayed_time": "12.05", "trialTime": 25673, "trial_type": "mouselab-mdp", "trial_index": 73, "time_elapsed": 1185308, "internal_node_id": "0.0-4.0-3.0-15.0"}}, {"uniqueid": "w93883600:a26745017", "current_trial": 74, "dateTime": 1664874289825, "trialdata": {"revealed_states": [], "num_clicks_accrued": [0, 0, 0, 0, 0, 0, 0, 0, 0, 0, 0, 0, 0], "stateRewards": ["", -2, 4, 48, -24, 2, 8, 24, 48, 2, 4, -24, -48], "withholdReward": false, "trial_id": "mdp_892412058587", "block": "test2", "trialIndex": 54, "score": 55, "costs": 0, "simulationMode": [null, null, null], "rewards": [-2, 4, 48], "path": ["0", "0", "1", "2", "3"], "rt": [1395, 580, 563], "actions": ["up", "up", "right"], "actionTimes": [4384, 5483, 6582], "queries": {"click": {"state": {"target": [], "time": []}, "edge": {"target": [], "time": []}}, "mouseover": {"state": {"target": [], "time": []}, "edge": {"target": [], "time": []}}, "mouseout": {"state": {"target": ["10", "12", "0"], "time": [1719, 2133, 3287]}, "edge": {"target": [], "time": []}}}, "displayed_time": "12.08", "trialTime": 13625, "trial_type": "mouselab-mdp", "trial_index": 74, "time_elapsed": 1199028, "internal_node_id": "0.0-4.0-3.0-16.0"}}, {"uniqueid": "w93883600:a26745017", "current_trial": 75, "dateTime": 1664874301817, "trialdata": {"revealed_states": [], "num_clicks_accrued": [0, 0, 0, 0, 0, 0, 0, 0, 0, 0, 0, 0, 0], "stateRewards": ["", 2, 8, -48, -24, 2, -4, -48, 24, 2, -4, -24, -24], "withholdReward": false, "trial_id": "mdp_954659099093", "block": "test2", "trialIndex": 55, "score": -9, "costs": 0, "simulationMode": [null, null, null], "rewards": [2, 8, -24], "path": ["0", "0", "1", "2", "4"], "rt": [1178, 340, 254], "actions": ["up", "up", "left"], "actionTimes": [3688, 4551, 5314], "queries": {"click": {"state": {"target": [], "time": []}, "edge": {"target": [], "time": []}}, "mouseover": {"state": {"target": ["0"], "time": [2726]}, "edge": {"target": [], "time": []}}, "mouseout": {"state": {"target": ["0", "0"], "time": [2309, 3016]}, "edge": {"target": [], "time": []}}}, "displayed_time": "10.55", "trialTime": 11910, "trial_type": "mouselab-mdp", "trial_index": 75, "time_elapsed": 1211022, "internal_node_id": "0.0-4.0-3.0-17.0"}}, {"uniqueid": "w93883600:a26745017", "current_trial": 76, "dateTime": 1664874319690, "trialdata": {"revealed_states": [], "num_clicks_accrued": [0, 0, 0, 0, 0, 0, 0, 0, 0, 0, 0, 0, 0], "stateRewards": ["", 4, -4, 48, -48, -4, -4, 48, -48, 4, 4, -48, -24], "withholdReward": false, "trial_id": "mdp_490058671112", "block": "test2", "trialIndex": 56, "score": 53, "costs": 0, "simulationMode": [null, null, null], "rewards": [4, -4, 48], "path": ["0", "0", "1", "2", "3"], "rt": [1990, 287, 276], "actions": ["up", "up", "right"], "actionTimes": [9886, 10692, 11481], "queries": {"click": {"state": {"target": [], "time": []}, "edge": {"target": [], "time": []}}, "mouseover": {"state": {"target": ["0"], "time": [9107]}, "edge": {"target": [], "time": []}}, "mouseout": {"state": {"target": ["1", "0", "0"], "time": [6930, 7738, 9122]}, "edge": {"target": [], "time": []}}}, "displayed_time": "17.03", "trialTime": 17785, "trial_type": "mouselab-mdp", "trial_index": 76, "time_elapsed": 1228895, "internal_node_id": "0.0-4.0-3.0-18.0"}}, {"uniqueid": "w93883600:a26745017", "current_trial": 77, "dateTime": 1664874331911, "trialdata": {"revealed_states": [], "num_clicks_accrued": [0, 0, 0, 0, 0, 0, 0, 0, 0, 0, 0, 0, 0], "stateRewards": ["", 2, 4, -48, -24, -4, 4, -24, 24, -2, -8, -24, 24], "withholdReward": true, "trial_id": "mdp_640720803523", "block": "test2", "trialIndex": 57, "score": -13, "costs": 0, "simulationMode": [null, null, null], "rewards": [2, 4, -24], "path": ["0", "0", "1", "2", "4"], "rt": [1157, 479, 634], "actions": ["up", "up", "left"], "actionTimes": [4830, 5826, 7001], "queries": {"click": {"state": {"target": [], "time": []}, "edge": {"target": [], "time": []}}, "mouseover": {"state": {"target": [], "time": []}, "edge": {"target": [], "time": []}}, "mouseout": {"state": {"target": ["9", "1", "0"], "time": [2564, 2594, 4197]}, "edge": {"target": [], "time": []}}}, "displayed_time": "10.73", "trialTime": 12147, "trial_type": "mouselab-mdp", "trial_index": 77, "time_elapsed": 1241116, "internal_node_id": "0.0-4.0-3.0-19.0"}}, {"uniqueid": "w93883600:a26745017", "current_trial": 78, "dateTime": 1664874344213, "trialdata": {"revealed_states": [], "num_clicks_accrued": [0, 0, 0, 0, 0, 0, 0, 0, 0, 0, 0, 0, 0], "stateRewards": ["", -2, 4, -24, -48, -4, 8, -24, 48, 4, 4, -48, 24], "withholdReward": true, "trial_id": "mdp_341117665701", "block": "test2", "trialIndex": 58, "score": 37, "costs": 0, "simulationMode": [null, null, null], "rewards": [4, 4, 24], "path": ["0", "0", "9", "10", "12"], "rt": [1790, 1284, 338], "actions": ["left", "left", "down"], "actionTimes": [4080, 5881, 6764], "queries": {"click": {"state": {"target": [], "time": []}, "edge": {"target": [], "time": []}}, "mouseover": {"state": {"target": [], "time": []}, "edge": {"target": [], "time": []}}, "mouseout": {"state": {"target": ["0"], "time": [1706]}, "edge": {"target": [], "time": []}}}, "displayed_time": "10.51", "trialTime": 12204, "trial_type": "mouselab-mdp", "trial_index": 78, "time_elapsed": 1253417, "internal_node_id": "0.0-4.0-3.0-20.0"}}, {"uniqueid": "w93883600:a26745017", "current_trial": 79, "dateTime": 1664874362438, "trialdata": {"revealed_states": [], "num_clicks_accrued": [0, 0, 0, 0, 0, 0, 0, 0, 0, 0, 0, 0, 0], "stateRewards": ["", -2, 8, 48, 24, 2, -4, 48, -48, 2, 8, 24, -24], "withholdReward": true, "trial_id": "mdp_176207245985", "block": "test2", "trialIndex": 59, "score": 39, "costs": 0, "simulationMode": [null, null, null], "rewards": [2, 8, 24], "path": ["0", "0", "9", "10", "11"], "rt": [896, 296, 153], "actions": ["left", "left", "up"], "actionTimes": [3419, 4242, 4923], "queries": {"click": {"state": {"target": [], "time": []}, "edge": {"target": [], "time": []}}, "mouseover": {"state": {"target": [], "time": []}, "edge": {"target": [], "time": []}}, "mouseout": {"state": {"target": [], "time": []}, "edge": {"target": [], "time": []}}}, "displayed_time": "11.59", "trialTime": 18138, "trial_type": "mouselab-mdp", "trial_index": 79, "time_elapsed": 1271643, "internal_node_id": "0.0-4.0-3.0-21.0"}}, {"uniqueid": "w93883600:a26745017", "current_trial": 80, "dateTime": 1664874372512, "trialdata": {"revealed_states": [], "num_clicks_accrued": [0, 0, 0, 0, 0, 0, 0, 0, 0, 0, 0, 0, 0], "stateRewards": ["", -4, 8, 24, -24, 4, 8, -24, -48, 2, 4, 24, -24], "withholdReward": true, "trial_id": "mdp_782187007008", "block": "test2", "trialIndex": 60, "score": 33, "costs": 0, "simulationMode": [null, null, null], "rewards": [-4, 8, 24], "path": ["0", "0", "1", "2", "3"], "rt": [776, 149, 42], "actions": ["up", "up", "right"], "actionTimes": [2068, 2751, 3326], "queries": {"click": {"state": {"target": [], "time": []}, "edge": {"target": [], "time": []}}, "mouseover": {"state": {"target": [], "time": []}, "edge": {"target": [], "time": []}}, "mouseout": {"state": {"target": ["0", "4", "2"], "time": [1318, 8871, 8884]}, "edge": {"target": [], "time": []}}}, "displayed_time": "9.37", "trialTime": 9982, "trial_type": "mouselab-mdp", "trial_index": 80, "time_elapsed": 1281717, "internal_node_id": "0.0-4.0-3.0-22.0"}}, {"uniqueid": "w93883600:a26745017", "current_trial": 81, "dateTime": 1664874383010, "trialdata": {"revealed_states": [], "num_clicks_accrued": [0, 0, 0, 0, 0, 0, 0, 0, 0, 0, 0, 0, 0], "stateRewards": ["", 2, 4, 48, -48, 2, 4, 24, -24, 2, -4, -24, -48], "withholdReward": true, "trial_id": "mdp_706591889062", "block": "test2", "trialIndex": 61, "score": 59, "costs": 0, "simulationMode": [null, null, null], "rewards": [2, 4, 48], "path": ["0", "0", "1", "2", "3"], "rt": [576, 1362, 517], "actions": ["up", "up", "right"], "actionTimes": [2154, 4044, 5082], "queries": {"click": {"state": {"target": [], "time": []}, "edge": {"target": [], "time": []}}, "mouseover": {"state": {"target": [], "time": []}, "edge": {"target": [], "time": []}}, "mouseout": {"state": {"target": ["6", "5"], "time": [899, 1247]}, "edge": {"target": [], "time": []}}}, "displayed_time": "9.66", "trialTime": 10396, "trial_type": "mouselab-mdp", "trial_index": 81, "time_elapsed": 1292215, "internal_node_id": "0.0-4.0-3.0-23.0"}}, {"uniqueid": "w93883600:a26745017", "current_trial": 82, "dateTime": 1664874392696, "trialdata": {"revealed_states": [], "num_clicks_accrued": [0, 0, 0, 0, 0, 0, 0, 0, 0, 0, 0, 0, 0], "stateRewards": ["", -2, -4, -48, -48, 4, 8, 24, -48, 4, -8, 24, 24], "withholdReward": true, "trial_id": "mdp_749799219195", "block": "test2", "trialIndex": 62, "score": -31, "costs": 0, "simulationMode": [null, null, null], "rewards": [4, 8, -48], "path": ["0", "0", "5", "6", "8"], "rt": [602, 282, 137], "actions": ["right", "right", "down"], "actionTimes": [1302, 2094, 2769], "queries": {"click": {"state": {"target": [], "time": []}, "edge": {"target": [], "time": []}}, "mouseover": {"state": {"target": [], "time": []}, "edge": {"target": [], "time": []}}, "mouseout": {"state": {"target": ["0"], "time": [4661]}, "edge": {"target": [], "time": []}}}, "displayed_time": "8.79", "trialTime": 9598, "trial_type": "mouselab-mdp", "trial_index": 82, "time_elapsed": 1301900, "internal_node_id": "0.0-4.0-3.0-24.0"}}, {"uniqueid": "w93883600:a26745017", "current_trial": 83, "dateTime": 1664874403188, "trialdata": {"revealed_states": [], "num_clicks_accrued": [0, 0, 0, 0, 0, 0, 0, 0, 0, 0, 0, 0, 0], "stateRewards": ["", -4, -8, 48, -24, 4, -8, 48, 48, -2, 4, -48, -24], "withholdReward": true, "trial_id": "mdp_925905402462", "block": "test2", "trialIndex": 63, "score": -17, "costs": 0, "simulationMode": [null, null, null], "rewards": [-2, 4, -24], "path": ["0", "0", "9", "10", "12"], "rt": [1081, 237, 277], "actions": ["left", "left", "down"], "actionTimes": [1938, 2699, 3506], "queries": {"click": {"state": {"target": [], "time": []}, "edge": {"target": [], "time": []}}, "mouseover": {"state": {"target": [], "time": []}, "edge": {"target": [], "time": []}}, "mouseout": {"state": {"target": ["1", "2"], "time": [6298, 6307]}, "edge": {"target": [], "time": []}}}, "displayed_time": "10.05", "trialTime": 10400, "trial_type": "mouselab-mdp", "trial_index": 83, "time_elapsed": 1312393, "internal_node_id": "0.0-4.0-3.0-25.0"}}, {"uniqueid": "w93883600:a26745017", "current_trial": 84, "dateTime": 1664874414612, "trialdata": {"revealed_states": [], "num_clicks_accrued": [0, 0, 0, 0, 0, 0, 0, 0, 0, 0, 0, 0, 0], "stateRewards": ["", -2, 8, -24, 48, -4, 4, -48, 24, 4, -8, 48, -24], "withholdReward": true, "trial_id": "mdp_425320427962", "block": "test2", "trialIndex": 64, "score": 49, "costs": 0, "simulationMode": [null, null, null], "rewards": [4, -8, 48], "path": ["0", "0", "9", "10", "11"], "rt": [660, 262, 1725], "actions": ["left", "left", "up"], "actionTimes": [2268, 3066, 5296], "queries": {"click": {"state": {"target": [], "time": []}, "edge": {"target": [], "time": []}}, "mouseover": {"state": {"target": [], "time": []}, "edge": {"target": [], "time": []}}, "mouseout": {"state": {"target": ["6", "5", "0", "9", "0", "0", "9", "8"], "time": [543, 606, 636, 820, 6289, 10202, 10217, 11100]}, "edge": {"target": [], "time": []}}}, "displayed_time": "10.76", "trialTime": 11328, "trial_type": "mouselab-mdp", "trial_index": 84, "time_elapsed": 1323817, "internal_node_id": "0.0-4.0-3.0-26.0"}}, {"uniqueid": "w93883600:a26745017", "current_trial": 85, "dateTime": 1664874423299, "trialdata": {"revealed_states": [], "num_clicks_accrued": [0, 0, 0, 0, 0, 0, 0, 0, 0, 0, 0, 0, 0], "stateRewards": ["", -4, -4, 24, -48, -2, 8, -24, -48, -4, 4, 24, -48], "withholdReward": true, "trial_id": "mdp_934626330092", "block": "test2", "trialIndex": 65, "score": 21, "costs": 0, "simulationMode": [null, null, null], "rewards": [-4, -4, 24], "path": ["0", "0", "1", "2", "3"], "rt": [391, 413, 4483], "actions": ["up", "up", "right"], "actionTimes": [1318, 2266, 7275], "queries": {"click": {"state": {"target": [], "time": []}, "edge": {"target": [], "time": []}}, "mouseover": {"state": {"target": [], "time": []}, "edge": {"target": [], "time": []}}, "mouseout": {"state": {"target": ["5", "1"], "time": [421, 670]}, "edge": {"target": [], "time": []}}}, "displayed_time": "7.95", "trialTime": 8616, "trial_type": "mouselab-mdp", "trial_index": 85, "time_elapsed": 1332503, "internal_node_id": "0.0-4.0-3.0-27.0"}}, {"uniqueid": "w93883600:a26745017", "current_trial": 86, "dateTime": 1664874431786, "trialdata": {"revealed_states": [], "num_clicks_accrued": [0, 0, 0, 0, 0, 0, 0, 0, 0, 0, 0, 0, 0], "stateRewards": ["", -2, -4, -24, -48, -2, 8, -48, 24, 4, -4, -24, -24], "withholdReward": true, "trial_id": "mdp_915304165774", "block": "test2", "trialIndex": 66, "score": 35, "costs": 0, "simulationMode": [null, null, null], "rewards": [-2, 8, 24], "path": ["0", "0", "5", "6", "8"], "rt": [398, 585, 225], "actions": ["right", "right", "down"], "actionTimes": [1220, 2327, 3098], "queries": {"click": {"state": {"target": [], "time": []}, "edge": {"target": [], "time": []}}, "mouseover": {"state": {"target": [], "time": []}, "edge": {"target": [], "time": []}}, "mouseout": {"state": {"target": [], "time": []}, "edge": {"target": [], "time": []}}}, "displayed_time": "7.95", "trialTime": 8397, "trial_type": "mouselab-mdp", "trial_index": 86, "time_elapsed": 1340991, "internal_node_id": "0.0-4.0-3.0-28.0"}}, {"uniqueid": "w93883600:a26745017", "current_trial": 87, "dateTime": 1664874442807, "trialdata": {"revealed_states": [], "num_clicks_accrued": [0, 0, 0, 0, 0, 0, 0, 0, 0, 0, 0, 0, 0], "stateRewards": ["", -2, -4, -24, 48, -2, -8, -48, -24, 4, 8, 48, 24], "withholdReward": true, "trial_id": "mdp_625355871626", "block": "test2", "trialIndex": 67, "score": 65, "costs": 0, "simulationMode": [null, null, null], "rewards": [4, 8, 48], "path": ["0", "0", "9", "10", "11"], "rt": [666, 369, 238], "actions": ["left", "left", "up"], "actionTimes": [1476, 2362, 3133], "queries": {"click": {"state": {"target": [], "time": []}, "edge": {"target": [], "time": []}}, "mouseover": {"state": {"target": [], "time": []}, "edge": {"target": [], "time": []}}, "mouseout": {"state": {"target": ["0", "9", "9", "9", "0", "5"], "time": [5044, 5661, 6123, 7323, 7623, 7667]}, "edge": {"target": [], "time": []}}}, "displayed_time": "9.87", "trialTime": 10932, "trial_type": "mouselab-mdp", "trial_index": 87, "time_elapsed": 1352010, "internal_node_id": "0.0-4.0-3.0-29.0"}}, {"uniqueid": "w93883600:a26745017", "current_trial": 88, "dateTime": 1664874479077, "trialdata": {"rt": 36259, "stimulus": "<h1> End of block! </h1>\n\nYou have reached the end of the block 2/4. If you need a short break, feel free to take one now before moving on.\n\n<br><br>\nIn the next block, you will complete another 30 rounds of this game.\n\n<br><br>\n<div style='text-align: center;'>Press <code>space</code> to begin.</div>\n<br><br>\n<div style='text-align: center;'>(If the experiment doesn't continue, try clicking on the text and then pressing <code>space</code>.)</div>", "response": " ", "trial_id": "mdp_ready_3", "trial_type": "html-keyboard-response", "trial_index": 88, "time_elapsed": 1388281, "internal_node_id": "0.0-4.0-4.0"}}, {"uniqueid": "w93883600:a26745017", "current_trial": 89, "dateTime": 1664874490839, "trialdata": {"revealed_states": [], "num_clicks_accrued": [0, 0, 0, 0, 0, 0, 0, 0, 0, 0, 0, 0, 0], "stateRewards": ["", 2, 4, 48, 48, 4, -8, 24, -48, -4, -8, -24, -48], "withholdReward": true, "trial_id": "mdp_343818007251", "block": "test3", "trialIndex": 68, "score": 59, "costs": 0, "simulationMode": [null, null, null], "rewards": [2, 4, 48], "path": ["0", "0", "1", "2", "3"], "rt": [2245, 526, 4907], "actions": ["up", "up", "right"], "actionTimes": [3528, 4591, 10031], "queries": {"click": {"state": {"target": [], "time": []}, "edge": {"target": [], "time": []}}, "mouseover": {"state": {"target": [], "time": []}, "edge": {"target": [], "time": []}}, "mouseout": {"state": {"target": ["0", "0"], "time": [3038, 11078]}, "edge": {"target": [], "time": []}}}, "displayed_time": "10.56", "trialTime": 11681, "trial_type": "mouselab-mdp", "trial_index": 89, "time_elapsed": 1400042, "internal_node_id": "0.0-4.0-5.0-0.0"}}, {"uniqueid": "w93883600:a26745017", "current_trial": 90, "dateTime": 1664874500163, "trialdata": {"revealed_states": [], "num_clicks_accrued": [0, 0, 0, 0, 0, 0, 0, 0, 0, 0, 0, 0, 0], "stateRewards": ["", -2, 4, -24, -24, -2, 4, 48, 24, -4, -8, 24, -48], "withholdReward": true, "trial_id": "mdp_191839460481", "block": "test3", "trialIndex": 69, "score": -55, "costs": 0, "simulationMode": [null, null, null], "rewards": [-4, -8, -48], "path": ["0", "0", "9", "10", "12"], "rt": [824, 172, 496], "actions": ["left", "left", "down"], "actionTimes": [1463, 2177, 3177], "queries": {"click": {"state": {"target": [], "time": []}, "edge": {"target": [], "time": []}}, "mouseover": {"state": {"target": [], "time": []}, "edge": {"target": [], "time": []}}, "mouseout": {"state": {"target": ["0"], "time": [2773]}, "edge": {"target": [], "time": []}}}, "displayed_time": "8.74", "trialTime": 9244, "trial_type": "mouselab-mdp", "trial_index": 90, "time_elapsed": 1409368, "internal_node_id": "0.0-4.0-5.0-1.0"}}, {"uniqueid": "w93883600:a26745017", "current_trial": 91, "dateTime": 1664874518317, "trialdata": {"revealed_states": [], "num_clicks_accrued": [0, 0, 0, 0, 0, 0, 0, 0, 0, 0, 0, 0, 0], "stateRewards": ["", -4, -8, 48, -24, 4, -8, 48, 48, -2, 4, -48, -24], "withholdReward": false, "trial_id": "mdp_925905402462", "block": "test3", "trialIndex": 70, "score": -17, "costs": 0, "simulationMode": [null, null, null], "rewards": [-2, 4, -24], "path": ["0", "0", "9", "10", "12"], "rt": [830, 286, 203], "actions": ["left", "left", "down"], "actionTimes": [2088, 2905, 3615], "queries": {"click": {"state": {"target": [], "time": []}, "edge": {"target": [], "time": []}}, "mouseover": {"state": {"target": [], "time": []}, "edge": {"target": [], "time": []}}, "mouseout": {"state": {"target": ["0", "9", "6", "5"], "time": [6038, 8876, 17295, 17623]}, "edge": {"target": [], "time": []}}}, "displayed_time": "10.42", "trialTime": 18078, "trial_type": "mouselab-mdp", "trial_index": 91, "time_elapsed": 1427521, "internal_node_id": "0.0-4.0-5.0-2.0"}}, {"uniqueid": "w93883600:a26745017", "current_trial": 92, "dateTime": 1664874528473, "trialdata": {"revealed_states": [], "num_clicks_accrued": [0, 0, 0, 0, 0, 0, 0, 0, 0, 0, 0, 0, 0], "stateRewards": ["", -2, -4, -24, -48, -4, -8, -48, 24, -4, -8, -24, -48], "withholdReward": false, "trial_id": "mdp_475782454549", "block": "test3", "trialIndex": 71, "score": 17, "costs": 0, "simulationMode": [null, null, null], "rewards": [-4, -8, 24], "path": ["0", "0", "5", "6", "8"], "rt": [881, 52, 343], "actions": ["right", "right", "down"], "actionTimes": [1467, 2032, 2918], "queries": {"click": {"state": {"target": [], "time": []}, "edge": {"target": [], "time": []}}, "mouseover": {"state": {"target": ["0"], "time": [839]}, "edge": {"target": [], "time": []}}, "mouseout": {"state": {"target": ["0"], "time": [382]}, "edge": {"target": [], "time": []}}}, "displayed_time": "8.67", "trialTime": 10058, "trial_type": "mouselab-mdp", "trial_index": 92, "time_elapsed": 1437678, "internal_node_id": "0.0-4.0-5.0-3.0"}}, {"uniqueid": "w93883600:a26745017", "current_trial": 93, "dateTime": 1664874544227, "trialdata": {"revealed_states": [], "num_clicks_accrued": [0, 0, 0, 0, 0, 0, 0, 0, 0, 0, 0, 0, 0], "stateRewards": ["", -4, -4, 48, 24, -4, -4, -24, -48, -4, 4, 48, -24], "withholdReward": true, "trial_id": "mdp_896503755738", "block": "test3", "trialIndex": 72, "score": -51, "costs": 0, "simulationMode": [null, null, null], "rewards": [-4, -4, -48], "path": ["0", "0", "5", "6", "8"], "rt": [1713, 411, 632], "actions": ["right", "right", "down"], "actionTimes": [4238, 5161, 6317], "queries": {"click": {"state": {"target": [], "time": []}, "edge": {"target": [], "time": []}}, "mouseover": {"state": {"target": ["9"], "time": [3462]}, "edge": {"target": [], "time": []}}, "mouseout": {"state": {"target": ["0", "0", "9", "10"], "time": [2010, 3343, 15097, 15126]}, "edge": {"target": [], "time": []}}}, "displayed_time": "12.71", "trialTime": 15665, "trial_type": "mouselab-mdp", "trial_index": 93, "time_elapsed": 1453431, "internal_node_id": "0.0-4.0-5.0-4.0"}}, {"uniqueid": "w93883600:a26745017", "current_trial": 94, "dateTime": 1664874556380, "trialdata": {"revealed_states": [], "num_clicks_accrued": [0, 0, 0, 0, 0, 0, 0, 0, 0, 0, 0, 0, 0], "stateRewards": ["", 2, -4, 48, -48, -4, -8, -48, 24, -4, 4, 48, 48], "withholdReward": true, "trial_id": "mdp_544803968425", "block": "test3", "trialIndex": 73, "score": 51, "costs": 0, "simulationMode": [null, null, null], "rewards": [2, -4, 48], "path": ["0", "0", "1", "2", "3"], "rt": [911, 379, 59], "actions": ["up", "up", "right"], "actionTimes": [3105, 4016, 4597], "queries": {"click": {"state": {"target": [], "time": []}, "edge": {"target": [], "time": []}}, "mouseover": {"state": {"target": ["0"], "time": [2583]}, "edge": {"target": [], "time": []}}, "mouseout": {"state": {"target": ["7", "0", "0", "1", "2", "9"], "time": [1532, 5600, 7881, 8115, 8564, 8698]}, "edge": {"target": [], "time": []}}}, "displayed_time": "11.41", "trialTime": 12059, "trial_type": "mouselab-mdp", "trial_index": 94, "time_elapsed": 1465585, "internal_node_id": "0.0-4.0-5.0-5.0"}}, {"uniqueid": "w93883600:a26745017", "current_trial": 95, "dateTime": 1664874566711, "trialdata": {"revealed_states": [], "num_clicks_accrued": [0, 0, 0, 0, 0, 0, 0, 0, 0, 0, 0, 0, 0], "stateRewards": ["", 2, -4, -24, -24, -2, -8, -48, 24, -4, -8, 24, 24], "withholdReward": false, "trial_id": "mdp_521351546461", "block": "test3", "trialIndex": 74, "score": 17, "costs": 0, "simulationMode": [null, null, null], "rewards": [-4, -8, 24], "path": ["0", "0", "9", "10", "11"], "rt": [473, 458, 426], "actions": ["left", "left", "up"], "actionTimes": [1823, 2795, 3745], "queries": {"click": {"state": {"target": [], "time": []}, "edge": {"target": [], "time": []}}, "mouseover": {"state": {"target": [], "time": []}, "edge": {"target": [], "time": []}}, "mouseout": {"state": {"target": ["0", "8"], "time": [3935, 3987]}, "edge": {"target": [], "time": []}}}, "displayed_time": "8.40", "trialTime": 10246, "trial_type": "mouselab-mdp", "trial_index": 95, "time_elapsed": 1475915, "internal_node_id": "0.0-4.0-5.0-6.0"}}, {"uniqueid": "w93883600:a26745017", "current_trial": 96, "dateTime": 1664874576791, "trialdata": {"revealed_states": [], "num_clicks_accrued": [0, 0, 0, 0, 0, 0, 0, 0, 0, 0, 0, 0, 0], "stateRewards": ["", -2, -8, -48, 24, 2, -4, -48, 48, 2, 4, 24, -24], "withholdReward": true, "trial_id": "mdp_849341543762", "block": "test3", "trialIndex": 75, "score": -53, "costs": 0, "simulationMode": [null, null, null], "rewards": [-2, -8, -48], "path": ["0", "0", "1", "2", "3"], "rt": [648, 482, 137], "actions": ["up", "up", "right"], "actionTimes": [2098, 3132, 3784], "queries": {"click": {"state": {"target": [], "time": []}, "edge": {"target": [], "time": []}}, "mouseover": {"state": {"target": [], "time": []}, "edge": {"target": [], "time": []}}, "mouseout": {"state": {"target": ["0"], "time": [5743]}, "edge": {"target": [], "time": []}}}, "displayed_time": "9.70", "trialTime": 9995, "trial_type": "mouselab-mdp", "trial_index": 96, "time_elapsed": 1485996, "internal_node_id": "0.0-4.0-5.0-7.0"}}, {"uniqueid": "w93883600:a26745017", "current_trial": 97, "dateTime": 1664874589168, "trialdata": {"revealed_states": [], "num_clicks_accrued": [0, 0, 0, 0, 0, 0, 0, 0, 0, 0, 0, 0, 0], "stateRewards": ["", 4, -4, 24, 48, 4, 8, -24, -24, -2, 4, 48, 48], "withholdReward": true, "trial_id": "mdp_624998450453", "block": "test3", "trialIndex": 76, "score": 53, "costs": 0, "simulationMode": [null, null, null], "rewards": [4, -4, 48], "path": ["0", "0", "1", "2", "4"], "rt": [625, 347, 290], "actions": ["up", "up", "left"], "actionTimes": [1702, 2556, 3374], "queries": {"click": {"state": {"target": [], "time": []}, "edge": {"target": [], "time": []}}, "mouseover": {"state": {"target": [], "time": []}, "edge": {"target": [], "time": []}}, "mouseout": {"state": {"target": ["0"], "time": [1406]}, "edge": {"target": [], "time": []}}}, "displayed_time": "9.21", "trialTime": 12295, "trial_type": "mouselab-mdp", "trial_index": 97, "time_elapsed": 1498373, "internal_node_id": "0.0-4.0-5.0-8.0"}}, {"uniqueid": "w93883600:a26745017", "current_trial": 98, "dateTime": 1664874597680, "trialdata": {"revealed_states": [], "num_clicks_accrued": [0, 0, 0, 0, 0, 0, 0, 0, 0, 0, 0, 0, 0], "stateRewards": ["", 2, -8, -48, 24, 4, 8, 48, -48, 2, -4, 24, 24], "withholdReward": true, "trial_id": "mdp_130475327289", "block": "test3", "trialIndex": 77, "score": -31, "costs": 0, "simulationMode": [null, null, null], "rewards": [4, 8, -48], "path": ["0", "0", "5", "6", "8"], "rt": [439, 220, 384], "actions": ["right", "right", "down"], "actionTimes": [1572, 2317, 3223], "queries": {"click": {"state": {"target": [], "time": []}, "edge": {"target": [], "time": []}}, "mouseover": {"state": {"target": [], "time": []}, "edge": {"target": [], "time": []}}, "mouseout": {"state": {"target": ["8", "6", "5", "0"], "time": [436, 640, 821, 5301]}, "edge": {"target": [], "time": []}}}, "displayed_time": "8.18", "trialTime": 8440, "trial_type": "mouselab-mdp", "trial_index": 98, "time_elapsed": 1506885, "internal_node_id": "0.0-4.0-5.0-9.0"}}, {"uniqueid": "w93883600:a26745017", "current_trial": 99, "dateTime": 1664874608450, "trialdata": {"revealed_states": [], "num_clicks_accrued": [0, 0, 0, 0, 0, 0, 0, 0, 0, 0, 0, 0, 0], "stateRewards": ["", 4, 4, 24, -48, 2, -8, -24, -48, 4, 8, 48, 48], "withholdReward": true, "trial_id": "mdp_592471239511", "block": "test3", "trialIndex": 78, "score": 65, "costs": 0, "simulationMode": [null, null, null], "rewards": [4, 8, 48], "path": ["0", "0", "9", "10", "12"], "rt": [1151, 265, 171], "actions": ["left", "left", "down"], "actionTimes": [1896, 2682, 3368], "queries": {"click": {"state": {"target": [], "time": []}, "edge": {"target": [], "time": []}}, "mouseover": {"state": {"target": [], "time": []}, "edge": {"target": [], "time": []}}, "mouseout": {"state": {"target": ["0", "0", "6"], "time": [595, 5408, 9242]}, "edge": {"target": [], "time": []}}}, "displayed_time": "9.93", "trialTime": 10702, "trial_type": "mouselab-mdp", "trial_index": 99, "time_elapsed": 1517655, "internal_node_id": "0.0-4.0-5.0-10.0"}}, {"uniqueid": "w93883600:a26745017", "current_trial": 100, "dateTime": 1664874619581, "trialdata": {"revealed_states": [], "num_clicks_accrued": [0, 0, 0, 0, 0, 0, 0, 0, 0, 0, 0, 0, 0], "stateRewards": ["", 2, -4, 48, -24, 4, -8, -24, 48, -2, -4, 24, -48], "withholdReward": true, "trial_id": "mdp_357328205509", "block": "test3", "trialIndex": 79, "score": 23, "costs": 0, "simulationMode": [null, null, null], "rewards": [-2, -4, 24], "path": ["0", "0", "9", "10", "11"], "rt": [878, 256, 140], "actions": ["left", "left", "up"], "actionTimes": [2458, 3233, 3882], "queries": {"click": {"state": {"target": [], "time": []}, "edge": {"target": [], "time": []}}, "mouseover": {"state": {"target": [], "time": []}, "edge": {"target": [], "time": []}}, "mouseout": {"state": {"target": ["0"], "time": [2692]}, "edge": {"target": [], "time": []}}}, "displayed_time": "10.67", "trialTime": 11067, "trial_type": "mouselab-mdp", "trial_index": 100, "time_elapsed": 1528786, "internal_node_id": "0.0-4.0-5.0-11.0"}}, {"uniqueid": "w93883600:a26745017", "current_trial": 101, "dateTime": 1664874632007, "trialdata": {"revealed_states": [], "num_clicks_accrued": [0, 0, 0, 0, 0, 0, 0, 0, 0, 0, 0, 0, 0], "stateRewards": ["", -4, 8, -48, -48, -2, -8, -24, -48, 2, -4, -48, 24], "withholdReward": true, "trial_id": "mdp_743906784415", "block": "test3", "trialIndex": 80, "score": -45, "costs": 0, "simulationMode": [null, null, null], "rewards": [2, -4, -48], "path": ["0", "0", "9", "10", "11"], "rt": [750, 318, 222], "actions": ["left", "left", "up"], "actionTimes": [1718, 2565, 3299], "queries": {"click": {"state": {"target": [], "time": []}, "edge": {"target": [], "time": []}}, "mouseover": {"state": {"target": ["0"], "time": [1361]}, "edge": {"target": [], "time": []}}, "mouseout": {"state": {"target": ["0", "0"], "time": [844, 4697]}, "edge": {"target": [], "time": []}}}, "displayed_time": "10.12", "trialTime": 12364, "trial_type": "mouselab-mdp", "trial_index": 101, "time_elapsed": 1541212, "internal_node_id": "0.0-4.0-5.0-12.0"}}, {"uniqueid": "w93883600:a26745017", "current_trial": 102, "dateTime": 1664874642857, "trialdata": {"revealed_states": [], "num_clicks_accrued": [0, 0, 0, 0, 0, 0, 0, 0, 0, 0, 0, 0, 0], "stateRewards": ["", -2, -4, 48, -24, 2, -4, -24, -48, 2, 8, -48, -24], "withholdReward": false, "trial_id": "mdp_238243948191", "block": "test3", "trialIndex": 81, "score": -9, "costs": 0, "simulationMode": [null, null, null], "rewards": [2, 8, -24], "path": ["0", "0", "9", "10", "12"], "rt": [515, 365, 261], "actions": ["left", "left", "down"], "actionTimes": [2123, 2998, 3787], "queries": {"click": {"state": {"target": [], "time": []}, "edge": {"target": [], "time": []}}, "mouseover": {"state": {"target": ["0"], "time": [1743]}, "edge": {"target": [], "time": []}}, "mouseout": {"state": {"target": ["0"], "time": [4765]}, "edge": {"target": [], "time": []}}}, "displayed_time": "9.67", "trialTime": 10771, "trial_type": "mouselab-mdp", "trial_index": 102, "time_elapsed": 1552062, "internal_node_id": "0.0-4.0-5.0-13.0"}}, {"uniqueid": "w93883600:a26745017", "current_trial": 103, "dateTime": 1664874652504, "trialdata": {"revealed_states": [], "num_clicks_accrued": [0, 0, 0, 0, 0, 0, 0, 0, 0, 0, 0, 0, 0], "stateRewards": ["", 2, -8, -24, -48, -2, -4, 48, 48, 4, 8, 48, 48], "withholdReward": true, "trial_id": "mdp_347285045422", "block": "test3", "trialIndex": 82, "score": -49, "costs": 0, "simulationMode": [null, null, null], "rewards": [2, -8, -48], "path": ["0", "0", "1", "2", "4"], "rt": [641, 248, 260], "actions": ["up", "up", "left"], "actionTimes": [1368, 2123, 2899], "queries": {"click": {"state": {"target": [], "time": []}, "edge": {"target": [], "time": []}}, "mouseover": {"state": {"target": ["0"], "time": [1186]}, "edge": {"target": [], "time": []}}, "mouseout": {"state": {"target": ["0", "0"], "time": [487, 4070]}, "edge": {"target": [], "time": []}}}, "displayed_time": "8.80", "trialTime": 9561, "trial_type": "mouselab-mdp", "trial_index": 103, "time_elapsed": 1561708, "internal_node_id": "0.0-4.0-5.0-14.0"}}, {"uniqueid": "w93883600:a26745017", "current_trial": 104, "dateTime": 1664874661266, "trialdata": {"revealed_states": [], "num_clicks_accrued": [0, 0, 0, 0, 0, 0, 0, 0, 0, 0, 0, 0, 0], "stateRewards": ["", 2, 4, 48, 48, -2, 4, 48, -24, -4, 8, -48, 48], "withholdReward": false, "trial_id": "mdp_407586865939", "block": "test3", "trialIndex": 83, "score": 59, "costs": 0, "simulationMode": [null, null, null], "rewards": [2, 4, 48], "path": ["0", "0", "1", "2", "4"], "rt": [458, 229, 385], "actions": ["up", "up", "left"], "actionTimes": [1577, 2337, 3248], "queries": {"click": {"state": {"target": [], "time": []}, "edge": {"target": [], "time": []}}, "mouseover": {"state": {"target": [], "time": []}, "edge": {"target": [], "time": []}}, "mouseout": {"state": {"target": ["0"], "time": [4528]}, "edge": {"target": [], "time": []}}}, "displayed_time": "8.17", "trialTime": 8683, "trial_type": "mouselab-mdp", "trial_index": 104, "time_elapsed": 1570471, "internal_node_id": "0.0-4.0-5.0-15.0"}}, {"uniqueid": "w93883600:a26745017", "current_trial": 105, "dateTime": 1664874674481, "trialdata": {"revealed_states": [], "num_clicks_accrued": [0, 0, 0, 0, 0, 0, 0, 0, 0, 0, 0, 0, 0], "stateRewards": ["", -4, -8, -48, 48, -2, 8, 48, 48, -2, -4, -48, -48], "withholdReward": true, "trial_id": "mdp_752833580638", "block": "test3", "trialIndex": 84, "score": -55, "costs": 0, "simulationMode": [null, null, null], "rewards": [-4, -8, -48], "path": ["0", "0", "1", "2", "3"], "rt": [629, 271, 846], "actions": ["up", "up", "right"], "actionTimes": [2057, 2853, 4225], "queries": {"click": {"state": {"target": [], "time": []}, "edge": {"target": [], "time": []}}, "mouseover": {"state": {"target": [], "time": []}, "edge": {"target": [], "time": []}}, "mouseout": {"state": {"target": ["0", "0", "0"], "time": [729, 2414, 4662]}, "edge": {"target": [], "time": []}}}, "displayed_time": "10.49", "trialTime": 13151, "trial_type": "mouselab-mdp", "trial_index": 105, "time_elapsed": 1583686, "internal_node_id": "0.0-4.0-5.0-16.0"}}, {"uniqueid": "w93883600:a26745017", "current_trial": 106, "dateTime": 1664874687885, "trialdata": {"revealed_states": [], "num_clicks_accrued": [0, 0, 0, 0, 0, 0, 0, 0, 0, 0, 0, 0, 0], "stateRewards": ["", 2, 4, -48, -48, 2, 4, 48, -24, -2, 8, 48, -48], "withholdReward": true, "trial_id": "mdp_258528916140", "block": "test3", "trialIndex": 85, "score": -37, "costs": 0, "simulationMode": [null, null, null], "rewards": [2, 4, -48], "path": ["0", "0", "1", "2", "4"], "rt": [807, 305, 586], "actions": ["up", "up", "left"], "actionTimes": [2679, 3517, 4640], "queries": {"click": {"state": {"target": [], "time": []}, "edge": {"target": [], "time": []}}, "mouseover": {"state": {"target": [], "time": []}, "edge": {"target": [], "time": []}}, "mouseout": {"state": {"target": ["0"], "time": [1554]}, "edge": {"target": [], "time": []}}}, "displayed_time": "12.19", "trialTime": 13330, "trial_type": "mouselab-mdp", "trial_index": 106, "time_elapsed": 1597089, "internal_node_id": "0.0-4.0-5.0-17.0"}}, {"uniqueid": "w93883600:a26745017", "current_trial": 107, "dateTime": 1664874699120, "trialdata": {"revealed_states": [], "num_clicks_accrued": [0, 0, 0, 0, 0, 0, 0, 0, 0, 0, 0, 0, 0], "stateRewards": ["", -4, 8, 24, 24, -2, 8, -48, 48, 4, -8, 48, -48], "withholdReward": true, "trial_id": "mdp_295249220524", "block": "test3", "trialIndex": 86, "score": -37, "costs": 0, "simulationMode": [null, null, null], "rewards": [-2, 8, -48], "path": ["0", "0", "5", "6", "7"], "rt": [709, 153, 244], "actions": ["right", "right", "up"], "actionTimes": [2092, 2758, 3516], "queries": {"click": {"state": {"target": [], "time": []}, "edge": {"target": [], "time": []}}, "mouseover": {"state": {"target": [], "time": []}, "edge": {"target": [], "time": []}}, "mouseout": {"state": {"target": ["0", "9", "0", "0", "4", "1", "5", "2", "3"], "time": [1820, 2853, 29