{"condition": 1, "counterbalance": 0, "assignmentId": "a18571948", "workerId": "w26734936", "hitId": "h30735618", "currenttrial": 137, "bonus": 0, "data": [{"uniqueid": "w26734936:a18571948", "current_trial": 0, "dateTime": 1664463977795, "trialdata": {"success": true, "trial_type": "fullscreen", "trial_index": 0, "time_elapsed": 14805, "internal_node_id": "0.0-0.0"}}, {"uniqueid": "w26734936:a18571948", "current_trial": 1, "dateTime": 1664463989596, "trialdata": {"view_history": [{"page_index": 0, "viewing_time": 11796}], "rt": 11796, "trial_id": "exp_instructions_no_distractor", "trial_type": "instructions", "trial_index": 1, "time_elapsed": 26606, "internal_node_id": "0.0-1.0"}}, {"uniqueid": "w26734936:a18571948", "current_trial": 2, "dateTime": 1664463995897, "trialdata": {"success": true, "trial_type": "fullscreen", "trial_index": 2, "time_elapsed": 32907, "internal_node_id": "0.0-2.0-0.0"}}, {"uniqueid": "w26734936:a18571948", "current_trial": 3, "dateTime": 1664464105236, "trialdata": {"view_history": [{"page_index": 0, "viewing_time": 53466}, {"page_index": 1, "viewing_time": 26304}, {"page_index": 2, "viewing_time": 10450}, {"page_index": 3, "viewing_time": 12188}, {"page_index": 4, "viewing_time": 6931}], "rt": 109339, "trial_id": "mouselab_instructions_1", "trial_type": "instructions", "trial_index": 3, "time_elapsed": 142246, "internal_node_id": "0.0-2.0-1.0"}}, {"uniqueid": "w26734936:a18571948", "current_trial": 4, "dateTime": 1664464139157, "trialdata": {"revealed_states": [], "num_clicks_accrued": [0, 0, 0, 0, 0, 0, 0, 0, 0, 0, 0, 0, 0], "stateRewards": ["", 10, -10, -10, 10, 10, -10, -10, 10, -10, -10, -10, 10], "withholdReward": false, "trial_id": "practice_1", "block": "test", "trialIndex": 0, "score": 9, "costs": -3, "simulationMode": [null, null, null], "rewards": [10, -10, 10], "path": ["0", "0", "1", "2", "4"], "rt": [24694, 1117, 29], "actions": ["up", "up", "left"], "actionTimes": [27289, 28921, 29465], "queries": {"click": {"state": {"target": ["5", "6", "7", "8", "9", "10", "12", "11", "1", "2", "4", "3"], "time": [6245, 6906, 7963, 9895, 12938, 13533, 13914, 14480, 15173, 15562, 16097, 16644]}, "edge": {"target": [], "time": []}}, "mouseover": {"state": {"target": ["8", "5", "6", "8", "7", "8", "0", "9", "10", "12", "11", "1", "2", "4", "3"], "time": [4220, 5937, 6670, 7386, 7787, 8204, 12269, 12630, 13370, 13820, 14336, 14853, 15437, 15969, 16521]}, "edge": {"target": [], "time": []}}, "mouseout": {"state": {"target": ["0", "8", "5", "6", "8", "6", "7", "6", "8", "0", "9", "10", "12", "10", "11", "1", "2", "4", "2", "3", "5"], "time": [4054, 4954, 6587, 7304, 7703, 7770, 8088, 8171, 10737, 12320, 13253, 13753, 14103, 14203, 14686, 15369, 15903, 16254, 16403, 16836, 17485]}, "edge": {"target": [], "time": []}}}, "displayed_time": "29.97", "trialTime": 33769, "trial_type": "mouselab-mdp", "trial_index": 4, "time_elapsed": 176167, "internal_node_id": "0.0-2.0-2.0-0.0"}}, {"uniqueid": "w26734936:a18571948", "current_trial": 5, "dateTime": 1664464147862, "trialdata": {"revealed_states": [], "num_clicks_accrued": [0, 0, 0, 0, 0, 0, 0, 0, 0, 0, 0, 0, 0], "stateRewards": ["", 10, -10, 10, -10, 10, -10, 10, -10, 10, -10, 10, -10], "withholdReward": false, "trial_id": "practice_2", "block": "test", "trialIndex": 1, "score": -8, "costs": 0, "simulationMode": [null, null, null], "rewards": [10, -10, -10], "path": ["0", "0", "1", "2", "4"], "rt": [2800, 200, 77], "actions": ["up", "up", "left"], "actionTimes": [5188, 5908, 6500], "queries": {"click": {"state": {"target": [], "time": []}, "edge": {"target": [], "time": []}}, "mouseover": {"state": {"target": ["0"], "time": [2657]}, "edge": {"target": [], "time": []}}, "mouseout": {"state": {"target": ["5", "0", "0"], "time": [1573, 1856, 3883]}, "edge": {"target": [], "time": []}}}, "displayed_time": "7.01", "trialTime": 8628, "trial_type": "mouselab-mdp", "trial_index": 5, "time_elapsed": 184872, "internal_node_id": "0.0-2.0-2.0-1.0"}}, {"uniqueid": "w26734936:a18571948", "current_trial": 6, "dateTime": 1664464209531, "trialdata": {"view_history": [{"page_index": 0, "viewing_time": 31297}, {"page_index": 1, "viewing_time": 16903}, {"page_index": 2, "viewing_time": 13468}], "rt": 61669, "trial_id": "mouselab_instructions_2_scarce", "trial_type": "instructions", "trial_index": 6, "time_elapsed": 246541, "internal_node_id": "0.0-2.0-3.0"}}, {"uniqueid": "w26734936:a18571948", "current_trial": 7, "dateTime": 1664464274507, "trialdata": {"rt": 64971, "response": {"Q0": "$-48 to $48", "Q1": "The cost is always $0.25.", "Q2": "The better I perform the higher my bonus will be.", "Q3": "No, the amount of cash at each node of the web may be different each time.", "Q4": "The values of the nodes walked through from start to finish.", "Q5": "No, the spider might forget to count the money on some rounds."}, "question_order": [0, 1, 2, 3, 4, 5], "correct": {"Q0": "$-48 to $48", "Q1": "The cost is always $0.25.", "Q2": "The better I perform the higher my bonus will be.", "Q3": "No, the amount of cash at each node of the web may be different each time.", "Q4": "The values of the nodes walked through from start to finish.", "Q5": "No, the spider might forget to count the money on some rounds."}, "trial_id": "mouselab_quiz_scarce", "trial_type": "survey-multi-choice", "trial_index": 7, "time_elapsed": 311516, "internal_node_id": "0.0-2.0-4.0"}}, {"uniqueid": "w26734936:a18571948", "current_trial": 8, "dateTime": 1664464285670, "trialdata": {"rt": 11159, "stimulus": "\n<h1> Get ready to start the game! </h1>\n\nThank you for reading the instructions. Get ready start with the first of 4 block(s) of this game.\n<br><br>\nIn this first block, you will complete 30 rounds of this game before moving on.\n<br><br>\nRemember, the more money the spider gets, the bigger your bonus will be!\n<br><br>\n<div style='text-align: center;'>Press <code>space</code> to begin.</div>\n\n<br><br>\n(If, at any point, the <code>space</code> key does not take you to the next page, click once on the text and try again.)", "response": " ", "trial_id": "mdp_ready_1", "trial_type": "html-keyboard-response", "trial_index": 8, "time_elapsed": 322680, "internal_node_id": "0.0-4.0-0.0"}}, {"uniqueid": "w26734936:a18571948", "current_trial": 9, "dateTime": 1664464303240, "trialdata": {"revealed_states": [], "num_clicks_accrued": [0, 0, 0, 0, 0, 0, 0, 0, 0, 0, 0, 0, 0], "stateRewards": ["", -2, 8, 24, -48, -4, -8, -24, -48, -4, 8, -24, 48], "withholdReward": true, "trial_id": "mdp_464339499860", "block": "test1", "trialIndex": 2, "score": 55.75, "costs": -1.25, "simulationMode": [null, null, null], "rewards": [-4, 8, 48], "path": ["0", "0", "9", "10", "12"], "rt": [13001, 334, 172], "actions": ["left", "left", "down"], "actionTimes": [13941, 14788, 15477], "queries": {"click": {"state": {"target": ["4", "8", "7", "12", "11"], "time": [6167, 8573, 10142, 10859, 12026]}, "edge": {"target": [], "time": []}}, "mouseover": {"state": {"target": ["0", "4", "0", "8", "6", "7", "5", "12", "10", "11", "10"], "time": [5254, 5555, 7255, 7638, 9838, 9954, 10355, 10705, 11421, 11605, 12222]}, "edge": {"target": [], "time": []}}, "mouseout": {"state": {"target": ["0", "0", "4", "0", "8", "8", "6", "7", "5", "12", "12", "10", "11", "10"], "time": [1155, 5305, 6405, 7321, 8771, 9337, 9888, 10289, 10372, 11038, 11405, 11471, 12188, 12238]}, "edge": {"target": [], "time": []}}}, "displayed_time": "15.99", "trialTime": 17493, "trial_type": "mouselab-mdp", "trial_index": 9, "time_elapsed": 340250, "internal_node_id": "0.0-4.0-1.0-0.0"}}, {"uniqueid": "w26734936:a18571948", "current_trial": 10, "dateTime": 1664464314330, "trialdata": {"revealed_states": [], "num_clicks_accrued": [0, 0, 0, 0, 0, 0, 0, 0, 0, 0, 0, 0, 0], "stateRewards": ["", 2, 4, 48, -48, 2, -4, 48, 24, -2, -8, -24, 48], "withholdReward": false, "trial_id": "mdp_962424406744", "block": "test1", "trialIndex": 3, "score": 42.75, "costs": -0.25, "simulationMode": [null, null, null], "rewards": [-2, -8, 48], "path": ["0", "0", "9", "10", "12"], "rt": [3616, 519, 285], "actions": ["left", "left", "down"], "actionTimes": [4584, 5608, 6407], "queries": {"click": {"state": {"target": ["12"], "time": [3019]}, "edge": {"target": [], "time": []}}, "mouseover": {"state": {"target": ["11", "10", "12"], "time": [2272, 2539, 2639]}, "edge": {"target": [], "time": []}}, "mouseout": {"state": {"target": ["0", "11", "10", "12"], "time": [1955, 2339, 2605, 3238]}, "edge": {"target": [], "time": []}}}, "displayed_time": "10.00", "trialTime": 11016, "trial_type": "mouselab-mdp", "trial_index": 10, "time_elapsed": 351339, "internal_node_id": "0.0-4.0-1.0-1.0"}}, {"uniqueid": "w26734936:a18571948", "current_trial": 11, "dateTime": 1664464324635, "trialdata": {"revealed_states": [], "num_clicks_accrued": [0, 0, 0, 0, 0, 0, 0, 0, 0, 0, 0, 0, 0], "stateRewards": ["", 2, 4, -48, -48, 4, 4, -48, -48, -2, -8, 48, -24], "withholdReward": true, "trial_id": "mdp_175327338412", "block": "test1", "trialIndex": 4, "score": 42, "costs": -1, "simulationMode": [null, null, null], "rewards": [-2, -8, 48], "path": ["0", "0", "9", "10", "11"], "rt": [4038, 129, 182], "actions": ["left", "left", "up"], "actionTimes": [5275, 5915, 6604], "queries": {"click": {"state": {"target": ["3", "8", "12", "11"], "time": [2158, 3062, 3867, 4604]}, "edge": {"target": [], "time": []}}, "mouseover": {"state": {"target": ["3", "6", "8", "6", "5", "12", "11"], "time": [2036, 2753, 2903, 3436, 3553, 3686, 4353]}, "edge": {"target": [], "time": []}}, "mouseout": {"state": {"target": ["0", "3", "6", "8", "6", "5", "12", "11", "5"], "time": [1742, 2320, 2837, 3337, 3453, 3587, 4036, 4720, 7586]}, "edge": {"target": [], "time": []}}}, "displayed_time": "9.28", "trialTime": 10236, "trial_type": "mouselab-mdp", "trial_index": 11, "time_elapsed": 361645, "internal_node_id": "0.0-4.0-1.0-2.0"}}, {"uniqueid": "w26734936:a18571948", "current_trial": 12, "dateTime": 1664464335356, "trialdata": {"revealed_states": [], "num_clicks_accrued": [0, 0, 0, 0, 0, 0, 0, 0, 0, 0, 0, 0, 0], "stateRewards": ["", 4, -8, 24, 48, -2, -4, -48, 24, 2, 4, -48, -24], "withholdReward": true, "trial_id": "mdp_749974461966", "block": "test1", "trialIndex": 5, "score": 47.5, "costs": -1.5, "simulationMode": [null, null, null], "rewards": [4, -8, 48], "path": ["0", "0", "1", "2", "4"], "rt": [6374, 87, 109], "actions": ["up", "up", "left"], "actionTimes": [7270, 7878, 8502], "queries": {"click": {"state": {"target": ["3", "12", "8", "7", "11", "4"], "time": [2031, 3375, 4140, 5343, 5902, 6809]}, "edge": {"target": [], "time": []}}, "mouseover": {"state": {"target": ["3", "0", "12", "8", "6", "7", "11", "1", "4", "1", "5"], "time": [1825, 3025, 3158, 4041, 4942, 5225, 5774, 6392, 6725, 7008, 7108]}, "edge": {"target": [], "time": []}}, "mouseout": {"state": {"target": ["0", "3", "0", "12", "8", "8", "6", "7", "11", "1", "4", "1", "5"], "time": [1558, 2258, 3058, 3508, 4275, 4908, 5091, 5492, 6025, 6492, 6958, 7058, 7209]}, "edge": {"target": [], "time": []}}}, "displayed_time": "9.95", "trialTime": 10646, "trial_type": "mouselab-mdp", "trial_index": 12, "time_elapsed": 372365, "internal_node_id": "0.0-4.0-1.0-3.0"}}, {"uniqueid": "w26734936:a18571948", "current_trial": 13, "dateTime": 1664464345885, "trialdata": {"revealed_states": [], "num_clicks_accrued": [0, 0, 0, 0, 0, 0, 0, 0, 0, 0, 0, 0, 0], "stateRewards": ["", -2, -4, -24, 48, -2, -8, -48, -24, 4, 8, 48, 24], "withholdReward": false, "trial_id": "mdp_625355871626", "block": "test1", "trialIndex": 6, "score": 64.5, "costs": -0.5, "simulationMode": [null, null, null], "rewards": [4, 8, 48], "path": ["0", "0", "9", "10", "11"], "rt": [2268, 69, 78], "actions": ["left", "left", "up"], "actionTimes": [3371, 3963, 4571], "queries": {"click": {"state": {"target": ["12", "11"], "time": [1784, 2526]}, "edge": {"target": [], "time": []}}, "mouseover": {"state": {"target": ["12", "9", "11", "4", "1"], "time": [1725, 2309, 2409, 2942, 3308]}, "edge": {"target": [], "time": []}}, "mouseout": {"state": {"target": ["0", "12", "9", "11", "4", "1", "9"], "time": [1442, 1893, 2325, 2675, 3225, 3426, 4209]}, "edge": {"target": [], "time": []}}}, "displayed_time": "9.17", "trialTime": 10459, "trial_type": "mouselab-mdp", "trial_index": 13, "time_elapsed": 382895, "internal_node_id": "0.0-4.0-1.0-4.0"}}, {"uniqueid": "w26734936:a18571948", "current_trial": 14, "dateTime": 1664464355167, "trialdata": {"revealed_states": [], "num_clicks_accrued": [0, 0, 0, 0, 0, 0, 0, 0, 0, 0, 0, 0, 0], "stateRewards": ["", 4, 4, 24, 24, 4, -4, 48, 48, 4, 4, 24, -48], "withholdReward": true, "trial_id": "mdp_454251689008", "block": "test1", "trialIndex": 7, "score": 52.75, "costs": -0.25, "simulationMode": [null, null, null], "rewards": [4, -4, 48], "path": ["0", "0", "5", "6", "8"], "rt": [1491, 22, 49], "actions": ["right", "right", "down"], "actionTimes": [2070, 2598, 3158], "queries": {"click": {"state": {"target": ["8"], "time": [1065]}, "edge": {"target": [], "time": []}}, "mouseover": {"state": {"target": ["5", "8"], "time": [742, 892]}, "edge": {"target": [], "time": []}}, "mouseout": {"state": {"target": ["0", "5", "8", "8"], "time": [708, 792, 1241, 4225]}, "edge": {"target": [], "time": []}}}, "displayed_time": "8.63", "trialTime": 9207, "trial_type": "mouselab-mdp", "trial_index": 14, "time_elapsed": 392176, "internal_node_id": "0.0-4.0-1.0-5.0"}}, {"uniqueid": "w26734936:a18571948", "current_trial": 15, "dateTime": 1664464365071, "trialdata": {"revealed_states": [], "num_clicks_accrued": [0, 0, 0, 0, 0, 0, 0, 0, 0, 0, 0, 0, 0], "stateRewards": ["", 4, 4, 48, -24, 2, -4, 48, 24, -4, -4, -48, 24], "withholdReward": false, "trial_id": "mdp_496003763005", "block": "test1", "trialIndex": 8, "score": 50.5, "costs": -0.5, "simulationMode": [null, null, null], "rewards": [2, -4, 48], "path": ["0", "0", "5", "6", "7"], "rt": [1832, 79, 137], "actions": ["right", "right", "up"], "actionTimes": [2549, 3141, 3797], "queries": {"click": {"state": {"target": ["8", "7"], "time": [1149, 1881]}, "edge": {"target": [], "time": []}}, "mouseover": {"state": {"target": ["5", "8", "6", "7"], "time": [843, 976, 1626, 1743]}, "edge": {"target": [], "time": []}}, "mouseout": {"state": {"target": ["0", "5", "8", "8", "6", "7"], "time": [642, 909, 1292, 1592, 1676, 2398]}, "edge": {"target": [], "time": []}}}, "displayed_time": "8.81", "trialTime": 9830, "trial_type": "mouselab-mdp", "trial_index": 15, "time_elapsed": 402081, "internal_node_id": "0.0-4.0-1.0-6.0"}}, {"uniqueid": "w26734936:a18571948", "current_trial": 16, "dateTime": 1664464375041, "trialdata": {"revealed_states": [], "num_clicks_accrued": [0, 0, 0, 0, 0, 0, 0, 0, 0, 0, 0, 0, 0], "stateRewards": ["", 2, -4, 48, -48, -4, -8, -48, 24, -4, 4, 48, 48], "withholdReward": true, "trial_id": "mdp_544803968425", "block": "test1", "trialIndex": 9, "score": 52.75, "costs": -0.25, "simulationMode": [null, null, null], "rewards": [-4, 4, 48], "path": ["0", "0", "9", "10", "11"], "rt": [1121, 9, 20], "actions": ["left", "left", "up"], "actionTimes": [2493, 3022, 3565], "queries": {"click": {"state": {"target": ["11"], "time": [1823]}, "edge": {"target": [], "time": []}}, "mouseover": {"state": {"target": ["11", "9"], "time": [1695, 2211]}, "edge": {"target": [], "time": []}}, "mouseout": {"state": {"target": ["5", "0", "11", "9"], "time": [1078, 1294, 1961, 2278]}, "edge": {"target": [], "time": []}}}, "displayed_time": "9.45", "trialTime": 9902, "trial_type": "mouselab-mdp", "trial_index": 16, "time_elapsed": 412051, "internal_node_id": "0.0-4.0-1.0-7.0"}}, {"uniqueid": "w26734936:a18571948", "current_trial": 17, "dateTime": 1664464385698, "trialdata": {"revealed_states": [], "num_clicks_accrued": [0, 0, 0, 0, 0, 0, 0, 0, 0, 0, 0, 0, 0], "stateRewards": ["", 2, -4, -24, -48, -2, 8, -24, 48, -2, 8, 24, -48], "withholdReward": true, "trial_id": "mdp_566582551557", "block": "test1", "trialIndex": 10, "score": 58.25, "costs": -0.75, "simulationMode": [null, null, null], "rewards": [-2, 8, 48], "path": ["0", "0", "5", "6", "8"], "rt": [2758, 10, 116], "actions": ["right", "right", "down"], "actionTimes": [3368, 3880, 4521], "queries": {"click": {"state": {"target": ["3", "7", "8"], "time": [1273, 1800, 2322]}, "edge": {"target": [], "time": []}}, "mouseover": {"state": {"target": ["3", "7", "6", "8"], "time": [1188, 1654, 2005, 2087]}, "edge": {"target": [], "time": []}}, "mouseout": {"state": {"target": ["0", "3", "7", "6", "8"], "time": [687, 1487, 1971, 2054, 2554]}, "edge": {"target": [], "time": []}}}, "displayed_time": "9.69", "trialTime": 10586, "trial_type": "mouselab-mdp", "trial_index": 17, "time_elapsed": 422708, "internal_node_id": "0.0-4.0-1.0-8.0"}}, {"uniqueid": "w26734936:a18571948", "current_trial": 18, "dateTime": 1664464395666, "trialdata": {"revealed_states": [], "num_clicks_accrued": [0, 0, 0, 0, 0, 0, 0, 0, 0, 0, 0, 0, 0], "stateRewards": ["", -4, 4, 48, 24, -4, 4, -24, 48, -2, -8, 24, -48], "withholdReward": true, "trial_id": "mdp_261501605436", "block": "test1", "trialIndex": 11, "score": 52, "costs": -1, "simulationMode": [null, null, null], "rewards": [-4, 4, 48], "path": ["0", "0", "1", "2", "3"], "rt": [3220, 493, 293], "actions": ["up", "up", "right"], "actionTimes": [4251, 5259, 6058], "queries": {"click": {"state": {"target": ["12", "11", "4", "3"], "time": [1632, 2324, 2991, 3618]}, "edge": {"target": [], "time": []}}, "mouseover": {"state": {"target": ["12", "10", "11", "4", "3", "7"], "time": [1515, 2049, 2231, 2915, 3515, 3899]}, "edge": {"target": [], "time": []}}, "mouseout": {"state": {"target": ["0", "12", "10", "11", "4", "3", "7"], "time": [1249, 1758, 2082, 2701, 3182, 3748, 6115]}, "edge": {"target": [], "time": []}}}, "displayed_time": "9.11", "trialTime": 9899, "trial_type": "mouselab-mdp", "trial_index": 18, "time_elapsed": 432676, "internal_node_id": "0.0-4.0-1.0-9.0"}}, {"uniqueid": "w26734936:a18571948", "current_trial": 19, "dateTime": 1664464406084, "trialdata": {"revealed_states": [], "num_clicks_accrued": [0, 0, 0, 0, 0, 0, 0, 0, 0, 0, 0, 0, 0], "stateRewards": ["", -4, 4, -24, 24, -2, -4, 48, 24, 2, 8, -48, 24], "withholdReward": true, "trial_id": "mdp_150340189492", "block": "test1", "trialIndex": 12, "score": 46.5, "costs": -0.5, "simulationMode": [null, null, null], "rewards": [-2, -4, 48], "path": ["0", "0", "5", "6", "7"], "rt": [1698, 135, 110], "actions": ["right", "right", "up"], "actionTimes": [2460, 3100, 3724], "queries": {"click": {"state": {"target": ["8", "7"], "time": [1175, 1768]}, "edge": {"target": [], "time": []}}, "mouseover": {"state": {"target": ["5", "8", "7"], "time": [880, 980, 1697]}, "edge": {"target": [], "time": []}}, "mouseout": {"state": {"target": ["6", "5", "5", "8", "7", "7"], "time": [414, 631, 914, 1297, 1931, 2163]}, "edge": {"target": [], "time": []}}}, "displayed_time": "9.84", "trialTime": 10348, "trial_type": "mouselab-mdp", "trial_index": 19, "time_elapsed": 443094, "internal_node_id": "0.0-4.0-1.0-10.0"}}, {"uniqueid": "w26734936:a18571948", "current_trial": 20, "dateTime": 1664464418214, "trialdata": {"revealed_states": [], "num_clicks_accrued": [0, 0, 0, 0, 0, 0, 0, 0, 0, 0, 0, 0, 0], "stateRewards": ["", 4, 4, -48, -24, -2, -4, 48, 24, -4, 4, 24, -48], "withholdReward": true, "trial_id": "mdp_617383046444", "block": "test1", "trialIndex": 13, "score": 46.75, "costs": -0.25, "simulationMode": [null, null, null], "rewards": [-2, -4, 48], "path": ["0", "0", "5", "6", "7"], "rt": [992, 231, 186], "actions": ["right", "right", "up"], "actionTimes": [2083, 2819, 3507], "queries": {"click": {"state": {"target": ["7"], "time": [1509]}, "edge": {"target": [], "time": []}}, "mouseover": {"state": {"target": ["5", "7", "6"], "time": [1221, 1454, 1737]}, "edge": {"target": [], "time": []}}, "mouseout": {"state": {"target": ["7", "0", "5", "7", "6"], "time": [671, 1187, 1304, 1654, 1871]}, "edge": {"target": [], "time": []}}}, "displayed_time": "10.18", "trialTime": 12053, "trial_type": "mouselab-mdp", "trial_index": 20, "time_elapsed": 455224, "internal_node_id": "0.0-4.0-1.0-11.0"}}, {"uniqueid": "w26734936:a18571948", "current_trial": 21, "dateTime": 1664464429399, "trialdata": {"revealed_states": [], "num_clicks_accrued": [0, 0, 0, 0, 0, 0, 0, 0, 0, 0, 0, 0, 0], "stateRewards": ["", -4, 8, -24, -48, 2, 8, -48, -24, -2, -4, 48, -48], "withholdReward": true, "trial_id": "mdp_599927291428", "block": "test1", "trialIndex": 14, "score": 46.5, "costs": -0.5, "simulationMode": [null, null, null], "rewards": [-2, -4, 48], "path": ["0", "0", "9", "10", "11"], "rt": [2381, 3, 27], "actions": ["left", "left", "up"], "actionTimes": [4979, 5495, 6051], "queries": {"click": {"state": {"target": ["12", "11"], "time": [3241, 3860]}, "edge": {"target": [], "time": []}}, "mouseover": {"state": {"target": ["0", "12", "10", "11"], "time": [2958, 3075, 3624, 3691]}, "edge": {"target": [], "time": []}}, "mouseout": {"state": {"target": ["0", "0", "12", "10", "11"], "time": [2507, 2974, 3607, 3657, 4258]}, "edge": {"target": [], "time": []}}}, "displayed_time": "10.69", "trialTime": 11108, "trial_type": "mouselab-mdp", "trial_index": 21, "time_elapsed": 466409, "internal_node_id": "0.0-4.0-1.0-12.0"}}, {"uniqueid": "w26734936:a18571948", "current_trial": 22, "dateTime": 1664464440633, "trialdata": {"revealed_states": [], "num_clicks_accrued": [0, 0, 0, 0, 0, 0, 0, 0, 0, 0, 0, 0, 0], "stateRewards": ["", 2, -4, -48, -48, -2, -4, -24, -48, -2, 8, 24, 24], "withholdReward": false, "trial_id": "mdp_656069446729", "block": "test1", "trialIndex": 15, "score": 33.5, "costs": -1.5, "simulationMode": [null, null, null], "rewards": [-2, 8, 24], "path": ["0", "0", "9", "10", "11"], "rt": [4361, 23, 50], "actions": ["left", "left", "up"], "actionTimes": [5654, 6183, 6742], "queries": {"click": {"state": {"target": ["7", "8", "3", "4", "11", "12"], "time": [1703, 2173, 2816, 3453, 3975, 4578]}, "edge": {"target": [], "time": []}}, "mouseover": {"state": {"target": ["5", "7", "6", "8", "6", "3", "2", "4", "11", "10", "12"], "time": [1426, 1625, 1941, 2042, 2508, 2775, 3124, 3257, 3842, 4175, 4324]}, "edge": {"target": [], "time": []}}, "mouseout": {"state": {"target": ["1", "0", "5", "7", "6", "8", "6", "3", "2", "4", "11", "10", "12"], "time": [1075, 1392, 1475, 1858, 2008, 2475, 2525, 2958, 3175, 3758, 4141, 4258, 4759]}, "edge": {"target": [], "time": []}}}, "displayed_time": "9.36", "trialTime": 11158, "trial_type": "mouselab-mdp", "trial_index": 22, "time_elapsed": 477643, "internal_node_id": "0.0-4.0-1.0-13.0"}}, {"uniqueid": "w26734936:a18571948", "current_trial": 23, "dateTime": 1664464452442, "trialdata": {"revealed_states": [], "num_clicks_accrued": [0, 0, 0, 0, 0, 0, 0, 0, 0, 0, 0, 0, 0], "stateRewards": ["", -2, -4, -48, 48, -4, 4, -48, 24, -4, -8, 24, 48], "withholdReward": false, "trial_id": "mdp_264482284450", "block": "test1", "trialIndex": 16, "score": 40.5, "costs": -0.5, "simulationMode": [null, null, null], "rewards": [-4, -8, 48], "path": ["0", "0", "9", "10", "12"], "rt": [2239, 57, 354], "actions": ["left", "left", "down"], "actionTimes": [3224, 3784, 4648], "queries": {"click": {"state": {"target": ["11", "12"], "time": [1531, 2144]}, "edge": {"target": [], "time": []}}, "mouseover": {"state": {"target": ["11", "12"], "time": [1360, 2010]}, "edge": {"target": [], "time": []}}, "mouseout": {"state": {"target": ["0", "11", "12"], "time": [909, 1677, 2243]}, "edge": {"target": [], "time": []}}}, "displayed_time": "10.05", "trialTime": 11737, "trial_type": "mouselab-mdp", "trial_index": 23, "time_elapsed": 489452, "internal_node_id": "0.0-4.0-1.0-14.0"}}, {"uniqueid": "w26734936:a18571948", "current_trial": 24, "dateTime": 1664464462874, "trialdata": {"revealed_states": [], "num_clicks_accrued": [0, 0, 0, 0, 0, 0, 0, 0, 0, 0, 0, 0, 0], "stateRewards": ["", 2, 8, 24, -48, 4, 8, 24, 48, 2, -8, -24, 24], "withholdReward": true, "trial_id": "mdp_939899431582", "block": "test1", "trialIndex": 17, "score": 64.75, "costs": -0.25, "simulationMode": [null, null, null], "rewards": [4, 8, 48], "path": ["0", "0", "5", "6", "8"], "rt": [1428, 8, 465], "actions": ["right", "right", "down"], "actionTimes": [2316, 2827, 3820], "queries": {"click": {"state": {"target": ["8"], "time": [1289]}, "edge": {"target": [], "time": []}}, "mouseover": {"state": {"target": ["8"], "time": [1188]}, "edge": {"target": [], "time": []}}, "mouseout": {"state": {"target": ["0", "8"], "time": [1004, 1654]}, "edge": {"target": [], "time": []}}}, "displayed_time": "9.96", "trialTime": 10364, "trial_type": "mouselab-mdp", "trial_index": 24, "time_elapsed": 499884, "internal_node_id": "0.0-4.0-1.0-15.0"}}, {"uniqueid": "w26734936:a18571948", "current_trial": 25, "dateTime": 1664464474988, "trialdata": {"revealed_states": [], "num_clicks_accrued": [0, 0, 0, 0, 0, 0, 0, 0, 0, 0, 0, 0, 0], "stateRewards": ["", 2, 8, 24, -48, 4, 8, 24, 24, 4, -8, 48, 48], "withholdReward": false, "trial_id": "mdp_646103824875", "block": "test1", "trialIndex": 18, "score": 47.75, "costs": -1.25, "simulationMode": [null, null, null], "rewards": [4, -8, 48], "path": ["0", "0", "9", "10", "11"], "rt": [4573, 60, 340], "actions": ["left", "left", "up"], "actionTimes": [6173, 6749, 7598], "queries": {"click": {"state": {"target": ["8", "7", "3", "4", "11"], "time": [2251, 3184, 3825, 4376, 4925]}, "edge": {"target": [], "time": []}}, "mouseover": {"state": {"target": ["5", "8", "7", "3", "2", "4", "11", "10", "12"], "time": [1838, 2138, 3022, 3688, 4089, 4221, 4822, 5105, 5188]}, "edge": {"target": [], "time": []}}, "mouseout": {"state": {"target": ["0", "5", "8", "7", "7", "3", "2", "4", "11", "10", "12"], "time": [1822, 1873, 2655, 3422, 3604, 4038, 4171, 4604, 5072, 5139, 5522]}, "edge": {"target": [], "time": []}}}, "displayed_time": "10.65", "trialTime": 12046, "trial_type": "mouselab-mdp", "trial_index": 25, "time_elapsed": 511998, "internal_node_id": "0.0-4.0-1.0-16.0"}}, {"uniqueid": "w26734936:a18571948", "current_trial": 26, "dateTime": 1664464484973, "trialdata": {"revealed_states": [], "num_clicks_accrued": [0, 0, 0, 0, 0, 0, 0, 0, 0, 0, 0, 0, 0], "stateRewards": ["", 2, -8, -24, 48, -4, -8, 24, -48, 4, -8, -24, -24], "withholdReward": true, "trial_id": "mdp_928911266656", "block": "test1", "trialIndex": 19, "score": 46.25, "costs": -0.75, "simulationMode": [null, null, null], "rewards": [2, -8, 48], "path": ["0", "0", "1", "2", "4"], "rt": [3439, 3, 29], "actions": ["up", "up", "left"], "actionTimes": [4781, 5295, 5852], "queries": {"click": {"state": {"target": ["12", "11", "4"], "time": [1939, 2671, 3571]}, "edge": {"target": [], "time": []}}, "mouseover": {"state": {"target": ["0", "12", "10", "11", "4", "2", "3"], "time": [1523, 1873, 2357, 2591, 3440, 3791, 3891]}, "edge": {"target": [], "time": []}}, "mouseout": {"state": {"target": ["0", "0", "12", "10", "11", "4", "2"], "time": [1107, 1573, 2341, 2407, 2973, 3757, 3857]}, "edge": {"target": [], "time": []}}}, "displayed_time": "9.41", "trialTime": 9917, "trial_type": "mouselab-mdp", "trial_index": 26, "time_elapsed": 521983, "internal_node_id": "0.0-4.0-1.0-17.0"}}, {"uniqueid": "w26734936:a18571948", "current_trial": 27, "dateTime": 1664464497087, "trialdata": {"revealed_states": [], "num_clicks_accrued": [0, 0, 0, 0, 0, 0, 0, 0, 0, 0, 0, 0, 0], "stateRewards": ["", 2, 4, 48, 24, -2, -8, 24, 24, -2, 4, -48, 24], "withholdReward": true, "trial_id": "mdp_130849500124", "block": "test1", "trialIndex": 20, "score": 58.25, "costs": -0.75, "simulationMode": [null, null, null], "rewards": [2, 4, 48], "path": ["0", "0", "1", "2", "3"], "rt": [2861, 615, 42], "actions": ["up", "up", "right"], "actionTimes": [4316, 5436, 5979], "queries": {"click": {"state": {"target": ["7", "8", "3"], "time": [1884, 2474, 3195]}, "edge": {"target": [], "time": []}}, "mouseover": {"state": {"target": ["5", "7", "6", "8", "6", "3", "2", "4"], "time": [1587, 1771, 2071, 2154, 2838, 3121, 3439, 3520]}, "edge": {"target": [], "time": []}}, "mouseout": {"state": {"target": ["3", "5", "7", "6", "8", "8", "6", "7", "3", "2"], "time": [1054, 1621, 2038, 2105, 2671, 2821, 2854, 2921, 3404, 3487]}, "edge": {"target": [], "time": []}}}, "displayed_time": "11.52", "trialTime": 12045, "trial_type": "mouselab-mdp", "trial_index": 27, "time_elapsed": 534097, "internal_node_id": "0.0-4.0-1.0-18.0"}}, {"uniqueid": "w26734936:a18571948", "current_trial": 28, "dateTime": 1664464508928, "trialdata": {"revealed_states": [], "num_clicks_accrued": [0, 0, 0, 0, 0, 0, 0, 0, 0, 0, 0, 0, 0], "stateRewards": ["", 2, 8, 24, 24, 2, -8, -24, -48, 2, 8, -48, 48], "withholdReward": false, "trial_id": "mdp_745175888812", "block": "test1", "trialIndex": 21, "score": 62.5, "costs": -0.5, "simulationMode": [null, null, null], "rewards": [2, 8, 48], "path": ["0", "0", "9", "10", "12"], "rt": [3920, 25, 85], "actions": ["left", "left", "down"], "actionTimes": [5759, 6302, 6894], "queries": {"click": {"state": {"target": ["11", "12"], "time": [2499, 4754]}, "edge": {"target": [], "time": []}}, "mouseover": {"state": {"target": ["11", "10", "12", "12"], "time": [2376, 2709, 4543, 4643]}, "edge": {"target": [], "time": []}}, "mouseout": {"state": {"target": ["4", "11", "10", "12", "12"], "time": [1426, 2659, 4509, 4560, 4926]}, "edge": {"target": [], "time": []}}}, "displayed_time": "9.91", "trialTime": 11774, "trial_type": "mouselab-mdp", "trial_index": 28, "time_elapsed": 545938, "internal_node_id": "0.0-4.0-1.0-19.0"}}, {"uniqueid": "w26734936:a18571948", "current_trial": 29, "dateTime": 1664464519490, "trialdata": {"revealed_states": [], "num_clicks_accrued": [0, 0, 0, 0, 0, 0, 0, 0, 0, 0, 0, 0, 0], "stateRewards": ["", 4, -4, 48, -48, -4, -4, 48, -48, 4, 4, -48, -24], "withholdReward": true, "trial_id": "mdp_490058671112", "block": "test1", "trialIndex": 22, "score": 52, "costs": -1, "simulationMode": [null, null, null], "rewards": [4, -4, 48], "path": ["0", "0", "1", "2", "3"], "rt": [3136, 671, 144], "actions": ["up", "up", "right"], "actionTimes": [4619, 5803, 6459], "queries": {"click": {"state": {"target": ["12", "11", "4", "3"], "time": [1926, 2568, 3121, 3579]}, "edge": {"target": [], "time": []}}, "mouseover": {"state": {"target": ["12", "10", "11", "4", "3", "7"], "time": [1897, 2297, 2480, 3014, 3481, 3833]}, "edge": {"target": [], "time": []}}, "mouseout": {"state": {"target": ["0", "1", "0", "12", "12", "10", "11", "4", "3"], "time": [1164, 1264, 1614, 2081, 2264, 2364, 2897, 3280, 3704]}, "edge": {"target": [], "time": []}}}, "displayed_time": "9.57", "trialTime": 10492, "trial_type": "mouselab-mdp", "trial_index": 29, "time_elapsed": 556500, "internal_node_id": "0.0-4.0-1.0-20.0"}}, {"uniqueid": "w26734936:a18571948", "current_trial": 30, "dateTime": 1664464529907, "trialdata": {"revealed_states": [], "num_clicks_accrued": [0, 0, 0, 0, 0, 0, 0, 0, 0, 0, 0, 0, 0], "stateRewards": ["", 4, -4, 48, 24, 2, 4, 24, -24, 2, 4, 24, 48], "withholdReward": true, "trial_id": "mdp_736351885282", "block": "test1", "trialIndex": 23, "score": 58.75, "costs": -0.25, "simulationMode": [null, null, null], "rewards": [2, 4, 48], "path": ["0", "0", "9", "10", "12"], "rt": [1533, 117, 91], "actions": ["left", "left", "down"], "actionTimes": [2314, 2939, 3546], "queries": {"click": {"state": {"target": ["12"], "time": [1688]}, "edge": {"target": [], "time": []}}, "mouseover": {"state": {"target": ["12", "12", "5"], "time": [1203, 1586, 1954]}, "edge": {"target": [], "time": []}}, "mouseout": {"state": {"target": ["7", "0", "12", "12", "5"], "time": [503, 903, 1287, 1804, 2469]}, "edge": {"target": [], "time": []}}}, "displayed_time": "9.86", "trialTime": 10347, "trial_type": "mouselab-mdp", "trial_index": 30, "time_elapsed": 566917, "internal_node_id": "0.0-4.0-1.0-21.0"}}, {"uniqueid": "w26734936:a18571948", "current_trial": 31, "dateTime": 1664464538884, "trialdata": {"revealed_states": [], "num_clicks_accrued": [0, 0, 0, 0, 0, 0, 0, 0, 0, 0, 0, 0, 0], "stateRewards": ["", -4, -8, -48, -48, 4, -8, 48, 48, 2, 8, 48, 24], "withholdReward": true, "trial_id": "mdp_880437222492", "block": "test1", "trialIndex": 24, "score": 48.5, "costs": -0.5, "simulationMode": [null, null, null], "rewards": [4, -8, 48], "path": ["0", "0", "5", "6", "7"], "rt": [2039, 75, 98], "actions": ["right", "right", "up"], "actionTimes": [2619, 3210, 3819], "queries": {"click": {"state": {"target": ["12", "7"], "time": [1096, 1955]}, "edge": {"target": [], "time": []}}, "mouseover": {"state": {"target": ["12", "5", "7", "6", "8"], "time": [1019, 1619, 1802, 2152, 2236]}, "edge": {"target": [], "time": []}}, "mouseout": {"state": {"target": ["0", "12", "5", "7", "6", "8"], "time": [719, 1286, 1669, 2119, 2186, 2403]}, "edge": {"target": [], "time": []}}}, "displayed_time": "8.64", "trialTime": 8907, "trial_type": "mouselab-mdp", "trial_index": 31, "time_elapsed": 575894, "internal_node_id": "0.0-4.0-1.0-22.0"}}, {"uniqueid": "w26734936:a18571948", "current_trial": 32, "dateTime": 1664464548453, "trialdata": {"revealed_states": [], "num_clicks_accrued": [0, 0, 0, 0, 0, 0, 0, 0, 0, 0, 0, 0, 0], "stateRewards": ["", 4, -8, -24, 48, -4, 8, -24, -48, -4, -4, 24, 48], "withholdReward": false, "trial_id": "mdp_282352776624", "block": "test1", "trialIndex": 25, "score": 44.75, "costs": -0.25, "simulationMode": [null, null, null], "rewards": [-4, -4, 48], "path": ["0", "0", "9", "10", "12"], "rt": [1038, 462, 345], "actions": ["left", "left", "down"], "actionTimes": [1528, 2520, 3368], "queries": {"click": {"state": {"target": ["12"], "time": [918]}, "edge": {"target": [], "time": []}}, "mouseover": {"state": {"target": ["0", "12", "5", "6"], "time": [588, 805, 1155, 1190]}, "edge": {"target": [], "time": []}}, "mouseout": {"state": {"target": ["0", "0", "12", "5", "6", "8"], "time": [438, 639, 1039, 1172, 1539, 1673]}, "edge": {"target": [], "time": []}}}, "displayed_time": "8.54", "trialTime": 9496, "trial_type": "mouselab-mdp", "trial_index": 32, "time_elapsed": 585462, "internal_node_id": "0.0-4.0-1.0-23.0"}}, {"uniqueid": "w26734936:a18571948", "current_trial": 33, "dateTime": 1664464557542, "trialdata": {"revealed_states": [], "num_clicks_accrued": [0, 0, 0, 0, 0, 0, 0, 0, 0, 0, 0, 0, 0], "stateRewards": ["", -4, -4, 24, -24, 4, 4, 24, 48, 4, -4, 48, -48], "withholdReward": true, "trial_id": "mdp_522385334882", "block": "test1", "trialIndex": 26, "score": 60.25, "costs": -0.75, "simulationMode": [null, null, null], "rewards": [4, 4, 48], "path": ["0", "0", "5", "6", "8"], "rt": [2473, 98, 90], "actions": ["right", "right", "down"], "actionTimes": [3130, 3739, 4347], "queries": {"click": {"state": {"target": ["12", "7", "8"], "time": [1039, 1969, 2631]}, "edge": {"target": [], "time": []}}, "mouseover": {"state": {"target": ["12", "5", "7", "7", "6", "8"], "time": [905, 1373, 1439, 1689, 2239, 2389]}, "edge": {"target": [], "time": []}}, "mouseout": {"state": {"target": ["0", "12", "5", "7", "7", "6", "8"], "time": [773, 1189, 1389, 1489, 2189, 2322, 2823]}, "edge": {"target": [], "time": []}}}, "displayed_time": "8.71", "trialTime": 9020, "trial_type": "mouselab-mdp", "trial_index": 33, "time_elapsed": 594552, "internal_node_id": "0.0-4.0-1.0-24.0"}}, {"uniqueid": "w26734936:a18571948", "current_trial": 34, "dateTime": 1664464568007, "trialdata": {"revealed_states": [], "num_clicks_accrued": [0, 0, 0, 0, 0, 0, 0, 0, 0, 0, 0, 0, 0], "stateRewards": ["", -4, -4, 24, -48, -2, 8, -24, -48, -4, 4, 24, -48], "withholdReward": true, "trial_id": "mdp_934626330092", "block": "test1", "trialIndex": 27, "score": 27.5, "costs": -1.5, "simulationMode": [null, null, null], "rewards": [-4, 4, 24], "path": ["0", "0", "9", "10", "11"], "rt": [5004, 76, 85], "actions": ["left", "left", "up"], "actionTimes": [5414, 6006, 6598], "queries": {"click": {"state": {"target": ["8", "7", "11", "12", "3", "4"], "time": [887, 1521, 2049, 2595, 3531, 4094]}, "edge": {"target": [], "time": []}}, "mouseover": {"state": {"target": ["8", "6", "7", "5", "11", "10", "12", "3", "1", "4"], "time": [778, 1244, 1311, 1728, 1894, 2228, 2395, 3494, 3778, 3995]}, "edge": {"target": [], "time": []}}, "mouseout": {"state": {"target": ["0", "8", "6", "7", "5", "11", "10", "12", "3", "1", "4"], "time": [528, 1211, 1278, 1679, 1745, 2195, 2278, 2728, 3677, 3928, 4245]}, "edge": {"target": [], "time": []}}}, "displayed_time": "9.51", "trialTime": 10391, "trial_type": "mouselab-mdp", "trial_index": 34, "time_elapsed": 605017, "internal_node_id": "0.0-4.0-1.0-25.0"}}, {"uniqueid": "w26734936:a18571948", "current_trial": 35, "dateTime": 1664464578920, "trialdata": {"revealed_states": [], "num_clicks_accrued": [0, 0, 0, 0, 0, 0, 0, 0, 0, 0, 0, 0, 0], "stateRewards": ["", -4, -8, -48, 48, -2, 8, 48, 48, -2, -4, -48, -48], "withholdReward": true, "trial_id": "mdp_752833580638", "block": "test1", "trialIndex": 28, "score": 58.5, "costs": -0.5, "simulationMode": [null, null, null], "rewards": [-2, 8, 48], "path": ["0", "0", "5", "6", "7"], "rt": [1723, 92, 100], "actions": ["right", "right", "up"], "actionTimes": [3037, 3645, 4253], "queries": {"click": {"state": {"target": ["12", "7"], "time": [1795, 2465]}, "edge": {"target": [], "time": []}}, "mouseover": {"state": {"target": ["12", "6", "7", "6", "8"], "time": [1553, 2187, 2353, 2636, 2787]}, "edge": {"target": [], "time": []}}, "mouseout": {"state": {"target": ["0", "12", "6", "7", "6", "8"], "time": [1421, 1920, 2254, 2604, 2686, 3203]}, "edge": {"target": [], "time": []}}}, "displayed_time": "10.36", "trialTime": 10846, "trial_type": "mouselab-mdp", "trial_index": 35, "time_elapsed": 615930, "internal_node_id": "0.0-4.0-1.0-26.0"}}, {"uniqueid": "w26734936:a18571948", "current_trial": 36, "dateTime": 1664464589322, "trialdata": {"revealed_states": [], "num_clicks_accrued": [0, 0, 0, 0, 0, 0, 0, 0, 0, 0, 0, 0, 0], "stateRewards": ["", 2, -8, -24, -48, -2, -4, 48, 48, 4, 8, 48, 48], "withholdReward": true, "trial_id": "mdp_347285045422", "block": "test1", "trialIndex": 29, "score": 64.75, "costs": -0.25, "simulationMode": [null, null, null], "rewards": [4, 8, 48], "path": ["0", "0", "9", "10", "12"], "rt": [932, 70, 79], "actions": ["left", "left", "down"], "actionTimes": [1868, 2460, 3068], "queries": {"click": {"state": {"target": ["12"], "time": [1348]}, "edge": {"target": [], "time": []}}, "mouseover": {"state": {"target": ["12"], "time": [1222]}, "edge": {"target": [], "time": []}}, "mouseout": {"state": {"target": ["0", "12"], "time": [1055, 1506]}, "edge": {"target": [], "time": []}}}, "displayed_time": "10.01", "trialTime": 10333, "trial_type": "mouselab-mdp", "trial_index": 36, "time_elapsed": 626332, "internal_node_id": "0.0-4.0-1.0-27.0"}}, {"uniqueid": "w26734936:a18571948", "current_trial": 37, "dateTime": 1664464598523, "trialdata": {"revealed_states": [], "num_clicks_accrued": [0, 0, 0, 0, 0, 0, 0, 0, 0, 0, 0, 0, 0], "stateRewards": ["", 2, 8, 48, 24, -4, 4, -48, 24, 2, 8, 48, 48], "withholdReward": true, "trial_id": "mdp_367344599162", "block": "test1", "trialIndex": 30, "score": 62.75, "costs": -0.25, "simulationMode": [null, null, null], "rewards": [2, 8, 48], "path": ["0", "0", "9", "10", "12"], "rt": [1142, 138, 81], "actions": ["left", "left", "down"], "actionTimes": [1802, 2473, 3081], "queries": {"click": {"state": {"target": ["12"], "time": [1328]}, "edge": {"target": [], "time": []}}, "mouseover": {"state": {"target": ["12"], "time": [1101]}, "edge": {"target": [], "time": []}}, "mouseout": {"state": {"target": ["0", "12"], "time": [767, 1535]}, "edge": {"target": [], "time": []}}}, "displayed_time": "8.72", "trialTime": 9131, "trial_type": "mouselab-mdp", "trial_index": 37, "time_elapsed": 635533, "internal_node_id": "0.0-4.0-1.0-28.0"}}, {"uniqueid": "w26734936:a18571948", "current_trial": 38, "dateTime": 1664464608204, "trialdata": {"revealed_states": [], "num_clicks_accrued": [0, 0, 0, 0, 0, 0, 0, 0, 0, 0, 0, 0, 0], "stateRewards": ["", -2, 8, -48, 48, -4, -8, 24, 24, -2, -4, 48, -48], "withholdReward": true, "trial_id": "mdp_867247318592", "block": "test1", "trialIndex": 31, "score": 46, "costs": -1, "simulationMode": [null, null, null], "rewards": [-2, -4, 48], "path": ["0", "0", "9", "10", "11"], "rt": [3160, 7, 4], "actions": ["left", "left", "up"], "actionTimes": [4284, 4812, 5340], "queries": {"click": {"state": {"target": ["12", "7", "8", "11"], "time": [1531, 2332, 2764, 3537]}, "edge": {"target": [], "time": []}}, "mouseover": {"state": {"target": ["12", "6", "7", "6", "8", "0", "9", "11", "1", "5"], "time": [1419, 1935, 2169, 2535, 2668, 3235, 3286, 3386, 4102, 4218]}, "edge": {"target": [], "time": []}}, "mouseout": {"state": {"target": ["5", "0", "12", "6", "7", "6", "8", "8", "0", "9", "11", "1", "5", "8"], "time": [819, 1251, 1652, 2069, 2485, 2602, 3019, 3152, 3252, 3302, 3685, 4152, 4285, 4552]}, "edge": {"target": [], "time": []}}}, "displayed_time": "9.17", "trialTime": 9612, "trial_type": "mouselab-mdp", "trial_index": 38, "time_elapsed": 645214, "internal_node_id": "0.0-4.0-1.0-29.0"}}, {"uniqueid": "w26734936:a18571948", "current_trial": 39, "dateTime": 1664464612301, "trialdata": {"rt": 4095, "stimulus": "<h1> End of block! </h1>\n\nYou have reached the end of the block 1/4. If you need a short break, feel free to take one now before moving on.\n\n<br><br>\nIn the next block, you will complete another 30 rounds of this game.\n\n<br><br>\n<div style='text-align: center;'>Press <code>space</code> to begin.</div>\n<br><br>\n<div style='text-align: center;'>(If the experiment doesn't continue, try clicking on the text and then pressing <code>space</code>.)</div>", "response": " ", "trial_id": "mdp_ready_2", "trial_type": "html-keyboard-response", "trial_index": 39, "time_elapsed": 649310, "internal_node_id": "0.0-4.0-2.0"}}, {"uniqueid": "w26734936:a18571948", "current_trial": 40, "dateTime": 1664464622205, "trialdata": {"revealed_states": [], "num_clicks_accrued": [0, 0, 0, 0, 0, 0, 0, 0, 0, 0, 0, 0, 0], "stateRewards": ["", -2, -8, -24, 24, -2, -8, -48, 24, -2, -8, 24, 24], "withholdReward": false, "trial_id": "mdp_336617436097", "block": "test2", "trialIndex": 32, "score": 17.5, "costs": -1.5, "simulationMode": [null, null, null], "rewards": [-2, -8, 24], "path": ["0", "0", "9", "10", "11"], "rt": [3831, 172, 111], "actions": ["left", "left", "up"], "actionTimes": [4474, 5179, 5803], "queries": {"click": {"state": {"target": ["12", "7", "8", "11", "4", "3"], "time": [1113, 1710, 2114, 2609, 3370, 3837]}, "edge": {"target": [], "time": []}}, "mouseover": {"state": {"target": ["12", "5", "7", "6", "8", "9", "11", "9", "1", "4", "2", "3", "6"], "time": [906, 1522, 1639, 1856, 1956, 2373, 2423, 2790, 2923, 3107, 3589, 3706, 4322]}, "edge": {"target": [], "time": []}}, "mouseout": {"state": {"target": ["5", "0", "12", "5", "7", "6", "8", "9", "11", "9", "1", "4", "2", "3", "6"], "time": [489, 773, 1240, 1572, 1823, 1906, 2273, 2390, 2739, 2806, 2973, 3523, 3656, 3973, 4456]}, "edge": {"target": [], "time": []}}}, "displayed_time": "8.72", "trialTime": 9835, "trial_type": "mouselab-mdp", "trial_index": 40, "time_elapsed": 659215, "internal_node_id": "0.0-4.0-3.0-0.0"}}, {"uniqueid": "w26734936:a18571948", "current_trial": 41, "dateTime": 1664464631215, "trialdata": {"revealed_states": [], "num_clicks_accrued": [0, 0, 0, 0, 0, 0, 0, 0, 0, 0, 0, 0, 0], "stateRewards": ["", -2, -4, -24, 48, -2, -8, -48, -24, 4, 8, 48, 24], "withholdReward": false, "trial_id": "mdp_625355871626", "block": "test2", "trialIndex": 33, "score": 64, "costs": -1, "simulationMode": [null, null, null], "rewards": [4, 8, 48], "path": ["0", "0", "9", "10", "11"], "rt": [3272, 474, 53], "actions": ["left", "left", "up"], "actionTimes": [3820, 4828, 5389], "queries": {"click": {"state": {"target": ["8", "7", "11", "12"], "time": [1329, 1874, 2925, 3502]}, "edge": {"target": [], "time": []}}, "mouseover": {"state": {"target": ["8", "8", "6", "7", "11", "10", "11", "10", "12"], "time": [853, 1286, 1686, 1769, 2528, 2652, 2852, 3086, 3303]}, "edge": {"target": [], "time": []}}, "mouseout": {"state": {"target": ["8", "0", "8", "8", "6", "7", "11", "10", "11", "10", "12", "8"], "time": [219, 720, 919, 1653, 1736, 2053, 2602, 2802, 3070, 3153, 3619, 4286]}, "edge": {"target": [], "time": []}}}, "displayed_time": "8.62", "trialTime": 8941, "trial_type": "mouselab-mdp", "trial_index": 41, "time_elapsed": 668224, "internal_node_id": "0.0-4.0-3.0-1.0"}}, {"uniqueid": "w26734936:a18571948", "current_trial": 42, "dateTime": 1664464640239, "trialdata": {"revealed_states": [], "num_clicks_accrued": [0, 0, 0, 0, 0, 0, 0, 0, 0, 0, 0, 0, 0], "stateRewards": ["", 4, -4, 48, 24, 2, 4, 24, -24, 2, 4, 24, 48], "withholdReward": true, "trial_id": "mdp_736351885282", "block": "test2", "trialIndex": 34, "score": 58.5, "costs": -0.5, "simulationMode": [null, null, null], "rewards": [2, 4, 48], "path": ["0", "0", "9", "10", "12"], "rt": [1453, 129, 392], "actions": ["left", "left", "down"], "actionTimes": [1889, 2545, 3440], "queries": {"click": {"state": {"target": ["11", "12"], "time": [911, 1407]}, "edge": {"target": [], "time": []}}, "mouseover": {"state": {"target": ["9", "11", "10", "12", "0"], "time": [715, 832, 1098, 1365, 1799]}, "edge": {"target": [], "time": []}}, "mouseout": {"state": {"target": ["8", "0", "9", "11", "10", "12", "0", "8"], "time": [133, 665, 732, 1048, 1248, 1540, 1815, 2081]}, "edge": {"target": [], "time": []}}}, "displayed_time": "8.50", "trialTime": 8945, "trial_type": "mouselab-mdp", "trial_index": 42, "time_elapsed": 677249, "internal_node_id": "0.0-4.0-3.0-2.0"}}, {"uniqueid": "w26734936:a18571948", "current_trial": 43, "dateTime": 1664464650657, "trialdata": {"revealed_states": [], "num_clicks_accrued": [0, 0, 0, 0, 0, 0, 0, 0, 0, 0, 0, 0, 0], "stateRewards": ["", -2, 8, 48, -48, 4, -8, 24, 24, 4, 4, -48, -24], "withholdReward": true, "trial_id": "mdp_746937869927", "block": "test2", "trialIndex": 35, "score": 57.75, "costs": -1.25, "simulationMode": [null, null, null], "rewards": [-2, 8, 48], "path": ["0", "0", "1", "2", "3"], "rt": [3824, 428, 166], "actions": ["up", "up", "right"], "actionTimes": [4228, 5172, 5844], "queries": {"click": {"state": {"target": ["12", "11", "7", "8", "3"], "time": [887, 1420, 1946, 2469, 3165]}, "edge": {"target": [], "time": []}}, "mouseover": {"state": {"target": ["12", "11", "5", "7", "6", "8", "6", "3", "4"], "time": [809, 1342, 1643, 1792, 2093, 2193, 2909, 3093, 3475]}, "edge": {"target": [], "time": []}}, "mouseout": {"state": {"target": ["0", "12", "11", "5", "7", "6", "8", "6", "3", "4", "1", "5", "6", "8"], "time": [510, 1059, 1559, 1676, 2059, 2143, 2610, 2943, 3293, 4775, 4959, 5076, 5377, 9325]}, "edge": {"target": [], "time": []}}}, "displayed_time": "9.48", "trialTime": 10340, "trial_type": "mouselab-mdp", "trial_index": 43, "time_elapsed": 687667, "internal_node_id": "0.0-4.0-3.0-3.0"}}, {"uniqueid": "w26734936:a18571948", "current_trial": 44, "dateTime": 1664464660657, "trialdata": {"revealed_states": [], "num_clicks_accrued": [0, 0, 0, 0, 0, 0, 0, 0, 0, 0, 0, 0, 0], "stateRewards": ["", -2, 4, 48, -24, 2, 8, 24, 48, 2, 4, -24, -48], "withholdReward": true, "trial_id": "mdp_892412058587", "block": "test2", "trialIndex": 36, "score": 62.5, "costs": -0.5, "simulationMode": [null, null, null], "rewards": [2, 8, 48], "path": ["0", "0", "5", "6", "8"], "rt": [1604, 111, 73], "actions": ["right", "right", "down"], "actionTimes": [2153, 2777, 3352], "queries": {"click": {"state": {"target": ["7", "8"], "time": [996, 1498]}, "edge": {"target": [], "time": []}}, "mouseover": {"state": {"target": ["5", "7", "6", "8"], "time": [713, 931, 1197, 1380]}, "edge": {"target": [], "time": []}}, "mouseout": {"state": {"target": ["0", "5", "7", "6", "8"], "time": [680, 763, 1097, 1297, 1680]}, "edge": {"target": [], "time": []}}}, "displayed_time": "9.61", "trialTime": 9929, "trial_type": "mouselab-mdp", "trial_index": 44, "time_elapsed": 697667, "internal_node_id": "0.0-4.0-3.0-4.0"}}, {"uniqueid": "w26734936:a18571948", "current_trial": 45, "dateTime": 1664464670835, "trialdata": {"revealed_states": [], "num_clicks_accrued": [0, 0, 0, 0, 0, 0, 0, 0, 0, 0, 0, 0, 0], "stateRewards": ["", 2, 4, -48, -48, 4, 4, -48, -48, -2, -8, 48, -24], "withholdReward": true, "trial_id": "mdp_175327338412", "block": "test2", "trialIndex": 37, "score": 42.5, "costs": -0.5, "simulationMode": [null, null, null], "rewards": [-2, -8, 48], "path": ["0", "0", "9", "10", "11"], "rt": [1571, 50, 60], "actions": ["left", "left", "up"], "actionTimes": [2120, 2695, 3287], "queries": {"click": {"state": {"target": ["12", "11"], "time": [994, 1450]}, "edge": {"target": [], "time": []}}, "mouseover": {"state": {"target": ["9", "12", "11", "4", "1"], "time": [776, 910, 1278, 1810, 2077]}, "edge": {"target": [], "time": []}}, "mouseout": {"state": {"target": ["0", "9", "12", "11", "4", "1", "5", "6"], "time": [743, 793, 1144, 1576, 1994, 2111, 2228, 2261]}, "edge": {"target": [], "time": []}}}, "displayed_time": "9.61", "trialTime": 10103, "trial_type": "mouselab-mdp", "trial_index": 45, "time_elapsed": 707845, "internal_node_id": "0.0-4.0-3.0-5.0"}}, {"uniqueid": "w26734936:a18571948", "current_trial": 46, "dateTime": 1664464680676, "trialdata": {"revealed_states": [], "num_clicks_accrued": [0, 0, 0, 0, 0, 0, 0, 0, 0, 0, 0, 0, 0], "stateRewards": ["", -4, 8, 24, -24, 4, -8, -24, -24, -2, 8, -48, 24], "withholdReward": true, "trial_id": "mdp_240302100183", "block": "test2", "trialIndex": 38, "score": 33.5, "costs": -1.5, "simulationMode": [null, null, null], "rewards": [-2, 8, 24], "path": ["0", "0", "9", "10", "12"], "rt": [3806, 147, 106], "actions": ["left", "left", "down"], "actionTimes": [5178, 5833, 6458], "queries": {"click": {"state": {"target": ["12", "11", "7", "8", "3", "4"], "time": [1886, 2354, 2920, 3374, 3993, 4475]}, "edge": {"target": [], "time": []}}, "mouseover": {"state": {"target": ["12", "12", "11", "7", "6", "8", "3", "4", "1"], "time": [1551, 1819, 2268, 2818, 3085, 3202, 3951, 4352, 4634]}, "edge": {"target": [], "time": []}}, "mouseout": {"state": {"target": ["0", "12", "9", "0", "12", "12", "11", "7", "6", "8", "3", "4", "1", "8"], "time": [951, 1152, 1251, 1485, 1586, 2069, 2452, 3051, 3135, 3618, 4135, 4584, 4651, 9751]}, "edge": {"target": [], "time": []}}}, "displayed_time": "9.43", "trialTime": 9770, "trial_type": "mouselab-mdp", "trial_index": 46, "time_elapsed": 717686, "internal_node_id": "0.0-4.0-3.0-6.0"}}, {"uniqueid": "w26734936:a18571948", "current_trial": 47, "dateTime": 1664464690326, "trialdata": {"revealed_states": [], "num_clicks_accrued": [0, 0, 0, 0, 0, 0, 0, 0, 0, 0, 0, 0, 0], "stateRewards": ["", 2, 8, -48, -24, 4, 4, 24, 48, 4, -4, -48, 48], "withholdReward": true, "trial_id": "mdp_665096999232", "block": "test2", "trialIndex": 39, "score": 52.75, "costs": -0.25, "simulationMode": [null, null, null], "rewards": [4, -4, 48], "path": ["0", "0", "9", "10", "12"], "rt": [1349, 85, 109], "actions": ["left", "left", "down"], "actionTimes": [1730, 2322, 2947], "queries": {"click": {"state": {"target": ["12"], "time": [759]}, "edge": {"target": [], "time": []}}, "mouseover": {"state": {"target": ["0", "12", "9", "9"], "time": [470, 604, 1053, 1187]}, "edge": {"target": [], "time": []}}, "mouseout": {"state": {"target": ["0", "12", "9", "9"], "time": [487, 870, 1070, 1220]}, "edge": {"target": [], "time": []}}}, "displayed_time": "9.43", "trialTime": 9571, "trial_type": "mouselab-mdp", "trial_index": 47, "time_elapsed": 727335, "internal_node_id": "0.0-4.0-3.0-7.0"}}, {"uniqueid": "w26734936:a18571948", "current_trial": 48, "dateTime": 1664464700327, "trialdata": {"revealed_states": [], "num_clicks_accrued": [0, 0, 0, 0, 0, 0, 0, 0, 0, 0, 0, 0, 0], "stateRewards": ["", -2, -8, 48, 24, 2, 8, -48, 24, -4, 8, 48, 48], "withholdReward": false, "trial_id": "mdp_875436109858", "block": "test2", "trialIndex": 40, "score": 56.75, "costs": -0.25, "simulationMode": [null, null, null], "rewards": [-4, 8, 48], "path": ["0", "0", "9", "10", "12"], "rt": [1667, 80, 152], "actions": ["left", "left", "down"], "actionTimes": [2246, 2838, 3495], "queries": {"click": {"state": {"target": ["12"], "time": [1044]}, "edge": {"target": [], "time": []}}, "mouseover": {"state": {"target": ["0", "12", "10", "11", "9"], "time": [674, 991, 1258, 1342, 1558]}, "edge": {"target": [], "time": []}}, "mouseout": {"state": {"target": ["0", "0", "12", "10", "11", "9"], "time": [491, 691, 1225, 1308, 1508, 1592]}, "edge": {"target": [], "time": []}}}, "displayed_time": "9.63", "trialTime": 9927, "trial_type": "mouselab-mdp", "trial_index": 48, "time_elapsed": 737336, "internal_node_id": "0.0-4.0-3.0-8.0"}}, {"uniqueid": "w26734936:a18571948", "current_trial": 49, "dateTime": 1664464710424, "trialdata": {"revealed_states": [], "num_clicks_accrued": [0, 0, 0, 0, 0, 0, 0, 0, 0, 0, 0, 0, 0], "stateRewards": ["", -2, -4, 48, -24, -4, -4, -24, -24, -2, 4, -48, -24], "withholdReward": false, "trial_id": "mdp_410467837196", "block": "test2", "trialIndex": 41, "score": 45.75, "costs": -1.25, "simulationMode": [null, null, null], "rewards": [-2, -4, 48], "path": ["0", "0", "1", "2", "3"], "rt": [4615, 84, 77], "actions": ["up", "up", "right"], "actionTimes": [4983, 5575, 6167], "queries": {"click": {"state": {"target": ["12", "11", "7", "8", "3"], "time": [855, 1506, 2382, 2891, 3969]}, "edge": {"target": [], "time": []}}, "mouseover": {"state": {"target": ["12", "11", "7", "6", "8", "5", "3", "2", "4"], "time": [740, 1406, 2091, 2589, 2690, 3190, 3873, 4173, 4273]}, "edge": {"target": [], "time": []}}, "mouseout": {"state": {"target": ["0", "12", "11", "7", "6", "8", "5", "3", "2"], "time": [557, 1157, 1657, 2540, 2640, 3123, 3207, 4140, 4223]}, "edge": {"target": [], "time": []}}}, "displayed_time": "9.41", "trialTime": 10024, "trial_type": "mouselab-mdp", "trial_index": 49, "time_elapsed": 747434, "internal_node_id": "0.0-4.0-3.0-9.0"}}, {"uniqueid": "w26734936:a18571948", "current_trial": 50, "dateTime": 1664464719641, "trialdata": {"revealed_states": [], "num_clicks_accrued": [0, 0, 0, 0, 0, 0, 0, 0, 0, 0, 0, 0, 0], "stateRewards": ["", -2, 4, -48, 24, -4, 8, 48, 24, -2, 4, -48, -24], "withholdReward": true, "trial_id": "mdp_740882974347", "block": "test2", "trialIndex": 42, "score": 56.75, "costs": -0.25, "simulationMode": [null, null, null], "rewards": [-4, 8, 48], "path": ["0", "0", "5", "6", "7"], "rt": [1458, 72, 353], "actions": ["right", "right", "up"], "actionTimes": [2002, 2578, 3442], "queries": {"click": {"state": {"target": ["7"], "time": [984]}, "edge": {"target": [], "time": []}}, "mouseover": {"state": {"target": ["0", "5", "7", "6", "8"], "time": [688, 771, 871, 1221, 1421]}, "edge": {"target": [], "time": []}}, "mouseout": {"state": {"target": ["4", "9", "0", "5", "7", "6", "8"], "time": [121, 421, 721, 821, 1171, 1288, 8487]}, "edge": {"target": [], "time": []}}}, "displayed_time": "8.61", "trialTime": 9139, "trial_type": "mouselab-mdp", "trial_index": 50, "time_elapsed": 756651, "internal_node_id": "0.0-4.0-3.0-10.0"}}, {"uniqueid": "w26734936:a18571948", "current_trial": 51, "dateTime": 1664464729690, "trialdata": {"revealed_states": [], "num_clicks_accrued": [0, 0, 0, 0, 0, 0, 0, 0, 0, 0, 0, 0, 0], "stateRewards": ["", 2, -8, 24, 24, 2, 4, -48, -48, 4, 4, -24, 48], "withholdReward": true, "trial_id": "mdp_985707010949", "block": "test2", "trialIndex": 43, "score": 59.5, "costs": -1.5, "simulationMode": [null, null, null], "rewards": [4, 4, 48], "path": ["0", "0", "9", "10", "12"], "rt": [4819, 154, 158], "actions": ["left", "left", "down"], "actionTimes": [5184, 5857, 6528], "queries": {"click": {"state": {"target": ["11", "4", "3", "8", "7", "12"], "time": [1041, 1485, 2007, 2729, 3218, 3902]}, "edge": {"target": [], "time": []}}, "mouseover": {"state": {"target": ["9", "11", "4", "2", "3", "6", "8", "6", "7", "5", "0", "12", "12"], "time": [601, 769, 1418, 1752, 1935, 2369, 2618, 2886, 2985, 3402, 3452, 3519, 3818]}, "edge": {"target": [], "time": []}}, "mouseout": {"state": {"target": ["0", "9", "11", "4", "2", "3", "6", "8", "6", "7", "5", "0", "12", "12"], "time": [535, 668, 1335, 1702, 1836, 2185, 2469, 2852, 2935, 3369, 3436, 3470, 3569, 4035]}, "edge": {"target": [], "time": []}}}, "displayed_time": "8.43", "trialTime": 9969, "trial_type": "mouselab-mdp", "trial_index": 51, "time_elapsed": 766700, "internal_node_id": "0.0-4.0-3.0-11.0"}}, {"uniqueid": "w26734936:a18571948", "current_trial": 52, "dateTime": 1664464740747, "trialdata": {"revealed_states": [], "num_clicks_accrued": [0, 0, 0, 0, 0, 0, 0, 0, 0, 0, 0, 0, 0], "stateRewards": ["", 4, -8, 48, 48, 2, 4, 48, -48, 4, -4, -48, 48], "withholdReward": true, "trial_id": "mdp_519605841135", "block": "test2", "trialIndex": 44, "score": 52.75, "costs": -0.25, "simulationMode": [null, null, null], "rewards": [4, -4, 48], "path": ["0", "0", "9", "10", "12"], "rt": [2103, 122, 544], "actions": ["left", "left", "down"], "actionTimes": [3208, 3832, 4888], "queries": {"click": {"state": {"target": ["12"], "time": [1823]}, "edge": {"target": [], "time": []}}, "mouseover": {"state": {"target": ["12", "10", "11"], "time": [1694, 2028, 2095]}, "edge": {"target": [], "time": []}}, "mouseout": {"state": {"target": ["8", "6", "5", "0", "12", "10", "11"], "time": [727, 777, 877, 1293, 1994, 2060, 2461]}, "edge": {"target": [], "time": []}}}, "displayed_time": "10.18", "trialTime": 10985, "trial_type": "mouselab-mdp", "trial_index": 52, "time_elapsed": 777757, "internal_node_id": "0.0-4.0-3.0-12.0"}}, {"uniqueid": "w26734936:a18571948", "current_trial": 53, "dateTime": 1664464750525, "trialdata": {"revealed_states": [], "num_clicks_accrued": [0, 0, 0, 0, 0, 0, 0, 0, 0, 0, 0, 0, 0], "stateRewards": ["", -4, 4, -24, 24, -2, -4, 48, 24, 2, 8, -48, 24], "withholdReward": true, "trial_id": "mdp_150340189492", "block": "test2", "trialIndex": 45, "score": 45.75, "costs": -1.25, "simulationMode": [null, null, null], "rewards": [-2, -4, 48], "path": ["0", "0", "5", "6", "7"], "rt": [4400, 461, 70], "actions": ["right", "right", "up"], "actionTimes": [4887, 5863, 6439], "queries": {"click": {"state": {"target": ["11", "12", "4", "3", "7"], "time": [969, 1587, 2198, 2730, 3349]}, "edge": {"target": [], "time": []}}, "mouseover": {"state": {"target": ["0", "9", "11", "10", "12", "9", "4", "2", "3", "7", "7", "6", "8"], "time": [618, 684, 851, 1235, 1384, 1867, 2101, 2451, 2601, 3068, 3235, 3569, 3685]}, "edge": {"target": [], "time": []}}, "mouseout": {"state": {"target": ["0", "0", "9", "11", "10", "12", "9", "4", "2", "3", "7", "7", "6"], "time": [501, 651, 768, 1185, 1285, 1817, 1902, 2384, 2535, 2918, 3102, 3535, 3635]}, "edge": {"target": [], "time": []}}}, "displayed_time": "8.54", "trialTime": 9703, "trial_type": "mouselab-mdp", "trial_index": 53, "time_elapsed": 787534, "internal_node_id": "0.0-4.0-3.0-13.0"}}, {"uniqueid": "w26734936:a18571948", "current_trial": 54, "dateTime": 1664464761629, "trialdata": {"revealed_states": [], "num_clicks_accrued": [0, 0, 0, 0, 0, 0, 0, 0, 0, 0, 0, 0, 0], "stateRewards": ["", 2, 4, -48, 48, -4, 8, -48, -24, -4, -4, 48, 48], "withholdReward": false, "trial_id": "mdp_613582696541", "block": "test2", "trialIndex": 46, "score": 44.75, "costs": -0.25, "simulationMode": [null, null, null], "rewards": [-4, -4, 48], "path": ["0", "0", "9", "10", "12"], "rt": [1744, 83, 57], "actions": ["left", "left", "down"], "actionTimes": [3416, 4008, 4585], "queries": {"click": {"state": {"target": ["12"], "time": [2294]}, "edge": {"target": [], "time": []}}, "mouseover": {"state": {"target": ["12", "10", "11"], "time": [2076, 2509, 2594]}, "edge": {"target": [], "time": []}}, "mouseout": {"state": {"target": ["8", "5", "1", "0", "12", "10", "11"], "time": [1276, 1326, 1459, 1892, 2475, 2559, 2759]}, "edge": {"target": [], "time": []}}}, "displayed_time": "10.75", "trialTime": 11033, "trial_type": "mouselab-mdp", "trial_index": 54, "time_elapsed": 798639, "internal_node_id": "0.0-4.0-3.0-14.0"}}, {"uniqueid": "w26734936:a18571948", "current_trial": 55, "dateTime": 1664464772288, "trialdata": {"revealed_states": [], "num_clicks_accrued": [0, 0, 0, 0, 0, 0, 0, 0, 0, 0, 0, 0, 0], "stateRewards": ["", -4, -8, 48, -24, 4, -8, 48, 48, -2, 4, -48, -24], "withholdReward": true, "trial_id": "mdp_925905402462", "block": "test2", "trialIndex": 47, "score": 48.25, "costs": -0.75, "simulationMode": [null, null, null], "rewards": [4, -8, 48], "path": ["0", "0", "5", "6", "7"], "rt": [2619, 86, 975], "actions": ["right", "right", "up"], "actionTimes": [3844, 4436, 5924], "queries": {"click": {"state": {"target": ["11", "12", "7"], "time": [1622, 2222, 2845]}, "edge": {"target": [], "time": []}}, "mouseover": {"state": {"target": ["9", "11", "10", "12", "5", "7", "6", "8"], "time": [1399, 1466, 1849, 1982, 2532, 2798, 3032, 3215]}, "edge": {"target": [], "time": []}}, "mouseout": {"state": {"target": ["9", "9", "9", "9", "11", "10", "12", "5", "7", "6", "8"], "time": [482, 866, 1082, 1416, 1816, 1916, 2399, 2582, 2999, 3082, 9616]}, "edge": {"target": [], "time": []}}}, "displayed_time": "10.28", "trialTime": 10581, "trial_type": "mouselab-mdp", "trial_index": 55, "time_elapsed": 809298, "internal_node_id": "0.0-4.0-3.0-15.0"}}, {"uniqueid": "w26734936:a18571948", "current_trial": 56, "dateTime": 1664464782176, "trialdata": {"revealed_states": [], "num_clicks_accrued": [0, 0, 0, 0, 0, 0, 0, 0, 0, 0, 0, 0, 0], "stateRewards": ["", -2, 8, -24, 48, -4, 4, -48, 24, 4, -8, 48, -24], "withholdReward": true, "trial_id": "mdp_425320427962", "block": "test2", "trialIndex": 48, "score": 48.25, "costs": -0.75, "simulationMode": [null, null, null], "rewards": [4, -8, 48], "path": ["0", "0", "9", "10", "11"], "rt": [2578, 95, 85], "actions": ["left", "left", "up"], "actionTimes": [3009, 3618, 4210], "queries": {"click": {"state": {"target": ["8", "7", "11"], "time": [869, 1500, 2101]}, "edge": {"target": [], "time": []}}, "mouseover": {"state": {"target": ["8", "6", "7", "1", "11", "10"], "time": [772, 1222, 1388, 1855, 1955, 2272]}, "edge": {"target": [], "time": []}}, "mouseout": {"state": {"target": ["0", "8", "6", "7", "1", "11", "10"], "time": [539, 1155, 1288, 1806, 1873, 2222, 2322]}, "edge": {"target": [], "time": []}}}, "displayed_time": "9.47", "trialTime": 9809, "trial_type": "mouselab-mdp", "trial_index": 56, "time_elapsed": 819186, "internal_node_id": "0.0-4.0-3.0-16.0"}}, {"uniqueid": "w26734936:a18571948", "current_trial": 57, "dateTime": 1664464791009, "trialdata": {"revealed_states": [], "num_clicks_accrued": [0, 0, 0, 0, 0, 0, 0, 0, 0, 0, 0, 0, 0], "stateRewards": ["", -4, -4, -48, -24, 2, 8, 24, -48, 4, 4, 48, 48], "withholdReward": true, "trial_id": "mdp_693501840209", "block": "test2", "trialIndex": 49, "score": 60.75, "costs": -0.25, "simulationMode": [null, null, null], "rewards": [4, 4, 48], "path": ["0", "0", "9", "10", "12"], "rt": [1227, 122, 47], "actions": ["left", "left", "down"], "actionTimes": [1630, 2286, 2847], "queries": {"click": {"state": {"target": ["12"], "time": [787]}, "edge": {"target": [], "time": []}}, "mouseover": {"state": {"target": ["12", "10"], "time": [613, 1029]}, "edge": {"target": [], "time": []}}, "mouseout": {"state": {"target": ["0", "12", "10"], "time": [481, 964, 2063]}, "edge": {"target": [], "time": []}}}, "displayed_time": "8.45", "trialTime": 8750, "trial_type": "mouselab-mdp", "trial_index": 57, "time_elapsed": 828019, "internal_node_id": "0.0-4.0-3.0-17.0"}}, {"uniqueid": "w26734936:a18571948", "current_trial": 58, "dateTime": 1664464800146, "trialdata": {"revealed_states": [], "num_clicks_accrued": [0, 0, 0, 0, 0, 0, 0, 0, 0, 0, 0, 0, 0], "stateRewards": ["", -4, 8, -48, -48, -2, -8, -24, -48, 2, -4, -48, 24], "withholdReward": false, "trial_id": "mdp_743906784415", "block": "test2", "trialIndex": 50, "score": 25.5, "costs": -1.5, "simulationMode": [null, null, null], "rewards": [2, -4, 24], "path": ["0", "0", "9", "10", "12"], "rt": [3236, 76, 85], "actions": ["left", "left", "down"], "actionTimes": [3623, 4216, 4808], "queries": {"click": {"state": {"target": ["12", "11", "4", "3", "7", "8"], "time": [805, 1312, 1772, 2244, 2671, 3113]}, "edge": {"target": [], "time": []}}, "mouseover": {"state": {"target": ["12", "10", "11", "4", "3", "7", "6", "8"], "time": [740, 1007, 1089, 1655, 2156, 2472, 2839, 2906]}, "edge": {"target": [], "time": []}}, "mouseout": {"state": {"target": ["0", "12", "10", "11", "4", "3", "7", "6", "8"], "time": [538, 973, 1056, 1423, 1872, 2373, 2806, 2872, 3223]}, "edge": {"target": [], "time": []}}}, "displayed_time": "8.44", "trialTime": 9064, "trial_type": "mouselab-mdp", "trial_index": 58, "time_elapsed": 837156, "internal_node_id": "0.0-4.0-3.0-18.0"}}, {"uniqueid": "w26734936:a18571948", "current_trial": 59, "dateTime": 1664464810020, "trialdata": {"revealed_states": [], "num_clicks_accrued": [0, 0, 0, 0, 0, 0, 0, 0, 0, 0, 0, 0, 0], "stateRewards": ["", 4, 4, 48, -24, 2, -4, 48, 24, -4, -4, -48, 24], "withholdReward": true, "trial_id": "mdp_496003763005", "block": "test2", "trialIndex": 51, "score": 60, "costs": -1, "simulationMode": [null, null, null], "rewards": [4, 4, 48], "path": ["0", "0", "1", "2", "3"], "rt": [2990, 297, 138], "actions": ["up", "up", "right"], "actionTimes": [3342, 4159, 4815], "queries": {"click": {"state": {"target": ["12", "11", "4", "3"], "time": [966, 1482, 1882, 2353]}, "edge": {"target": [], "time": []}}, "mouseover": {"state": {"target": ["12", "11", "4", "2", "3", "7"], "time": [890, 1376, 1825, 2192, 2309, 2626]}, "edge": {"target": [], "time": []}}, "mouseout": {"state": {"target": ["0", "12", "11", "4", "2", "3"], "time": [676, 1193, 1643, 2142, 2242, 2542]}, "edge": {"target": [], "time": []}}}, "displayed_time": "9.42", "trialTime": 9792, "trial_type": "mouselab-mdp", "trial_index": 59, "time_elapsed": 847030, "internal_node_id": "0.0-4.0-3.0-19.0"}}, {"uniqueid": "w26734936:a18571948", "current_trial": 60, "dateTime": 1664464819860, "trialdata": {"revealed_states": [], "num_clicks_accrued": [0, 0, 0, 0, 0, 0, 0, 0, 0, 0, 0, 0, 0], "stateRewards": ["", 2, 8, -24, -48, -4, 8, -48, -48, -2, -8, -24, -24], "withholdReward": false, "trial_id": "mdp_978177451072", "block": "test2", "trialIndex": 52, "score": -30.5, "costs": -1.5, "simulationMode": [null, null, null], "rewards": [-2, -8, -24], "path": ["0", "0", "9", "10", "11"], "rt": [5036, 158, 99], "actions": ["left", "left", "up"], "actionTimes": [5454, 6125, 6734], "queries": {"click": {"state": {"target": ["3", "4", "11", "12", "7", "8"], "time": [866, 1379, 1977, 2435, 2942, 3561]}, "edge": {"target": [], "time": []}}, "mouseover": {"state": {"target": ["3", "2", "4", "11", "11", "10", "12", "0", "5", "7", "6", "8"], "time": [735, 1085, 1219, 1585, 1918, 2168, 2285, 2634, 2669, 2751, 3118, 3218]}, "edge": {"target": [], "time": []}}, "mouseout": {"state": {"target": ["3", "2", "4", "11", "11", "10", "12", "0", "5", "7", "6", "8", "8"], "time": [1053, 1168, 1535, 1619, 2134, 2218, 2568, 2651, 2685, 3085, 3185, 3784, 9135]}, "edge": {"target": [], "time": []}}}, "displayed_time": "8.44", "trialTime": 9758, "trial_type": "mouselab-mdp", "trial_index": 60, "time_elapsed": 856870, "internal_node_id": "0.0-4.0-3.0-20.0"}}, {"uniqueid": "w26734936:a18571948", "current_trial": 61, "dateTime": 1664464830231, "trialdata": {"revealed_states": [], "num_clicks_accrued": [0, 0, 0, 0, 0, 0, 0, 0, 0, 0, 0, 0, 0], "stateRewards": ["", 2, 4, 48, 48, -2, 4, 48, -24, -4, 8, -48, 48], "withholdReward": false, "trial_id": "mdp_407586865939", "block": "test2", "trialIndex": 53, "score": 54.75, "costs": -0.25, "simulationMode": [null, null, null], "rewards": [-2, 4, 48], "path": ["0", "0", "5", "6", "7"], "rt": [1330, 86, 430], "actions": ["right", "right", "up"], "actionTimes": [1780, 2372, 3333], "queries": {"click": {"state": {"target": ["7"], "time": [897]}, "edge": {"target": [], "time": []}}, "mouseover": {"state": {"target": ["7", "6", "8"], "time": [784, 1134, 1317]}, "edge": {"target": [], "time": []}}, "mouseout": {"state": {"target": ["0", "7", "6", "8", "8"], "time": [502, 1084, 1201, 2317, 9750]}, "edge": {"target": [], "time": []}}}, "displayed_time": "9.50", "trialTime": 10294, "trial_type": "mouselab-mdp", "trial_index": 61, "time_elapsed": 867240, "internal_node_id": "0.0-4.0-3.0-21.0"}}, {"uniqueid": "w26734936:a18571948", "current_trial": 62, "dateTime": 1664464840279, "trialdata": {"revealed_states": [], "num_clicks_accrued": [0, 0, 0, 0, 0, 0, 0, 0, 0, 0, 0, 0, 0], "stateRewards": ["", 4, 4, -24, -48, 2, 4, 24, -48, 2, 4, 24, 24], "withholdReward": true, "trial_id": "mdp_223558518218", "block": "test2", "trialIndex": 54, "score": 33.5, "costs": -1.5, "simulationMode": [null, null, null], "rewards": [2, 4, 24], "path": ["0", "0", "9", "10", "11"], "rt": [3462, 104, 127], "actions": ["left", "left", "up"], "actionTimes": [4208, 4832, 5472], "queries": {"click": {"state": {"target": ["7", "8", "12", "11", "4", "3"], "time": [1159, 1643, 2197, 2660, 3088, 3515]}, "edge": {"target": [], "time": []}}, "mouseover": {"state": {"target": ["5", "7", "6", "8", "12", "10", "11", "4", "2", "3"], "time": [909, 1094, 1360, 1527, 2077, 2444, 2526, 2976, 3326, 3409]}, "edge": {"target": [], "time": []}}, "mouseout": {"state": {"target": ["0", "5", "7", "6", "8", "12", "10", "11", "4", "2", "3", "3", "7"], "time": [876, 976, 1326, 1426, 1876, 2410, 2494, 2892, 3292, 3376, 3674, 3910, 5078]}, "edge": {"target": [], "time": []}}}, "displayed_time": "8.80", "trialTime": 9968, "trial_type": "mouselab-mdp", "trial_index": 62, "time_elapsed": 877289, "internal_node_id": "0.0-4.0-3.0-22.0"}}, {"uniqueid": "w26734936:a18571948", "current_trial": 63, "dateTime": 1664464850776, "trialdata": {"revealed_states": [], "num_clicks_accrued": [0, 0, 0, 0, 0, 0, 0, 0, 0, 0, 0, 0, 0], "stateRewards": ["", -2, 4, -48, -48, 4, 4, 48, -48, 2, 8, 24, 48], "withholdReward": true, "trial_id": "mdp_686771069745", "block": "test2", "trialIndex": 55, "score": 60.75, "costs": -0.25, "simulationMode": [null, null, null], "rewards": [4, 4, 48], "path": ["0", "0", "5", "6", "7"], "rt": [960, 130, 72], "actions": ["right", "right", "up"], "actionTimes": [1993, 2632, 3208], "queries": {"click": {"state": {"target": ["7"], "time": [1383]}, "edge": {"target": [], "time": []}}, "mouseover": {"state": {"target": ["7", "6", "8"], "time": [1202, 1535, 1652]}, "edge": {"target": [], "time": []}}, "mouseout": {"state": {"target": ["7", "5", "0", "7", "6", "8"], "time": [751, 851, 901, 1501, 1585, 9651]}, "edge": {"target": [], "time": []}}}, "displayed_time": "10.09", "trialTime": 10425, "trial_type": "mouselab-mdp", "trial_index": 63, "time_elapsed": 887786, "internal_node_id": "0.0-4.0-3.0-23.0"}}, {"uniqueid": "w26734936:a18571948", "current_trial": 64, "dateTime": 1664464860665, "trialdata": {"revealed_states": [], "num_clicks_accrued": [0, 0, 0, 0, 0, 0, 0, 0, 0, 0, 0, 0, 0], "stateRewards": ["", -2, 8, -24, 24, 2, -8, 48, -24, 2, 8, -24, -24], "withholdReward": true, "trial_id": "mdp_674708270444", "block": "test2", "trialIndex": 56, "score": 46.5, "costs": -0.5, "simulationMode": [null, null, null], "rewards": [2, -8, 48], "path": ["0", "0", "5", "6", "7"], "rt": [1941, 17, 11], "actions": ["right", "right", "up"], "actionTimes": [2335, 2863, 3391], "queries": {"click": {"state": {"target": ["8", "7"], "time": [792, 1334]}, "edge": {"target": [], "time": []}}, "mouseover": {"state": {"target": ["5", "8", "6", "7"], "time": [512, 678, 1046, 1229]}, "edge": {"target": [], "time": []}}, "mouseout": {"state": {"target": ["0", "5", "8", "6", "7", "5"], "time": [479, 578, 1013, 1129, 1561, 8862]}, "edge": {"target": [], "time": []}}}, "displayed_time": "9.45", "trialTime": 9808, "trial_type": "mouselab-mdp", "trial_index": 64, "time_elapsed": 897675, "internal_node_id": "0.0-4.0-3.0-24.0"}}, {"uniqueid": "w26734936:a18571948", "current_trial": 65, "dateTime": 1664464869963, "trialdata": {"revealed_states": [], "num_clicks_accrued": [0, 0, 0, 0, 0, 0, 0, 0, 0, 0, 0, 0, 0], "stateRewards": ["", -4, -4, -24, 48, -4, -8, -24, 48, 2, 4, 48, 48], "withholdReward": true, "trial_id": "mdp_810954007398", "block": "test2", "trialIndex": 57, "score": 40.5, "costs": -0.5, "simulationMode": [null, null, null], "rewards": [-4, -8, 48], "path": ["0", "0", "5", "6", "8"], "rt": [2186, 110, 163], "actions": ["right", "right", "down"], "actionTimes": [2575, 3200, 3872], "queries": {"click": {"state": {"target": ["7", "8"], "time": [1090, 1585]}, "edge": {"target": [], "time": []}}, "mouseover": {"state": {"target": ["0", "5", "7", "6", "8"], "time": [523, 640, 1039, 1373, 1457]}, "edge": {"target": [], "time": []}}, "mouseout": {"state": {"target": ["0", "0", "5", "7", "6", "8"], "time": [7, 557, 657, 1339, 1423, 1774]}, "edge": {"target": [], "time": []}}}, "displayed_time": "8.46", "trialTime": 9216, "trial_type": "mouselab-mdp", "trial_index": 65, "time_elapsed": 906973, "internal_node_id": "0.0-4.0-3.0-25.0"}}, {"uniqueid": "w26734936:a18571948", "current_trial": 66, "dateTime": 1664464880011, "trialdata": {"revealed_states": [], "num_clicks_accrued": [0, 0, 0, 0, 0, 0, 0, 0, 0, 0, 0, 0, 0], "stateRewards": ["", 4, 4, 48, -48, 4, 4, -48, 24, 2, 8, 24, -48], "withholdReward": true, "trial_id": "mdp_291674656283", "block": "test2", "trialIndex": 58, "score": 60, "costs": -1, "simulationMode": [null, null, null], "rewards": [4, 4, 48], "path": ["0", "0", "1", "2", "3"], "rt": [2881, 12, 53], "actions": ["up", "up", "right"], "actionTimes": [3378, 3905, 4482], "queries": {"click": {"state": {"target": ["11", "12", "4", "3"], "time": [967, 1509, 2011, 2444]}, "edge": {"target": [], "time": []}}, "mouseover": {"state": {"target": ["11", "10", "12", "9", "4", "2", "3"], "time": [878, 1244, 1378, 1728, 1927, 2194, 2344]}, "edge": {"target": [], "time": []}}, "mouseout": {"state": {"target": ["0", "11", "10", "12", "9", "4", "2", "3"], "time": [378, 1194, 1311, 1660, 1744, 2161, 2261, 2594]}, "edge": {"target": [], "time": []}}}, "displayed_time": "9.58", "trialTime": 9970, "trial_type": "mouselab-mdp", "trial_index": 66, "time_elapsed": 917021, "internal_node_id": "0.0-4.0-3.0-26.0"}}, {"uniqueid": "w26734936:a18571948", "current_trial": 67, "dateTime": 1664464891837, "trialdata": {"revealed_states": [], "num_clicks_accrued": [0, 0, 0, 0, 0, 0, 0, 0, 0, 0, 0, 0, 0], "stateRewards": ["", 2, -4, 48, -48, -2, 8, -48, 24, -2, -8, 48, 48], "withholdReward": true, "trial_id": "mdp_949326095747", "block": "test2", "trialIndex": 59, "score": 42.75, "costs": -0.25, "simulationMode": [null, null, null], "rewards": [-2, -8, 48], "path": ["0", "0", "9", "10", "11"], "rt": [2021, 82, 40], "actions": ["left", "left", "up"], "actionTimes": [4003, 4595, 5155], "queries": {"click": {"state": {"target": ["11"], "time": [2874]}, "edge": {"target": [], "time": []}}, "mouseover": {"state": {"target": ["9", "11", "10", "12"], "time": [2246, 2813, 3063, 3112]}, "edge": {"target": [], "time": []}}, "mouseout": {"state": {"target": ["0", "9", "11", "10"], "time": [2212, 2262, 3047, 3096]}, "edge": {"target": [], "time": []}}}, "displayed_time": "11.07", "trialTime": 11748, "trial_type": "mouselab-mdp", "trial_index": 67, "time_elapsed": 928847, "internal_node_id": "0.0-4.0-3.0-27.0"}}, {"uniqueid": "w26734936:a18571948", "current_trial": 68, "dateTime": 1664464902958, "trialdata": {"revealed_states": [], "num_clicks_accrued": [0, 0, 0, 0, 0, 0, 0, 0, 0, 0, 0, 0, 0], "stateRewards": ["", -2, 8, 48, 24, 2, -4, 48, -48, 2, 8, 24, -24], "withholdReward": true, "trial_id": "mdp_176207245985", "block": "test2", "trialIndex": 60, "score": 58, "costs": -1, "simulationMode": [null, null, null], "rewards": [-2, 8, 48], "path": ["0", "0", "1", "2", "3"], "rt": [3296, 54, 192], "actions": ["up", "up", "right"], "actionTimes": [4934, 5495, 6199], "queries": {"click": {"state": {"target": ["12", "11", "4", "3"], "time": [2212, 2696, 3428, 3926]}, "edge": {"target": [], "time": []}}, "mouseover": {"state": {"target": ["12", "10", "11", "4", "3"], "time": [2140, 2457, 2557, 3340, 3791]}, "edge": {"target": [], "time": []}}, "mouseout": {"state": {"target": ["12", "0", "0", "12", "10", "11", "4", "3"], "time": [1173, 1290, 1741, 2407, 2507, 3291, 3640, 4106]}, "edge": {"target": [], "time": []}}}, "displayed_time": "10.73", "trialTime": 11047, "trial_type": "mouselab-mdp", "trial_index": 68, "time_elapsed": 939968, "internal_node_id": "0.0-4.0-3.0-28.0"}}, {"uniqueid": "w26734936:a18571948", "current_trial": 69, "dateTime": 1664464915455, "trialdata": {"revealed_states": [], "num_clicks_accrued": [0, 0, 0, 0, 0, 0, 0, 0, 0, 0, 0, 0, 0], "stateRewards": ["", 2, 4, 24, 48, -2, 8, 24, -24, -4, -4, 48, 48], "withholdReward": true, "trial_id": "mdp_753439303214", "block": "test2", "trialIndex": 61, "score": 44.25, "costs": -0.75, "simulationMode": [null, null, null], "rewards": [-4, -4, 48], "path": ["0", "0", "9", "10", "12"], "rt": [2408, 74, 466], "actions": ["left", "left", "down"], "actionTimes": [5335, 5927, 6903], "queries": {"click": {"state": {"target": ["7", "8", "12"], "time": [3359, 3826, 4324]}, "edge": {"target": [], "time": []}}, "mouseover": {"state": {"target": ["5", "7", "6", "8", "12", "10", "11"], "time": [3086, 3236, 3552, 3669, 4252, 4569, 4636]}, "edge": {"target": [], "time": []}}, "mouseout": {"state": {"target": ["5", "0", "5", "7", "6", "8", "12", "10", "11", "9"], "time": [2719, 3035, 3102, 3502, 3619, 4036, 4536, 4602, 4802, 11669]}, "edge": {"target": [], "time": []}}}, "displayed_time": "12.00", "trialTime": 12423, "trial_type": "mouselab-mdp", "trial_index": 69, "time_elapsed": 952465, "internal_node_id": "0.0-4.0-3.0-29.0"}}, {"uniqueid": "w26734936:a18571948", "current_trial": 70, "dateTime": 1664464916848, "trialdata": {"rt": 1389, "stimulus": "<h1> End of block! </h1>\n\nYou have reached the end of the block 2/4. If you need a short break, feel free to take one now before moving on.\n\n<br><br>\nIn the next block, you will complete another 30 rounds of this game.\n\n<br><br>\n<div style='text-align: center;'>Press <code>space</code> to begin.</div>\n<br><br>\n<div style='text-align: center;'>(If the experiment doesn't continue, try clicking on the text and then pressing <code>space</code>.)</div>", "response": " ", "trial_id": "mdp_ready_3", "trial_type": "html-keyboard-response", "trial_index": 70, "time_elapsed": 953858, "internal_node_id": "0.0-4.0-4.0"}}, {"uniqueid": "w26734936:a18571948", "current_trial": 71, "dateTime": 1664464925889, "trialdata": {"revealed_states": [], "num_clicks_accrued": [0, 0, 0, 0, 0, 0, 0, 0, 0, 0, 0, 0, 0], "stateRewards": ["", 4, -8, -48, 24, 4, 4, -24, -24, 2, 4, -48, 24], "withholdReward": false, "trial_id": "mdp_626971397185", "block": "test3", "trialIndex": 62, "score": 33.5, "costs": -1.5, "simulationMode": [null, null, null], "rewards": [2, 4, 24], "path": ["0", "0", "9", "10", "12"], "rt": [4437, 462, 88], "actions": ["left", "left", "down"], "actionTimes": [4999, 5975, 6568], "queries": {"click": {"state": {"target": ["11", "12", "8", "7", "3", "4"], "time": [1378, 1880, 2376, 2860, 3320, 3754]}, "edge": {"target": [], "time": []}}, "mouseover": {"state": {"target": ["9", "11", "10", "12", "8", "6", "7", "3", "2", "4"], "time": [730, 1030, 1597, 1697, 2296, 2663, 2747, 3246, 3563, 3630]}, "edge": {"target": [], "time": []}}, "mouseout": {"state": {"target": ["0", "9", "11", "10", "12", "8", "6", "7", "3", "2", "4"], "time": [697, 780, 1547, 1663, 2063, 2630, 2713, 3113, 3496, 3597, 3996]}, "edge": {"target": [], "time": []}}}, "displayed_time": "8.63", "trialTime": 8968, "trial_type": "mouselab-mdp", "trial_index": 71, "time_elapsed": 962899, "internal_node_id": "0.0-4.0-5.0-0.0"}}, {"uniqueid": "w26734936:a18571948", "current_trial": 72, "dateTime": 1664464936002, "trialdata": {"revealed_states": [], "num_clicks_accrued": [0, 0, 0, 0, 0, 0, 0, 0, 0, 0, 0, 0, 0], "stateRewards": ["", 4, 4, -24, -48, 2, 4, 24, -48, 2, 4, 24, 24], "withholdReward": false, "trial_id": "mdp_223558518218", "block": "test3", "trialIndex": 63, "score": 33.5, "costs": -1.5, "simulationMode": [null, null, null], "rewards": [2, 4, 24], "path": ["0", "0", "9", "10", "11"], "rt": [4764, 374, 307], "actions": ["left", "left", "up"], "actionTimes": [5416, 6295, 7112], "queries": {"click": {"state": {"target": ["12", "11", "4", "3", "7", "8"], "time": [1723, 2202, 2790, 3408, 4051, 4496]}, "edge": {"target": [], "time": []}}, "mouseover": {"state": {"target": ["9", "12", "12", "12", "10", "11", "4", "2", "3", "3", "7", "6", "8"], "time": [838, 1122, 1355, 1580, 2022, 2089, 2504, 2988, 3038, 3338, 3904, 4255, 4372]}, "edge": {"target": [], "time": []}}, "mouseout": {"state": {"target": ["9", "12", "12", "12", "10", "11", "4", "2", "3", "3", "7", "6", "8"], "time": [872, 1221, 1405, 2006, 2055, 2371, 2955, 3022, 3089, 3588, 4222, 4322, 4688]}, "edge": {"target": [], "time": []}}}, "displayed_time": "9.74", "trialTime": 10040, "trial_type": "mouselab-mdp", "trial_index": 72, "time_elapsed": 973012, "internal_node_id": "0.0-4.0-5.0-1.0"}}, {"uniqueid": "w26734936:a18571948", "current_trial": 73, "dateTime": 1664464945092, "trialdata": {"revealed_states": [], "num_clicks_accrued": [0, 0, 0, 0, 0, 0, 0, 0, 0, 0, 0, 0, 0], "stateRewards": ["", 2, 4, 48, -48, 2, 4, 24, -24, 2, -4, -24, -48], "withholdReward": false, "trial_id": "mdp_706591889062", "block": "test3", "trialIndex": 64, "score": 57.5, "costs": -1.5, "simulationMode": [null, null, null], "rewards": [2, 4, 48], "path": ["0", "0", "1", "2", "3"], "rt": [4134, 41, 2], "actions": ["up", "up", "right"], "actionTimes": [4826, 5386, 5898], "queries": {"click": {"state": {"target": ["7", "8", "12", "11", "4", "3"], "time": [1275, 1805, 2412, 3046, 3567, 4084]}, "edge": {"target": [], "time": []}}, "mouseover": {"state": {"target": ["5", "7", "6", "8", "12", "10", "11", "4", "2", "3"], "time": [961, 1194, 1560, 1744, 2277, 2644, 2905, 3477, 3794, 4027]}, "edge": {"target": [], "time": []}}, "mouseout": {"state": {"target": ["0", "5", "7", "6", "8", "12", "10", "11", "4", "2"], "time": [910, 1044, 1461, 1661, 2010, 2593, 2727, 3360, 3744, 3894]}, "edge": {"target": [], "time": []}}}, "displayed_time": "8.74", "trialTime": 9018, "trial_type": "mouselab-mdp", "trial_index": 73, "time_elapsed": 982101, "internal_node_id": "0.0-4.0-5.0-2.0"}}, {"uniqueid": "w26734936:a18571948", "current_trial": 74, "dateTime": 1664464955140, "trialdata": {"revealed_states": [], "num_clicks_accrued": [0, 0, 0, 0, 0, 0, 0, 0, 0, 0, 0, 0, 0], "stateRewards": ["", -2, -4, -48, -48, 4, -4, 48, 24, 4, 4, 48, 48], "withholdReward": true, "trial_id": "mdp_950960813932", "block": "test3", "trialIndex": 65, "score": 60.75, "costs": -0.25, "simulationMode": [null, null, null], "rewards": [4, 4, 48], "path": ["0", "0", "9", "10", "12"], "rt": [1549, 25, 50], "actions": ["left", "left", "down"], "actionTimes": [2175, 2703, 3263], "queries": {"click": {"state": {"target": ["12"], "time": [1022]}, "edge": {"target": [], "time": []}}, "mouseover": {"state": {"target": ["0", "12", "0"], "time": [713, 878, 1244]}, "edge": {"target": [], "time": []}}, "mouseout": {"state": {"target": ["3", "10", "9", "0", "12", "0", "5"], "time": [44, 428, 511, 762, 1161, 1278, 7544]}, "edge": {"target": [], "time": []}}}, "displayed_time": "9.69", "trialTime": 9968, "trial_type": "mouselab-mdp", "trial_index": 74, "time_elapsed": 992150, "internal_node_id": "0.0-4.0-5.0-3.0"}}, {"uniqueid": "w26734936:a18571948", "current_trial": 75, "dateTime": 1664464964966, "trialdata": {"revealed_states": [], "num_clicks_accrued": [0, 0, 0, 0, 0, 0, 0, 0, 0, 0, 0, 0, 0], "stateRewards": ["", 2, -4, -48, 24, -4, 4, 24, 24, 2, -8, -24, -48], "withholdReward": false, "trial_id": "mdp_807654778305", "block": "test3", "trialIndex": 66, "score": 25.5, "costs": -1.5, "simulationMode": [null, null, null], "rewards": [2, -4, 24], "path": ["0", "0", "1", "2", "4"], "rt": [4805, 447, 154], "actions": ["up", "up", "left"], "actionTimes": [5186, 6146, 6818], "queries": {"click": {"state": {"target": ["8", "7", "11", "12", "4", "3"], "time": [1067, 1693, 2301, 2720, 3300, 3683]}, "edge": {"target": [], "time": []}}, "mouseover": {"state": {"target": ["8", "6", "7", "11", "10", "12", "9", "4", "2", "3"], "time": [875, 1464, 1547, 2197, 2465, 2581, 2980, 3180, 3447, 3531]}, "edge": {"target": [], "time": []}}, "mouseout": {"state": {"target": ["0", "8", "6", "7", "11", "10", "12", "9", "4", "2", "3"], "time": [497, 1397, 1497, 1863, 2431, 2531, 2881, 3030, 3431, 3497, 3814]}, "edge": {"target": [], "time": []}}}, "displayed_time": "9.44", "trialTime": 9747, "trial_type": "mouselab-mdp", "trial_index": 75, "time_elapsed": 1001976, "internal_node_id": "0.0-4.0-5.0-4.0"}}, {"uniqueid": "w26734936:a18571948", "current_trial": 76, "dateTime": 1664464974966, "trialdata": {"revealed_states": [], "num_clicks_accrued": [0, 0, 0, 0, 0, 0, 0, 0, 0, 0, 0, 0, 0], "stateRewards": ["", 4, 4, -24, -48, -4, 4, -48, 24, 4, -8, -48, 48], "withholdReward": true, "trial_id": "mdp_566768794366", "block": "test3", "trialIndex": 67, "score": 48, "costs": -1, "simulationMode": [null, null, null], "rewards": [4, -8, 48], "path": ["0", "0", "9", "10", "12"], "rt": [3176, 133, 315], "actions": ["left", "left", "down"], "actionTimes": [3678, 4318, 5150], "queries": {"click": {"state": {"target": ["4", "8", "7", "12"], "time": [1015, 1619, 2129, 2719]}, "edge": {"target": [], "time": []}}, "mouseover": {"state": {"target": ["4", "5", "8", "6", "7", "0", "12", "10", "11"], "time": [951, 1401, 1468, 1851, 1984, 2385, 2651, 3051, 3134]}, "edge": {"target": [], "time": []}}, "mouseout": {"state": {"target": ["0", "4", "5", "8", "6", "7", "0", "12", "10", "11"], "time": [435, 1218, 1436, 1818, 1934, 2301, 2401, 3019, 3084, 8318]}, "edge": {"target": [], "time": []}}}, "displayed_time": "9.59", "trialTime": 9918, "trial_type": "mouselab-mdp", "trial_index": 76, "time_elapsed": 1011976, "internal_node_id": "0.0-4.0-5.0-5.0"}}, {"uniqueid": "w26734936:a18571948", "current_trial": 77, "dateTime": 1664464983960, "trialdata": {"revealed_states": [], "num_clicks_accrued": [0, 0, 0, 0, 0, 0, 0, 0, 0, 0, 0, 0, 0], "stateRewards": ["", 2, -4, 48, -24, 4, -8, -24, 48, -2, -4, 24, -48], "withholdReward": true, "trial_id": "mdp_357328205509", "block": "test3", "trialIndex": 68, "score": 48, "costs": -1, "simulationMode": [null, null, null], "rewards": [4, -8, 48], "path": ["0", "0", "5", "6", "8"], "rt": [2937, 59, 19], "actions": ["right", "right", "down"], "actionTimes": [3153, 3729, 4258], "queries": {"click": {"state": {"target": ["12", "11", "7", "8"], "time": [624, 1193, 1745, 2133]}, "edge": {"target": [], "time": []}}, "mouseover": {"state": {"target": ["0", "12", "11", "1", "7", "6", "8", "6"], "time": [336, 503, 1069, 1403, 1670, 1920, 1987, 2336]}, "edge": {"target": [], "time": []}}, "mouseout": {"state": {"target": ["0", "0", "12", "11", "1", "7", "6", "8", "6"], "time": [182, 403, 753, 1336, 1419, 1886, 1953, 2319, 2353]}, "edge": {"target": [], "time": []}}}, "displayed_time": "8.28", "trialTime": 8913, "trial_type": "mouselab-mdp", "trial_index": 77, "time_elapsed": 1020970, "internal_node_id": "0.0-4.0-5.0-6.0"}}, {"uniqueid": "w26734936:a18571948", "current_trial": 78, "dateTime": 1664464997211, "trialdata": {"revealed_states": [], "num_clicks_accrued": [0, 0, 0, 0, 0, 0, 0, 0, 0, 0, 0, 0, 0], "stateRewards": ["", -2, 8, 48, -24, 2, 4, -48, -24, -4, 8, -48, -48], "withholdReward": true, "trial_id": "mdp_539167561933", "block": "test3", "trialIndex": 69, "score": 57.75, "costs": -1.25, "simulationMode": [null, null, null], "rewards": [-2, 8, 48], "path": ["0", "0", "1", "2", "3"], "rt": [3546, 283, 923], "actions": ["up", "up", "right"], "actionTimes": [4194, 4994, 6435], "queries": {"click": {"state": {"target": ["12", "11", "7", "8", "3"], "time": [1116, 1582, 2107, 2596, 3175]}, "edge": {"target": [], "time": []}}, "mouseover": {"state": {"target": ["0", "12", "10", "11", "1", "7", "6", "8", "6", "3", "2", "4"], "time": [760, 1060, 1394, 1444, 1778, 2060, 2294, 2477, 2794, 3061, 3377, 3527]}, "edge": {"target": [], "time": []}}, "mouseout": {"state": {"target": ["3", "1", "0", "12", "10", "11", "1", "7", "6", "8", "6", "7", "3", "2"], "time": [243, 394, 778, 1344, 1411, 1711, 1794, 2260, 2360, 2778, 2844, 2894, 3344, 3394]}, "edge": {"target": [], "time": []}}}, "displayed_time": "9.73", "trialTime": 13172, "trial_type": "mouselab-mdp", "trial_index": 78, "time_elapsed": 1034220, "internal_node_id": "0.0-4.0-5.0-7.0"}}, {"uniqueid": "w26734936:a18571948", "current_trial": 79, "dateTime": 1664465007963, "trialdata": {"revealed_states": [], "num_clicks_accrued": [0, 0, 0, 0, 0, 0, 0, 0, 0, 0, 0, 0, 0], "stateRewards": ["", 4, 8, 24, 24, 2, -4, 48, -24, -4, 8, -24, 24], "withholdReward": true, "trial_id": "mdp_932292142091", "block": "test3", "trialIndex": 70, "score": 50, "costs": -1, "simulationMode": [null, null, null], "rewards": [2, -4, 48], "path": ["0", "0", "5", "6", "7"], "rt": [2866, 108, 836], "actions": ["right", "right", "up"], "actionTimes": [4159, 4783, 6127], "queries": {"click": {"state": {"target": ["11", "12", "8", "7"], "time": [1727, 2132, 2601, 3175]}, "edge": {"target": [], "time": []}}, "mouseover": {"state": {"target": ["9", "11", "10", "12", "8", "6", "7"], "time": [1507, 1590, 1908, 1974, 2424, 2841, 2990]}, "edge": {"target": [], "time": []}}, "mouseout": {"state": {"target": ["4", "1", "9", "11", "10", "12", "8", "6", "7", "1", "9"], "time": [823, 973, 1557, 1874, 1942, 2291, 2808, 2858, 3390, 8974, 9041]}, "edge": {"target": [], "time": []}}}, "displayed_time": "10.37", "trialTime": 10671, "trial_type": "mouselab-mdp", "trial_index": 79, "time_elapsed": 1044972, "internal_node_id": "0.0-4.0-5.0-8.0"}}, {"uniqueid": "w26734936:a18571948", "current_trial": 80, "dateTime": 1664465017724, "trialdata": {"revealed_states": [], "num_clicks_accrued": [0, 0, 0, 0, 0, 0, 0, 0, 0, 0, 0, 0, 0], "stateRewards": ["", -2, -4, -48, -48, -2, -8, 48, -48, 4, -8, -48, 24], "withholdReward": false, "trial_id": "mdp_468495641521", "block": "test3", "trialIndex": 71, "score": 42, "costs": -1, "simulationMode": [null, null, null], "rewards": [-2, -8, 48], "path": ["0", "0", "5", "6", "7"], "rt": [3003, 82, 74], "actions": ["right", "right", "up"], "actionTimes": [3332, 3924, 4500], "queries": {"click": {"state": {"target": ["11", "12", "8", "7"], "time": [731, 1195, 1785, 2277]}, "edge": {"target": [], "time": []}}, "mouseover": {"state": {"target": ["9", "11", "10", "12", "8", "6", "7", "3"], "time": [542, 692, 942, 1059, 1726, 1992, 2109, 2543]}, "edge": {"target": [], "time": []}}, "mouseout": {"state": {"target": ["0", "9", "11", "10", "12", "8", "6", "7", "3"], "time": [475, 559, 892, 1009, 1326, 1959, 2025, 2442, 2710]}, "edge": {"target": [], "time": []}}}, "displayed_time": "9.41", "trialTime": 9685, "trial_type": "mouselab-mdp", "trial_index": 80, "time_elapsed": 1054734, "internal_node_id": "0.0-4.0-5.0-9.0"}}, {"uniqueid": "w26734936:a18571948", "current_trial": 81, "dateTime": 1664465026509, "trialdata": {"revealed_states": [], "num_clicks_accrued": [0, 0, 0, 0, 0, 0, 0, 0, 0, 0, 0, 0, 0], "stateRewards": ["", -2, 8, -48, 48, 4, -8, -48, 48, 4, -4, -24, 48], "withholdReward": true, "trial_id": "mdp_144739116828", "block": "test3", "trialIndex": 72, "score": 52.5, "costs": -0.5, "simulationMode": [null, null, null], "rewards": [4, -4, 48], "path": ["0", "0", "9", "10", "12"], "rt": [1887, 119, 31], "actions": ["left", "left", "down"], "actionTimes": [2258, 2882, 3426], "queries": {"click": {"state": {"target": ["11", "12"], "time": [790, 1248]}, "edge": {"target": [], "time": []}}, "mouseover": {"state": {"target": ["11", "10", "12"], "time": [712, 980, 1112]}, "edge": {"target": [], "time": []}}, "mouseout": {"state": {"target": ["0", "11", "10", "12"], "time": [512, 946, 1045, 1379]}, "edge": {"target": [], "time": []}}}, "displayed_time": "8.44", "trialTime": 8707, "trial_type": "mouselab-mdp", "trial_index": 81, "time_elapsed": 1063519, "internal_node_id": "0.0-4.0-5.0-10.0"}}, {"uniqueid": "w26734936:a18571948", "current_trial": 82, "dateTime": 1664465036436, "trialdata": {"revealed_states": [], "num_clicks_accrued": [0, 0, 0, 0, 0, 0, 0, 0, 0, 0, 0, 0, 0], "stateRewards": ["", 2, -4, -24, -24, -2, -8, -48, 24, -4, -8, 24, 24], "withholdReward": true, "trial_id": "mdp_521351546461", "block": "test3", "trialIndex": 73, "score": 17.5, "costs": -1.5, "simulationMode": [null, null, null], "rewards": [-2, -8, 24], "path": ["0", "0", "5", "6", "8"], "rt": [4825, 361, 149], "actions": ["right", "right", "down"], "actionTimes": [5091, 5956, 6611], "queries": {"click": {"state": {"target": ["12", "7", "8", "11", "4", "3"], "time": [815, 1969, 2341, 3001, 3494, 3918]}, "edge": {"target": [], "time": []}}, "mouseover": {"state": {"target": ["12", "0", "5", "7", "6", "8", "0", "9", "11", "4", "2", "3"], "time": [694, 1178, 1345, 1912, 2128, 2211, 2611, 2645, 2928, 3395, 3678, 3828]}, "edge": {"target": [], "time": []}}, "mouseout": {"state": {"target": ["0", "12", "0", "5", "7", "6", "8", "0", "9", "11", "4", "2", "3", "1"], "time": [395, 1011, 1311, 1395, 2078, 2162, 2545, 2628, 2662, 3178, 3578, 3728, 9694, 9845]}, "edge": {"target": [], "time": []}}}, "displayed_time": "9.33", "trialTime": 9850, "trial_type": "mouselab-mdp", "trial_index": 82, "time_elapsed": 1073446, "internal_node_id": "0.0-4.0-5.0-11.0"}}, {"uniqueid": "w26734936:a18571948", "current_trial": 83, "dateTime": 1664465045775, "trialdata": {"revealed_states": [], "num_clicks_accrued": [0, 0, 0, 0, 0, 0, 0, 0, 0, 0, 0, 0, 0], "stateRewards": ["", 4, 8, -24, 48, -2, -4, 24, -24, -2, 4, 24, 24], "withholdReward": true, "trial_id": "mdp_948713805479", "block": "test3", "trialIndex": 74, "score": 63.5, "costs": -1.5, "simulationMode": [null, null, null], "rewards": [4, 8, 48], "path": ["0", "0", "1", "2", "4"], "rt": [3486, 58, 213], "actions": ["up", "up", "left"], "actionTimes": [3905, 4480, 5201], "queries": {"click": {"state": {"target": ["8", "12", "11", "7", "3", "4"], "time": [798, 1331, 1831, 2288, 2758, 3163]}, "edge": {"target": [], "time": []}}, "mouseover": {"state": {"target": ["0", "8", "12", "10", "11", "1", "7", "3", "2", "4"], "time": [471, 687, 1287, 1604, 1721, 2037, 2154, 2637, 2938, 3004]}, "edge": {"target": [], "time": []}}, "mouseout": {"state": {"target": ["0", "0", "8", "12", "10", "11", "1", "7", "3", "2", "4"], "time": [337, 521, 937, 1554, 1671, 1970, 2071, 2436, 2904, 2972, 8354]}, "edge": {"target": [], "time": []}}}, "displayed_time": "8.47", "trialTime": 9265, "trial_type": "mouselab-mdp", "trial_index": 83, "time_elapsed": 1082785, "internal_node_id": "0.0-4.0-5.0-12.0"}}, {"uniqueid": "w26734936:a18571948", "current_trial": 84, "dateTime": 1664465054704, "trialdata": {"revealed_states": [], "num_clicks_accrued": [0, 0, 0, 0, 0, 0, 0, 0, 0, 0, 0, 0, 0], "stateRewards": ["", 2, -8, 24, 24, 4, -4, -24, -48, 4, 8, 24, 24], "withholdReward": true, "trial_id": "mdp_249803813713", "block": "test3", "trialIndex": 75, "score": 21.5, "costs": -1.5, "simulationMode": [null, null, null], "rewards": [2, -8, 24], "path": ["0", "0", "1", "2", "3"], "rt": [4253, 55, 33], "actions": ["up", "up", "right"], "actionTimes": [4706, 5266, 5810], "queries": {"click": {"state": {"target": ["12", "11", "4", "3", "7", "8"], "time": [959, 1354, 1778, 2226, 2958, 3463]}, "edge": {"target": [], "time": []}}, "mouseover": {"state": {"target": ["9", "10", "12", "10", "11", "4", "2", "3", "7", "7", "6", "8", "8"], "time": [694, 793, 843, 1110, 1193, 1677, 1910, 2060, 2394, 2860, 3110, 3176, 3426]}, "edge": {"target": [], "time": []}}, "mouseout": {"state": {"target": ["0", "9", "10", "12", "10", "11", "4", "2", "3", "7", "7", "6", "8", "8", "8", "8"], "time": [377, 743, 810, 1077, 1161, 1477, 1893, 1960, 2343, 2744, 3077, 3144, 3226, 3593, 8009, 8376]}, "edge": {"target": [], "time": []}}}, "displayed_time": "8.50", "trialTime": 8834, "trial_type": "mouselab-mdp", "trial_index": 84, "time_elapsed": 1091714, "internal_node_id": "0.0-4.0-5.0-13.0"}}, {"uniqueid": "w26734936:a18571948", "current_trial": 85, "dateTime": 1664465063666, "trialdata": {"revealed_states": [], "num_clicks_accrued": [0, 0, 0, 0, 0, 0, 0, 0, 0, 0, 0, 0, 0], "stateRewards": ["", -4, 8, 24, -24, -2, 4, -24, 48, -2, 8, -48, -24], "withholdReward": true, "trial_id": "mdp_799359103169", "block": "test3", "trialIndex": 76, "score": 54.75, "costs": -0.25, "simulationMode": [null, null, null], "rewards": [-2, 4, 48], "path": ["0", "0", "5", "6", "8"], "rt": [1476, 207, 50], "actions": ["right", "right", "down"], "actionTimes": [2012, 2732, 3292], "queries": {"click": {"state": {"target": ["8"], "time": [959]}, "edge": {"target": [], "time": []}}, "mouseover": {"state": {"target": ["8"], "time": [875]}, "edge": {"target": [], "time": []}}, "mouseout": {"state": {"target": ["0", "8", "8"], "time": [692, 1275, 5545]}, "edge": {"target": [], "time": []}}}, "displayed_time": "8.60", "trialTime": 8878, "trial_type": "mouselab-mdp", "trial_index": 85, "time_elapsed": 1100676, "internal_node_id": "0.0-4.0-5.0-14.0"}}, {"uniqueid": "w26734936:a18571948", "current_trial": 86, "dateTime": 1664465072482, "trialdata": {"revealed_states": [], "num_clicks_accrued": [0, 0, 0, 0, 0, 0, 0, 0, 0, 0, 0, 0, 0], "stateRewards": ["", 4, 4, 48, -24, -4, -8, 24, -24, 2, -8, -24, 24], "withholdReward": false, "trial_id": "mdp_933201675789", "block": "test3", "trialIndex": 77, "score": 60, "costs": -1, "simulationMode": [null, null, null], "rewards": [4, 4, 48], "path": ["0", "0", "1", "2", "3"], "rt": [2731, 46, 407], "actions": ["up", "up", "right"], "actionTimes": [3085, 3645, 4558], "queries": {"click": {"state": {"target": ["12", "11", "4", "3"], "time": [795, 1281, 1659, 2082]}, "edge": {"target": [], "time": []}}, "mouseover": {"state": {"target": ["0", "12", "11", "4", "2", "3", "7"], "time": [433, 748, 1199, 1583, 1849, 1966, 2332]}, "edge": {"target": [], "time": []}}, "mouseout": {"state": {"target": ["0", "0", "12", "11", "4", "2", "3", "7"], "time": [265, 516, 983, 1466, 1798, 1916, 2215, 7649]}, "edge": {"target": [], "time": []}}}, "displayed_time": "8.40", "trialTime": 8718, "trial_type": "mouselab-mdp", "trial_index": 86, "time_elapsed": 1109492, "internal_node_id": "0.0-4.0-5.0-15.0"}}, {"uniqueid": "w26734936:a18571948", "current_trial": 87, "dateTime": 1664465081299, "trialdata": {"revealed_states": [], "num_clicks_accrued": [0, 0, 0, 0, 0, 0, 0, 0, 0, 0, 0, 0, 0], "stateRewards": ["", 4, -8, -48, 48, -2, 8, -48, 48, -2, -4, 24, -48], "withholdReward": true, "trial_id": "mdp_400558136089", "block": "test3", "trialIndex": 78, "score": 58.5, "costs": -0.5, "simulationMode": [null, null, null], "rewards": [-2, 8, 48], "path": ["0", "0", "5", "6", "8"], "rt": [1832, 114, 313], "actions": ["right", "right", "down"], "actionTimes": [2235, 2860, 3675], "queries": {"click": {"state": {"target": ["7", "8"], "time": [870, 1210]}, "edge": {"target": [], "time": []}}, "mouseover": {"state": {"target": ["5", "7", "6", "8"], "time": [612, 729, 1046, 1129]}, "edge": {"target": [], "time": []}}, "mouseout": {"state": {"target": ["5", "7", "6", "8"], "time": [662, 1012, 1096, 1362]}, "edge": {"target": [], "time": []}}}, "displayed_time": "8.45", "trialTime": 8731, "trial_type": "mouselab-mdp", "trial_index": 87, "time_elapsed": 1118309, "internal_node_id": "0.0-4.0-5.0-16.0"}}, {"uniqueid": "w26734936:a18571948", "current_trial": 88, "dateTime": 1664465091316, "trialdata": {"revealed_states": [], "num_clicks_accrued": [0, 0, 0, 0, 0, 0, 0, 0, 0, 0, 0, 0, 0], "stateRewards": ["", -4, -4, 24, -48, -2, 8, -24, -48, -4, 4, 24, -48], "withholdReward": true, "trial_id": "mdp_934626330092", "block": "test3", "trialIndex": 79, "score": 19.5, "costs": -1.5, "simulationMode": [null, null, null], "rewards": [-4, -4, 24], "path": ["0", "0", "1", "2", "3"], "rt": [4326, 8, 373], "actions": ["up", "up", "right"], "actionTimes": [4868, 5381, 6277], "queries": {"click": {"state": {"target": ["12", "11", "4", "3", "7", "8"], "time": [897, 1531, 1965, 2338, 3092, 3578]}, "edge": {"target": [], "time": []}}, "mouseover": {"state": {"target": ["12", "10", "11", "