{"condition": 1, "counterbalance": 0, "assignmentId": "a49997480", "workerId": "w58231239", "hitId": "h88228764", "currenttrial": 155, "bonus": 0, "data": [{"uniqueid": "w58231239:a49997480", "current_trial": 0, "dateTime": 1664463988485, "trialdata": {"success": true, "trial_type": "fullscreen", "trial_index": 0, "time_elapsed": 52639, "internal_node_id": "0.0-0.0"}}, {"uniqueid": "w58231239:a49997480", "current_trial": 1, "dateTime": 1664464038078, "trialdata": {"view_history": [{"page_index": 0, "viewing_time": 49590}], "rt": 49591, "trial_id": "exp_instructions_no_distractor", "trial_type": "instructions", "trial_index": 1, "time_elapsed": 102232, "internal_node_id": "0.0-1.0"}}, {"uniqueid": "w58231239:a49997480", "current_trial": 2, "dateTime": 1664464055963, "trialdata": {"success": true, "trial_type": "fullscreen", "trial_index": 2, "time_elapsed": 120117, "internal_node_id": "0.0-2.0-0.0"}}, {"uniqueid": "w58231239:a49997480", "current_trial": 3, "dateTime": 1664464203803, "trialdata": {"view_history": [{"page_index": 0, "viewing_time": 80355}, {"page_index": 1, "viewing_time": 24857}, {"page_index": 2, "viewing_time": 12977}, {"page_index": 3, "viewing_time": 5100}, {"page_index": 4, "viewing_time": 24549}], "rt": 147839, "trial_id": "mouselab_instructions_1", "trial_type": "instructions", "trial_index": 3, "time_elapsed": 267957, "internal_node_id": "0.0-2.0-1.0"}}, {"uniqueid": "w58231239:a49997480", "current_trial": 4, "dateTime": 1664464218202, "trialdata": {"revealed_states": [], "num_clicks_accrued": [0, 0, 0, 0, 0, 0, 0, 0, 0, 0, 0, 0, 0], "stateRewards": ["", -10, 10, -10, -10, -10, -10, -10, 10, 10, -10, -10, 10], "withholdReward": false, "trial_id": "practice_1", "block": "test", "trialIndex": 0, "score": -28, "costs": 0, "simulationMode": [null, null, null], "rewards": [-10, -10, -10], "path": ["0", "0", "5", "6", "7"], "rt": [1006, 1982, 1457], "actions": ["right", "right", "up"], "actionTimes": [4693, 7188, 9150], "queries": {"click": {"state": {"target": [], "time": []}, "edge": {"target": [], "time": []}}, "mouseover": {"state": {"target": [], "time": []}, "edge": {"target": [], "time": []}}, "mouseout": {"state": {"target": [], "time": []}, "edge": {"target": [], "time": []}}}, "displayed_time": "9.66", "trialTime": 12867, "trial_type": "mouselab-mdp", "trial_index": 4, "time_elapsed": 282356, "internal_node_id": "0.0-2.0-2.0-0.0"}}, {"uniqueid": "w58231239:a49997480", "current_trial": 5, "dateTime": 1664464229926, "trialdata": {"revealed_states": [], "num_clicks_accrued": [0, 0, 0, 0, 0, 0, 0, 0, 0, 0, 0, 0, 0], "stateRewards": ["", 10, 10, -10, 10, -10, -10, 10, 10, -10, 10, 10, -10], "withholdReward": false, "trial_id": "practice_2", "block": "test", "trialIndex": 1, "score": 32, "costs": 0, "simulationMode": [null, null, null], "rewards": [10, 10, 10], "path": ["0", "0", "1", "2", "4"], "rt": [2086, 1511, 558], "actions": ["up", "up", "left"], "actionTimes": [5851, 7869, 8937], "queries": {"click": {"state": {"target": [], "time": []}, "edge": {"target": [], "time": []}}, "mouseover": {"state": {"target": [], "time": []}, "edge": {"target": [], "time": []}}, "mouseout": {"state": {"target": ["0"], "time": [2934]}, "edge": {"target": [], "time": []}}}, "displayed_time": "9.45", "trialTime": 11687, "trial_type": "mouselab-mdp", "trial_index": 5, "time_elapsed": 294080, "internal_node_id": "0.0-2.0-2.0-1.0"}}, {"uniqueid": "w58231239:a49997480", "current_trial": 6, "dateTime": 1664464250704, "trialdata": {"view_history": [{"page_index": 0, "viewing_time": 7802}, {"page_index": 1, "viewing_time": 6554}, {"page_index": 2, "viewing_time": 6420}], "rt": 20776, "trial_id": "mouselab_instructions_2_scarce", "trial_type": "instructions", "trial_index": 6, "time_elapsed": 314858, "internal_node_id": "0.0-2.0-3.0"}}, {"uniqueid": "w58231239:a49997480", "current_trial": 7, "dateTime": 1664464291032, "trialdata": {"rt": 40325, "response": {"Q0": "$-48 to $48", "Q1": "The cost is always $0.25.", "Q2": "The better I perform the higher my bonus will be.", "Q3": "No, the amount of cash at each node of the web may be different each time.", "Q4": "The values of the nodes walked through from start to finish.", "Q5": "No, the score will only be displayed once at the end of the game."}, "question_order": [0, 1, 2, 3, 4, 5], "correct": {"Q0": "$-48 to $48", "Q1": "The cost is always $0.25.", "Q2": "The better I perform the higher my bonus will be.", "Q3": "No, the amount of cash at each node of the web may be different each time.", "Q4": "The values of the nodes walked through from start to finish.", "Q5": "No, the spider might forget to count the money on some rounds."}, "trial_id": "mouselab_quiz_scarce", "trial_type": "survey-multi-choice", "trial_index": 7, "time_elapsed": 355186, "internal_node_id": "0.0-2.0-4.0"}}, {"uniqueid": "w58231239:a49997480", "current_trial": 8, "dateTime": 1664464305494, "trialdata": {"success": true, "trial_type": "fullscreen", "trial_index": 8, "time_elapsed": 369648, "internal_node_id": "0.0-2.1-0.1"}}, {"uniqueid": "w58231239:a49997480", "current_trial": 9, "dateTime": 1664464358641, "trialdata": {"view_history": [{"page_index": 0, "viewing_time": 27504}, {"page_index": 1, "viewing_time": 12169}, {"page_index": 2, "viewing_time": 4949}, {"page_index": 3, "viewing_time": 2637}, {"page_index": 4, "viewing_time": 5885}], "rt": 53146, "trial_id": "mouselab_instructions_1", "trial_type": "instructions", "trial_index": 9, "time_elapsed": 422795, "internal_node_id": "0.0-2.1-1.1"}}, {"uniqueid": "w58231239:a49997480", "current_trial": 10, "dateTime": 1664464366596, "trialdata": {"revealed_states": [], "num_clicks_accrued": [0, 0, 0, 0, 0, 0, 0, 0, 0, 0, 0, 0, 0], "stateRewards": ["", -10, 10, -10, -10, -10, -10, -10, 10, 10, -10, -10, 10], "withholdReward": false, "trial_id": "practice_1", "block": "test", "trialIndex": 2, "score": 12, "costs": 0, "simulationMode": [null, null, null], "rewards": [10, -10, 10], "path": ["0", "0", "9", "10", "12"], "rt": [1064, 359, 591], "actions": ["left", "left", "down"], "actionTimes": [3726, 4587, 5680], "queries": {"click": {"state": {"target": [], "time": []}, "edge": {"target": [], "time": []}}, "mouseover": {"state": {"target": [], "time": []}, "edge": {"target": [], "time": []}}, "mouseout": {"state": {"target": ["5", "0"], "time": [1762, 2381]}, "edge": {"target": [], "time": []}}}, "displayed_time": "6.19", "trialTime": 7911, "trial_type": "mouselab-mdp", "trial_index": 10, "time_elapsed": 430749, "internal_node_id": "0.0-2.1-2.1-0.1"}}, {"uniqueid": "w58231239:a49997480", "current_trial": 11, "dateTime": 1664464373705, "trialdata": {"revealed_states": [], "num_clicks_accrued": [0, 0, 0, 0, 0, 0, 0, 0, 0, 0, 0, 0, 0], "stateRewards": ["", 10, 10, -10, 10, -10, -10, 10, 10, -10, 10, 10, -10], "withholdReward": false, "trial_id": "practice_2", "block": "test", "trialIndex": 3, "score": -8, "costs": 0, "simulationMode": [null, null, null], "rewards": [-10, -10, 10], "path": ["0", "0", "5", "6", "7"], "rt": [1420, 248, 247], "actions": ["right", "right", "up"], "actionTimes": [3744, 4503, 5259], "queries": {"click": {"state": {"target": [], "time": []}, "edge": {"target": [], "time": []}}, "mouseover": {"state": {"target": [], "time": []}, "edge": {"target": [], "time": []}}, "mouseout": {"state": {"target": ["0"], "time": [2006]}, "edge": {"target": [], "time": []}}}, "displayed_time": "5.77", "trialTime": 7076, "trial_type": "mouselab-mdp", "trial_index": 11, "time_elapsed": 437859, "internal_node_id": "0.0-2.1-2.1-1.1"}}, {"uniqueid": "w58231239:a49997480", "current_trial": 12, "dateTime": 1664464400245, "trialdata": {"view_history": [{"page_index": 0, "viewing_time": 11284}, {"page_index": 1, "viewing_time": 13364}, {"page_index": 2, "viewing_time": 1889}], "rt": 26539, "trial_id": "mouselab_instructions_2_scarce", "trial_type": "instructions", "trial_index": 12, "time_elapsed": 464399, "internal_node_id": "0.0-2.1-3.1"}}, {"uniqueid": "w58231239:a49997480", "current_trial": 13, "dateTime": 1664464436407, "trialdata": {"rt": 36159, "response": {"Q0": "$-48 to $48", "Q1": "The cost is always $0.25.", "Q2": "The better I perform the higher my bonus will be.", "Q3": "No, the amount of cash at each node of the web may be different each time.", "Q4": "The values of the nodes walked through from start to finish.", "Q5": "No, the score will only be displayed once at the end of the game."}, "question_order": [0, 1, 2, 3, 4, 5], "correct": {"Q0": "$-48 to $48", "Q1": "The cost is always $0.25.", "Q2": "The better I perform the higher my bonus will be.", "Q3": "No, the amount of cash at each node of the web may be different each time.", "Q4": "The values of the nodes walked through from start to finish.", "Q5": "No, the spider might forget to count the money on some rounds."}, "trial_id": "mouselab_quiz_scarce", "trial_type": "survey-multi-choice", "trial_index": 13, "time_elapsed": 500561, "internal_node_id": "0.0-2.1-4.1"}}, {"uniqueid": "w58231239:a49997480", "current_trial": 14, "dateTime": 1664467530539, "trialdata": {"success": true, "trial_type": "fullscreen", "trial_index": 14, "time_elapsed": 3594693, "internal_node_id": "0.0-2.2-0.2"}}, {"uniqueid": "w58231239:a49997480", "current_trial": 15, "dateTime": 1664467645628, "trialdata": {"view_history": [{"page_index": 0, "viewing_time": 26014}, {"page_index": 1, "viewing_time": 30711}, {"page_index": 2, "viewing_time": 15302}, {"page_index": 3, "viewing_time": 11141}, {"page_index": 4, "viewing_time": 31918}], "rt": 115088, "trial_id": "mouselab_instructions_1", "trial_type": "instructions", "trial_index": 15, "time_elapsed": 3709782, "internal_node_id": "0.0-2.2-1.2"}}, {"uniqueid": "w58231239:a49997480", "current_trial": 16, "dateTime": 1664467652335, "trialdata": {"revealed_states": [], "num_clicks_accrued": [0, 0, 0, 0, 0, 0, 0, 0, 0, 0, 0, 0, 0], "stateRewards": ["", -10, 10, -10, -10, -10, -10, -10, 10, 10, -10, -10, 10], "withholdReward": false, "trial_id": "practice_1", "block": "test", "trialIndex": 4, "score": -28, "costs": 0, "simulationMode": [null, null, null], "rewards": [-10, -10, -10], "path": ["0", "0", "5", "6", "7"], "rt": [784, 782, 380], "actions": ["right", "right", "up"], "actionTimes": [2768, 4060, 4949], "queries": {"click": {"state": {"target": [], "time": []}, "edge": {"target": [], "time": []}}, "mouseover": {"state": {"target": [], "time": []}, "edge": {"target": [], "time": []}}, "mouseout": {"state": {"target": [], "time": []}, "edge": {"target": [], "time": []}}}, "displayed_time": "5.45", "trialTime": 6663, "trial_type": "mouselab-mdp", "trial_index": 16, "time_elapsed": 3716489, "internal_node_id": "0.0-2.2-2.2-0.2"}}, {"uniqueid": "w58231239:a49997480", "current_trial": 17, "dateTime": 1664467658829, "trialdata": {"revealed_states": [], "num_clicks_accrued": [0, 0, 0, 0, 0, 0, 0, 0, 0, 0, 0, 0, 0], "stateRewards": ["", 10, 10, -10, 10, -10, -10, 10, 10, -10, 10, 10, -10], "withholdReward": false, "trial_id": "practice_2", "block": "test", "trialIndex": 5, "score": -8, "costs": 0, "simulationMode": [null, null, null], "rewards": [-10, 10, -10], "path": ["0", "0", "9", "10", "12"], "rt": [844, 458, 165], "actions": ["left", "left", "down"], "actionTimes": [3248, 4217, 4890], "queries": {"click": {"state": {"target": [], "time": []}, "edge": {"target": [], "time": []}}, "mouseover": {"state": {"target": [], "time": []}, "edge": {"target": [], "time": []}}, "mouseout": {"state": {"target": ["0"], "time": [2286]}, "edge": {"target": [], "time": []}}}, "displayed_time": "5.40", "trialTime": 6458, "trial_type": "mouselab-mdp", "trial_index": 17, "time_elapsed": 3722983, "internal_node_id": "0.0-2.2-2.2-1.2"}}, {"uniqueid": "w58231239:a49997480", "current_trial": 18, "dateTime": 1664467771405, "trialdata": {"view_history": [{"page_index": 0, "viewing_time": 70353}, {"page_index": 1, "viewing_time": 3600}, {"page_index": 0, "viewing_time": 1612}, {"page_index": 1, "viewing_time": 29297}, {"page_index": 2, "viewing_time": 7710}], "rt": 112574, "trial_id": "mouselab_instructions_2_scarce", "trial_type": "instructions", "trial_index": 18, "time_elapsed": 3835559, "internal_node_id": "0.0-2.2-3.2"}}, {"uniqueid": "w58231239:a49997480", "current_trial": 19, "dateTime": 1664467831961, "trialdata": {"rt": 60553, "response": {"Q0": "$-48 to $48", "Q1": "The cost is always $0.25.", "Q2": "The better I perform the higher my bonus will be.", "Q3": "No, the amount of cash at each node of the web may be different each time.", "Q4": "The score for a round is random.", "Q5": "Yes."}, "question_order": [0, 1, 2, 3, 4, 5], "correct": {"Q0": "$-48 to $48", "Q1": "The cost is always $0.25.", "Q2": "The better I perform the higher my bonus will be.", "Q3": "No, the amount of cash at each node of the web may be different each time.", "Q4": "The values of the nodes walked through from start to finish.", "Q5": "No, the spider might forget to count the money on some rounds."}, "trial_id": "mouselab_quiz_scarce", "trial_type": "survey-multi-choice", "trial_index": 19, "time_elapsed": 3896115, "internal_node_id": "0.0-2.2-4.2"}}, {"uniqueid": "w58231239:a49997480", "current_trial": 20, "dateTime": 1664467838715, "trialdata": {"success": true, "trial_type": "fullscreen", "trial_index": 20, "time_elapsed": 3902869, "internal_node_id": "0.0-2.3-0.3"}}, {"uniqueid": "w58231239:a49997480", "current_trial": 21, "dateTime": 1664467946742, "trialdata": {"view_history": [{"page_index": 0, "viewing_time": 85245}, {"page_index": 1, "viewing_time": 11134}, {"page_index": 0, "viewing_time": 3064}, {"page_index": 1, "viewing_time": 1125}, {"page_index": 2, "viewing_time": 2818}, {"page_index": 3, "viewing_time": 2567}, {"page_index": 4, "viewing_time": 2073}], "rt": 108026, "trial_id": "mouselab_instructions_1", "trial_type": "instructions", "trial_index": 21, "time_elapsed": 4010895, "internal_node_id": "0.0-2.3-1.3"}}, {"uniqueid": "w58231239:a49997480", "current_trial": 22, "dateTime": 1664467952447, "trialdata": {"revealed_states": [], "num_clicks_accrued": [0, 0, 0, 0, 0, 0, 0, 0, 0, 0, 0, 0, 0], "stateRewards": ["", -10, 10, -10, -10, -10, -10, -10, 10, 10, -10, -10, 10], "withholdReward": false, "trial_id": "practice_1", "block": "test", "trialIndex": 6, "score": -8, "costs": 0, "simulationMode": [null, null, null], "rewards": [-10, 10, -10], "path": ["0", "0", "1", "2", "3"], "rt": [897, 224, 183], "actions": ["up", "up", "right"], "actionTimes": [2718, 3453, 4148], "queries": {"click": {"state": {"target": [], "time": []}, "edge": {"target": [], "time": []}}, "mouseover": {"state": {"target": [], "time": []}, "edge": {"target": [], "time": []}}, "mouseout": {"state": {"target": [], "time": []}, "edge": {"target": [], "time": []}}}, "displayed_time": "4.66", "trialTime": 5663, "trial_type": "mouselab-mdp", "trial_index": 22, "time_elapsed": 4016600, "internal_node_id": "0.0-2.3-2.3-0.3"}}, {"uniqueid": "w58231239:a49997480", "current_trial": 23, "dateTime": 1664467957866, "trialdata": {"revealed_states": [], "num_clicks_accrued": [0, 0, 0, 0, 0, 0, 0, 0, 0, 0, 0, 0, 0], "stateRewards": ["", 10, 10, -10, 10, -10, -10, 10, 10, -10, 10, 10, -10], "withholdReward": false, "trial_id": "practice_2", "block": "test", "trialIndex": 7, "score": 32, "costs": 0, "simulationMode": [null, null, null], "rewards": [10, 10, 10], "path": ["0", "0", "1", "2", "4"], "rt": [1342, 490, 146], "actions": ["up", "up", "left"], "actionTimes": [2411, 3411, 4061], "queries": {"click": {"state": {"target": [], "time": []}, "edge": {"target": [], "time": []}}, "mouseover": {"state": {"target": [], "time": []}, "edge": {"target": [], "time": []}}, "mouseout": {"state": {"target": [], "time": []}, "edge": {"target": [], "time": []}}}, "displayed_time": "4.57", "trialTime": 5387, "trial_type": "mouselab-mdp", "trial_index": 23, "time_elapsed": 4022020, "internal_node_id": "0.0-2.3-2.3-1.3"}}, {"uniqueid": "w58231239:a49997480", "current_trial": 24, "dateTime": 1664468017310, "trialdata": {"view_history": [{"page_index": 0, "viewing_time": 43689}, {"page_index": 1, "viewing_time": 7792}, {"page_index": 2, "viewing_time": 7961}], "rt": 59442, "trial_id": "mouselab_instructions_2_scarce", "trial_type": "instructions", "trial_index": 24, "time_elapsed": 4081464, "internal_node_id": "0.0-2.3-3.3"}}, {"uniqueid": "w58231239:a49997480", "current_trial": 25, "dateTime": 1664468066616, "trialdata": {"rt": 49303, "response": {"Q0": "$-48 to $48", "Q1": "The cost is always $0.25.", "Q2": "The better I perform the higher my bonus will be.", "Q3": "No, the amount of cash at each node of the web may be different each time.", "Q4": "The values of the nodes walked through from start to finish.", "Q5": "No, the spider might forget to count the money on some rounds."}, "question_order": [0, 1, 2, 3, 4, 5], "correct": {"Q0": "$-48 to $48", "Q1": "The cost is always $0.25.", "Q2": "The better I perform the higher my bonus will be.", "Q3": "No, the amount of cash at each node of the web may be different each time.", "Q4": "The values of the nodes walked through from start to finish.", "Q5": "No, the spider might forget to count the money on some rounds."}, "trial_id": "mouselab_quiz_scarce", "trial_type": "survey-multi-choice", "trial_index": 25, "time_elapsed": 4130770, "internal_node_id": "0.0-2.3-4.3"}}, {"uniqueid": "w58231239:a49997480", "current_trial": 26, "dateTime": 1664468069739, "trialdata": {"rt": 3118, "stimulus": "\n<h1> Get ready to start the game! </h1>\n\nThank you for reading the instructions. Get ready start with the first of 4 block(s) of this game.\n<br><br>\nIn this first block, you will complete 30 rounds of this game before moving on.\n<br><br>\nRemember, the more money the spider gets, the bigger your bonus will be!\n<br><br>\n<div style='text-align: center;'>Press <code>space</code> to begin.</div>\n\n<br><br>\n(If, at any point, the <code>space</code> key does not take you to the next page, click once on the text and try again.)", "response": " ", "trial_id": "mdp_ready_1", "trial_type": "html-keyboard-response", "trial_index": 26, "time_elapsed": 4133893, "internal_node_id": "0.0-4.0-0.0"}}, {"uniqueid": "w58231239:a49997480", "current_trial": 27, "dateTime": 1664468082440, "trialdata": {"revealed_states": [], "num_clicks_accrued": [0, 0, 0, 0, 0, 0, 0, 0, 0, 0, 0, 0, 0], "stateRewards": ["", -4, -4, -24, -48, -4, 8, -24, -48, 4, -8, 24, -24], "withholdReward": false, "trial_id": "mdp_924927483179", "block": "test1", "trialIndex": 8, "score": -15, "costs": 0, "simulationMode": [null, null, null], "rewards": [-4, 8, -24], "path": ["0", "0", "5", "6", "7"], "rt": [1070, 251, 269], "actions": ["right", "right", "up"], "actionTimes": [3310, 4076, 4850], "queries": {"click": {"state": {"target": [], "time": []}, "edge": {"target": [], "time": []}}, "mouseover": {"state": {"target": [], "time": []}, "edge": {"target": [], "time": []}}, "mouseout": {"state": {"target": ["5", "0"], "time": [1581, 1706]}, "edge": {"target": [], "time": []}}}, "displayed_time": "11.24", "trialTime": 12658, "trial_type": "mouselab-mdp", "trial_index": 27, "time_elapsed": 4146594, "internal_node_id": "0.0-4.0-1.0-0.0"}}, {"uniqueid": "w58231239:a49997480", "current_trial": 28, "dateTime": 1664468092790, "trialdata": {"revealed_states": [], "num_clicks_accrued": [0, 0, 0, 0, 0, 0, 0, 0, 0, 0, 0, 0, 0], "stateRewards": ["", 2, -4, 24, -24, 2, -8, 48, 48, 4, -4, 24, 48], "withholdReward": false, "trial_id": "mdp_947836623875", "block": "test1", "trialIndex": 9, "score": -21, "costs": 0, "simulationMode": [null, null, null], "rewards": [2, -4, -24], "path": ["0", "0", "1", "2", "4"], "rt": [734, 164, 199], "actions": ["up", "up", "left"], "actionTimes": [1898, 2574, 3282], "queries": {"click": {"state": {"target": [], "time": []}, "edge": {"target": [], "time": []}}, "mouseover": {"state": {"target": [], "time": []}, "edge": {"target": [], "time": []}}, "mouseout": {"state": {"target": [], "time": []}, "edge": {"target": [], "time": []}}}, "displayed_time": "9.16", "trialTime": 10317, "trial_type": "mouselab-mdp", "trial_index": 28, "time_elapsed": 4156944, "internal_node_id": "0.0-4.0-1.0-1.0"}}, {"uniqueid": "w58231239:a49997480", "current_trial": 29, "dateTime": 1664468103738, "trialdata": {"revealed_states": [], "num_clicks_accrued": [0, 0, 0, 0, 0, 0, 0, 0, 0, 0, 0, 0, 0], "stateRewards": ["", -4, 8, -48, -48, -4, 4, -24, -48, 2, -4, -24, 24], "withholdReward": true, "trial_id": "mdp_183773275291", "block": "test1", "trialIndex": 10, "score": 27, "costs": 0, "simulationMode": [null, null, null], "rewards": [2, -4, 24], "path": ["0", "0", "9", "10", "12"], "rt": [573, 250, 545], "actions": ["left", "left", "down"], "actionTimes": [2298, 3052, 4110], "queries": {"click": {"state": {"target": [], "time": []}, "edge": {"target": [], "time": []}}, "mouseover": {"state": {"target": [], "time": []}, "edge": {"target": [], "time": []}}, "mouseout": {"state": {"target": [], "time": []}, "edge": {"target": [], "time": []}}}, "displayed_time": "9.73", "trialTime": 10913, "trial_type": "mouselab-mdp", "trial_index": 29, "time_elapsed": 4167892, "internal_node_id": "0.0-4.0-1.0-2.0"}}, {"uniqueid": "w58231239:a49997480", "current_trial": 30, "dateTime": 1664468114963, "trialdata": {"revealed_states": [], "num_clicks_accrued": [0, 0, 0, 0, 0, 0, 0, 0, 0, 0, 0, 0, 0], "stateRewards": ["", 2, -8, 48, -24, 2, -4, 24, 48, 4, -4, 48, -24], "withholdReward": true, "trial_id": "mdp_656500928756", "block": "test1", "trialIndex": 11, "score": 27, "costs": 0, "simulationMode": [null, null, null], "rewards": [2, -4, 24], "path": ["0", "0", "5", "6", "7"], "rt": [1366, 217, 125], "actions": ["right", "right", "up"], "actionTimes": [2683, 3410, 4047], "queries": {"click": {"state": {"target": [], "time": []}, "edge": {"target": [], "time": []}}, "mouseover": {"state": {"target": [], "time": []}, "edge": {"target": [], "time": []}}, "mouseout": {"state": {"target": [], "time": []}, "edge": {"target": [], "time": []}}}, "displayed_time": "9.32", "trialTime": 11191, "trial_type": "mouselab-mdp", "trial_index": 30, "time_elapsed": 4179117, "internal_node_id": "0.0-4.0-1.0-3.0"}}, {"uniqueid": "w58231239:a49997480", "current_trial": 31, "dateTime": 1664468126767, "trialdata": {"revealed_states": [], "num_clicks_accrued": [0, 0, 0, 0, 0, 0, 0, 0, 0, 0, 0, 0, 0], "stateRewards": ["", 4, 4, -24, -48, -4, 4, -48, 24, 4, -8, -48, 48], "withholdReward": true, "trial_id": "mdp_566768794366", "block": "test1", "trialIndex": 12, "score": -11, "costs": 0, "simulationMode": [null, null, null], "rewards": [4, 4, -24], "path": ["0", "0", "1", "2", "3"], "rt": [732, 253, 240], "actions": ["up", "up", "right"], "actionTimes": [1993, 2756, 3505], "queries": {"click": {"state": {"target": [], "time": []}, "edge": {"target": [], "time": []}}, "mouseover": {"state": {"target": [], "time": []}, "edge": {"target": [], "time": []}}, "mouseout": {"state": {"target": [], "time": []}, "edge": {"target": [], "time": []}}}, "displayed_time": "10.26", "trialTime": 11768, "trial_type": "mouselab-mdp", "trial_index": 31, "time_elapsed": 4190921, "internal_node_id": "0.0-4.0-1.0-4.0"}}, {"uniqueid": "w58231239:a49997480", "current_trial": 32, "dateTime": 1664468136965, "trialdata": {"revealed_states": [], "num_clicks_accrued": [0, 0, 0, 0, 0, 0, 0, 0, 0, 0, 0, 0, 0], "stateRewards": ["", -2, -4, -48, 48, -2, -4, 24, 48, -4, -8, -24, 24], "withholdReward": true, "trial_id": "mdp_917590390609", "block": "test1", "trialIndex": 13, "score": -31, "costs": 0, "simulationMode": [null, null, null], "rewards": [-4, -8, -24], "path": ["0", "0", "9", "10", "11"], "rt": [412, 130, 265], "actions": ["left", "left", "up"], "actionTimes": [1512, 2148, 2922], "queries": {"click": {"state": {"target": [], "time": []}, "edge": {"target": [], "time": []}}, "mouseover": {"state": {"target": [], "time": []}, "edge": {"target": [], "time": []}}, "mouseout": {"state": {"target": [], "time": []}, "edge": {"target": [], "time": []}}}, "displayed_time": "9.10", "trialTime": 10163, "trial_type": "mouselab-mdp", "trial_index": 32, "time_elapsed": 4201119, "internal_node_id": "0.0-4.0-1.0-5.0"}}, {"uniqueid": "w58231239:a49997480", "current_trial": 33, "dateTime": 1664468148796, "trialdata": {"revealed_states": [], "num_clicks_accrued": [0, 0, 0, 0, 0, 0, 0, 0, 0, 0, 0, 0, 0], "stateRewards": ["", -4, 4, -48, -48, -4, 8, -24, 24, 2, -4, 48, 48], "withholdReward": true, "trial_id": "mdp_821566905048", "block": "test1", "trialIndex": 14, "score": -43, "costs": 0, "simulationMode": [null, null, null], "rewards": [-4, 4, -48], "path": ["0", "0", "1", "2", "4"], "rt": [555, 156, 22], "actions": ["up", "up", "left"], "actionTimes": [2192, 2860, 3384], "queries": {"click": {"state": {"target": [], "time": []}, "edge": {"target": [], "time": []}}, "mouseover": {"state": {"target": [], "time": []}, "edge": {"target": [], "time": []}}, "mouseout": {"state": {"target": ["0"], "time": [1655]}, "edge": {"target": [], "time": []}}}, "displayed_time": "10.64", "trialTime": 11798, "trial_type": "mouselab-mdp", "trial_index": 33, "time_elapsed": 4212950, "internal_node_id": "0.0-4.0-1.0-6.0"}}, {"uniqueid": "w58231239:a49997480", "current_trial": 34, "dateTime": 1664468162261, "trialdata": {"revealed_states": [], "num_clicks_accrued": [0, 0, 0, 0, 0, 0, 0, 0, 0, 0, 0, 0, 0], "stateRewards": ["", 4, -4, 48, 24, 2, 4, 24, -24, 2, 4, 24, 48], "withholdReward": false, "trial_id": "mdp_736351885282", "block": "test1", "trialIndex": 15, "score": 59, "costs": 0, "simulationMode": [null, null, null], "rewards": [2, 4, 48], "path": ["0", "0", "9", "10", "12"], "rt": [493, 108, 350], "actions": ["left", "left", "down"], "actionTimes": [3449, 4070, 4923], "queries": {"click": {"state": {"target": [], "time": []}, "edge": {"target": [], "time": []}}, "mouseover": {"state": {"target": [], "time": []}, "edge": {"target": [], "time": []}}, "mouseout": {"state": {"target": [], "time": []}, "edge": {"target": [], "time": []}}}, "displayed_time": "11.96", "trialTime": 13431, "trial_type": "mouselab-mdp", "trial_index": 34, "time_elapsed": 4226415, "internal_node_id": "0.0-4.0-1.0-7.0"}}, {"uniqueid": "w58231239:a49997480", "current_trial": 35, "dateTime": 1664468173054, "trialdata": {"revealed_states": [], "num_clicks_accrued": [0, 0, 0, 0, 0, 0, 0, 0, 0, 0, 0, 0, 0], "stateRewards": ["", 2, 8, -24, -48, 2, 4, -24, 48, 2, -8, 48, -24], "withholdReward": true, "trial_id": "mdp_791659307216", "block": "test1", "trialIndex": 16, "score": -13, "costs": 0, "simulationMode": [null, null, null], "rewards": [2, 4, -24], "path": ["0", "0", "5", "6", "7"], "rt": [610, 66, 73], "actions": ["right", "right", "up"], "actionTimes": [1557, 2129, 2706], "queries": {"click": {"state": {"target": [], "time": []}, "edge": {"target": [], "time": []}}, "mouseover": {"state": {"target": [], "time": []}, "edge": {"target": [], "time": []}}, "mouseout": {"state": {"target": [], "time": []}, "edge": {"target": [], "time": []}}}, "displayed_time": "9.95", "trialTime": 10757, "trial_type": "mouselab-mdp", "trial_index": 35, "time_elapsed": 4237208, "internal_node_id": "0.0-4.0-1.0-8.0"}}, {"uniqueid": "w58231239:a49997480", "current_trial": 36, "dateTime": 1664468184883, "trialdata": {"revealed_states": [], "num_clicks_accrued": [0, 0, 0, 0, 0, 0, 0, 0, 0, 0, 0, 0, 0], "stateRewards": ["", -2, -4, -24, 48, -2, -8, -48, -24, 4, 8, 48, 24], "withholdReward": true, "trial_id": "mdp_625355871626", "block": "test1", "trialIndex": 17, "score": -25, "costs": 0, "simulationMode": [null, null, null], "rewards": [-2, -4, -24], "path": ["0", "0", "1", "2", "3"], "rt": [1303, 94, 66], "actions": ["up", "up", "right"], "actionTimes": [2101, 2697, 3266], "queries": {"click": {"state": {"target": [], "time": []}, "edge": {"target": [], "time": []}}, "mouseover": {"state": {"target": [], "time": []}, "edge": {"target": [], "time": []}}, "mouseout": {"state": {"target": [], "time": []}, "edge": {"target": [], "time": []}}}, "displayed_time": "8.80", "trialTime": 11792, "trial_type": "mouselab-mdp", "trial_index": 36, "time_elapsed": 4249037, "internal_node_id": "0.0-4.0-1.0-9.0"}}, {"uniqueid": "w58231239:a49997480", "current_trial": 37, "dateTime": 1664468198867, "trialdata": {"revealed_states": [], "num_clicks_accrued": [0, 0, 0, 0, 0, 0, 0, 0, 0, 0, 0, 0, 0], "stateRewards": ["", -4, 8, 24, -24, -2, 4, -24, 48, -2, 8, -48, -24], "withholdReward": false, "trial_id": "mdp_799359103169", "block": "test1", "trialIndex": 18, "score": -37, "costs": 0, "simulationMode": [null, null, null], "rewards": [-2, 8, -48], "path": ["0", "0", "9", "10", "11"], "rt": [703, 174, 607], "actions": ["left", "left", "up"], "actionTimes": [1995, 2678, 3798], "queries": {"click": {"state": {"target": [], "time": []}, "edge": {"target": [], "time": []}}, "mouseover": {"state": {"target": [], "time": []}, "edge": {"target": [], "time": []}}, "mouseout": {"state": {"target": [], "time": []}, "edge": {"target": [], "time": []}}}, "displayed_time": "10.29", "trialTime": 13948, "trial_type": "mouselab-mdp", "trial_index": 37, "time_elapsed": 4263021, "internal_node_id": "0.0-4.0-1.0-10.0"}}, {"uniqueid": "w58231239:a49997480", "current_trial": 38, "dateTime": 1664468209348, "trialdata": {"revealed_states": [], "num_clicks_accrued": [0, 0, 0, 0, 0, 0, 0, 0, 0, 0, 0, 0, 0], "stateRewards": ["", -2, -8, 48, 24, 2, 4, 24, -24, -2, -4, 48, -48], "withholdReward": true, "trial_id": "mdp_411152402386", "block": "test1", "trialIndex": 19, "score": -49, "costs": 0, "simulationMode": [null, null, null], "rewards": [-2, -4, -48], "path": ["0", "0", "9", "10", "12"], "rt": [753, 202, 153], "actions": ["left", "left", "down"], "actionTimes": [1445, 2151, 2817], "queries": {"click": {"state": {"target": [], "time": []}, "edge": {"target": [], "time": []}}, "mouseover": {"state": {"target": [], "time": []}, "edge": {"target": [], "time": []}}, "mouseout": {"state": {"target": [], "time": []}, "edge": {"target": [], "time": []}}}, "displayed_time": "8.69", "trialTime": 10444, "trial_type": "mouselab-mdp", "trial_index": 38, "time_elapsed": 4273502, "internal_node_id": "0.0-4.0-1.0-11.0"}}, {"uniqueid": "w58231239:a49997480", "current_trial": 39, "dateTime": 1664468221244, "trialdata": {"revealed_states": [], "num_clicks_accrued": [0, 0, 0, 0, 0, 0, 0, 0, 0, 0, 0, 0, 0], "stateRewards": ["", -4, 8, -24, -24, 2, 4, 48, 48, -2, 4, 24, -48], "withholdReward": true, "trial_id": "mdp_397308196941", "block": "test1", "trialIndex": 20, "score": 59, "costs": 0, "simulationMode": [null, null, null], "rewards": [2, 4, 48], "path": ["0", "0", "5", "6", "7"], "rt": [622, 343, 632], "actions": ["right", "right", "up"], "actionTimes": [1607, 2464, 3601], "queries": {"click": {"state": {"target": [], "time": []}, "edge": {"target": [], "time": []}}, "mouseover": {"state": {"target": [], "time": []}, "edge": {"target": [], "time": []}}, "mouseout": {"state": {"target": [], "time": []}, "edge": {"target": [], "time": []}}}, "displayed_time": "9.98", "trialTime": 11859, "trial_type": "mouselab-mdp", "trial_index": 39, "time_elapsed": 4285398, "internal_node_id": "0.0-4.0-1.0-12.0"}}, {"uniqueid": "w58231239:a49997480", "current_trial": 40, "dateTime": 1664468232116, "trialdata": {"revealed_states": [], "num_clicks_accrued": [0, 0, 0, 0, 0, 0, 0, 0, 0, 0, 0, 0, 0], "stateRewards": ["", 4, -4, 48, 24, 2, -8, 24, -48, -2, -4, -48, -48], "withholdReward": true, "trial_id": "mdp_655302318695", "block": "test1", "trialIndex": 21, "score": 53, "costs": 0, "simulationMode": [null, null, null], "rewards": [4, -4, 48], "path": ["0", "0", "1", "2", "3"], "rt": [762, 272, 19], "actions": ["up", "up", "right"], "actionTimes": [1488, 2264, 2796], "queries": {"click": {"state": {"target": [], "time": []}, "edge": {"target": [], "time": []}}, "mouseover": {"state": {"target": [], "time": []}, "edge": {"target": [], "time": []}}, "mouseout": {"state": {"target": [], "time": []}, "edge": {"target": [], "time": []}}}, "displayed_time": "9.73", "trialTime": 10825, "trial_type": "mouselab-mdp", "trial_index": 40, "time_elapsed": 4296270, "internal_node_id": "0.0-4.0-1.0-13.0"}}, {"uniqueid": "w58231239:a49997480", "current_trial": 41, "dateTime": 1664468243202, "trialdata": {"revealed_states": [], "num_clicks_accrued": [0, 0, 0, 0, 0, 0, 0, 0, 0, 0, 0, 0, 0], "stateRewards": ["", -4, 8, -24, -48, 2, 8, -48, -24, -2, -4, 48, -48], "withholdReward": true, "trial_id": "mdp_599927291428", "block": "test1", "trialIndex": 22, "score": -9, "costs": 0, "simulationMode": [null, null, null], "rewards": [2, 8, -24], "path": ["0", "0", "5", "6", "8"], "rt": [1047, 229, 326], "actions": ["right", "right", "down"], "actionTimes": [2151, 2894, 3727], "queries": {"click": {"state": {"target": [], "time": []}, "edge": {"target": [], "time": []}}, "mouseover": {"state": {"target": [], "time": []}, "edge": {"target": [], "time": []}}, "mouseout": {"state": {"target": [], "time": []}, "edge": {"target": [], "time": []}}}, "displayed_time": "10.11", "trialTime": 11048, "trial_type": "mouselab-mdp", "trial_index": 41, "time_elapsed": 4307355, "internal_node_id": "0.0-4.0-1.0-14.0"}}, {"uniqueid": "w58231239:a49997480", "current_trial": 42, "dateTime": 1664468252823, "trialdata": {"revealed_states": [], "num_clicks_accrued": [0, 0, 0, 0, 0, 0, 0, 0, 0, 0, 0, 0, 0], "stateRewards": ["", -2, 4, 48, -24, 2, 8, 24, 48, 2, 4, -24, -48], "withholdReward": true, "trial_id": "mdp_892412058587", "block": "test1", "trialIndex": 23, "score": -37, "costs": 0, "simulationMode": [null, null, null], "rewards": [2, 4, -48], "path": ["0", "0", "9", "10", "12"], "rt": [846, 60, 89], "actions": ["left", "left", "down"], "actionTimes": [1661, 2232, 2831], "queries": {"click": {"state": {"target": [], "time": []}, "edge": {"target": [], "time": []}}, "mouseover": {"state": {"target": [], "time": []}, "edge": {"target": [], "time": []}}, "mouseout": {"state": {"target": [], "time": []}, "edge": {"target": [], "time": []}}}, "displayed_time": "8.82", "trialTime": 9580, "trial_type": "mouselab-mdp", "trial_index": 42, "time_elapsed": 4316977, "internal_node_id": "0.0-4.0-1.0-15.0"}}, {"uniqueid": "w58231239:a49997480", "current_trial": 43, "dateTime": 1664468263848, "trialdata": {"revealed_states": [], "num_clicks_accrued": [0, 0, 0, 0, 0, 0, 0, 0, 0, 0, 0, 0, 0], "stateRewards": ["", -2, 8, -48, 48, -4, -8, 24, 24, -2, -4, 48, -48], "withholdReward": true, "trial_id": "mdp_867247318592", "block": "test1", "trialIndex": 24, "score": 17, "costs": 0, "simulationMode": [null, null, null], "rewards": [-4, -8, 24], "path": ["0", "0", "5", "6", "8"], "rt": [1176, 227, 248], "actions": ["right", "right", "down"], "actionTimes": [2172, 2906, 3656], "queries": {"click": {"state": {"target": [], "time": []}, "edge": {"target": [], "time": []}}, "mouseover": {"state": {"target": [], "time": []}, "edge": {"target": [], "time": []}}, "mouseout": {"state": {"target": [], "time": []}, "edge": {"target": [], "time": []}}}, "displayed_time": "10.00", "trialTime": 10988, "trial_type": "mouselab-mdp", "trial_index": 43, "time_elapsed": 4328001, "internal_node_id": "0.0-4.0-1.0-16.0"}}, {"uniqueid": "w58231239:a49997480", "current_trial": 44, "dateTime": 1664468274831, "trialdata": {"revealed_states": [], "num_clicks_accrued": [0, 0, 0, 0, 0, 0, 0, 0, 0, 0, 0, 0, 0], "stateRewards": ["", 2, 4, -48, 48, -4, 8, -48, -24, -4, -4, 48, 48], "withholdReward": true, "trial_id": "mdp_613582696541", "block": "test1", "trialIndex": 25, "score": 59, "costs": 0, "simulationMode": [null, null, null], "rewards": [2, 4, 48], "path": ["0", "0", "1", "2", "4"], "rt": [912, 109, 133], "actions": ["up", "up", "left"], "actionTimes": [1914, 2534, 3169], "queries": {"click": {"state": {"target": [], "time": []}, "edge": {"target": [], "time": []}}, "mouseover": {"state": {"target": [], "time": []}, "edge": {"target": [], "time": []}}, "mouseout": {"state": {"target": [], "time": []}, "edge": {"target": [], "time": []}}}, "displayed_time": "10.00", "trialTime": 10947, "trial_type": "mouselab-mdp", "trial_index": 44, "time_elapsed": 4338985, "internal_node_id": "0.0-4.0-1.0-17.0"}}, {"uniqueid": "w58231239:a49997480", "current_trial": 45, "dateTime": 1664468285717, "trialdata": {"revealed_states": [], "num_clicks_accrued": [0, 0, 0, 0, 0, 0, 0, 0, 0, 0, 0, 0, 0], "stateRewards": ["", -2, -4, -24, 24, -2, 4, -24, -24, -4, 4, 24, -24], "withholdReward": true, "trial_id": "mdp_999419261719", "block": "test1", "trialIndex": 26, "score": -19, "costs": 0, "simulationMode": [null, null, null], "rewards": [-4, 4, -24], "path": ["0", "0", "9", "10", "12"], "rt": [746, 391, 270], "actions": ["left", "left", "down"], "actionTimes": [1779, 2679, 3455], "queries": {"click": {"state": {"target": [], "time": []}, "edge": {"target": [], "time": []}}, "mouseover": {"state": {"target": [], "time": []}, "edge": {"target": [], "time": []}}, "mouseout": {"state": {"target": [], "time": []}, "edge": {"target": [], "time": []}}}, "displayed_time": "10.04", "trialTime": 10850, "trial_type": "mouselab-mdp", "trial_index": 45, "time_elapsed": 4349871, "internal_node_id": "0.0-4.0-1.0-18.0"}}, {"uniqueid": "w58231239:a49997480", "current_trial": 46, "dateTime": 1664468297034, "trialdata": {"revealed_states": [], "num_clicks_accrued": [0, 0, 0, 0, 0, 0, 0, 0, 0, 0, 0, 0, 0], "stateRewards": ["", 2, 4, 48, 24, -4, 8, 48, 48, 2, -4, -48, -24], "withholdReward": true, "trial_id": "mdp_822099887466", "block": "test1", "trialIndex": 27, "score": 57, "costs": 0, "simulationMode": [null, null, null], "rewards": [-4, 8, 48], "path": ["0", "0", "5", "6", "7"], "rt": [982, 160, 132], "actions": ["right", "right", "up"], "actionTimes": [1901, 2568, 3207], "queries": {"click": {"state": {"target": [], "time": []}, "edge": {"target": [], "time": []}}, "mouseover": {"state": {"target": [], "time": []}, "edge": {"target": [], "time": []}}, "mouseout": {"state": {"target": [], "time": []}, "edge": {"target": [], "time": []}}}, "displayed_time": "9.92", "trialTime": 11279, "trial_type": "mouselab-mdp", "trial_index": 46, "time_elapsed": 4361188, "internal_node_id": "0.0-4.0-1.0-19.0"}}, {"uniqueid": "w58231239:a49997480", "current_trial": 47, "dateTime": 1664468306265, "trialdata": {"revealed_states": [], "num_clicks_accrued": [0, 0, 0, 0, 0, 0, 0, 0, 0, 0, 0, 0, 0], "stateRewards": ["", 2, -8, -24, -48, -2, -4, 48, 48, 4, 8, 48, 48], "withholdReward": true, "trial_id": "mdp_347285045422", "block": "test1", "trialIndex": 28, "score": -49, "costs": 0, "simulationMode": [null, null, null], "rewards": [2, -8, -48], "path": ["0", "0", "1", "2", "4"], "rt": [1372, 215, 592], "actions": ["up", "up", "left"], "actionTimes": [2049, 2779, 3878], "queries": {"click": {"state": {"target": [], "time": []}, "edge": {"target": [], "time": []}}, "mouseover": {"state": {"target": [], "time": []}, "edge": {"target": [], "time": []}}, "mouseout": {"state": {"target": [], "time": []}, "edge": {"target": [], "time": []}}}, "displayed_time": "7.68", "trialTime": 9194, "trial_type": "mouselab-mdp", "trial_index": 47, "time_elapsed": 4370419, "internal_node_id": "0.0-4.0-1.0-20.0"}}, {"uniqueid": "w58231239:a49997480", "current_trial": 48, "dateTime": 1664468316251, "trialdata": {"revealed_states": [], "num_clicks_accrued": [0, 0, 0, 0, 0, 0, 0, 0, 0, 0, 0, 0, 0], "stateRewards": ["", 4, 8, -24, 48, 4, -8, -48, 48, -4, 8, -24, -48], "withholdReward": true, "trial_id": "mdp_376126356841", "block": "test1", "trialIndex": 29, "score": 49, "costs": 0, "simulationMode": [null, null, null], "rewards": [4, -8, 48], "path": ["0", "0", "5", "6", "8"], "rt": [1013, 92, 327], "actions": ["right", "right", "down"], "actionTimes": [1957, 2556, 3395], "queries": {"click": {"state": {"target": [], "time": []}, "edge": {"target": [], "time": []}}, "mouseover": {"state": {"target": [], "time": []}, "edge": {"target": [], "time": []}}, "mouseout": {"state": {"target": [], "time": []}, "edge": {"target": [], "time": []}}}, "displayed_time": "8.95", "trialTime": 9946, "trial_type": "mouselab-mdp", "trial_index": 48, "time_elapsed": 4380405, "internal_node_id": "0.0-4.0-1.0-21.0"}}, {"uniqueid": "w58231239:a49997480", "current_trial": 49, "dateTime": 1664468326300, "trialdata": {"revealed_states": [], "num_clicks_accrued": [0, 0, 0, 0, 0, 0, 0, 0, 0, 0, 0, 0, 0], "stateRewards": ["", -2, -4, -24, -48, -2, 8, -48, 24, 4, -4, -24, -24], "withholdReward": true, "trial_id": "mdp_915304165774", "block": "test1", "trialIndex": 30, "score": -37, "costs": 0, "simulationMode": [null, null, null], "rewards": [-2, 8, -48], "path": ["0", "0", "5", "6", "7"], "rt": [3510, 377, 297], "actions": ["right", "right", "up"], "actionTimes": [4614, 5503, 6310], "queries": {"click": {"state": {"target": [], "time": []}, "edge": {"target": [], "time": []}}, "mouseover": {"state": {"target": [], "time": []}, "edge": {"target": [], "time": []}}, "mouseout": {"state": {"target": [], "time": []}, "edge": {"target": [], "time": []}}}, "displayed_time": "9.11", "trialTime": 10013, "trial_type": "mouselab-mdp", "trial_index": 49, "time_elapsed": 4390454, "internal_node_id": "0.0-4.0-1.0-22.0"}}, {"uniqueid": "w58231239:a49997480", "current_trial": 50, "dateTime": 1664468337552, "trialdata": {"revealed_states": [], "num_clicks_accrued": [0, 0, 0, 0, 0, 0, 0, 0, 0, 0, 0, 0, 0], "stateRewards": ["", -2, 8, 24, -48, -4, -8, -24, -48, -4, 8, -24, 48], "withholdReward": false, "trial_id": "mdp_464339499860", "block": "test1", "trialIndex": 31, "score": 57, "costs": 0, "simulationMode": [null, null, null], "rewards": [-4, 8, 48], "path": ["0", "0", "9", "10", "12"], "rt": [586, 341, 690], "actions": ["left", "left", "down"], "actionTimes": [1197, 2045, 3248], "queries": {"click": {"state": {"target": [], "time": []}, "edge": {"target": [], "time": []}}, "mouseover": {"state": {"target": [], "time": []}, "edge": {"target": [], "time": []}}, "mouseout": {"state": {"target": [], "time": []}, "edge": {"target": [], "time": []}}}, "displayed_time": "9.61", "trialTime": 11213, "trial_type": "mouselab-mdp", "trial_index": 50, "time_elapsed": 4401706, "internal_node_id": "0.0-4.0-1.0-23.0"}}, {"uniqueid": "w58231239:a49997480", "current_trial": 51, "dateTime": 1664468348320, "trialdata": {"revealed_states": [], "num_clicks_accrued": [0, 0, 0, 0, 0, 0, 0, 0, 0, 0, 0, 0, 0], "stateRewards": ["", 2, 4, 48, -48, 2, 8, -24, 48, 4, 8, 48, -48], "withholdReward": true, "trial_id": "mdp_110142964375", "block": "test1", "trialIndex": 32, "score": -37, "costs": 0, "simulationMode": [null, null, null], "rewards": [2, 4, -48], "path": ["0", "0", "1", "2", "4"], "rt": [863, 227, 343], "actions": ["up", "up", "left"], "actionTimes": [1618, 2348, 3200], "queries": {"click": {"state": {"target": [], "time": []}, "edge": {"target": [], "time": []}}, "mouseover": {"state": {"target": [], "time": []}, "edge": {"target": [], "time": []}}, "mouseout": {"state": {"target": [], "time": []}, "edge": {"target": [], "time": []}}}, "displayed_time": "9.76", "trialTime": 10729, "trial_type": "mouselab-mdp", "trial_index": 51, "time_elapsed": 4412473, "internal_node_id": "0.0-4.0-1.0-24.0"}}, {"uniqueid": "w58231239:a49997480", "current_trial": 52, "dateTime": 1664468359930, "trialdata": {"revealed_states": [], "num_clicks_accrued": [0, 0, 0, 0, 0, 0, 0, 0, 0, 0, 0, 0, 0], "stateRewards": ["", 4, -8, 48, 48, 2, 4, 48, -48, 4, -4, -48, 48], "withholdReward": true, "trial_id": "mdp_519605841135", "block": "test1", "trialIndex": 33, "score": -37, "costs": 0, "simulationMode": [null, null, null], "rewards": [2, 4, -48], "path": ["0", "0", "5", "6", "8"], "rt": [690, 1372, 395], "actions": ["right", "right", "down"], "actionTimes": [1996, 3882, 4781], "queries": {"click": {"state": {"target": [], "time": []}, "edge": {"target": [], "time": []}}, "mouseover": {"state": {"target": [], "time": []}, "edge": {"target": [], "time": []}}, "mouseout": {"state": {"target": [], "time": []}, "edge": {"target": [], "time": []}}}, "displayed_time": "10.31", "trialTime": 11571, "trial_type": "mouselab-mdp", "trial_index": 52, "time_elapsed": 4424084, "internal_node_id": "0.0-4.0-1.0-25.0"}}, {"uniqueid": "w58231239:a49997480", "current_trial": 53, "dateTime": 1664468370786, "trialdata": {"revealed_states": [], "num_clicks_accrued": [0, 0, 0, 0, 0, 0, 0, 0, 0, 0, 0, 0, 0], "stateRewards": ["", 2, 8, 48, 24, -4, 4, -48, 24, 2, 8, 48, 48], "withholdReward": false, "trial_id": "mdp_367344599162", "block": "test1", "trialIndex": 34, "score": 39, "costs": 0, "simulationMode": [null, null, null], "rewards": [2, 8, 24], "path": ["0", "0", "1", "2", "4"], "rt": [738, 268, 328], "actions": ["up", "up", "left"], "actionTimes": [1662, 2433, 3271], "queries": {"click": {"state": {"target": [], "time": []}, "edge": {"target": [], "time": []}}, "mouseover": {"state": {"target": [], "time": []}, "edge": {"target": [], "time": []}}, "mouseout": {"state": {"target": [], "time": []}, "edge": {"target": [], "time": []}}}, "displayed_time": "9.92", "trialTime": 10818, "trial_type": "mouselab-mdp", "trial_index": 53, "time_elapsed": 4434940, "internal_node_id": "0.0-4.0-1.0-26.0"}}, {"uniqueid": "w58231239:a49997480", "current_trial": 54, "dateTime": 1664468386650, "trialdata": {"revealed_states": [], "num_clicks_accrued": [0, 0, 0, 0, 0, 0, 0, 0, 0, 0, 0, 0, 0], "stateRewards": ["", -2, 4, 24, 48, 2, 4, -48, -48, 2, 8, 48, -48], "withholdReward": false, "trial_id": "mdp_409609775558", "block": "test1", "trialIndex": 35, "score": -37, "costs": 0, "simulationMode": [null, null, null], "rewards": [2, 4, -48], "path": ["0", "0", "5", "6", "8"], "rt": [1659, 394, 121], "actions": ["right", "right", "down"], "actionTimes": [2647, 3543, 4173], "queries": {"click": {"state": {"target": [], "time": []}, "edge": {"target": [], "time": []}}, "mouseover": {"state": {"target": [], "time": []}, "edge": {"target": [], "time": []}}, "mouseout": {"state": {"target": [], "time": []}, "edge": {"target": [], "time": []}}}, "displayed_time": "9.99", "trialTime": 15826, "trial_type": "mouselab-mdp", "trial_index": 54, "time_elapsed": 4450804, "internal_node_id": "0.0-4.0-1.0-27.0"}}, {"uniqueid": "w58231239:a49997480", "current_trial": 55, "dateTime": 1664468397128, "trialdata": {"revealed_states": [], "num_clicks_accrued": [0, 0, 0, 0, 0, 0, 0, 0, 0, 0, 0, 0, 0], "stateRewards": ["", 4, -8, -48, 24, 4, 4, -24, -24, 2, 4, -48, 24], "withholdReward": true, "trial_id": "mdp_626971397185", "block": "test1", "trialIndex": 36, "score": -37, "costs": 0, "simulationMode": [null, null, null], "rewards": [2, 4, -48], "path": ["0", "0", "9", "10", "11"], "rt": [746, 101, 101], "actions": ["left", "left", "up"], "actionTimes": [1603, 2211, 2815], "queries": {"click": {"state": {"target": [], "time": []}, "edge": {"target": [], "time": []}}, "mouseover": {"state": {"target": [], "time": []}, "edge": {"target": [], "time": []}}, "mouseout": {"state": {"target": [], "time": []}, "edge": {"target": [], "time": []}}}, "displayed_time": "9.86", "trialTime": 10439, "trial_type": "mouselab-mdp", "trial_index": 55, "time_elapsed": 4461282, "internal_node_id": "0.0-4.0-1.0-28.0"}}, {"uniqueid": "w58231239:a49997480", "current_trial": 56, "dateTime": 1664468409390, "trialdata": {"revealed_states": [], "num_clicks_accrued": [0, 0, 0, 0, 0, 0, 0, 0, 0, 0, 0, 0, 0], "stateRewards": ["", -4, -8, 24, 48, 2, -4, -24, 24, -4, 8, 48, 48], "withholdReward": false, "trial_id": "mdp_496672670022", "block": "test1", "trialIndex": 37, "score": -21, "costs": 0, "simulationMode": [null, null, null], "rewards": [2, -4, -24], "path": ["0", "0", "5", "6", "7"], "rt": [734, 566, 257], "actions": ["right", "right", "up"], "actionTimes": [2013, 3093, 3854], "queries": {"click": {"state": {"target": [], "time": []}, "edge": {"target": [], "time": []}}, "mouseover": {"state": {"target": [], "time": []}, "edge": {"target": [], "time": []}}, "mouseout": {"state": {"target": [], "time": []}, "edge": {"target": [], "time": []}}}, "displayed_time": "11.28", "trialTime": 12223, "trial_type": "mouselab-mdp", "trial_index": 56, "time_elapsed": 4473544, "internal_node_id": "0.0-4.0-1.0-29.0"}}, {"uniqueid": "w58231239:a49997480", "current_trial": 57, "dateTime": 1664468431900, "trialdata": {"rt": 22507, "stimulus": "<h1> End of block! </h1>\n\nYou have reached the end of the block 1/4. If you need a short break, feel free to take one now before moving on.\n\n<br><br>\nIn the next block, you will complete another 30 rounds of this game.\n\n<br><br>\n<div style='text-align: center;'>Press <code>space</code> to begin.</div>\n<br><br>\n<div style='text-align: center;'>(If the experiment doesn't continue, try clicking on the text and then pressing <code>space</code>.)</div>", "response": " ", "trial_id": "mdp_ready_2", "trial_type": "html-keyboard-response", "trial_index": 57, "time_elapsed": 4496054, "internal_node_id": "0.0-4.0-2.0"}}, {"uniqueid": "w58231239:a49997480", "current_trial": 58, "dateTime": 1664468443411, "trialdata": {"revealed_states": [], "num_clicks_accrued": [0, 0, 0, 0, 0, 0, 0, 0, 0, 0, 0, 0, 0], "stateRewards": ["", -2, 8, -24, 48, -4, 4, -48, 24, 4, -8, 48, -24], "withholdReward": true, "trial_id": "mdp_425320427962", "block": "test2", "trialIndex": 38, "score": 49, "costs": 0, "simulationMode": [null, null, null], "rewards": [4, -8, 48], "path": ["0", "0", "9", "10", "11"], "rt": [573, 472, 27], "actions": ["left", "left", "up"], "actionTimes": [2333, 3312, 3854], "queries": {"click": {"state": {"target": [], "time": []}, "edge": {"target": [], "time": []}}, "mouseover": {"state": {"target": [], "time": []}, "edge": {"target": [], "time": []}}, "mouseout": {"state": {"target": ["7", "5"], "time": [1069, 1312]}, "edge": {"target": [], "time": []}}}, "displayed_time": "10.76", "trialTime": 11466, "trial_type": "mouselab-mdp", "trial_index": 58, "time_elapsed": 4507565, "internal_node_id": "0.0-4.0-3.0-0.0"}}, {"uniqueid": "w58231239:a49997480", "current_trial": 59, "dateTime": 1664468453122, "trialdata": {"revealed_states": [], "num_clicks_accrued": [0, 0, 0, 0, 0, 0, 0, 0, 0, 0, 0, 0, 0], "stateRewards": ["", -2, -4, -24, -48, -4, -8, -48, 24, -4, -8, -24, -48], "withholdReward": true, "trial_id": "mdp_475782454549", "block": "test2", "trialIndex": 39, "score": -55, "costs": 0, "simulationMode": [null, null, null], "rewards": [-4, -8, -48], "path": ["0", "0", "5", "6", "7"], "rt": [1252, 554, 118], "actions": ["right", "right", "up"], "actionTimes": [2182, 3240, 3859], "queries": {"click": {"state": {"target": [], "time": []}, "edge": {"target": [], "time": []}}, "mouseover": {"state": {"target": [], "time": []}, "edge": {"target": [], "time": []}}, "mouseout": {"state": {"target": [], "time": []}, "edge": {"target": [], "time": []}}}, "displayed_time": "8.93", "trialTime": 9670, "trial_type": "mouselab-mdp", "trial_index": 59, "time_elapsed": 4517276, "internal_node_id": "0.0-4.0-3.0-1.0"}}, {"uniqueid": "w58231239:a49997480", "current_trial": 60, "dateTime": 1664468465957, "trialdata": {"revealed_states": [], "num_clicks_accrued": [0, 0, 0, 0, 0, 0, 0, 0, 0, 0, 0, 0, 0], "stateRewards": ["", 2, 4, 48, -24, 2, -8, -24, -24, 2, -8, -24, -48], "withholdReward": true, "trial_id": "mdp_274832552938", "block": "test2", "trialIndex": 40, "score": -13, "costs": 0, "simulationMode": [null, null, null], "rewards": [2, 4, -24], "path": ["0", "0", "1", "2", "4"], "rt": [671, 402, 182], "actions": ["up", "up", "left"], "actionTimes": [1519, 2428, 3118], "queries": {"click": {"state": {"target": [], "time": []}, "edge": {"target": [], "time": []}}, "mouseover": {"state": {"target": [], "time": []}, "edge": {"target": [], "time": []}}, "mouseout": {"state": {"target": [], "time": []}, "edge": {"target": [], "time": []}}}, "displayed_time": "9.85", "trialTime": 12797, "trial_type": "mouselab-mdp", "trial_index": 60, "time_elapsed": 4530111, "internal_node_id": "0.0-4.0-3.0-2.0"}}, {"uniqueid": "w58231239:a49997480", "current_trial": 61, "dateTime": 1664468477222, "trialdata": {"revealed_states": [], "num_clicks_accrued": [0, 0, 0, 0, 0, 0, 0, 0, 0, 0, 0, 0, 0], "stateRewards": ["", 2, -4, 48, 24, 2, 8, 24, 24, -2, 4, 24, 24], "withholdReward": false, "trial_id": "mdp_813974524300", "block": "test2", "trialIndex": 41, "score": 39, "costs": 0, "simulationMode": [null, null, null], "rewards": [2, 8, 24], "path": ["0", "0", "5", "6", "7"], "rt": [697, 193, 99], "actions": ["right", "right", "up"], "actionTimes": [3071, 3771, 4385], "queries": {"click": {"state": {"target": [], "time": []}, "edge": {"target": [], "time": []}}, "mouseover": {"state": {"target": [], "time": []}, "edge": {"target": [], "time": []}}, "mouseout": {"state": {"target": [], "time": []}, "edge": {"target": [], "time": []}}}, "displayed_time": "10.38", "trialTime": 11225, "trial_type": "mouselab-mdp", "trial_index": 61, "time_elapsed": 4541376, "internal_node_id": "0.0-4.0-3.0-3.0"}}, {"uniqueid": "w58231239:a49997480", "current_trial": 62, "dateTime": 1664468486658, "trialdata": {"revealed_states": [], "num_clicks_accrued": [0, 0, 0, 0, 0, 0, 0, 0, 0, 0, 0, 0, 0], "stateRewards": ["", 2, -8, 24, -48, 2, 4, 48, -48, -2, -8, -48, 48], "withholdReward": true, "trial_id": "mdp_629420544881", "block": "test2", "trialIndex": 42, "score": 43, "costs": 0, "simulationMode": [null, null, null], "rewards": [-2, -8, 48], "path": ["0", "0", "9", "10", "12"], "rt": [687, 166, 161], "actions": ["left", "left", "down"], "actionTimes": [1196, 1867, 2537], "queries": {"click": {"state": {"target": [], "time": []}, "edge": {"target": [], "time": []}}, "mouseover": {"state": {"target": [], "time": []}, "edge": {"target": [], "time": []}}, "mouseout": {"state": {"target": [], "time": []}, "edge": {"target": [], "time": []}}}, "displayed_time": "8.51", "trialTime": 9396, "trial_type": "mouselab-mdp", "trial_index": 62, "time_elapsed": 4550812, "internal_node_id": "0.0-4.0-3.0-4.0"}}, {"uniqueid": "w58231239:a49997480", "current_trial": 63, "dateTime": 1664468497329, "trialdata": {"revealed_states": [], "num_clicks_accrued": [0, 0, 0, 0, 0, 0, 0, 0, 0, 0, 0, 0, 0], "stateRewards": ["", -2, 4, -24, -24, -2, 4, 48, 24, -4, -8, 24, -48], "withholdReward": false, "trial_id": "mdp_191839460481", "block": "test2", "trialIndex": 43, "score": -17, "costs": 0, "simulationMode": [null, null, null], "rewards": [-2, 4, -24], "path": ["0", "0", "1", "2", "4"], "rt": [651, 102, 59], "actions": ["up", "up", "left"], "actionTimes": [1328, 1944, 2504], "queries": {"click": {"state": {"target": [], "time": []}, "edge": {"target": [], "time": []}}, "mouseover": {"state": {"target": [], "time": []}, "edge": {"target": [], "time": []}}, "mouseout": {"state": {"target": [], "time": []}, "edge": {"target": [], "time": []}}}, "displayed_time": "9.68", "trialTime": 10631, "trial_type": "mouselab-mdp", "trial_index": 63, "time_elapsed": 4561483, "internal_node_id": "0.0-4.0-3.0-5.0"}}, {"uniqueid": "w58231239:a49997480", "current_trial": 64, "dateTime": 1664468508274, "trialdata": {"revealed_states": [], "num_clicks_accrued": [0, 0, 0, 0, 0, 0, 0, 0, 0, 0, 0, 0, 0], "stateRewards": ["", -2, -4, 48, -24, 2, -4, -24, -48, 2, 8, -48, -24], "withholdReward": true, "trial_id": "mdp_238243948191", "block": "test2", "trialIndex": 44, "score": -21, "costs": 0, "simulationMode": [null, null, null], "rewards": [2, -4, -24], "path": ["0", "0", "5", "6", "7"], "rt": [581, 523, 5], "actions": ["right", "right", "up"], "actionTimes": [1110, 2145, 2661], "queries": {"click": {"state": {"target": [], "time": []}, "edge": {"target": [], "time": []}}, "mouseover": {"state": {"target": [], "time": []}, "edge": {"target": [], "time": []}}, "mouseout": {"state": {"target": [], "time": []}, "edge": {"target": [], "time": []}}}, "displayed_time": "9.53", "trialTime": 10905, "trial_type": "mouselab-mdp", "trial_index": 64, "time_elapsed": 4572428, "internal_node_id": "0.0-4.0-3.0-6.0"}}, {"uniqueid": "w58231239:a49997480", "current_trial": 65, "dateTime": 1664468518424, "trialdata": {"revealed_states": [], "num_clicks_accrued": [0, 0, 0, 0, 0, 0, 0, 0, 0, 0, 0, 0, 0], "stateRewards": ["", 4, 4, -48, -48, 4, 4, -24, -24, -4, 8, -48, 24], "withholdReward": false, "trial_id": "mdp_669785455541", "block": "test2", "trialIndex": 45, "score": -39, "costs": 0, "simulationMode": [null, null, null], "rewards": [-4, 8, -48], "path": ["0", "0", "9", "10", "11"], "rt": [699, 239, 221], "actions": ["left", "left", "up"], "actionTimes": [1372, 2117, 2848], "queries": {"click": {"state": {"target": [], "time": []}, "edge": {"target": [], "time": []}}, "mouseover": {"state": {"target": [], "time": []}, "edge": {"target": [], "time": []}}, "mouseout": {"state": {"target": [], "time": []}, "edge": {"target": [], "time": []}}}, "displayed_time": "8.67", "trialTime": 10109, "trial_type": "mouselab-mdp", "trial_index": 65, "time_elapsed": 4582578, "internal_node_id": "0.0-4.0-3.0-7.0"}}, {"uniqueid": "w58231239:a49997480", "current_trial": 66, "dateTime": 1664468530081, "trialdata": {"revealed_states": [], "num_clicks_accrued": [0, 0, 0, 0, 0, 0, 0, 0, 0, 0, 0, 0, 0], "stateRewards": ["", -2, 8, 48, -48, 4, -8, 24, 24, 4, 4, -48, -24], "withholdReward": true, "trial_id": "mdp_746937869927", "block": "test2", "trialIndex": 46, "score": 25, "costs": 0, "simulationMode": [null, null, null], "rewards": [4, -8, 24], "path": ["0", "0", "5", "6", "7"], "rt": [587, 89, 95], "actions": ["right", "right", "up"], "actionTimes": [1098, 1689, 2299], "queries": {"click": {"state": {"target": [], "time": []}, "edge": {"target": [], "time": []}}, "mouseover": {"state": {"target": [], "time": []}, "edge": {"target": [], "time": []}}, "mouseout": {"state": {"target": [], "time": []}, "edge": {"target": [], "time": []}}}, "displayed_time": "9.51", "trialTime": 11614, "trial_type": "mouselab-mdp", "trial_index": 66, "time_elapsed": 4594235, "internal_node_id": "0.0-4.0-3.0-8.0"}}, {"uniqueid": "w58231239:a49997480", "current_trial": 67, "dateTime": 1664468540984, "trialdata": {"revealed_states": [], "num_clicks_accrued": [0, 0, 0, 0, 0, 0, 0, 0, 0, 0, 0, 0, 0], "stateRewards": ["", -4, 4, -24, 24, -2, -4, 48, 24, 2, 8, -48, 24], "withholdReward": true, "trial_id": "mdp_150340189492", "block": "test2", "trialIndex": 47, "score": 29, "costs": 0, "simulationMode": [null, null, null], "rewards": [-4, 4, 24], "path": ["0", "0", "1", "2", "4"], "rt": [830, 173, 201], "actions": ["up", "up", "left"], "actionTimes": [1860, 2537, 3253], "queries": {"click": {"state": {"target": [], "time": []}, "edge": {"target": [], "time": []}}, "mouseover": {"state": {"target": [], "time": []}, "edge": {"target": [], "time": []}}, "mouseout": {"state": {"target": [], "time": []}, "edge": {"target": [], "time": []}}}, "displayed_time": "10.03", "trialTime": 10858, "trial_type": "mouselab-mdp", "trial_index": 67, "time_elapsed": 4605138, "internal_node_id": "0.0-4.0-3.0-9.0"}}, {"uniqueid": "w58231239:a49997480", "current_trial": 68, "dateTime": 1664468551688, "trialdata": {"revealed_states": [], "num_clicks_accrued": [0, 0, 0, 0, 0, 0, 0, 0, 0, 0, 0, 0, 0], "stateRewards": ["", -2, -4, -48, 48, -2, -4, 24, 48, -4, -8, -24, 24], "withholdReward": true, "trial_id": "mdp_917590390609", "block": "test2", "trialIndex": 48, "score": 23, "costs": 0, "simulationMode": [null, null, null], "rewards": [-2, -4, 24], "path": ["0", "0", "5", "6", "7"], "rt": [863, 256, 258], "actions": ["right", "right", "up"], "actionTimes": [1557, 2324, 3090], "queries": {"click": {"state": {"target": [], "time": []}, "edge": {"target": [], "time": []}}, "mouseover": {"state": {"target": [], "time": []}, "edge": {"target": [], "time": []}}, "mouseout": {"state": {"target": [], "time": []}, "edge": {"target": [], "time": []}}}, "displayed_time": "9.70", "trialTime": 10662, "trial_type": "mouselab-mdp", "trial_index": 68, "time_elapsed": 4615842, "internal_node_id": "0.0-4.0-3.0-10.0"}}, {"uniqueid": "w58231239:a49997480", "current_trial": 69, "dateTime": 1664468562319, "trialdata": {"revealed_states": [], "num_clicks_accrued": [0, 0, 0, 0, 0, 0, 0, 0, 0, 0, 0, 0, 0], "stateRewards": ["", -4, 4, 48, 24, -4, 4, -24, 48, -2, -8, 24, -48], "withholdReward": true, "trial_id": "mdp_261501605436", "block": "test2", "trialIndex": 49, "score": 19, "costs": 0, "simulationMode": [null, null, null], "rewards": [-2, -8, 24], "path": ["0", "0", "9", "10", "11"], "rt": [559, 90, 309], "actions": ["left", "left", "up"], "actionTimes": [1132, 1731, 2554], "queries": {"click": {"state": {"target": [], "time": []}, "edge": {"target": [], "time": []}}, "mouseover": {"state": {"target": [], "time": []}, "edge": {"target": [], "time": []}}, "mouseout": {"state": {"target": [], "time": []}, "edge": {"target": [], "time": []}}}, "displayed_time": "9.57", "trialTime": 10588, "trial_type": "mouselab-mdp", "trial_index": 69, "time_elapsed": 4626473, "internal_node_id": "0.0-4.0-3.0-11.0"}}, {"uniqueid": "w58231239:a49997480", "current_trial": 70, "dateTime": 1664468572777, "trialdata": {"revealed_states": [], "num_clicks_accrued": [0, 0, 0, 0, 0, 0, 0, 0, 0, 0, 0, 0, 0], "stateRewards": ["", -2, 8, 48, -24, 2, 4, -48, -24, -4, 8, -48, -48], "withholdReward": false, "trial_id": "mdp_539167561933", "block": "test2", "trialIndex": 50, "score": -13, "costs": 0, "simulationMode": [null, null, null], "rewards": [-2, 8, -24], "path": ["0", "0", "1", "2", "4"], "rt": [762, 188, 23], "actions": ["up", "up", "left"], "actionTimes": [1307, 1997, 2533], "queries": {"click": {"state": {"target": [], "time": []}, "edge": {"target": [], "time": []}}, "mouseover": {"state": {"target": [], "time": []}, "edge": {"target": [], "time": []}}, "mouseout": {"state": {"target": [], "time": []}, "edge": {"target": [], "time": []}}}, "displayed_time": "9.55", "trialTime": 10417, "trial_type": "mouselab-mdp", "trial_index": 70, "time_elapsed": 4636931, "internal_node_id": "0.0-4.0-3.0-12.0"}}, {"uniqueid": "w58231239:a49997480", "current_trial": 71, "dateTime": 1664468583299, "trialdata": {"revealed_states": [], "num_clicks_accrued": [0, 0, 0, 0, 0, 0, 0, 0, 0, 0, 0, 0, 0], "stateRewards": ["", 2, 8, 24, -48, 4, 8, 24, 24, 4, -8, 48, 48], "withholdReward": true, "trial_id": "mdp_646103824875", "block": "test2", "trialIndex": 51, "score": 41, "costs": 0, "simulationMode": [null, null, null], "rewards": [4, 8, 24], "path": ["0", "0", "5", "6", "7"], "rt": [682, 37, 102], "actions": ["right", "right", "up"], "actionTimes": [1099, 1641, 2247], "queries": {"click": {"state": {"target": [], "time": []}, "edge": {"target": [], "time": []}}, "mouseover": {"state": {"target": [], "time": []}, "edge": {"target": [], "time": []}}, "mouseout": {"state": {"target": [], "time": []}, "edge": {"target": [], "time": []}}}, "displayed_time": "9.42", "trialTime": 10477, "trial_type": "mouselab-mdp", "trial_index": 71, "time_elapsed": 4647453, "internal_node_id": "0.0-4.0-3.0-13.0"}}, {"uniqueid": "w58231239:a49997480", "current_trial": 72, "dateTime": 1664468594034, "trialdata": {"revealed_states": [], "num_clicks_accrued": [0, 0, 0, 0, 0, 0, 0, 0, 0, 0, 0, 0, 0], "stateRewards": ["", 2, 4, 48, 24, -2, -8, 24, 24, -2, 4, -48, 24], "withholdReward": true, "trial_id": "mdp_130849500124", "block": "test2", "trialIndex": 52, "score": 19, "costs": 0, "simulationMode": [null, null, null], "rewards": [-2, -8, 24], "path": ["0", "0", "5", "6", "8"], "rt": [1443, 304, 224], "actions": ["right", "right", "down"], "actionTimes": [2350, 3160, 3893], "queries": {"click": {"state": {"target": [], "time": []}, "edge": {"target": [], "time": []}}, "mouseover": {"state": {"target": [], "time": []}, "edge": {"target": [], "time": []}}, "mouseout": {"state": {"target": [], "time": []}, "edge": {"target": [], "time": []}}}, "displayed_time": "8.91", "trialTime": 10693, "trial_type": "mouselab-mdp", "trial_index": 72, "time_elapsed": 4658188, "internal_node_id": "0.0-4.0-3.0-14.0"}}, {"uniqueid": "w58231239:a49997480", "current_trial": 73, "dateTime": 1664468613983, "trialdata": {"revealed_states": [], "num_clicks_accrued": [0, 0, 0, 0, 0, 0, 0, 0, 0, 0, 0, 0, 0], "stateRewards": ["", -2, -8, 48, -24, 2, -4, -48, -24, -2, -4, -48, 48], "withholdReward": false, "trial_id": "mdp_143798438087", "block": "test2", "trialIndex": 53, "score": -45, "costs": 0, "simulationMode": [null, null, null], "rewards": [2, -4, -48], "path": ["0", "0", "5", "6", "7"], "rt": [667, 125, 66], "actions": ["right", "right", "up"], "actionTimes": [9039, 9675, 10247], "queries": {"click": {"state": {"target": [], "time": []}, "edge": {"target": [], "time": []}}, "mouseover": {"state": {"target": [], "time": []}, "edge": {"target": [], "time": []}}, "mouseout": {"state": {"target": [], "time": []}, "edge": {"target": [], "time": []}}}, "displayed_time": "17.37", "trialTime": 19905, "trial_type": "mouselab-mdp", "trial_index": 73, "time_elapsed": 4678137, "internal_node_id": "0.0-4.0-3.0-15.0"}}, {"uniqueid": "w58231239:a49997480", "current_trial": 74, "dateTime": 1664468630863, "trialdata": {"revealed_states": [], "num_clicks_accrued": [0, 0, 0, 0, 0, 0, 0, 0, 0, 0, 0, 0, 0], "stateRewards": ["", 2, 4, 48, 24, -4, 8, 48, 48, 2, -4, -48, -24], "withholdReward": true, "trial_id": "mdp_822099887466", "block": "test2", "trialIndex": 54, "score": -45, "costs": 0, "simulationMode": [null, null, null], "rewards": [2, -4, -48], "path": ["0", "0", "9", "10", "11"], "rt": [675, 344, 285], "actions": ["left", "left", "up"], "actionTimes": [6159, 7010, 7805], "queries": {"click": {"state": {"target": [], "time": []}, "edge": {"target": [], "time": []}}, "mouseover": {"state": {"target": [], "time": []}, "edge": {"target": [], "time": []}}, "mouseout": {"state": {"target": [], "time": []}, "edge": {"target": [], "time": []}}}, "displayed_time": "14.48", "trialTime": 16840, "trial_type": "mouselab-mdp", "trial_index": 74, "time_elapsed": 4695017, "internal_node_id": "0.0-4.0-3.0-16.0"}}, {"uniqueid": "w58231239:a49997480", "current_trial": 75, "dateTime": 1664468645075, "trialdata": {"revealed_states": [], "num_clicks_accrued": [0, 0, 0, 0, 0, 0, 0, 0, 0, 0, 0, 0, 0], "stateRewards": ["", -2, -4, -48, 48, -4, 4, -48, 24, -4, -8, 24, 48], "withholdReward": false, "trial_id": "mdp_264482284450", "block": "test2", "trialIndex": 55, "score": -43, "costs": 0, "simulationMode": [null, null, null], "rewards": [-4, 4, -48], "path": ["0", "0", "5", "6", "7"], "rt": [621, 198, 160], "actions": ["right", "right", "up"], "actionTimes": [4652, 5353, 6024], "queries": {"click": {"state": {"target": [], "time": []}, "edge": {"target": [], "time": []}}, "mouseover": {"state": {"target": [], "time": []}, "edge": {"target": [], "time": []}}, "mouseout": {"state": {"target": [], "time": []}, "edge": {"target": [], "time": []}}}, "displayed_time": "13.03", "trialTime": 14167, "trial_type": "mouselab-mdp", "trial_index": 75, "time_elapsed": 4709229, "internal_node_id": "0.0-4.0-3.0-17.0"}}, {"uniqueid": "w58231239:a49997480", "current_trial": 76, "dateTime": 1664468656610, "trialdata": {"revealed_states": [], "num_clicks_accrued": [0, 0, 0, 0, 0, 0, 0, 0, 0, 0, 0, 0, 0], "stateRewards": ["", -2, 4, -48, -48, -4, -8, 48, -48, 2, 4, 48, -48], "withholdReward": true, "trial_id": "mdp_258647270500", "block": "test2", "trialIndex": 56, "score": -41, "costs": 0, "simulationMode": [null, null, null], "rewards": [-2, 4, -48], "path": ["0", "0", "1", "2", "4"], "rt": [500, 91, 1209], "actions": ["up", "up", "left"], "actionTimes": [1290, 1887, 3603], "queries": {"click": {"state": {"target": [], "time": []}, "edge": {"target": [], "time": []}}, "mouseover": {"state": {"target": [], "time": []}, "edge": {"target": [], "time": []}}, "mouseout": {"state": {"target": [], "time": []}, "edge": {"target": [], "time": []}}}, "displayed_time": "9.79", "trialTime": 11489, "trial_type": "mouselab-mdp", "trial_index": 76, "time_elapsed": 4720764, "internal_node_id": "0.0-4.0-3.0-18.0"}}, {"uniqueid": "w58231239:a49997480", "current_trial": 77, "dateTime": 1664468667005, "trialdata": {"revealed_states": [], "num_clicks_accrued": [0, 0, 0, 0, 0, 0, 0, 0, 0, 0, 0, 0, 0], "stateRewards": ["", -4, -8, 24, 48, 2, -4, -24, 24, -4, 8, 48, 48], "withholdReward": true, "trial_id": "mdp_496672670022", "block": "test2", "trialIndex": 57, "score": 27, "costs": 0, "simulationMode": [null, null, null], "rewards": [2, -4, 24], "path": ["0", "0", "5", "6", "8"], "rt": [463, 169, 211], "actions": ["right", "right", "down"], "actionTimes": [1456, 2133, 2849], "queries": {"click": {"state": {"target": [], "time": []}, "edge": {"target": [], "time": []}}, "mouseover": {"state": {"target": [], "time": []}, "edge": {"target": [], "time": []}}, "mouseout": {"state": {"target": [], "time": []}, "edge": {"target": [], "time": []}}}, "displayed_time": "8.99", "trialTime": 10351, "trial_type": "mouselab-mdp", "trial_index": 77, "time_elapsed": 4731159, "internal_node_id": "0.0-4.0-3.0-19.0"}}, {"uniqueid": "w58231239:a49997480", "current_trial": 78, "dateTime": 1664468682667, "trialdata": {"revealed_states": [], "num_clicks_accrued": [0, 0, 0, 0, 0, 0, 0, 0, 0, 0, 0, 0, 0], "stateRewards": ["", -2, -8, 24, -24, 4, -8, 48, 48, -4, -8, -24, -48], "withholdReward": false, "trial_id": "mdp_286767261523", "block": "test2", "trialIndex": 58, "score": -29, "costs": 0, "simulationMode": [null, null, null], "rewards": [-2, -8, -24], "path": ["0", "0", "1", "2", "4"], "rt": [459, 100, 134], "actions": ["up", "up", "left"], "actionTimes": [5290, 5895, 6539], "queries": {"click": {"state": {"target": [], "time": []}, "edge": {"target": [], "time": []}}, "mouseover": {"state": {"target": [], "time": []}, "edge": {"target": [], "time": []}}, "mouseout": {"state": {"target": [], "time": []}, "edge": {"target": [], "time": []}}}, "displayed_time": "12.83", "trialTime": 15620, "trial_type": "mouselab-mdp", "trial_index": 78, "time_elapsed": 4746821, "internal_node_id": "0.0-4.0-3.0-20.0"}}, {"uniqueid": "w58231239:a49997480", "current_trial": 79, "dateTime": 1664468693202, "trialdata": {"revealed_states": [], "num_clicks_accrued": [0, 0, 0, 0, 0, 0, 0, 0, 0, 0, 0, 0, 0], "stateRewards": ["", 2, -4, 48, -48, 2, 4, -24, 24, -4, -8, 24, -48], "withholdReward": true, "trial_id": "mdp_238810765895", "block": "test2", "trialIndex": 59, "score": -13, "costs": 0, "simulationMode": [null, null, null], "rewards": [2, 4, -24], "path": ["0", "0", "5", "6", "7"], "rt": [486, 92, 157], "actions": ["right", "right", "up"], "actionTimes": [1252, 1853, 2516], "queries": {"click": {"state": {"target": [], "time": []}, "edge": {"target": [], "time": []}}, "mouseover": {"state": {"target": [], "time": []}, "edge": {"target": [], "time": []}}, "mouseout": {"state": {"target": [], "time": []}, "edge": {"target": [], "time": []}}}, "displayed_time": "8.77", "trialTime": 10491, "trial_type": "mouselab-mdp", "trial_index": 79, "time_elapsed": 4757356, "internal_node_id": "0.0-4.0-3.0-21.0"}}, {"uniqueid": "w58231239:a49997480", "current_trial": 80, "dateTime": 1664468704335, "trialdata": {"revealed_states": [], "num_clicks_accrued": [0, 0, 0, 0, 0, 0, 0, 0, 0, 0, 0, 0, 0], "stateRewards": ["", 2, 8, -48, -24, 2, -4, -48, 24, 2, -4, -24, -24], "withholdReward": true, "trial_id": "mdp_954659099093", "block": "test2", "trialIndex": 60, "score": -9, "costs": 0, "simulationMode": [null, null, null], "rewards": [2, 8, -24], "path": ["0", "0", "1", "2", "4"], "rt": [552, 65, 287], "actions": ["up", "up", "left"], "actionTimes": [1102, 1667, 2459], "queries": {"click": {"state": {"target": [], "time": []}, "edge": {"target": [], "time": []}}, "mouseover": {"state": {"target": [], "time": []}, "edge": {"target": [], "time": []}}, "mouseout": {"state": {"target": [], "time": []}, "edge": {"target": [], "time": []}}}, "displayed_time": "9.55", "trialTime": 11089, "trial_type": "mouselab-mdp", "trial_index": 80, "time_elapsed": 4768489, "internal_node_id": "0.0-4.0-3.0-22.0"}}, {"uniqueid": "w58231239:a49997480", "current_trial": 81, "dateTime": 1664468715137, "trialdata": {"revealed_states": [], "num_clicks_accrued": [0, 0, 0, 0, 0, 0, 0, 0, 0, 0, 0, 0, 0], "stateRewards": ["", -4, 8, -48, -48, -2, -8, -24, -48, 2, -4, -48, 24], "withholdReward": true, "trial_id": "mdp_743906784415", "block": "test2", "trialIndex": 61, "score": -45, "costs": 0, "simulationMode": [null, null, null], "rewards": [2, -4, -48], "path": ["0", "0", "9", "10", "11"], "rt": [1001, 120, 266], "actions": ["left", "left", "up"], "actionTimes": [1866, 2490, 3260], "queries": {"click": {"state": {"target": [], "time": []}, "edge": {"target": [], "time": []}}, "mouseover": {"state": {"target": [], "time": []}, "edge": {"target": [], "time": []}}, "mouseout": {"state": {"target": [], "time": []}, "edge": {"target": [], "time": []}}}, "displayed_time": "9.87", "trialTime": 10756, "trial_type": "mouselab-mdp", "trial_index": 81, "time_elapsed": 4779291, "internal_node_id": "0.0-4.0-3.0-23.0"}}, {"uniqueid": "w58231239:a49997480", "current_trial": 82, "dateTime": 1664468725765, "trialdata": {"revealed_states": [], "num_clicks_accrued": [0, 0, 0, 0, 0, 0, 0, 0, 0, 0, 0, 0, 0], "stateRewards": ["", -4, 8, 48, -48, 2, -4, 24, -24, -2, 4, -24, -24], "withholdReward": true, "trial_id": "mdp_804988042722", "block": "test2", "trialIndex": 62, "score": -21, "costs": 0, "simulationMode": [null, null, null], "rewards": [2, -4, -24], "path": ["0", "0", "5", "6", "8"], "rt": [1127, 295, 118], "actions": ["right", "right", "down"], "actionTimes": [1931, 2733, 3361], "queries": {"click": {"state": {"target": [], "time": []}, "edge": {"target": [], "time": []}}, "mouseover": {"state": {"target": [], "time": []}, "edge": {"target": [], "time": []}}, "mouseout": {"state": {"target": [], "time": []}, "edge": {"target": [], "time": []}}}, "displayed_time": "9.80", "trialTime": 10585, "trial_type": "mouselab-mdp", "trial_index": 82, "time_elapsed": 4789919, "internal_node_id": "0.0-4.0-3.0-24.0"}}, {"uniqueid": "w58231239:a49997480", "current_trial": 83, "dateTime": 1664468735643, "trialdata": {"revealed_states": [], "num_clicks_accrued": [0, 0, 0, 0, 0, 0, 0, 0, 0, 0, 0, 0, 0], "stateRewards": ["", -4, -8, 48, -48, 2, -4, 48, -24, 2, -8, -48, -48], "withholdReward": true, "trial_id": "mdp_624553692913", "block": "test2", "trialIndex": 63, "score": -49, "costs": 0, "simulationMode": [null, null, null], "rewards": [2, -8, -48], "path": ["0", "0", "9", "10", "12"], "rt": [568, 96, 493], "actions": ["left", "left", "down"], "actionTimes": [1596, 2193, 3188], "queries": {"click": {"state": {"target": [], "time": []}, "edge": {"target": [], "time": []}}, "mouseover": {"state": {"target": [], "time": []}, "edge": {"target": [], "time": []}}, "mouseout": {"state": {"target": [], "time": []}, "edge": {"target": [], "time": []}}}, "displayed_time": "9.03", "trialTime": 9832, "trial_type": "mouselab-mdp", "trial_index": 83, "time_elapsed": 4799797, "internal_node_id": "0.0-4.0-3.0-25.0"}}, {"uniqueid": "w58231239:a49997480", "current_trial": 84, "dateTime": 1664468749123, "trialdata": {"revealed_states": [], "num_clicks_accrued": [0, 0, 0, 0, 0, 0, 0, 0, 0, 0, 0, 0, 0], "stateRewards": ["", -4, -8, 24, -48, 2, 4, -48, -48, 2, -8, 24, 48], "withholdReward": true, "trial_id": "mdp_111262146724", "block": "test2", "trialIndex": 64, "score": -55, "costs": 0, "simulationMode": [null, null, null], "rewards": [-4, -8, -48], "path": ["0", "0", "1", "2", "4"], "rt": [813, 283, 231], "actions": ["up", "up", "left"], "actionTimes": [1366, 2163, 2896], "queries": {"click": {"state": {"target": [], "time": []}, "edge": {"target": [], "time": []}}, "mouseover": {"state": {"target": [], "time": []}, "edge": {"target": [], "time": []}}, "mouseout": {"state": {"target": [], "time": []}, "edge": {"target": [], "time": []}}}, "displayed_time": "9.55", "trialTime": 13435, "trial_type": "mouselab-mdp", "trial_index": 84, "time_elapsed": 4813277, "internal_node_id": "0.0-4.0-3.0-26.0"}}, {"uniqueid": "w58231239:a49997480", "current_trial": 85, "dateTime": 1664468761667, "trialdata": {"revealed_states": [], "num_clicks_accrued": [0, 0, 0, 0, 0, 0, 0, 0, 0, 0, 0, 0, 0], "stateRewards": ["", 2, -4, 24, -24, 2, -8, 48, 48, 4, -4, 24, 48], "withholdReward": false, "trial_id": "mdp_947836623875", "block": "test2", "trialIndex": 65, "score": 47, "costs": 0, "simulationMode": [null, null, null], "rewards": [2, -8, 48], "path": ["0", "0", "5", "6", "7"], "rt": [813, 434, 38], "actions": ["right", "right", "up"], "actionTimes": [2076, 3014, 3555], "queries": {"click": {"state": {"target": [], "time": []}, "edge": {"target": [], "time": []}}, "mouseover": {"state": {"target": [], "time": []}, "edge": {"target": [], "time": []}}, "mouseout": {"state": {"target": [], "time": []}, "edge": {"target": [], "time": []}}}, "displayed_time": "10.27", "trialTime": 12492, "trial_type": "mouselab-mdp", "trial_index": 85, "time_elapsed": 4825821, "internal_node_id": "0.0-4.0-3.0-27.0"}}, {"uniqueid": "w58231239:a49997480", "current_trial": 86, "dateTime": 1664468774396, "trialdata": {"revealed_states": [], "num_clicks_accrued": [0, 0, 0, 0, 0, 0, 0, 0, 0, 0, 0, 0, 0], "stateRewards": ["", 4, -8, 24, 48, 2, -4, 48, 48, 4, -8, 48, 48], "withholdReward": true, "trial_id": "mdp_962498334245", "block": "test2", "trialIndex": 66, "score": 51, "costs": 0, "simulationMode": [null, null, null], "rewards": [2, -4, 48], "path": ["0", "0", "5", "6", "8"], "rt": [582, 330, 192], "actions": ["right", "right", "down"], "actionTimes": [1560, 2396, 3091], "queries": {"click": {"state": {"target": [], "time": []}, "edge": {"target": [], "time": []}}, "mouseover": {"state": {"target": [], "time": []}, "edge": {"target": [], "time": []}}, "mouseout": {"state": {"target": [], "time": []}, "edge": {"target": [], "time": []}}}, "displayed_time": "8.98", "trialTime": 12678, "trial_type": "mouselab-mdp", "trial_index": 86, "time_elapsed": 4838550, "internal_node_id": "0.0-4.0-3.0-28.0"}}, {"uniqueid": "w58231239:a49997480", "current_trial": 87, "dateTime": 1664468792755, "trialdata": {"revealed_states": [], "num_clicks_accrued": [0, 0, 0, 0, 0, 0, 0, 0, 0, 0, 0, 0, 0], "stateRewards": ["", -2, 4, 24, 48, 2, 4, -48, -48, -2, 8, 48, -24], "withholdReward": true, "trial_id": "mdp_305701202606", "block": "test2", "trialIndex": 67, "score": 55, "costs": 0, "simulationMode": [null, null, null], "rewards": [-2, 4, 48], "path": ["0", "0", "1", "2", "4"], "rt": [546, 273, 256], "actions": ["up", "up", "left"], "actionTimes": [7192, 7967, 8735], "queries": {"click": {"state": {"target": [], "time": []}, "edge": {"target": [], "time": []}}, "mouseover": {"state": {"target": [], "time": []}, "edge": {"target": [], "time": []}}, "mouseout": {"state": {"target": [], "time": []}, "edge": {"target": [], "time": []}}}, "displayed_time": "14.65", "trialTime": 18312, "trial_type": "mouselab-mdp", "trial_index": 87, "time_elapsed": 4856909, "internal_node_id": "0.0-4.0-3.0-29.0"}}, {"uniqueid": "w58231239:a49997480", "current_trial": 88, "dateTime": 1664468889405, "trialdata": {"rt": 96646, "stimulus": "<h1> End of block! </h1>\n\nYou have reached the end of the block 2/4. If you need a short break, feel free to take one now before moving on.\n\n<br><br>\nIn the next block, you will complete another 30 rounds of this game.\n\n<br><br>\n<div style='text-align: center;'>Press <code>space</code> to begin.</div>\n<br><br>\n<div style='text-align: center;'>(If the experiment doesn't continue, try clicking on the text and then pressing <code>space</code>.)</div>", "response": " ", "trial_id": "mdp_ready_3", "trial_type": "html-keyboard-response", "trial_index": 88, "time_elapsed": 4953559, "internal_node_id": "0.0-4.0-4.0"}}, {"uniqueid": "w58231239:a49997480", "current_trial": 89, "dateTime": 1664468900006, "trialdata": {"revealed_states": [], "num_clicks_accrued": [0, 0, 0, 0, 0, 0, 0, 0, 0, 0, 0, 0, 0], "stateRewards": ["", 2, 4, 48, -24, 2, -8, -24, -24, 2, -8, -24, -48], "withholdReward": true, "trial_id": "mdp_274832552938", "block": "test3", "trialIndex": 68, "score": -13, "costs": 0, "simulationMode": [null, null, null], "rewards": [2, 4, -24], "path": ["0", "0", "1", "2", "4"], "rt": [511, 79, 15], "actions": ["up", "up", "left"], "actionTimes": [1379, 1960, 2479], "queries": {"click": {"state": {"target": [], "time": []}, "edge": {"target": [], "time": []}}, "mouseover": {"state": {"target": [], "time": []}, "edge": {"target": [], "time": []}}, "mouseout": {"state": {"target": [], "time": []}, "edge": {"target": [], "time": []}}}, "displayed_time": "9.87", "trialTime": 10537, "trial_type": "mouselab-mdp", "trial_index": 89, "time_elapsed": 4964159, "internal_node_id": "0.0-4.0-5.0-0.0"}}, {"uniqueid": "w58231239:a49997480", "current_trial": 90, "dateTime": 1664468909999, "trialdata": {"revealed_states": [], "num_clicks_accrued": [0, 0, 0, 0, 0, 0, 0, 0, 0, 0, 0, 0, 0], "stateRewards": ["", 2, 4, -48, 24, -4, 4, -24, 48, -2, -8, -48, 48], "withholdReward": true, "trial_id": "mdp_424193661731", "block": "test3", "trialIndex": 69, "score": 53, "costs": 0, "simulationMode": [null, null, null], "rewards": [-4, 4, 48], "path": ["0", "0", "5", "6", "8"], "rt": [570, 260, 261], "actions": ["right", "right", "down"], "actionTimes": [1949, 2719, 3491], "queries": {"click": {"state": {"target": [], "time": []}, "edge": {"target": [], "time": []}}, "mouseover": {"state": {"target": [], "time": []}, "edge": {"target": [], "time": []}}, "mouseout": {"state": {"target": [], "time": []}, "edge": {"target": [], "time": []}}}, "displayed_time": "9.38", "trialTime": 9950, "trial_type": "mouselab-mdp", "trial_index": 90, "time_elapsed": 4974153, "internal_node_id": "0.0-4.0-5.0-1.0"}}, {"uniqueid": "w58231239:a49997480", "current_trial": 91, "dateTime": 1664468925802, "trialdata": {"revealed_states": [], "num_clicks_accrued": [0, 0, 0, 0, 0, 0, 0, 0, 0, 0, 0, 0, 0], "stateRewards": ["", 4, 4, -24, -48, 2, 4, 24, -48, 2, 4, 24, 24], "withholdReward": true, "trial_id": "mdp_223558518218", "block": "test3", "trialIndex": 70, "score": 35, "costs": 0, "simulationMode": [null, null, null], "rewards": [2, 4, 24], "path": ["0", "0", "9", "10", "11"], "rt": [644, 93, 319], "actions": ["left", "left", "up"], "actionTimes": [3095, 3693, 4516], "queries": {"click": {"state": {"target": [], "time": []}, "edge": {"target": [], "time": []}}, "mouseover": {"state": {"target": [], "time": []}, "edge": {"target": [], "time": []}}, "mouseout": {"state": {"target": [], "time": []}, "edge": {"target": [], "time": []}}}, "displayed_time": "10.45", "trialTime": 15756, "trial_type": "mouselab-mdp", "trial_index": 91, "time_elapsed": 4989956, "internal_node_id": "0.0-4.0-5.0-2.0"}}, {"uniqueid": "w58231239:a49997480", "current_trial": 92, "dateTime": 1664468938185, "trialdata": {"revealed_states": [], "num_clicks_accrued": [0, 0, 0, 0, 0, 0, 0, 0, 0, 0, 0, 0, 0], "stateRewards": ["", -2, -8, 24, -48, 4, 4, -24, -48, -2, -8, -48, 24], "withholdReward": true, "trial_id": "mdp_556006673466", "block": "test3", "trialIndex": 71, "score": -53, "costs": 0, "simulationMode": [null, null, null], "rewards": [-2, -8, -48], "path": ["0", "0", "1", "2", "4"], "rt": [882, 181, 68], "actions": ["up", "up", "left"], "actionTimes": [2396, 3079, 3653], "queries": {"click": {"state": {"target": [], "time": []}, "edge": {"target": [], "time": []}}, "mouseover": {"state": {"target": [], "time": []}, "edge": {"target": [], "time": []}}, "mouseout": {"state": {"target": [], "time": []}, "edge": {"target": [], "time": []}}}, "displayed_time": "10.52", "trialTime": 12332, "trial_type": "mouselab-mdp", "trial_index": 92, "time_elapsed": 5002339, "internal_node_id": "0.0-4.0-5.0-3.0"}}, {"uniqueid": "w58231239:a49997480", "current_trial": 93, "dateTime": 1664468951679, "trialdata": {"revealed_states": [], "num_clicks_accrued": [0, 0, 0, 0, 0, 0, 0, 0, 0, 0, 0, 0, 0], "stateRewards": ["", -2, 8, 48, 48, 4, -8, -48, 48, 2, -4, -48, 48], "withholdReward": true, "trial_id": "mdp_132958048709", "block": "test3", "trialIndex": 72, "score": 49, "costs": 0, "simulationMode": [null, null, null], "rewards": [4, -8, 48], "path": ["0", "0", "5", "6", "8"], "rt": [1545, 136, 677], "actions": ["right", "right", "down"], "actionTimes": [3561, 4204, 5391], "queries": {"click": {"state": {"target": [], "time": []}, "edge": {"target": [], "time": []}}, "mouseover": {"state": {"target": [], "time": []}, "edge": {"target": [], "time": []}}, "mouseout": {"state": {"target": [], "time": []}, "edge": {"target": [], "time": []}}}, "displayed_time": "10.02", "trialTime": 13449, "trial_type": "mouselab-mdp", "trial_index": 93, "time_elapsed": 5015833, "internal_node_id": "0.0-4.0-5.0-4.0"}}, {"uniqueid": "w58231239:a49997480", "current_trial": 94, "dateTime": 1664468960692, "trialdata": {"revealed_states": [], "num_clicks_accrued": [0, 0, 0, 0, 0, 0, 0, 0, 0, 0, 0, 0, 0], "stateRewards": ["", 4, 4, 48, -48, -2, 4, 48, -48, -4, 4, -24, -24], "withholdReward": false, "trial_id": "mdp_753324812898", "block": "test3", "trialIndex": 73, "score": -35, "costs": 0, "simulationMode": [null, null, null], "rewards": [4, 4, -48], "path": ["0", "0", "1", "2", "4"], "rt": [1373, 201, 376], "actions": ["up", "up", "left"], "actionTimes": [1863, 2572, 3455], "queries": {"click": {"state": {"target": [], "time": []}, "edge": {"target": [], "time": []}}, "mouseover": {"state": {"target": [], "time": []}, "edge": {"target": [], "time": []}}, "mouseout": {"state": {"target": [], "time": []}, "edge": {"target": [], "time": []}}}, "displayed_time": "8.49", "trialTime": 8966, "trial_type": "mouselab-mdp", "trial_index": 94, "time_elapsed": 5024846, "internal_node_id": "0.0-4.0-5.0-5.0"}}, {"uniqueid": "w58231239:a49997480", "current_trial": 95, "dateTime": 1664468971141, "trialdata": {"revealed_states": [], "num_clicks_accrued": [0, 0, 0, 0, 0, 0, 0, 0, 0, 0, 0, 0, 0], "stateRewards": ["", -2, -4, 48, -24, -4, -4, -24, -24, -2, 4, -48, -24], "withholdReward": false, "trial_id": "mdp_410467837196", "block": "test3", "trialIndex": 74, "score": -27, "costs": 0, "simulationMode": [null, null, null], "rewards": [-4, -4, -24], "path": ["0", "0", "5", "6", "8"], "rt": [861, 141, 183], "actions": ["right", "right", "down"], "actionTimes": [1516, 2163, 2852], "queries": {"click": {"state": {"target": [], "time": []}, "edge": {"target": [], "time": []}}, "mouseover": {"state": {"target": [], "time": []}, "edge": {"target": [], "time": []}}, "mouseout": {"state": {"target": [], "time": []}, "edge": {"target": [], "time": []}}}, "displayed_time": "9.66", "trialTime": 10400, "trial_type": "mouselab-mdp", "trial_index": 95, "time_elapsed": 5035295, "internal_node_id": "0.0-4.0-5.0-6.0"}}, {"uniqueid": "w58231239:a49997480", "current_trial": 96, "dateTime": 1664468981062, "trialdata": {"revealed_states": [], "num_clicks_accrued": [0, 0, 0, 0, 0, 0, 0, 0, 0, 0, 0, 0, 0], "stateRewards": ["", 2, 8, -24, -48, 2, 4, -24, 48, 2, -8, 48, -24], "withholdReward": true, "trial_id": "mdp_791659307216", "block": "test3", "trialIndex": 75, "score": 47, "costs": 0, "simulationMode": [null, null, null], "rewards": [2, -8, 48], "path": ["0", "0", "9", "10", "11"], "rt": [583, 19, 191], "actions": ["left", "left", "up"], "actionTimes": [1012, 1533, 2233], "queries": {"click": {"state": {"target": [], "time": []}, "edge": {"target": [], "time": []}}, "mouseover": {"state": {"target": [], "time": []}, "edge": {"target": [], "time": []}}, "mouseout": {"state": {"target": [], "time": []}, "edge": {"target": [], "time": []}}}, "displayed_time": "9.43", "trialTime": 9874, "trial_type": "mouselab-mdp", "trial_index": 96, "time_elapsed": 5045216, "internal_node_id": "0.0-4.0-5.0-7.0"}}, {"uniqueid": "w58231239:a49997480", "current_trial": 97, "dateTime": 1664468993011, "trialdata": {"revealed_states": [], "num_clicks_accrued": [0, 0, 0, 0, 0, 0, 0, 0, 0, 0, 0, 0, 0], "stateRewards": ["", -2, 4, 24, 48, 2, 4, -48, -48, -2, 8, 48, -24], "withholdReward": true, "trial_id": "mdp_305701202606", "block": "test3", "trialIndex": 76, "score": 59, "costs": 0, "simulationMode": [null, null, null], "rewards": [-2, 8, 48], "path": ["0", "0", "9", "10", "11"], "rt": [844, 733, 110], "actions": ["left", "left", "up"], "actionTimes": [1493, 2740, 3359], "queries": {"click": {"state": {"target": [], "time": []}, "edge": {"target": [], "time": []}}, "mouseover": {"state": {"target": [], "time": []}, "edge": {"target": [], "time": []}}, "mouseout": {"state": {"target": [], "time": []}, "edge": {"target": [], "time": []}}}, "displayed_time": "9.65", "trialTime": 11900, "trial_type": "mouselab-mdp", "trial_index": 97, "time_elapsed": 5057165, "internal_node_id": "0.0-4.0-5.0-8.0"}}, {"uniqueid": "w58231239:a49997480", "current_trial": 98, "dateTime": 1664469002814, "trialdata": {"revealed_states": [], "num_clicks_accrued": [0, 0, 0, 0, 0, 0, 0, 0, 0, 0, 0, 0, 0], "stateRewards": ["", 4, 8, -48, 24, -2, 8, -48, -48, -4, 4, 48, -48], "withholdReward": false, "trial_id": "mdp_693807815190", "block": "test3", "trialIndex": 77, "score": -37, "costs": 0, "simulationMode": [null, null, null], "rewards": [-2, 8, -48], "path": ["0", "0", "5", "6", "8"], "rt": [595, 338, 50], "actions": ["right", "right", "down"], "actionTimes": [1051, 1895, 2454], "queries": {"click": {"state": {"target": [], "time": []}, "edge": {"target": [], "time": []}}, "mouseover": {"state": {"target": [], "time": []}, "edge": {"target": [], "time": []}}, "mouseout": {"state": {"target": [], "time": []}, "edge": {"target": [], "time": []}}}, "displayed_time": "9.46", "trialTime": 9754, "trial_type": "mouselab-mdp", "trial_index": 98, "time_elapsed": 5066968, "internal_node_id": "0.0-4.0-5.0-9.0"}}, {"uniqueid": "w58231239:a49997480", "current_trial": 99, "dateTime": 1664469016350, "trialdata": {"revealed_states": [], "num_clicks_accrued": [0, 0, 0, 0, 0, 0, 0, 0, 0, 0, 0, 0, 0], "stateRewards": ["", 4, 4, 24, 24, 4, -4, 48, 48, 4, 4, 24, -48], "withholdReward": true, "trial_id": "mdp_454251689008", "block": "test3", "trialIndex": 78, "score": 53, "costs": 0, "simulationMode": [null, null, null], "rewards": [4, -4, 48], "path": ["0", "0", "5", "6", "7"], "rt": [759, 276, 543], "actions": ["right", "right", "up"], "actionTimes": [1211, 1998, 3044], "queries": {"click": {"state": {"target": [], "time": []}, "edge": {"target": [], "time": []}}, "mouseover": {"state": {"target": [], "time": []}, "edge": {"target": [], "time": []}}, "mouseout": {"state": {"target": [], "time": []}, "edge": {"target": [], "time": []}}}, "displayed_time": "10.45", "trialTime": 13489, "trial_type": "mouselab-mdp", "trial_index": 99, "time_elapsed": 5080504, "internal_node_id": "0.0-4.0-5.0-10.0"}}, {"uniqueid": "w58231239:a49997480", "current_trial": 100, "dateTime": 1664469030380, "trialdata": {"revealed_states": [], "num_clicks_accrued": [0, 0, 0, 0, 0, 0, 0, 0, 0, 0, 0, 0, 0], "stateRewards": ["", -4, -8, -24, -48, -2, -8, 24, -48, -4, -8, 24, -48], "withholdReward": true, "trial_id": "mdp_621812384092", "block": "test3", "trialIndex": 79, "score": 19, "costs": 0, "simulationMode": [null, null, null], "rewards": [-2, -8, 24], "path": ["0", "0", "5", "6", "7"], "rt": [625, 159, 162], "actions": ["right", "right", "up"], "actionTimes": [1663, 2329, 2999], "queries": {"click": {"state": {"target": [], "time": []}, "edge": {"target": [], "time": []}}, "mouseover": {"state": {"target": [], "time": []}, "edge": {"target": [], "time": []}}, "mouseout": {"state": {"target": [], "time": []}, "edge": {"target": [], "time": []}}}, "displayed_time": "10.04", "trialTime": 13982, "trial_type": "mouselab-mdp", "trial_index": 100, "time_elapsed": 5094534, "internal_node_id": "0.0-4.0-5.0-11.0"}}, {"uniqueid": "w58231239:a49997480", "current_trial": 101, "dateTime": 1664469039132, "trialdata": {"revealed_states": [], "num_clicks_accrued": [0, 0, 0, 0, 0, 0, 0, 0, 0, 0, 0, 0, 0], "stateRewards": ["", 2, 8, 48, -48, -2, -4, -24, 24, 4, -4, 48, -48], "withholdReward": false, "trial_id": "mdp_105734044587", "block": "test3", "trialIndex": 80, "score": 53, "costs": 0, "simulationMode": [null, null, null], "rewards": [4, -4, 48], "path": ["0", "0", "9", "10", "11"], "rt": [429, 192, 207], "actions": ["left", "left", "up"], "actionTimes": [804, 1506, 2222], "queries": {"click": {"state": {"target": [], "time": []}, "edge": {"target": [], "time": []}}, "mouseover": {"state": {"target": [], "time": []}, "edge": {"target": [], "time": []}}, "mouseout": {"state": {"target": [], "time": []}, "edge": {"target": [], "time": []}}}, "displayed_time": "8.38", "trialTime": 8705, "trial_type": "mouselab-mdp", "trial_index": 101, "time_elapsed": 5103286, "internal_node_id": "0.0-4.0-5.0-12.0"}}, {"uniqueid": "w58231239:a49997480", "current_trial": 102, "dateTime": 1664469048880, "trialdata": {"revealed_states": [], "num_clicks_accrued": [0, 0, 0, 0, 0, 0, 0, 0, 0, 0, 0, 0, 0], "stateRewards": ["", -4, 4, -24, -24, -4, -8, 24, 48, 4, -4, 24, 48], "withholdReward": true, "trial_id": "mdp_175395325183", "block": "test3", "trialIndex": 81, "score": 41, "costs": 0, "simulationMode": [null, null, null], "rewards": [-4, -8, 48], "path": ["0", "0", "5", "6", "8"], "rt": [456, 56, 148], "actions": ["right", "right", "down"], "actionTimes": [1703, 2266, 2920], "queries": {"click": {"state": {"target": [], "time": []}, "edge": {"target": [], "time": []}}, "mouseover": {"state": {"target": [], "time": []}, "edge": {"target": [], "time": []}}, "mouseout": {"state": {"target": [], "time": []}, "edge": {"target": [], "time": []}}}, "displayed_time": "9.25", "trialTime": 9696, "trial_type": "mouselab-mdp", "trial_index": 102, "time_elapsed": 5113034, "internal_node_id": "0.0-4.0-5.0-13.0"}}, {"uniqueid": "w58231239:a49997480", "current_trial": 103, "dateTime": 1664469058921, "trialdata": {"revealed_states": [], "num_clicks_accrued": [0, 0, 0, 0, 0, 0, 0, 0, 0, 0, 0, 0, 0], "stateRewards": ["", -4, 4, -48, -48, -4, 8, -24, 24, 2, -4, 48, 48], "withholdReward": true, "trial_id": "mdp_821566905048", "block": "test3", "trialIndex": 82, "score": -15, "costs": 0, "simulationMode": [null, null, null], "rewards": [-4, 8, -24], "path": ["0", "0", "5", "6", "7"], "rt": [907, 218, 167], "actions": ["right", "right", "up"], "actionTimes": [1396, 2120, 2798], "queries": {"click": {"state": {"target": [], "time": []}, "edge": {"target": [], "time": []}}, "mouseover": {"state": {"target": [], "time": []}, "edge": {"target": [], "time": []}}, "mouseout": {"state": {"target": [], "time": []}, "edge": {"target": [], "time": []}}}, "displayed_time": "9.49", "trialTime": 9992, "trial_type": "mouselab-mdp", "trial_index": 103, "time_elapsed": 5123074, "internal_node_id": "0.0-4.0-5.0-14.0"}}, {"uniqueid": "w58231239:a49997480", "current_trial": 104, "dateTime": 1664469069129, "trialdata": {"revealed_states": [], "num_clicks_accrued": [0, 0, 0, 0, 0, 0, 0, 0, 0, 0, 0, 0, 0], "stateRewards": ["", -2, -4, -48, -48, 4, -4, 48, 24, 4, 4, 48, 48], "withholdReward": true, "trial_id": "mdp_950960813932", "block": "test3", "trialIndex": 83, "score": 29, "costs": 0, "simulationMode": [null, null, null], "rewards": [4, -4, 24], "path": ["0", "0", "5", "6", "8"], "rt": [692, 88, 107], "actions": ["right", "right", "down"], "actionTimes": [1151, 1744, 2353], "queries": {"click": {"state": {"target": [], "time": []}, "edge": {"target": [], "time": []}}, "mouseover": {"state": {"target": [], "time": []}, "edge": {"target": [], "time": []}}, "mouseout": {"state": {"target": [], "time": []}, "edge": {"target": [], "time": []}}}, "displayed_time": "9.46", "trialTime": 10155, "trial_type": "mouselab-mdp", "trial_index": 104, "time_elapsed": 5133283, "internal_node_id": "0.0-4.0-5.0-15.0"}}, {"uniqueid": "w58231239:a49997480", "current_trial": 105, "dateTime": 1664469079151, "trialdata": {"revealed_states": [], "num_clicks_accrued": [0, 0, 0, 0, 0, 0, 0, 0, 0, 0, 0, 0, 0], "stateRewards": ["", 2, -8, 24, 24, 4, -4, -24, -48, 4, 8, 24, 24], "withholdReward": false, "trial_id": "mdp_249803813713", "block": "test3", "trialIndex": 84, "score": 41, "costs": 0, "simulationMode": [null, null, null], "rewards": [4, 8, 24], "path": ["0", "0", "9", "10", "12"], "rt": [478, 301, 596], "actions": ["left", "left", "down"], "actionTimes": [833, 1636, 2743], "queries": {"click": {"state": {"target": [], "time": []}, "edge": {"target": [], "time": []}}, "mouseover": {"state": {"target": [], "time": []}, "edge": {"target": [], "time": []}}, "mouseout": {"state": {"target": [], "time": []}, "edge": {"target": [], "time": []}}}, "displayed_time": "7.36", "trialTime": 9974, "trial_type": "mouselab-mdp", "trial_index": 105, "time_elapsed": 5143305, "internal_node_id": "0.0-4.0-5.0-16.0"}}, {"uniqueid": "w58231239:a49997480", "current_trial": 106, "dateTime": 1664469091123, "trialdata": {"revealed_states": [], "num_clicks_accrued": [0, 0, 0, 0, 0, 0, 0, 0, 0, 0, 0, 0, 0], "stateRewards": ["", -2, -4, -48, 48, -4, 4, -48, 24, -4, -8, 24, 48], "withholdReward": true, "trial_id": "mdp_264482284450", "block": "test3", "trialIndex": 85, "score": 41, "costs": 0, "simulationMode": [null, null, null], "rewards": [-4, -8, 48], "path": ["0", "0", "9", "10", "12"], "rt": [563, 223, 405], "actions": ["left", "left", "down"], "actionTimes": [946, 1673, 2584], "queries": {"click": {"state": {"target": [], "time": []}, "edge": {"target": [], "time": []}}, "mouseover": {"state": {"target": [], "time": []}, "edge": {"target": [], "time": []}}, "mouseout": {"state": {"target": [], "time": []}, "edge": {"target": [], "time": []}}}, "displayed_time": "8.38", "trialTime": 11924, "trial_type": "mouselab-mdp", "trial_index": 106, "time_elapsed": 5155277, "internal_node_id": "0.0-4.0-5.0-17.0"}}, {"uniqueid": "w58231239:a49997480", "current_trial": 107, "dateTime": 1664469100198, "trialdata": {"revealed_states": [], "num_clicks_accrued": [0, 0, 0, 0, 0, 0, 0, 0, 0, 0, 0, 0, 0], "stateRewards": ["", -4, 8, -48, -48, -2, -8, -24, -48, 2, -4, -48, 24], "withholdReward": true, "trial_id": "mdp_743906784415", "block": "test3", "trialIndex": 86, "score": -53, "costs": 0, "simulationMode": [null, null, null], "rewards": [-2, -8, -48], "path": ["0", "0", "5", "6", "8"], "rt": [862, 91, 131], "actions": ["right", "right", "down"], "actionTimes": [1363, 1961, 2605], "queries": {"click": {"state": {"target": [], "time": []}, "edge": {"target": [], "time": []}}, "mouseover": {"state": {"target": [], "time": []}, "edge": {"target": [], "time": []}}, "mouseout": {"state": {"target": [], "time": []}, "edge": {"target": [], "time": []}}}, "displayed_time": "8.50", "trialTime": 9023, "trial_type": "mouselab-mdp", "trial_index": 107, "time_elapsed": 5164352, "internal_node_id": "0.0-4.0-5.0-18.0"}}, {"uniqueid": "w58231239:a49997480", "current_trial": 108, "dateTime": 1664469109792, "trialdata": {"revealed_states": [], "num_clicks_accrued": [0, 0, 0, 0, 0, 0, 0, 0, 0, 0, 0, 0, 0], "stateRewards": ["", -4, -4, -48, 48, -4, -8, -24, -48, -2, 8, 48, 24], "withholdReward": false, "trial_id": "mdp_365393526663", "block": "test3", "trialIndex": 87, "score": 35, "costs": 0, "simulationMode": [null, null, null], "rewards": [-2, 8, 24], "path": ["0", "0", "9", "10", "12"], "rt": [679, 199, 368], "actions": ["left", "left", "down"], "actionTimes": [1552, 2255, 3133], "queries": {"click": {"state": {"target": [], "time": []}, "edge": {"target": [], "time": []}}, "mouseover": {"state": {"target": [], "time": []}, "edge": {"target": [], "time": []}}, "mouseout": {"state": {"target": [], "time": []}, "edge": {"target": [], "time": []}}}, "displayed_time": "8.87", "trialTime": 9546, "trial_type": "mouselab-mdp", "trial_index": 108, "time_elapsed": 5173945, "internal_node_id": "0.0-4.0-5.0-19.0"}}, {"uniqueid": "w58231239:a49997480", "current_trial": 109, "dateTime": 1664469121035, "trialdata": {"revealed_states": [], "num_clicks_accrued": [0, 0, 0, 0, 0, 0, 0, 0, 0, 0, 0, 0, 0], "stateRewards": ["", 4, -4, 24, 48, 4, 8, -24, -24, -2, 4, 48, 48], "withholdReward": true, "trial_id": "mdp_624998450453", "block": "test3", "trialIndex": 88, "score": 55, "costs": 0, "simulationMode": [null, null, null], "rewards": [-2, 4, 48], "path": ["0", "0", "9", "10", "12"], "rt": [468, 290, 363], "actions":