{"condition": 1, "counterbalance": 0, "assignmentId": "a29038827", "workerId": "w58047528", "hitId": "h13494353", "currenttrial": 137, "bonus": 0, "data": [{"uniqueid": "w58047528:a29038827", "current_trial": 0, "dateTime": 1664873118793, "trialdata": {"success": true, "trial_type": "fullscreen", "trial_index": 0, "time_elapsed": 5799, "internal_node_id": "0.0-0.0"}}, {"uniqueid": "w58047528:a29038827", "current_trial": 1, "dateTime": 1664873139828, "trialdata": {"view_history": [{"page_index": 0, "viewing_time": 21029}], "rt": 21029, "trial_id": "exp_instructions_no_distractor", "trial_type": "instructions", "trial_index": 1, "time_elapsed": 26835, "internal_node_id": "0.0-1.0"}}, {"uniqueid": "w58047528:a29038827", "current_trial": 2, "dateTime": 1664873142948, "trialdata": {"success": true, "trial_type": "fullscreen", "trial_index": 2, "time_elapsed": 29955, "internal_node_id": "0.0-2.0-0.0"}}, {"uniqueid": "w58047528:a29038827", "current_trial": 3, "dateTime": 1664873256336, "trialdata": {"view_history": [{"page_index": 0, "viewing_time": 47154}, {"page_index": 1, "viewing_time": 23960}, {"page_index": 2, "viewing_time": 13782}, {"page_index": 3, "viewing_time": 7288}, {"page_index": 4, "viewing_time": 21202}], "rt": 113386, "trial_id": "mouselab_instructions_1", "trial_type": "instructions", "trial_index": 3, "time_elapsed": 143343, "internal_node_id": "0.0-2.0-1.0"}}, {"uniqueid": "w58047528:a29038827", "current_trial": 4, "dateTime": 1664873271328, "trialdata": {"revealed_states": [], "num_clicks_accrued": [0, 0, 0, 0, 0, 0, 0, 0, 0, 0, 0, 0, 0], "stateRewards": ["", 10, 10, 10, 10, -10, -10, 10, 10, -10, -10, -10, 10], "withholdReward": false, "trial_id": "practice_1", "block": "test", "trialIndex": 0, "score": -8.25, "costs": -0.25, "simulationMode": [null, null, null], "rewards": [-10, -10, 10], "path": ["0", "0", "5", "6", "8"], "rt": [5324, 757, 372], "actions": ["right", "right", "down"], "actionTimes": [8275, 9522, 10403], "queries": {"click": {"state": {"target": ["9"], "time": [5281]}, "edge": {"target": [], "time": []}}, "mouseover": {"state": {"target": ["0", "9"], "time": [3147, 4964]}, "edge": {"target": [], "time": []}}, "mouseout": {"state": {"target": ["5", "6", "5", "0", "0", "9"], "time": [14, 30, 2264, 2313, 3164, 5480]}, "edge": {"target": [], "time": []}}}, "displayed_time": "10.91", "trialTime": 14778, "trial_type": "mouselab-mdp", "trial_index": 4, "time_elapsed": 158335, "internal_node_id": "0.0-2.0-2.0-0.0"}}, {"uniqueid": "w58047528:a29038827", "current_trial": 5, "dateTime": 1664873281752, "trialdata": {"revealed_states": [], "num_clicks_accrued": [0, 0, 0, 0, 0, 0, 0, 0, 0, 0, 0, 0, 0], "stateRewards": ["", -10, -10, -10, -10, 10, 10, -10, -10, -10, 10, -10, 10], "withholdReward": false, "trial_id": "practice_2", "block": "test", "trialIndex": 1, "score": 11.5, "costs": -0.5, "simulationMode": [null, null, null], "rewards": [10, 10, -10], "path": ["0", "0", "5", "6", "8"], "rt": [3831, 853, 471], "actions": ["right", "right", "down"], "actionTimes": [5690, 7034, 8002], "queries": {"click": {"state": {"target": ["1", "5"], "time": [3023, 4281]}, "edge": {"target": [], "time": []}}, "mouseover": {"state": {"target": ["0", "1", "5"], "time": [2648, 2849, 3931]}, "edge": {"target": [], "time": []}}, "mouseout": {"state": {"target": ["0", "0", "1", "5"], "time": [2032, 2681, 3181, 4481]}, "edge": {"target": [], "time": []}}}, "displayed_time": "8.50", "trialTime": 10370, "trial_type": "mouselab-mdp", "trial_index": 5, "time_elapsed": 168758, "internal_node_id": "0.0-2.0-2.0-1.0"}}, {"uniqueid": "w58047528:a29038827", "current_trial": 6, "dateTime": 1664873342491, "trialdata": {"view_history": [{"page_index": 0, "viewing_time": 36180}, {"page_index": 1, "viewing_time": 12118}, {"page_index": 2, "viewing_time": 12439}], "rt": 60737, "trial_id": "mouselab_instructions_2_scarce", "trial_type": "instructions", "trial_index": 6, "time_elapsed": 229498, "internal_node_id": "0.0-2.0-3.0"}}, {"uniqueid": "w58047528:a29038827", "current_trial": 7, "dateTime": 1664873377425, "trialdata": {"rt": 34929, "response": {"Q0": "$-48 to $48", "Q1": "The cost is always $0.25.", "Q2": "The better I perform the higher my bonus will be.", "Q3": "No, the amount of cash at each node of the web may be different each time.", "Q4": "The values of the nodes walked through from start to finish.", "Q5": "No, the spider might forget to count the money on some rounds."}, "question_order": [0, 1, 2, 3, 4, 5], "correct": {"Q0": "$-48 to $48", "Q1": "The cost is always $0.25.", "Q2": "The better I perform the higher my bonus will be.", "Q3": "No, the amount of cash at each node of the web may be different each time.", "Q4": "The values of the nodes walked through from start to finish.", "Q5": "No, the spider might forget to count the money on some rounds."}, "trial_id": "mouselab_quiz_scarce", "trial_type": "survey-multi-choice", "trial_index": 7, "time_elapsed": 264432, "internal_node_id": "0.0-2.0-4.0"}}, {"uniqueid": "w58047528:a29038827", "current_trial": 8, "dateTime": 1664873389056, "trialdata": {"rt": 11621, "stimulus": "\n<h1> Get ready to start the game! </h1>\n\nThank you for reading the instructions. Get ready start with the first of 4 block(s) of this game.\n<br><br>\nIn this first block, you will complete 30 rounds of this game before moving on.\n<br><br>\nRemember, the more money the spider gets, the bigger your bonus will be!\n<br><br>\n<div style='text-align: center;'>Press <code>space</code> to begin.</div>\n\n<br><br>\n(If, at any point, the <code>space</code> key does not take you to the next page, click once on the text and try again.)", "response": " ", "trial_id": "mdp_ready_1", "trial_type": "html-keyboard-response", "trial_index": 8, "time_elapsed": 276063, "internal_node_id": "0.0-4.0-0.0"}}, {"uniqueid": "w58047528:a29038827", "current_trial": 9, "dateTime": 1664873403408, "trialdata": {"revealed_states": [], "num_clicks_accrued": [0, 0, 0, 0, 0, 0, 0, 0, 0, 0, 0, 0, 0], "stateRewards": ["", 4, 4, 48, -24, 2, -4, 48, 24, -4, -4, -48, 24], "withholdReward": false, "trial_id": "mdp_496003763005", "block": "test1", "trialIndex": 2, "score": 26.5, "costs": -0.5, "simulationMode": [null, null, null], "rewards": [2, -4, 24], "path": ["0", "0", "5", "6", "8"], "rt": [5960, 374, 219], "actions": ["right", "right", "down"], "actionTimes": [7999, 8871, 9583], "queries": {"click": {"state": {"target": ["5", "8"], "time": [3670, 6708]}, "edge": {"target": [], "time": []}}, "mouseover": {"state": {"target": ["5", "8", "6", "8"], "time": [3463, 5147, 5213, 6497]}, "edge": {"target": [], "time": []}}, "mouseout": {"state": {"target": ["0", "5", "8", "6", "8"], "time": [2197, 3863, 5164, 6380, 6963]}, "edge": {"target": [], "time": []}}}, "displayed_time": "12.04", "trialTime": 14295, "trial_type": "mouselab-mdp", "trial_index": 9, "time_elapsed": 290415, "internal_node_id": "0.0-4.0-1.0-0.0"}}, {"uniqueid": "w58047528:a29038827", "current_trial": 10, "dateTime": 1664873415992, "trialdata": {"revealed_states": [], "num_clicks_accrued": [0, 0, 0, 0, 0, 0, 0, 0, 0, 0, 0, 0, 0], "stateRewards": ["", 2, 4, -48, 24, -4, -4, -24, 24, 2, -4, 24, -24], "withholdReward": false, "trial_id": "mdp_163600331068", "block": "test1", "trialIndex": 3, "score": 26.25, "costs": -0.75, "simulationMode": [null, null, null], "rewards": [2, -4, 24], "path": ["0", "0", "9", "10", "11"], "rt": [5869, 312, 216], "actions": ["left", "left", "up"], "actionTimes": [7779, 8595, 9299], "queries": {"click": {"state": {"target": ["9", "11", "12"], "time": [3365, 5057, 6682]}, "edge": {"target": [], "time": []}}, "mouseover": {"state": {"target": ["9", "10", "11", "12"], "time": [3248, 4781, 4848, 6315]}, "edge": {"target": [], "time": []}}, "mouseout": {"state": {"target": ["0", "9", "10", "11", "12"], "time": [2032, 3498, 4799, 5220, 6815]}, "edge": {"target": [], "time": []}}}, "displayed_time": "10.91", "trialTime": 12531, "trial_type": "mouselab-mdp", "trial_index": 10, "time_elapsed": 302998, "internal_node_id": "0.0-4.0-1.0-1.0"}}, {"uniqueid": "w58047528:a29038827", "current_trial": 11, "dateTime": 1664873430167, "trialdata": {"revealed_states": [], "num_clicks_accrued": [0, 0, 0, 0, 0, 0, 0, 0, 0, 0, 0, 0, 0], "stateRewards": ["", -2, 4, -48, 24, -4, 8, 48, 24, -2, 4, -48, -24], "withholdReward": true, "trial_id": "mdp_740882974347", "block": "test1", "trialIndex": 4, "score": -41.75, "costs": -0.75, "simulationMode": [null, null, null], "rewards": [-2, 4, -48], "path": ["0", "0", "9", "10", "11"], "rt": [5489, 234, 164], "actions": ["left", "left", "up"], "actionTimes": [8567, 9319, 9983], "queries": {"click": {"state": {"target": ["1", "5", "12"], "time": [3989, 5318, 7572]}, "edge": {"target": [], "time": []}}, "mouseover": {"state": {"target": ["1", "5", "12"], "time": [3751, 5134, 7368]}, "edge": {"target": [], "time": []}}, "mouseout": {"state": {"target": ["8", "5", "1", "5", "12"], "time": [2519, 2668, 4185, 5485, 7734]}, "edge": {"target": [], "time": []}}}, "displayed_time": "12.08", "trialTime": 14127, "trial_type": "mouselab-mdp", "trial_index": 11, "time_elapsed": 317174, "internal_node_id": "0.0-4.0-1.0-2.0"}}, {"uniqueid": "w58047528:a29038827", "current_trial": 12, "dateTime": 1664873441167, "trialdata": {"revealed_states": [], "num_clicks_accrued": [0, 0, 0, 0, 0, 0, 0, 0, 0, 0, 0, 0, 0], "stateRewards": ["", -4, 4, 48, 24, -4, 4, -24, 48, -2, -8, 24, -48], "withholdReward": true, "trial_id": "mdp_261501605436", "block": "test1", "trialIndex": 5, "score": 52.25, "costs": -0.75, "simulationMode": [null, null, null], "rewards": [-4, 4, 48], "path": ["0", "0", "5", "6", "8"], "rt": [4492, 221, 144], "actions": ["right", "right", "down"], "actionTimes": [5949, 6661, 7317], "queries": {"click": {"state": {"target": ["1", "9", "8"], "time": [2204, 3391, 4853]}, "edge": {"target": [], "time": []}}, "mouseover": {"state": {"target": ["0", "1", "9", "8"], "time": [1907, 2007, 3174, 4657]}, "edge": {"target": [], "time": []}}, "mouseout": {"state": {"target": ["0", "0", "1", "9", "8"], "time": [1590, 1941, 2374, 3590, 5023]}, "edge": {"target": [], "time": []}}}, "displayed_time": "9.46", "trialTime": 10949, "trial_type": "mouselab-mdp", "trial_index": 12, "time_elapsed": 328174, "internal_node_id": "0.0-4.0-1.0-3.0"}}, {"uniqueid": "w58047528:a29038827", "current_trial": 13, "dateTime": 1664873451839, "trialdata": {"revealed_states": [], "num_clicks_accrued": [0, 0, 0, 0, 0, 0, 0, 0, 0, 0, 0, 0, 0], "stateRewards": ["", 2, -8, 48, -24, 2, 8, 24, -24, 4, -4, -48, -48], "withholdReward": false, "trial_id": "mdp_130946197263", "block": "test1", "trialIndex": 6, "score": 46.5, "costs": -0.5, "simulationMode": [null, null, null], "rewards": [2, -8, 48], "path": ["0", "0", "1", "2", "3"], "rt": [3145, 207, 66], "actions": ["up", "up", "right"], "actionTimes": [4506, 5210, 5770], "queries": {"click": {"state": {"target": ["1", "3"], "time": [2273, 3559]}, "edge": {"target": [], "time": []}}, "mouseover": {"state": {"target": ["5", "1", "5", "5", "3", "8"], "time": [1936, 2237, 2470, 3236, 3421, 3820]}, "edge": {"target": [], "time": []}}, "mouseout": {"state": {"target": ["8", "0", "5", "1", "5", "5", "3", "8"], "time": [1003, 1503, 2020, 2436, 2503, 3253, 3736, 3836]}, "edge": {"target": [], "time": []}}}, "displayed_time": "9.36", "trialTime": 10618, "trial_type": "mouselab-mdp", "trial_index": 13, "time_elapsed": 338846, "internal_node_id": "0.0-4.0-1.0-4.0"}}, {"uniqueid": "w58047528:a29038827", "current_trial": 14, "dateTime": 1664873464367, "trialdata": {"revealed_states": [], "num_clicks_accrued": [0, 0, 0, 0, 0, 0, 0, 0, 0, 0, 0, 0, 0], "stateRewards": ["", 4, 8, -24, 48, 4, -8, -48, 48, -4, 8, -24, -48], "withholdReward": false, "trial_id": "mdp_376126356841", "block": "test1", "trialIndex": 7, "score": 48, "costs": -1, "simulationMode": [null, null, null], "rewards": [4, -8, 48], "path": ["0", "0", "5", "6", "8"], "rt": [5654, 182, 107], "actions": ["right", "right", "down"], "actionTimes": [7453, 8133, 8757], "queries": {"click": {"state": {"target": ["9", "1", "5", "7"], "time": [2626, 3985, 4823, 5859]}, "edge": {"target": [], "time": []}}, "mouseover": {"state": {"target": ["9", "1", "5", "6", "7", "7"], "time": [2467, 3850, 4667, 5583, 5650, 5717]}, "edge": {"target": [], "time": []}}, "mouseout": {"state": {"target": ["0", "9", "1", "5", "6", "7", "7"], "time": [2417, 2784, 4134, 4967, 5617, 5667, 6001]}, "edge": {"target": [], "time": []}}}, "displayed_time": "10.80", "trialTime": 12477, "trial_type": "mouselab-mdp", "trial_index": 14, "time_elapsed": 351373, "internal_node_id": "0.0-4.0-1.0-5.0"}}, {"uniqueid": "w58047528:a29038827", "current_trial": 15, "dateTime": 1664873477287, "trialdata": {"revealed_states": [], "num_clicks_accrued": [0, 0, 0, 0, 0, 0, 0, 0, 0, 0, 0, 0, 0], "stateRewards": ["", -4, 4, -24, 24, -2, -4, 48, 24, 2, 8, -48, 24], "withholdReward": true, "trial_id": "mdp_150340189492", "block": "test1", "trialIndex": 8, "score": 38.25, "costs": -0.75, "simulationMode": [null, null, null], "rewards": [2, 8, 24], "path": ["0", "0", "9", "10", "12"], "rt": [4604, 98, 48], "actions": ["left", "left", "down"], "actionTimes": [7001, 7617, 8169], "queries": {"click": {"state": {"target": ["1", "9", "12"], "time": [3449, 4612, 5402]}, "edge": {"target": [], "time": []}}, "mouseover": {"state": {"target": ["0", "1", "0", "9", "12"], "time": [3185, 3302, 3635, 4468, 5318]}, "edge": {"target": [], "time": []}}, "mouseout": {"state": {"target": ["0", "0", "1", "0", "9", "12"], "time": [2518, 3202, 3609, 3651, 4751, 5551]}, "edge": {"target": [], "time": []}}}, "displayed_time": "11.40", "trialTime": 12865, "trial_type": "mouselab-mdp", "trial_index": 15, "time_elapsed": 364294, "internal_node_id": "0.0-4.0-1.0-6.0"}}, {"uniqueid": "w58047528:a29038827", "current_trial": 16, "dateTime": 1664873490871, "trialdata": {"revealed_states": [], "num_clicks_accrued": [0, 0, 0, 0, 0, 0, 0, 0, 0, 0, 0, 0, 0], "stateRewards": ["", -2, -8, -24, -24, 4, -4, -48, 48, 2, 8, 48, -48], "withholdReward": true, "trial_id": "mdp_498095124548", "block": "test1", "trialIndex": 9, "score": 62, "costs": -1, "simulationMode": [null, null, null], "rewards": [2, 8, 48], "path": ["0", "0", "9", "10", "11"], "rt": [7001, 129, 120], "actions": ["left", "left", "up"], "actionTimes": [10138, 10778, 11386], "queries": {"click": {"state": {"target": ["1", "6", "9", "11"], "time": [4165, 5460, 6989, 9186]}, "edge": {"target": [], "time": []}}, "mouseover": {"state": {"target": ["5", "1", "5", "5", "6", "9", "10", "11"], "time": [3499, 3899, 4415, 4949, 5332, 6749, 8815, 8999]}, "edge": {"target": [], "time": []}}, "mouseout": {"state": {"target": ["8", "7", "0", "5", "1", "5", "5", "6", "9", "10", "11"], "time": [1982, 2148, 3449, 3749, 4348, 4448, 5098, 5632, 7199, 8898, 9332]}, "edge": {"target": [], "time": []}}}, "displayed_time": "12.14", "trialTime": 13530, "trial_type": "mouselab-mdp", "trial_index": 16, "time_elapsed": 377878, "internal_node_id": "0.0-4.0-1.0-7.0"}}, {"uniqueid": "w58047528:a29038827", "current_trial": 17, "dateTime": 1664873503055, "trialdata": {"revealed_states": [], "num_clicks_accrued": [0, 0, 0, 0, 0, 0, 0, 0, 0, 0, 0, 0, 0], "stateRewards": ["", 2, 8, -48, -24, 2, -4, -48, 24, 2, -4, -24, -24], "withholdReward": true, "trial_id": "mdp_954659099093", "block": "test1", "trialIndex": 10, "score": -9.75, "costs": -0.75, "simulationMode": [null, null, null], "rewards": [2, 8, -24], "path": ["0", "0", "1", "2", "4"], "rt": [5019, 190, 698], "actions": ["up", "up", "left"], "actionTimes": [6651, 7356, 8564], "queries": {"click": {"state": {"target": ["1", "7", "12"], "time": [2855, 4232, 5557]}, "edge": {"target": [], "time": []}}, "mouseover": {"state": {"target": ["0", "1", "1", "5", "7", "7", "6", "8", "12"], "time": [1765, 2316, 2632, 3732, 3949, 4098, 4399, 4433, 5515]}, "edge": {"target": [], "time": []}}, "mouseout": {"state": {"target": ["0", "0", "1", "1", "5", "7", "7", "6", "8", "12"], "time": [1515, 1782, 2398, 3015, 3782, 3965, 4399, 4432, 4449, 5715]}, "edge": {"target": [], "time": []}}}, "displayed_time": "10.63", "trialTime": 12131, "trial_type": "mouselab-mdp", "trial_index": 17, "time_elapsed": 390061, "internal_node_id": "0.0-4.0-1.0-8.0"}}, {"uniqueid": "w58047528:a29038827", "current_trial": 18, "dateTime": 1664873514759, "trialdata": {"revealed_states": [], "num_clicks_accrued": [0, 0, 0, 0, 0, 0, 0, 0, 0, 0, 0, 0, 0], "stateRewards": ["", 4, 4, 48, -48, -2, -8, -48, -24, 2, 4, -24, -48], "withholdReward": true, "trial_id": "mdp_239929662917", "block": "test1", "trialIndex": 11, "score": -13.75, "costs": -0.75, "simulationMode": [null, null, null], "rewards": [2, 4, -24], "path": ["0", "0", "9", "10", "11"], "rt": [3814, 233, 148], "actions": ["left", "left", "up"], "actionTimes": [5203, 5931, 6580], "queries": {"click": {"state": {"target": ["5", "9", "12"], "time": [2321, 3086, 4378]}, "edge": {"target": [], "time": []}}, "mouseover": {"state": {"target": ["5", "9", "12"], "time": [2231, 2931, 4264]}, "edge": {"target": [], "time": []}}, "mouseout": {"state": {"target": ["0", "5", "9", "12"], "time": [1498, 2431, 3215, 4514]}, "edge": {"target": [], "time": []}}}, "displayed_time": "10.39", "trialTime": 11651, "trial_type": "mouselab-mdp", "trial_index": 18, "time_elapsed": 401766, "internal_node_id": "0.0-4.0-1.0-9.0"}}, {"uniqueid": "w58047528:a29038827", "current_trial": 19, "dateTime": 1664873525631, "trialdata": {"revealed_states": [], "num_clicks_accrued": [0, 0, 0, 0, 0, 0, 0, 0, 0, 0, 0, 0, 0], "stateRewards": ["", -2, 8, -48, -24, -2, 8, 48, -48, -4, 8, 24, 48], "withholdReward": true, "trial_id": "mdp_160707003673", "block": "test1", "trialIndex": 12, "score": 56.25, "costs": -0.75, "simulationMode": [null, null, null], "rewards": [-4, 8, 48], "path": ["0", "0", "9", "10", "12"], "rt": [4387, 132, 50], "actions": ["left", "left", "down"], "actionTimes": [5852, 6476, 7043], "queries": {"click": {"state": {"target": ["1", "5", "12"], "time": [2179, 3800, 4997]}, "edge": {"target": [], "time": []}}, "mouseover": {"state": {"target": ["1", "0", "5", "10", "12"], "time": [2010, 2311, 3627, 4793, 4843]}, "edge": {"target": [], "time": []}}, "mouseout": {"state": {"target": ["0", "1", "0", "5", "10", "12"], "time": [1610, 2310, 2327, 3927, 4810, 5127]}, "edge": {"target": [], "time": []}}}, "displayed_time": "9.47", "trialTime": 10819, "trial_type": "mouselab-mdp", "trial_index": 19, "time_elapsed": 412638, "internal_node_id": "0.0-4.0-1.0-10.0"}}, {"uniqueid": "w58047528:a29038827", "current_trial": 20, "dateTime": 1664873536167, "trialdata": {"revealed_states": [], "num_clicks_accrued": [0, 0, 0, 0, 0, 0, 0, 0, 0, 0, 0, 0, 0], "stateRewards": ["", -2, 8, 24, -48, -4, -8, -24, -48, -4, 8, -24, 48], "withholdReward": true, "trial_id": "mdp_464339499860", "block": "test1", "trialIndex": 13, "score": 34.25, "costs": -0.75, "simulationMode": [null, null, null], "rewards": [-2, 8, 24], "path": ["0", "0", "1", "2", "3"], "rt": [3920, 76, 126], "actions": ["up", "up", "right"], "actionTimes": [5362, 5929, 6545], "queries": {"click": {"state": {"target": ["9", "5", "3"], "time": [2318, 3219, 4507]}, "edge": {"target": [], "time": []}}, "mouseover": {"state": {"target": ["9", "5", "3", "8"], "time": [2235, 3102, 4419, 4685]}, "edge": {"target": [], "time": []}}, "mouseout": {"state": {"target": ["0", "9", "5", "5", "3", "8"], "time": [1569, 2469, 3352, 4169, 4619, 4702]}, "edge": {"target": [], "time": []}}}, "displayed_time": "9.44", "trialTime": 10481, "trial_type": "mouselab-mdp", "trial_index": 20, "time_elapsed": 423174, "internal_node_id": "0.0-4.0-1.0-11.0"}}, {"uniqueid": "w58047528:a29038827", "current_trial": 21, "dateTime": 1664873547151, "trialdata": {"revealed_states": [], "num_clicks_accrued": [0, 0, 0, 0, 0, 0, 0, 0, 0, 0, 0, 0, 0], "stateRewards": ["", 2, 8, 24, -48, 4, 8, 24, 24, 4, -8, 48, 48], "withholdReward": false, "trial_id": "mdp_646103824875", "block": "test1", "trialIndex": 14, "score": 38.5, "costs": -0.5, "simulationMode": [null, null, null], "rewards": [2, 8, 24], "path": ["0", "0", "1", "2", "3"], "rt": [2399, 126, 69], "actions": ["up", "up", "right"], "actionTimes": [3775, 4406, 4967], "queries": {"click": {"state": {"target": ["1", "4"], "time": [1984, 2940]}, "edge": {"target": [], "time": []}}, "mouseover": {"state": {"target": ["0", "1", "4", "4", "5"], "time": [1497, 1780, 2713, 2896, 3213]}, "edge": {"target": [], "time": []}}, "mouseout": {"state": {"target": ["0", "1", "4", "4", "5", "8"], "time": [1530, 2146, 2747, 3147, 3230, 6547]}, "edge": {"target": [], "time": []}}}, "displayed_time": "9.38", "trialTime": 10926, "trial_type": "mouselab-mdp", "trial_index": 21, "time_elapsed": 434157, "internal_node_id": "0.0-4.0-1.0-12.0"}}, {"uniqueid": "w58047528:a29038827", "current_trial": 22, "dateTime": 1664873560887, "trialdata": {"revealed_states": [], "num_clicks_accrued": [0, 0, 0, 0, 0, 0, 0, 0, 0, 0, 0, 0, 0], "stateRewards": ["", 2, -8, -24, -48, -2, -4, 48, 48, 4, 8, 48, 48], "withholdReward": true, "trial_id": "mdp_347285045422", "block": "test1", "trialIndex": 15, "score": 64, "costs": -1, "simulationMode": [null, null, null], "rewards": [4, 8, 48], "path": ["0", "0", "9", "10", "12"], "rt": [3730, 98, 65], "actions": ["left", "left", "down"], "actionTimes": [5305, 5912, 6496], "queries": {"click": {"state": {"target": ["5", "9", "12", "10"], "time": [2152, 2860, 3508, 4269]}, "edge": {"target": [], "time": []}}, "mouseover": {"state": {"target": ["0", "5", "9", "12", "10"], "time": [1748, 1998, 2814, 3414, 4198]}, "edge": {"target": [], "time": []}}, "mouseout": {"state": {"target": ["6", "5", "0", "5", "9", "12", "10"], "time": [1231, 1314, 1931, 2447, 3014, 3697, 4398]}, "edge": {"target": [], "time": []}}}, "displayed_time": "10.57", "trialTime": 13681, "trial_type": "mouselab-mdp", "trial_index": 22, "time_elapsed": 447894, "internal_node_id": "0.0-4.0-1.0-13.0"}}, {"uniqueid": "w58047528:a29038827", "current_trial": 23, "dateTime": 1664873574447, "trialdata": {"revealed_states": [], "num_clicks_accrued": [0, 0, 0, 0, 0, 0, 0, 0, 0, 0, 0, 0, 0], "stateRewards": ["", -2, 8, -48, 48, 4, -8, -48, 48, 4, -4, -24, 48], "withholdReward": true, "trial_id": "mdp_144739116828", "block": "test1", "trialIndex": 16, "score": 52.25, "costs": -0.75, "simulationMode": [null, null, null], "rewards": [4, -4, 48], "path": ["0", "0", "9", "10", "12"], "rt": [3693, 74, 42], "actions": ["left", "left", "down"], "actionTimes": [5402, 5970, 6522], "queries": {"click": {"state": {"target": ["1", "6", "12"], "time": [2200, 3068, 4462]}, "edge": {"target": [], "time": []}}, "mouseover": {"state": {"target": ["1", "5", "6", "12", "12"], "time": [2029, 2662, 2862, 4162, 4362]}, "edge": {"target": [], "time": []}}, "mouseout": {"state": {"target": ["0", "1", "5", "6", "12", "12"], "time": [1545, 2346, 2713, 3246, 4229, 4596]}, "edge": {"target": [], "time": []}}}, "displayed_time": "10.71", "trialTime": 13506, "trial_type": "mouselab-mdp", "trial_index": 23, "time_elapsed": 461454, "internal_node_id": "0.0-4.0-1.0-14.0"}}, {"uniqueid": "w58047528:a29038827", "current_trial": 24, "dateTime": 1664873589711, "trialdata": {"revealed_states": [], "num_clicks_accrued": [0, 0, 0, 0, 0, 0, 0, 0, 0, 0, 0, 0, 0], "stateRewards": ["", 2, -4, 24, -24, 2, -8, 48, 48, 4, -4, 24, 48], "withholdReward": true, "trial_id": "mdp_947836623875", "block": "test1", "trialIndex": 17, "score": 26.25, "costs": -0.75, "simulationMode": [null, null, null], "rewards": [2, -4, 24], "path": ["0", "0", "1", "2", "3"], "rt": [3767, 84, 52], "actions": ["up", "up", "right"], "actionTimes": [7170, 7770, 8338], "queries": {"click": {"state": {"target": ["1", "3", "6"], "time": [3854, 4815, 6343]}, "edge": {"target": [], "time": []}}, "mouseover": {"state": {"target": ["1", "0", "5", "3", "5", "8", "6"], "time": [3702, 4035, 4485, 4718, 5002, 5135, 6202]}, "edge": {"target": [], "time": []}}, "mouseout": {"state": {"target": ["8", "5", "1", "0", "5", "3", "5", "8", "6"], "time": [1519, 1703, 3985, 4052, 4518, 4935, 5069, 6019, 6485]}, "edge": {"target": [], "time": []}}}, "displayed_time": "12.40", "trialTime": 15210, "trial_type": "mouselab-mdp", "trial_index": 24, "time_elapsed": 476718, "internal_node_id": "0.0-4.0-1.0-15.0"}}, {"uniqueid": "w58047528:a29038827", "current_trial": 25, "dateTime": 1664873602087, "trialdata": {"revealed_states": [], "num_clicks_accrued": [0, 0, 0, 0, 0, 0, 0, 0, 0, 0, 0, 0, 0], "stateRewards": ["", -4, 4, -24, -24, -4, -8, 24, 48, 4, -4, 24, 48], "withholdReward": false, "trial_id": "mdp_175395325183", "block": "test1", "trialIndex": 18, "score": 28.5, "costs": -0.5, "simulationMode": [null, null, null], "rewards": [4, -4, 24], "path": ["0", "0", "9", "10", "11"], "rt": [3506, 38, 32], "actions": ["left", "left", "up"], "actionTimes": [5683, 6211, 6754], "queries": {"click": {"state": {"target": ["9", "11"], "time": [2644, 3591]}, "edge": {"target": [], "time": []}}, "mouseover": {"state": {"target": ["0", "9", "11"], "time": [2338, 2522, 3505]}, "edge": {"target": [], "time": []}}, "mouseout": {"state": {"target": ["0", "0", "9", "11", "9"], "time": [2180, 2472, 2805, 3755, 3822]}, "edge": {"target": [], "time": []}}}, "displayed_time": "10.18", "trialTime": 12323, "trial_type": "mouselab-mdp", "trial_index": 25, "time_elapsed": 489094, "internal_node_id": "0.0-4.0-1.0-16.0"}}, {"uniqueid": "w58047528:a29038827", "current_trial": 26, "dateTime": 1664873612951, "trialdata": {"revealed_states": [], "num_clicks_accrued": [0, 0, 0, 0, 0, 0, 0, 0, 0, 0, 0, 0, 0], "stateRewards": ["", 2, -4, -48, 24, 4, 4, 48, -48, -2, -4, -24, -48], "withholdReward": true, "trial_id": "mdp_858916930936", "block": "test1", "trialIndex": 19, "score": 26.5, "costs": -0.5, "simulationMode": [null, null, null], "rewards": [2, -4, 24], "path": ["0", "0", "1", "2", "4"], "rt": [3239, 108, 83], "actions": ["up", "up", "left"], "actionTimes": [4763, 5387, 5978], "queries": {"click": {"state": {"target": ["1", "3"], "time": [3073, 3877]}, "edge": {"target": [], "time": []}}, "mouseover": {"state": {"target": ["0", "1", "1", "5", "3", "6"], "time": [1663, 2495, 2996, 3595, 3662, 4062]}, "edge": {"target": [], "time": []}}, "mouseout": {"state": {"target": ["0", "0", "1", "1", "5", "3", "6"], "time": [1379, 1695, 2763, 3245, 3612, 3995, 4095]}, "edge": {"target": [], "time": []}}}, "displayed_time": "9.53", "trialTime": 10811, "trial_type": "mouselab-mdp", "trial_index": 26, "time_elapsed": 499958, "internal_node_id": "0.0-4.0-1.0-17.0"}}, {"uniqueid": "w58047528:a29038827", "current_trial": 27, "dateTime": 1664873623599, "trialdata": {"revealed_states": [], "num_clicks_accrued": [0, 0, 0, 0, 0, 0, 0, 0, 0, 0, 0, 0, 0], "stateRewards": ["", 2, 4, 48, -48, 2, -4, 48, 24, -2, -8, -24, 48], "withholdReward": true, "trial_id": "mdp_962424406744", "block": "test1", "trialIndex": 20, "score": 58.25, "costs": -0.75, "simulationMode": [null, null, null], "rewards": [2, 4, 48], "path": ["0", "0", "1", "2", "3"], "rt": [4492, 29, 31], "actions": ["up", "up", "right"], "actionTimes": [5862, 6389, 6909], "queries": {"click": {"state": {"target": ["9", "1", "4"], "time": [2718, 3717, 4877]}, "edge": {"target": [], "time": []}}, "mouseover": {"state": {"target": ["9", "1", "0", "5", "2", "4"], "time": [2676, 3660, 3926, 4192, 4459, 4659]}, "edge": {"target": [], "time": []}}, "mouseout": {"state": {"target": ["8", "0", "9", "1", "0", "5", "2", "4"], "time": [1009, 1726, 2976, 3892, 3943, 4243, 4643, 5076]}, "edge": {"target": [], "time": []}}}, "displayed_time": "9.37", "trialTime": 10590, "trial_type": "mouselab-mdp", "trial_index": 27, "time_elapsed": 510606, "internal_node_id": "0.0-4.0-1.0-18.0"}}, {"uniqueid": "w58047528:a29038827", "current_trial": 28, "dateTime": 1664873634959, "trialdata": {"revealed_states": [], "num_clicks_accrued": [0, 0, 0, 0, 0, 0, 0, 0, 0, 0, 0, 0, 0], "stateRewards": ["", 4, 4, 48, -24, -4, -8, 24, -24, 2, -8, -24, 24], "withholdReward": true, "trial_id": "mdp_933201675789", "block": "test1", "trialIndex": 21, "score": 22.25, "costs": -0.75, "simulationMode": [null, null, null], "rewards": [2, -8, 24], "path": ["0", "0", "9", "10", "12"], "rt": [2688, 117, 36], "actions": ["left", "left", "down"], "actionTimes": [3850, 4465, 5018], "queries": {"click": {"state": {"target": ["5", "9", "12"], "time": [1670, 2318, 2994]}, "edge": {"target": [], "time": []}}, "mouseover": {"state": {"target": ["5", "9", "12"], "time": [1515, 2232, 2932]}, "edge": {"target": [], "time": []}}, "mouseout": {"state": {"target": ["0", "5", "9", "12"], "time": [1432, 1799, 2448, 3181]}, "edge": {"target": [], "time": []}}}, "displayed_time": "10.16", "trialTime": 11306, "trial_type": "mouselab-mdp", "trial_index": 28, "time_elapsed": 521966, "internal_node_id": "0.0-4.0-1.0-19.0"}}, {"uniqueid": "w58047528:a29038827", "current_trial": 29, "dateTime": 1664873646975, "trialdata": {"revealed_states": [], "num_clicks_accrued": [0, 0, 0, 0, 0, 0, 0, 0, 0, 0, 0, 0, 0], "stateRewards": ["", 2, 4, 48, 24, -2, -8, 24, 24, -2, 4, -48, 24], "withholdReward": true, "trial_id": "mdp_130849500124", "block": "test1", "trialIndex": 22, "score": 58.5, "costs": -0.5, "simulationMode": [null, null, null], "rewards": [2, 4, 48], "path": ["0", "0", "1", "2", "3"], "rt": [2075, 16, 1876], "actions": ["up", "up", "right"], "actionTimes": [3577, 4104, 6497], "queries": {"click": {"state": {"target": ["1", "3"], "time": [1938, 2795]}, "edge": {"target": [], "time": []}}, "mouseover": {"state": {"target": ["1", "0", "3", "6"], "time": [1821, 2454, 2720, 3038]}, "edge": {"target": [], "time": []}}, "mouseout": {"state": {"target": ["0", "9", "0", "1", "0", "3", "6", "8"], "time": [920, 1237, 1637, 2104, 2470, 2937, 3087, 11237]}, "edge": {"target": [], "time": []}}}, "displayed_time": "10.50", "trialTime": 11961, "trial_type": "mouselab-mdp", "trial_index": 29, "time_elapsed": 533982, "internal_node_id": "0.0-4.0-1.0-20.0"}}, {"uniqueid": "w58047528:a29038827", "current_trial": 30, "dateTime": 1664873657327, "trialdata": {"revealed_states": [], "num_clicks_accrued": [0, 0, 0, 0, 0, 0, 0, 0, 0, 0, 0, 0, 0], "stateRewards": ["", 4, -4, 48, 24, 2, 4, 24, -24, 2, 4, 24, 48], "withholdReward": true, "trial_id": "mdp_736351885282", "block": "test1", "trialIndex": 23, "score": 34.5, "costs": -0.5, "simulationMode": [null, null, null], "rewards": [2, 4, 24], "path": ["0", "0", "9", "10", "11"], "rt": [3222, 52, 92], "actions": ["left", "left", "up"], "actionTimes": [4309, 4853, 5477], "queries": {"click": {"state": {"target": ["9", "11"], "time": [1901, 3446]}, "edge": {"target": [], "time": []}}, "mouseover": {"state": {"target": ["10", "9", "0", "0", "12", "10", "11"], "time": [1568, 1734, 2284, 2417, 2684, 2817, 3334]}, "edge": {"target": [], "time": []}}, "mouseout": {"state": {"target": ["0", "10", "9", "0", "0", "12", "10", "11", "9"], "time": [1421, 1718, 2134, 2317, 2434, 2784, 2851, 3617, 3684]}, "edge": {"target": [], "time": []}}}, "displayed_time": "9.09", "trialTime": 10294, "trial_type": "mouselab-mdp", "trial_index": 30, "time_elapsed": 544334, "internal_node_id": "0.0-4.0-1.0-21.0"}}, {"uniqueid": "w58047528:a29038827", "current_trial": 31, "dateTime": 1664873670495, "trialdata": {"revealed_states": [], "num_clicks_accrued": [0, 0, 0, 0, 0, 0, 0, 0, 0, 0, 0, 0, 0], "stateRewards": ["", 2, 4, 48, 48, -2, 4, 48, -24, -4, 8, -48, 48], "withholdReward": true, "trial_id": "mdp_407586865939", "block": "test1", "trialIndex": 24, "score": 58.5, "costs": -0.5, "simulationMode": [null, null, null], "rewards": [2, 4, 48], "path": ["0", "0", "1", "2", "3"], "rt": [1953, 88, 161], "actions": ["up", "up", "right"], "actionTimes": [3058, 3642, 4297], "queries": {"click": {"state": {"target": ["1", "3"], "time": [1582, 2251]}, "edge": {"target": [], "time": []}}, "mouseover": {"state": {"target": ["1", "0", "3", "5"], "time": [1419, 1769, 2103, 2553]}, "edge": {"target": [], "time": []}}, "mouseout": {"state": {"target": ["0", "1", "0", "3", "5"], "time": [1386, 1719, 1836, 2436, 5270]}, "edge": {"target": [], "time": []}}}, "displayed_time": "10.11", "trialTime": 13114, "trial_type": "mouselab-mdp", "trial_index": 31, "time_elapsed": 557502, "internal_node_id": "0.0-4.0-1.0-22.0"}}, {"uniqueid": "w58047528:a29038827", "current_trial": 32, "dateTime": 1664873684055, "trialdata": {"revealed_states": [], "num_clicks_accrued": [0, 0, 0, 0, 0, 0, 0, 0, 0, 0, 0, 0, 0], "stateRewards": ["", 2, 4, 48, -48, 2, 4, 24, -24, 2, -4, -24, -48], "withholdReward": false, "trial_id": "mdp_706591889062", "block": "test1", "trialIndex": 25, "score": -46, "costs": -1, "simulationMode": [null, null, null], "rewards": [2, -4, -48], "path": ["0", "0", "9", "10", "12"], "rt": [7016, 635, 165], "actions": ["left", "left", "down"], "actionTimes": [8453, 9582, 10246], "queries": {"click": {"state": {"target": ["5", "8", "9", "11"], "time": [3033, 4042, 5831, 7192]}, "edge": {"target": [], "time": []}}, "mouseover": {"state": {"target": ["7", "5", "6", "8", "9", "10", "9", "12", "12", "10", "11"], "time": [2597, 2914, 3264, 3916, 5313, 5497, 5764, 6730, 6880, 6948, 6981]}, "edge": {"target": [], "time": []}}, "mouseout": {"state": {"target": ["0", "9", "7", "5", "6", "8", "8", "9", "10", "9", "8", "12", "12", "10", "11"], "time": [1013, 1214, 2630, 3248, 3631, 4214, 4964, 5364, 5664, 6013, 6397, 6797, 6897, 6964, 7397]}, "edge": {"target": [], "time": []}}}, "displayed_time": "10.75", "trialTime": 13501, "trial_type": "mouselab-mdp", "trial_index": 32, "time_elapsed": 571062, "internal_node_id": "0.0-4.0-1.0-23.0"}}, {"uniqueid": "w58047528:a29038827", "current_trial": 33, "dateTime": 1664873695303, "trialdata": {"revealed_states": [], "num_clicks_accrued": [0, 0, 0, 0, 0, 0, 0, 0, 0, 0, 0, 0, 0], "stateRewards": ["", -2, 8, 48, 48, 2, 4, -48, 24, -4, -8, 48, 24], "withholdReward": true, "trial_id": "mdp_572910394648", "block": "test1", "trialIndex": 26, "score": 34.25, "costs": -0.75, "simulationMode": [null, null, null], "rewards": [2, 4, 24], "path": ["0", "0", "5", "6", "8"], "rt": [3316, 103, 151], "actions": ["right", "right", "down"], "actionTimes": [4968, 5576, 6224], "queries": {"click": {"state": {"target": ["1", "5", "8"], "time": [2431, 3463, 4023]}, "edge": {"target": [], "time": []}}, "mouseover": {"state": {"target": ["9", "1", "5", "5", "8"], "time": [2090, 2306, 3090, 3389, 3906]}, "edge": {"target": [], "time": []}}, "mouseout": {"state": {"target": ["0", "9", "1", "5", "5", "8"], "time": [1906, 2106, 2656, 3124, 3689, 4323]}, "edge": {"target": [], "time": []}}}, "displayed_time": "10.65", "trialTime": 11192, "trial_type": "mouselab-mdp", "trial_index": 33, "time_elapsed": 582310, "internal_node_id": "0.0-4.0-1.0-24.0"}}, {"uniqueid": "w58047528:a29038827", "current_trial": 34, "dateTime": 1664873706671, "trialdata": {"revealed_states": [], "num_clicks_accrued": [0, 0, 0, 0, 0, 0, 0, 0, 0, 0, 0, 0, 0], "stateRewards": ["", 4, -8, -48, -24, 2, -8, -48, 48, -4, 8, 48, -48], "withholdReward": true, "trial_id": "mdp_605757196263", "block": "test1", "trialIndex": 27, "score": 45.75, "costs": -1.25, "simulationMode": [null, null, null], "rewards": [2, -8, 48], "path": ["0", "0", "5", "6", "8"], "rt": [6228, 631, 162], "actions": ["right", "right", "down"], "actionTimes": [7528, 8656, 9321], "queries": {"click": {"state": {"target": ["1", "3", "4", "5", "8"], "time": [1887, 3085, 4687, 6114, 6709]}, "edge": {"target": [], "time": []}}, "mouseover": {"state": {"target": ["1", "0", "5", "3", "7", "6", "6", "4", "4", "8", "8", "5", "8", "8"], "time": [1758, 2108, 2374, 2942, 3341, 3391, 4225, 4291, 4508, 4891, 5758, 6025, 6375, 6624]}, "edge": {"target": [], "time": []}}, "mouseout": {"state": {"target": ["0", "1", "0", "5", "3", "7", "6", "6", "1", "4", "4", "1", "8", "8", "5", "8", "8"], "time": [1625, 2074, 2125, 2774, 3275, 3374, 3410, 4241, 4275, 4308, 4841, 4874, 4908, 5791, 6276, 6441, 6908]}, "edge": {"target": [], "time": []}}}, "displayed_time": "9.82", "trialTime": 11313, "trial_type": "mouselab-mdp", "trial_index": 34, "time_elapsed": 593678, "internal_node_id": "0.0-4.0-1.0-25.0"}}, {"uniqueid": "w58047528:a29038827", "current_trial": 35, "dateTime": 1664873721695, "trialdata": {"revealed_states": [], "num_clicks_accrued": [0, 0, 0, 0, 0, 0, 0, 0, 0, 0, 0, 0, 0], "stateRewards": ["", -4, -8, 48, 48, -4, 4, 48, -24, 4, 8, -24, -48], "withholdReward": true, "trial_id": "mdp_142906093415", "block": "test1", "trialIndex": 28, "score": 39.25, "costs": -1.75, "simulationMode": [null, null, null], "rewards": [-4, -8, 48], "path": ["0", "0", "1", "2", "3"], "rt": [9948, 66, 68], "actions": ["up", "up", "right"], "actionTimes": [11894, 12462, 13030], "queries": {"click": {"state": {"target": ["1", "3", "2", "5", "9", "12", "11"], "time": [2403, 3015, 5275, 6869, 7529, 8138, 9481]}, "edge": {"target": [], "time": []}}, "mouseover": {"state": {"target": ["1", "3", "2", "5", "9", "12", "10", "11", "11", "11"], "time": [2296, 2845, 5212, 6745, 7462, 7979, 8511, 8545, 8796, 9179]}, "edge": {"target": [], "time": []}}, "mouseout": {"state": {"target": ["8", "0", "1", "3", "2", "5", "9", "12", "10", "11", "11", "11", "9"], "time": [1079, 2162, 2828, 3278, 5429, 7128, 7695, 8495, 8528, 8595, 8845, 9628, 9695]}, "edge": {"target": [], "time": []}}}, "displayed_time": "13.55", "trialTime": 14957, "trial_type": "mouselab-mdp", "trial_index": 35, "time_elapsed": 608702, "internal_node_id": "0.0-4.0-1.0-26.0"}}, {"uniqueid": "w58047528:a29038827", "current_trial": 36, "dateTime": 1664873734767, "trialdata": {"revealed_states": [], "num_clicks_accrued": [0, 0, 0, 0, 0, 0, 0, 0, 0, 0, 0, 0, 0], "stateRewards": ["", -4, -8, 48, -48, 2, -4, 48, -24, 2, -8, -48, -48], "withholdReward": false, "trial_id": "mdp_624553692913", "block": "test1", "trialIndex": 29, "score": 49.25, "costs": -1.75, "simulationMode": [null, null, null], "rewards": [2, -4, 48], "path": ["0", "0", "5", "6", "7"], "rt": [6884, 84, 93], "actions": ["right", "right", "up"], "actionTimes": [9615, 10214, 10823], "queries": {"click": {"state": {"target": ["1", "9", "12", "11", "5", "8", "7"], "time": [3989, 4647, 5305, 5910, 7302, 7778, 8626]}, "edge": {"target": [], "time": []}}, "mouseover": {"state": {"target": ["1", "1", "9", "12", "11", "6", "5", "8", "6", "7", "7"], "time": [3363, 3897, 4497, 5213, 5830, 6563, 7130, 7629, 8129, 8147, 8447]}, "edge": {"target": [], "time": []}}, "mouseout": {"state": {"target": ["1", "1", "1", "9", "12", "11", "9", "6", "5", "8", "8", "6", "7", "7"], "time": [2563, 3379, 4330, 4913, 5513, 6076, 6313, 7096, 7580, 8013, 8113, 8146, 8180, 8747]}, "edge": {"target": [], "time": []}}}, "displayed_time": "11.31", "trialTime": 13014, "trial_type": "mouselab-mdp", "trial_index": 36, "time_elapsed": 621774, "internal_node_id": "0.0-4.0-1.0-27.0"}}, {"uniqueid": "w58047528:a29038827", "current_trial": 37, "dateTime": 1664873745463, "trialdata": {"revealed_states": [], "num_clicks_accrued": [0, 0, 0, 0, 0, 0, 0, 0, 0, 0, 0, 0, 0], "stateRewards": ["", 2, 8, 48, -24, -4, 4, 48, 24, -2, 8, 24, 24], "withholdReward": true, "trial_id": "mdp_123436106791", "block": "test1", "trialIndex": 30, "score": 62, "costs": -1, "simulationMode": [null, null, null], "rewards": [2, 8, 48], "path": ["0", "0", "1", "2", "3"], "rt": [3684, 64, 2], "actions": ["up", "up", "right"], "actionTimes": [5059, 5627, 6131], "queries": {"click": {"state": {"target": ["1", "2", "4", "3"], "time": [2121, 2894, 3454, 4074]}, "edge": {"target": [], "time": []}}, "mouseover": {"state": {"target": ["0", "1", "2", "2", "4", "3", "3", "7"], "time": [1495, 2095, 2695, 2845, 3395, 3845, 3945, 4245]}, "edge": {"target": [], "time": []}}, "mouseout": {"state": {"target": ["6", "5", "0", "0", "1", "1", "2", "2", "4", "1", "3", "3", "7", "6"], "time": [1028, 1178, 1261, 1528, 2345, 2645, 2728, 3112, 3679, 3796, 3878, 4212, 4262, 7262]}, "edge": {"target": [], "time": []}}}, "displayed_time": "10.38", "trialTime": 10643, "trial_type": "mouselab-mdp", "trial_index": 37, "time_elapsed": 632470, "internal_node_id": "0.0-4.0-1.0-28.0"}}, {"uniqueid": "w58047528:a29038827", "current_trial": 38, "dateTime": 1664873755767, "trialdata": {"revealed_states": [], "num_clicks_accrued": [0, 0, 0, 0, 0, 0, 0, 0, 0, 0, 0, 0, 0], "stateRewards": ["", 4, -8, 48, 48, 2, 4, 48, -48, 4, -4, -48, 48], "withholdReward": true, "trial_id": "mdp_519605841135", "block": "test1", "trialIndex": 31, "score": 48.5, "costs": -0.5, "simulationMode": [null, null, null], "rewards": [4, -8, 48], "path": ["0", "0", "1", "2", "3"], "rt": [2749, 75, 213], "actions": ["up", "up", "right"], "actionTimes": [3896, 4464, 5168], "queries": {"click": {"state": {"target": ["1", "3"], "time": [1768, 2853]}, "edge": {"target": [], "time": []}}, "mouseover": {"state": {"target": ["0", "1", "9", "2", "3"], "time": [1321, 1638, 2137, 2371, 2738]}, "edge": {"target": [], "time": []}}, "mouseout": {"state": {"target": ["0", "0", "1", "9", "1", "2", "3", "1"], "time": [1071, 1554, 1954, 2288, 2338, 2388, 3071, 3238]}, "edge": {"target": [], "time": []}}}, "displayed_time": "9.15", "trialTime": 10240, "trial_type": "mouselab-mdp", "trial_index": 38, "time_elapsed": 642774, "internal_node_id": "0.0-4.0-1.0-29.0"}}, {"uniqueid": "w58047528:a29038827", "current_trial": 39, "dateTime": 1664873840208, "trialdata": {"rt": 84438, "stimulus": "<h1> End of block! </h1>\n\nYou have reached the end of the block 1/4. If you need a short break, feel free to take one now before moving on.\n\n<br><br>\nIn the next block, you will complete another 30 rounds of this game.\n\n<br><br>\n<div style='text-align: center;'>Press <code>space</code> to begin.</div>\n<br><br>\n<div style='text-align: center;'>(If the experiment doesn't continue, try clicking on the text and then pressing <code>space</code>.)</div>", "response": " ", "trial_id": "mdp_ready_2", "trial_type": "html-keyboard-response", "trial_index": 39, "time_elapsed": 727215, "internal_node_id": "0.0-4.0-2.0"}}, {"uniqueid": "w58047528:a29038827", "current_trial": 40, "dateTime": 1664873853351, "trialdata": {"revealed_states": [], "num_clicks_accrued": [0, 0, 0, 0, 0, 0, 0, 0, 0, 0, 0, 0, 0], "stateRewards": ["", -2, 4, -48, -48, -4, -8, 48, -48, 2, 4, 48, -48], "withholdReward": true, "trial_id": "mdp_258647270500", "block": "test2", "trialIndex": 32, "score": 58, "costs": -1, "simulationMode": [null, null, null], "rewards": [2, 4, 48], "path": ["0", "0", "9", "10", "11"], "rt": [4306, 482, 67], "actions": ["left", "left", "up"], "actionTimes": [8243, 9226, 9811], "queries": {"click": {"state": {"target": ["5", "9", "12", "11"], "time": [4434, 5602, 6411, 7311]}, "edge": {"target": [], "time": []}}, "mouseover": {"state": {"target": ["5", "0", "9", "9", "12", "10", "11", "11"], "time": [4277, 4860, 5044, 5477, 6327, 6861, 6910, 7144]}, "edge": {"target": [], "time": []}}, "mouseout": {"state": {"target": ["0", "5", "0", "9", "9", "12", "10", "11", "11", "9"], "time": [3793, 4677, 4894, 5094, 5977, 6693, 6894, 6944, 7561, 12461]}, "edge": {"target": [], "time": []}}}, "displayed_time": "11.94", "trialTime": 13082, "trial_type": "mouselab-mdp", "trial_index": 40, "time_elapsed": 740358, "internal_node_id": "0.0-4.0-3.0-0.0"}}, {"uniqueid": "w58047528:a29038827", "current_trial": 41, "dateTime": 1664873863343, "trialdata": {"revealed_states": [], "num_clicks_accrued": [0, 0, 0, 0, 0, 0, 0, 0, 0, 0, 0, 0, 0], "stateRewards": ["", 4, -4, 48, -48, 4, -4, 24, -24, 4, 8, -24, -48], "withholdReward": true, "trial_id": "mdp_433630527224", "block": "test2", "trialIndex": 33, "score": 52.5, "costs": -0.5, "simulationMode": [null, null, null], "rewards": [4, -4, 48], "path": ["0", "0", "1", "2", "3"], "rt": [2448, 163, 143], "actions": ["up", "up", "right"], "actionTimes": [3506, 4162, 4810], "queries": {"click": {"state": {"target": ["1", "3"], "time": [1811, 2728]}, "edge": {"target": [], "time": []}}, "mouseover": {"state": {"target": ["1", "1", "3", "7"], "time": [1449, 1699, 2634, 2983]}, "edge": {"target": [], "time": []}}, "mouseout": {"state": {"target": ["0", "1", "1", "3"], "time": [1409, 1466, 2116, 2883]}, "edge": {"target": [], "time": []}}}, "displayed_time": "9.06", "trialTime": 9930, "trial_type": "mouselab-mdp", "trial_index": 41, "time_elapsed": 750350, "internal_node_id": "0.0-4.0-3.0-1.0"}}, {"uniqueid": "w58047528:a29038827", "current_trial": 42, "dateTime": 1664873883215, "trialdata": {"revealed_states": [], "num_clicks_accrued": [0, 0, 0, 0, 0, 0, 0, 0, 0, 0, 0, 0, 0], "stateRewards": ["", 2, 8, -24, -48, -4, 8, -48, -48, -2, -8, -24, -24], "withholdReward": false, "trial_id": "mdp_978177451072", "block": "test2", "trialIndex": 34, "score": -11.5, "costs": -2.5, "simulationMode": [null, null, null], "rewards": [2, 8, -24], "path": ["0", "0", "1", "2", "3"], "rt": [13747, 856, 75], "actions": ["up", "up", "right"], "actionTimes": [14989, 16332, 16901], "queries": {"click": {"state": {"target": ["1", "4", "3", "5", "8", "10", "9", "7", "11", "12"], "time": [1702, 3415, 4370, 5247, 5912, 6621, 7093, 7945, 8893, 9481]}, "edge": {"target": [], "time": []}}, "mouseover": {"state": {"target": ["0", "1", "9", "4", "5", "3", "6", "5", "6", "5", "8", "10", "9", "6", "7", "6", "0", "11", "12"], "time": [1376, 1543, 2092, 3243, 3709, 4259, 4659, 4859, 5042, 5226, 5742, 6459, 6976, 7626, 7859, 8110, 8309, 8609, 9359]}, "edge": {"target": [], "time": []}}, "mouseout": {"state": {"target": ["7", "5", "0", "1", "9", "4", "1", "5", "3", "6", "5", "6", "5", "8", "10", "9", "6", "7", "6", "0", "11", "12"], "time": [826, 876, 1470, 1943, 2292, 3609, 3676, 4076, 4526, 4792, 4926, 5076, 5442, 6059, 6792, 7243, 7709, 8092, 8243, 8326, 9075, 9643]}, "edge": {"target": [], "time": []}}}, "displayed_time": "17.41", "trialTime": 19813, "trial_type": "mouselab-mdp", "trial_index": 42, "time_elapsed": 770222, "internal_node_id": "0.0-4.0-3.0-2.0"}}, {"uniqueid": "w58047528:a29038827", "current_trial": 43, "dateTime": 1664873894495, "trialdata": {"revealed_states": [], "num_clicks_accrued": [0, 0, 0, 0, 0, 0, 0, 0, 0, 0, 0, 0, 0], "stateRewards": ["", -4, 4, 48, 24, -4, 4, -24, 48, -2, -8, 24, -48], "withholdReward": true, "trial_id": "mdp_261501605436", "block": "test2", "trialIndex": 35, "score": 28, "costs": -1, "simulationMode": [null, null, null], "rewards": [-4, 4, 24], "path": ["0", "0", "1", "2", "4"], "rt": [4520, 108, 60], "actions": ["up", "up", "left"], "actionTimes": [5614, 6230, 6798], "queries": {"click": {"state": {"target": ["9", "5", "1", "4"], "time": [1713, 2454, 3478, 4605]}, "edge": {"target": [], "time": []}}, "mouseover": {"state": {"target": ["9", "5", "1", "4"], "time": [1604, 2437, 3354, 4437]}, "edge": {"target": [], "time": []}}, "mouseout": {"state": {"target": ["0", "9", "5", "5", "1", "1", "4", "1"], "time": [1221, 1887, 2604, 2787, 3621, 3921, 4821, 5004]}, "edge": {"target": [], "time": []}}}, "displayed_time": "10.10", "trialTime": 11221, "trial_type": "mouselab-mdp", "trial_index": 43, "time_elapsed": 781501, "internal_node_id": "0.0-4.0-3.0-3.0"}}, {"uniqueid": "w58047528:a29038827", "current_trial": 44, "dateTime": 1664873906062, "trialdata": {"revealed_states": [], "num_clicks_accrued": [0, 0, 0, 0, 0, 0, 0, 0, 0, 0, 0, 0, 0], "stateRewards": ["", 2, 4, -48, 48, -4, 8, -48, -24, -4, -4, 48, 48], "withholdReward": false, "trial_id": "mdp_613582696541", "block": "test2", "trialIndex": 36, "score": 58.25, "costs": -0.75, "simulationMode": [null, null, null], "rewards": [2, 4, 48], "path": ["0", "0", "1", "2", "4"], "rt": [2758, 343, 132], "actions": ["up", "up", "left"], "actionTimes": [4071, 4903, 5543], "queries": {"click": {"state": {"target": ["1", "3", "4"], "time": [1763, 2464, 3072]}, "edge": {"target": [], "time": []}}, "mouseover": {"state": {"target": ["1", "3", "4", "9", "0"], "time": [1642, 2325, 2875, 3541, 3608]}, "edge": {"target": [], "time": []}}, "mouseout": {"state": {"target": ["0", "1", "3", "1", "4", "9", "0"], "time": [1592, 2092, 2642, 2842, 3258, 3558, 8308]}, "edge": {"target": [], "time": []}}}, "displayed_time": "10.31", "trialTime": 11510, "trial_type": "mouselab-mdp", "trial_index": 44, "time_elapsed": 793069, "internal_node_id": "0.0-4.0-3.0-4.0"}}, {"uniqueid": "w58047528:a29038827", "current_trial": 45, "dateTime": 1664873916966, "trialdata": {"revealed_states": [], "num_clicks_accrued": [0, 0, 0, 0, 0, 0, 0, 0, 0, 0, 0, 0, 0], "stateRewards": ["", -4, -8, -48, -48, 4, -8, 48, 48, 2, 8, 48, 24], "withholdReward": false, "trial_id": "mdp_880437222492", "block": "test2", "trialIndex": 37, "score": 38.5, "costs": -0.5, "simulationMode": [null, null, null], "rewards": [2, 8, 24], "path": ["0", "0", "9", "10", "12"], "rt": [2106, 132, 123], "actions": ["left", "left", "down"], "actionTimes": [3773, 4413, 5037], "queries": {"click": {"state": {"target": ["9", "12"], "time": [2213, 2935]}, "edge": {"target": [], "time": []}}, "mouseover": {"state": {"target": ["9", "12"], "time": [2097, 2914]}, "edge": {"target": [], "time": []}}, "mouseout": {"state": {"target": ["0", "0", "9", "12"], "time": [1064, 1798, 2380, 3230]}, "edge": {"target": [], "time": []}}}, "displayed_time": "9.67", "trialTime": 10837, "trial_type": "mouselab-mdp", "trial_index": 45, "time_elapsed": 803973, "internal_node_id": "0.0-4.0-3.0-5.0"}}, {"uniqueid": "w58047528:a29038827", "current_trial": 46, "dateTime": 1664873928598, "trialdata": {"revealed_states": [], "num_clicks_accrued": [0, 0, 0, 0, 0, 0, 0, 0, 0, 0, 0, 0, 0], "stateRewards": ["", 2, 8, 24, -48, 4, 8, 24, 48, 2, -8, -24, 24], "withholdReward": true, "trial_id": "mdp_939899431582", "block": "test2", "trialIndex": 38, "score": 38.5, "costs": -0.5, "simulationMode": [null, null, null], "rewards": [2, 8, 24], "path": ["0", "0", "1", "2", "3"], "rt": [2344, 112, 95], "actions": ["up", "up", "right"], "actionTimes": [3601, 4208, 4792], "queries": {"click": {"state": {"target": ["1", "3"], "time": [1817, 2736]}, "edge": {"target": [], "time": []}}, "mouseover": {"state": {"target": ["1", "0", "5", "3", "5"], "time": [1713, 2062, 2362, 2646, 3030]}, "edge": {"target": [], "time": []}}, "mouseout": {"state": {"target": ["0", "1", "0", "5", "3", "5"], "time": [1629, 1996, 2112, 2412, 2896, 3047]}, "edge": {"target": [], "time": []}}}, "displayed_time": "10.26", "trialTime": 11568, "trial_type": "mouselab-mdp", "trial_index": 46, "time_elapsed": 815605, "internal_node_id": "0.0-4.0-3.0-6.0"}}, {"uniqueid": "w58047528:a29038827", "current_trial": 47, "dateTime": 1664873943870, "trialdata": {"revealed_states": [], "num_clicks_accrued": [0, 0, 0, 0, 0, 0, 0, 0, 0, 0, 0, 0, 0], "stateRewards": ["", -2, -8, -24, 24, -2, -8, -48, 24, -2, -8, 24, 24], "withholdReward": false, "trial_id": "mdp_336617436097", "block": "test2", "trialIndex": 39, "score": 17, "costs": -2, "simulationMode": [null, null, null], "rewards": [-2, -8, 24], "path": ["0", "0", "1", "2", "4"], "rt": [9961, 124, 51], "actions": ["up", "up", "left"], "actionTimes": [11893, 12509, 13069], "queries": {"click": {"state": {"target": ["5", "9", "1", "3", "4", "8", "12", "2"], "time": [2735, 3436, 4008, 4733, 5476, 6838, 8049, 10678]}, "edge": {"target": [], "time": []}}, "mouseover": {"state": {"target": ["5", "9", "1", "0", "0", "3", "4", "0", "8", "6", "12", "2", "2", "2"], "time": [2635, 3268, 3835, 4218, 4435, 4535, 5318, 5751, 6635, 7418, 7918, 9369, 9619, 10402]}, "edge": {"target": [], "time": []}}, "mouseout": {"state": {"target": ["0", "5", "9", "1", "0", "0", "3", "4", "0", "8", "6", "5", "12", "1", "2", "2", "5", "2", "5"], "time": [2150, 2936, 3585, 4152, 4235, 4452, 4918, 5668, 5802, 7018, 7435, 7535, 8185, 9368, 9385, 9718, 10302, 10801, 10901]}, "edge": {"target": [], "time": []}}}, "displayed_time": "13.57", "trialTime": 15213, "trial_type": "mouselab-mdp", "trial_index": 47, "time_elapsed": 830877, "internal_node_id": "0.0-4.0-3.0-7.0"}}, {"uniqueid": "w58047528:a29038827", "current_trial": 48, "dateTime": 1664873954534, "trialdata": {"revealed_states": [], "num_clicks_accrued": [0, 0, 0, 0, 0, 0, 0, 0, 0, 0, 0, 0, 0], "stateRewards": ["", 4, 8, 48, -48, -4, 8, -24, -24, -4, 8, 48, 48], "withholdReward": true, "trial_id": "mdp_377640328420", "block": "test2", "trialIndex": 40, "score": 64.25, "costs": -0.75, "simulationMode": [null, null, null], "rewards": [4, 8, 48], "path": ["0", "0", "1", "2", "3"], "rt": [3327, 63, 95], "actions": ["up", "up", "right"], "actionTimes": [4733, 5309, 5893], "queries": {"click": {"state": {"target": ["9", "1", "3"], "time": [2122, 3207, 3952]}, "edge": {"target": [], "time": []}}, "mouseover": {"state": {"target": ["9", "6", "1", "5", "3", "5"], "time": [1963, 2746, 3146, 3662, 3829, 4229]}, "edge": {"target": [], "time": []}}, "mouseout": {"state": {"target": ["8", "0", "9", "9", "6", "1", "5", "3", "5", "8"], "time": [1129, 1547, 2263, 2296, 2762, 3380, 3696, 4113, 4263, 7296]}, "edge": {"target": [], "time": []}}}, "displayed_time": "9.41", "trialTime": 10605, "trial_type": "mouselab-mdp", "trial_index": 48, "time_elapsed": 841541, "internal_node_id": "0.0-4.0-3.0-8.0"}}, {"uniqueid": "w58047528:a29038827", "current_trial": 49, "dateTime": 1664873965079, "trialdata": {"revealed_states": [], "num_clicks_accrued": [0, 0, 0, 0, 0, 0, 0, 0, 0, 0, 0, 0, 0], "stateRewards": ["", -2, -8, -24, -48, 4, -8, 48, 24, 2, 4, -48, -48], "withholdReward": true, "trial_id": "mdp_898082967464", "block": "test2", "trialIndex": 41, "score": 23.5, "costs": -1.5, "simulationMode": [null, null, null], "rewards": [4, -8, 24], "path": ["0", "0", "5", "6", "8"], "rt": [5136, 115, 99], "actions": ["right", "right", "down"], "actionTimes": [6979, 7596, 8196], "queries": {"click": {"state": {"target": ["1", "9", "12", "11", "5", "8"], "time": [2433, 2981, 3763, 4423, 5519, 6085]}, "edge": {"target": [], "time": []}}, "mouseover": {"state": {"target": ["0", "1", "0", "9", "12", "10", "11", "10", "8", "5", "8"], "time": [2013, 2330, 2696, 2830, 3663, 4213, 4263, 4596, 5213, 5396, 6014]}, "edge": {"target": [], "time": []}}, "mouseout": {"state": {"target": ["0", "1", "0", "9", "12", "10", "11", "10", "8", "5", "8"], "time": [2247, 2580, 2746, 3180, 3996, 4246, 4563, 4613, 5330, 5647, 6213]}, "edge": {"target": [], "time": []}}}, "displayed_time": "9.84", "trialTime": 10484, "trial_type": "mouselab-mdp", "trial_index": 49, "time_elapsed": 852086, "internal_node_id": "0.0-4.0-3.0-9.0"}}, {"uniqueid": "w58047528:a29038827", "current_trial": 50, "dateTime": 1664873976023, "trialdata": {"revealed_states": [], "num_clicks_accrued": [0, 0, 0, 0, 0, 0, 0, 0, 0, 0, 0, 0, 0], "stateRewards": ["", -4, -4, -24, 48, 2, 4, -24, -48, -2, 4, 24, 24], "withholdReward": false, "trial_id": "mdp_360934723192", "block": "test2", "trialIndex": 42, "score": 29.25, "costs": -1.75, "simulationMode": [null, null, null], "rewards": [-2, 4, 24], "path": ["0", "0", "9", "10", "12"], "rt": [6171, 19, 6], "actions": ["left", "left", "down"], "actionTimes": [7421, 7956, 8477], "queries": {"click": {"state": {"target": ["1", "5", "7", "8", "9", "12", "11"], "time": [1688, 2220, 2961, 4337, 5120, 5606, 6318]}, "edge": {"target": [], "time": []}}, "mouseover": {"state": {"target": ["0", "1", "0", "5", "6", "7", "8", "8", "9", "12", "10", "11"], "time": [1338, 1553, 1870, 2103, 2671, 2837, 3670, 4237, 5003, 5453, 6153, 6220]}, "edge": {"target": [], "time": []}}, "mouseout": {"state": {"target": ["9", "0", "0", "1", "0", "5", "5", "6", "7", "8", "8", "9", "12", "10", "11", "9"], "time": [953, 1187, 1525, 1837, 1887, 2370, 2670, 2803, 3170, 3687, 4503, 5303, 5820, 6170, 6487, 6570]}, "edge": {"target": [], "time": []}}}, "displayed_time": "9.25", "trialTime": 10885, "trial_type": "mouselab-mdp", "trial_index": 50, "time_elapsed": 863030, "internal_node_id": "0.0-4.0-3.0-10.0"}}, {"uniqueid": "w58047528:a29038827", "current_trial": 51, "dateTime": 1664873986695, "trialdata": {"revealed_states": [], "num_clicks_accrued": [0, 0, 0, 0, 0, 0, 0, 0, 0, 0, 0, 0, 0], "stateRewards": ["", 2, -4, -48, -48, -2, -4, -24, -48, -2, 8, 24, 24], "withholdReward": true, "trial_id": "mdp_656069446729", "block": "test2", "trialIndex": 43, "score": 33.5, "costs": -1.5, "simulationMode": [null, null, null], "rewards": [-2, 8, 24], "path": ["0", "0", "9", "10", "12"], "rt": [5840, 137, 56], "actions": ["left", "left", "down"], "actionTimes": [7149, 7797, 8349], "queries": {"click": {"state": {"target": ["1", "4", "3", "8", "9", "12"], "time": [1881, 2533, 3113, 3922, 5486, 6066]}, "edge": {"target": [], "time": []}}, "mouseover": {"state": {"target": ["1", "0", "4", "3", "5", "8", "0", "9", "12", "9", "12"], "time": [1743, 2059, 2492, 2992, 3376, 3792, 4676, 4876, 5209, 5342, 5942]}, "edge": {"target": [], "time": []}}, "mouseout": {"state": {"target": ["0", "1", "0", "4", "1", "3", "5", "8", "0", "9", "12", "9", "12"], "time": [1643, 2026, 2126, 2709, 2909, 3309, 3392, 4143, 4726, 5009, 5276, 5626, 6242]}, "edge": {"target": [], "time": []}}}, "displayed_time": "9.31", "trialTime": 10612, "trial_type": "mouselab-mdp", "trial_index": 51, "time_elapsed": 873702, "internal_node_id": "0.0-4.0-3.0-11.0"}}, {"uniqueid": "w58047528:a29038827", "current_trial": 52, "dateTime": 1664873997191, "trialdata": {"revealed_states": [], "num_clicks_accrued": [0, 0, 0, 0, 0, 0, 0, 0, 0, 0, 0, 0, 0], "stateRewards": ["", 4, -8, 48, 48, 2, 4, 48, -48, 4, -4, -48, 48], "withholdReward": true, "trial_id": "mdp_519605841135", "block": "test2", "trialIndex": 44, "score": 48.5, "costs": -0.5, "simulationMode": [null, null, null], "rewards": [4, -8, 48], "path": ["0", "0", "1", "2", "4"], "rt": [2193, 141, 124], "actions": ["up", "up", "left"], "actionTimes": [3389, 4029, 4645], "queries": {"click": {"state": {"target": ["1", "4"], "time": [1662, 2435]}, "edge": {"target": [], "time": []}}, "mouseover": {"state": {"target": ["1", "9", "4", "5"], "time": [1504, 2053, 2354, 2887]}, "edge": {"target": [], "time": []}}, "mouseout": {"state": {"target": ["0", "0", "1", "9", "4", "1", "5"], "time": [837, 1453, 1854, 2137, 2553, 2870, 2904]}, "edge": {"target": [], "time": []}}}, "displayed_time": "9.20", "trialTime": 10437, "trial_type": "mouselab-mdp", "trial_index": 52, "time_elapsed": 884198, "internal_node_id": "0.0-4.0-3.0-12.0"}}, {"uniqueid": "w58047528:a29038827", "current_trial": 53, "dateTime": 1664874008311, "trialdata": {"revealed_states": [], "num_clicks_accrued": [0, 0, 0, 0, 0, 0, 0, 0, 0, 0, 0, 0, 0], "stateRewards": ["", -2, 4, 24, 48, 2, 4, -48, -48, -2, 8, 48, -24], "withholdReward": true, "trial_id": "mdp_305701202606", "block": "test2", "trialIndex": 45, "score": 57.25, "costs": -1.75, "simulationMode": [null, null, null], "rewards": [-2, 8, 48], "path": ["0", "0", "9", "10", "11"], "rt": [6986, 136, 79], "actions": ["left", "left", "up"], "actionTimes": [8240, 8864, 9440], "queries": {"click": {"state": {"target": ["9", "5", "8", "7", "1", "12", "11"], "time": [1771, 3215, 3843, 4524, 5220, 6433, 7161]}, "edge": {"target": [], "time": []}}, "mouseover": {"state": {"target": ["9", "5", "5", "8", "6", "7", "6", "1", "12", "12", "11", "0"], "time": [1644, 2260, 2877, 3727, 4210, 4310, 4860, 5027, 6127, 6277, 7027, 7693]}, "edge": {"target": [], "time": []}}, "mouseout": {"state": {"target": ["0", "9", "5", "5", "8", "6", "7", "6", "1", "1", "9", "12", "12", "11", "0"], "time": [1393, 1944, 2277, 3377, 4194, 4260, 4743, 4877, 5780, 5910, 5960, 6177, 6594, 7310, 7743]}, "edge": {"target": [], "time": []}}}, "displayed_time": "10.25", "trialTime": 11064, "trial_type": "mouselab-mdp", "trial_index": 53, "time_elapsed": 895318, "internal_node_id": "0.0-4.0-3.0-13.0"}}, {"uniqueid": "w58047528:a29038827", "current_trial": 54, "dateTime": 1664874019951, "trialdata": {"revealed_states": [], "num_clicks_accrued": [0, 0, 0, 0, 0, 0, 0, 0, 0, 0, 0, 0, 0], "stateRewards": ["", 2, -8, 48, -24, 2, -4, 24, 48, 4, -4, 48, -24], "withholdReward": false, "trial_id": "mdp_656500928756", "block": "test2", "trialIndex": 46, "score": 46.25, "costs": -0.75, "simulationMode": [null, null, null], "rewards": [2, -8, 48], "path": ["0", "0", "1", "2", "3"], "rt": [2401, 73, 35], "actions": ["up", "up", "right"], "actionTimes": [3867, 4459, 4987], "queries": {"click": {"state": {"target": ["1", "4", "3"], "time": [1871, 2463, 3013]}, "edge": {"target": [], "time": []}}, "mouseover": {"state": {"target": ["1", "4", "3", "5"], "time": [1718, 2352, 2868, 3252]}, "edge": {"target": [], "time": []}}, "mouseout": {"state": {"target": ["0", "1", "1", "4", "1", "3", "5"], "time": [901, 2035, 2252, 2669, 2752, 3135, 3285]}, "edge": {"target": [], "time": []}}}, "displayed_time": "10.47", "trialTime": 11578, "trial_type": "mouselab-mdp", "trial_index": 54, "time_elapsed": 906957, "internal_node_id": "0.0-4.0-3.0-14.0"}}, {"uniqueid": "w58047528:a29038827", "current_trial": 55, "dateTime": 1664874031375, "trialdata": {"revealed_states": [], "num_clicks_accrued": [0, 0, 0, 0, 0, 0, 0, 0, 0, 0, 0, 0, 0], "stateRewards": ["", -2, 8, 48, 48, 4, -8, -48, 48, 2, -4, -48, 48], "withholdReward": true, "trial_id": "mdp_132958048709", "block": "test2", "trialIndex": 47, "score": 50.5, "costs": -0.5, "simulationMode": [null, null, null], "rewards": [2, -4, 48], "path": ["0", "0", "9", "10", "12"], "rt": [2683, 61, 212], "actions": ["left", "left", "down"], "actionTimes": [3955, 4507, 5243], "queries": {"click": {"state": {"target": ["9", "12"], "time": [2285, 3053]}, "edge": {"target": [], "time": []}}, "mouseover": {"state": {"target": ["9", "12"], "time": [2145, 2912]}, "edge": {"target": [], "time": []}}, "mouseout": {"state": {"target": ["0", "9", "12", "8"], "time": [1446, 2462, 3379, 9628]}, "edge": {"target": [], "time": []}}}, "displayed_time": "10.27", "trialTime": 11363, "trial_type": "mouselab-mdp", "trial_index": 55, "time_elapsed": 918382, "internal_node_id": "0.0-4.0-3.0-15.0"}}, {"uniqueid": "w58047528:a29038827", "current_trial": 56, "dateTime": 1664874043207, "trialdata": {"revealed_states": [], "num_clicks_accrued": [0, 0, 0, 0, 0, 0, 0, 0, 0, 0, 0, 0, 0], "stateRewards": ["", -2, -4, -48, 48, -2, -4, 24, 48, -4, -8, -24, 24], "withholdReward": true, "trial_id": "mdp_917590390609", "block": "test2", "trialIndex": 48, "score": 46, "costs": -1, "simulationMode": [null, null, null], "rewards": [-2, -4, 48], "path": ["0", "0", "5", "6", "8"], "rt": [3632, 103, 119], "actions": ["right", "right", "down"], "actionTimes": [5094, 5709, 6326], "queries": {"click": {"state": {"target": ["1", "9", "5", "8"], "time": [2053, 2794, 3473, 4211]}, "edge": {"target": [], "time": []}}, "mouseover": {"state": {"target": ["1", "9", "8", "5", "8"], "time": [1906, 2740, 3140, 3373, 4007]}, "edge": {"target": [], "time": []}}, "mouseout": {"state": {"target": ["5", "1", "9", "8", "5", "8"], "time": [941, 2240, 3007, 3156, 3607, 4540]}, "edge": {"target": [], "time": []}}}, "displayed_time": "10.46", "trialTime": 11773, "trial_type": "mouselab-mdp", "trial_index": 56, "time_elapsed": 930214, "internal_node_id": "0.0-4.0-3.0-16.0"}}, {"uniqueid": "w58047528:a29038827", "current_trial": 57, "dateTime": 1664874057135, "trialdata": {"revealed_states": [], "num_clicks_accrued": [0, 0, 0, 0, 0, 0, 0, 0, 0, 0, 0, 0, 0], "stateRewards": ["", 4, -8, 48, -24, 4, -4, -48, -48, 4, -4, 24, 24], "withholdReward": true, "trial_id": "mdp_221562928904", "block": "test2", "trialIndex": 49, "score": 28.5, "costs": -0.5, "simulationMode": [null, null, null], "rewards": [4, -4, 24], "path": ["0", "0", "9", "10", "12"], "rt": [2939, 152, 127], "actions": ["left", "left", "down"], "actionTimes": [4218, 4873, 5497], "queries": {"click": {"state": {"target": ["9", "12"], "time": [2038, 3371]}, "edge": {"target": [], "time": []}}, "mouseover": {"state": {"target": ["9", "12", "12"], "time": [2005, 2803, 3226]}, "edge": {"target": [], "time": []}}, "mouseout": {"state": {"target": ["8", "0", "9", "9", "12", "12"], "time": [904, 1722, 2370, 2570, 2837, 6854]}, "edge": {"target": [], "time": []}}}, "displayed_time": "10.28", "trialTime": 13866, "trial_type": "mouselab-mdp", "trial_index": 57, "time_elapsed": 944142, "internal_node_id": "0.0-4.0-3.0-17.0"}}, {"uniqueid": "w58047528:a29038827", "current_trial": 58, "dateTime": 1664874068103, "trialdata": {"revealed_states": [], "num_clicks_accrued": [0, 0, 0, 0, 0, 0, 0, 0, 0, 0, 0, 0, 0], "stateRewards": ["", 2, -8, -24, -48, -2, -4, 48, 48, 4, 8, 48, 48], "withholdReward": true, "trial_id": "mdp_347285045422", "block": "test2", "trialIndex": 50, "score": 63.75, "costs": -1.25, "simulationMode": [null, null, null], "rewards": [4, 8, 48], "path": ["0", "0", "9", "10", "12"], "rt": [4215, 150, 76], "actions": ["left", "left", "down"], "actionTimes": [5950, 6607, 7182], "queries": {"click": {"state": {"target": ["1", "3", "4", "9", "12"], "time": [2389, 3072, 3816, 4504, 5024]}, "edge": {"target": [], "time": []}}, "mouseover": {"state": {"target": ["0", "1", "5", "3", "11", "4", "9", "9", "12"], "time": [2046, 2305, 2756, 2972, 3405, 3689, 4072, 4389, 4905]}, "edge": {"target": [], "time": []}}, "mouseout": {"state": {"target": ["8", "0", "0", "1", "5", "3", "1", "11", "4", "9", "9", "12"], "time": [1405, 1872, 2072, 2572, 2805, 3205, 3389, 3489, 3989, 4105, 4689, 5222]}, "edge": {"target": [], "time": []}}}, "displayed_time": "9.74", "trialTime": 10903, "trial_type": "mouselab-mdp", "trial_index": 58, "time_elapsed": 955110, "internal_node_id": "0.0-4.0-3.0-18.0"}}, {"uniqueid": "w58047528:a29038827", "current_trial": 59, "dateTime": 1664874078375, "trialdata": {"revealed_states": [], "num_clicks_accrued": [0, 0, 0, 0, 0, 0, 0, 0, 0, 0, 0, 0, 0], "stateRewards": ["", 2, 8, -48, 24, -2, 4, 48, 48, -2, -8, 48, 24], "withholdReward": true, "trial_id": "mdp_157355418411", "block": "test2", "trialIndex": 51, "score": 38, "costs": -1, "simulationMode": [null, null, null], "rewards": [2, 8, 24], "path": ["0", "0", "1", "2", "4"], "rt": [3500, 126, 1334], "actions": ["up", "up", "left"], "actionTimes": [4796, 5419, 7259], "queries": {"click": {"state": {"target": ["9", "1", "3", "4"], "time": [1868, 2530, 3178, 3829]}, "edge": {"target": [], "time": []}}, "mouseover": {"state": {"target": ["9", "1", "0", "0", "3", "4", "0"], "time": [1759, 2375, 2742, 2873, 3025, 3693, 4276]}, "edge": {"target": [], "time": []}}, "mouseout": {"state": {"target": ["0", "9", "1", "0", "0", "1", "3", "4", "0"], "time": [1426, 2042, 2725, 2809, 2892, 2976, 3359, 3992, 4342]}, "edge": {"target": [], "time": []}}}, "displayed_time": "9.30", "trialTime": 10211, "trial_type": "mouselab-mdp", "trial_index": 59, "time_elapsed": 965382, "internal_node_id": "0.0-4.0-3.0-19.0"}}, {"uniqueid": "w58047528:a29038827", "current_trial": 60, "dateTime": 1664874089247, "trialdata": {"revealed_states": [], "num_clicks_accrued": [0, 0, 0, 0, 0, 0, 0, 0, 0, 0, 0, 0, 0], "stateRewards": ["", 2, 8, -48, 48, -4, -8, 24, 24, -2, -8, 24, -24], "withholdReward": false, "trial_id": "mdp_910248289075", "block": "test2", "trialIndex": 52, "score": 62, "costs": -1, "simulationMode": [null, null, null], "rewards": [2, 8, 48], "path": ["0", "0", "1", "2", "4"], "rt": [4146, 129, 191], "actions": ["up", "up", "left"], "actionTimes": [5291, 5915, 6611], "queries": {"click": {"state": {"target": ["9", "1", "3", "4"], "time": [1866, 2818, 3361, 4423]}, "edge": {"target": [], "time": []}}, "mouseover": {"state": {"target": ["9", "10", "9", "1", "3", "4"], "time": [1369, 1486, 1835, 2669, 3252, 4269]}, "edge": {"target": [], "time": []}}, "mouseout": {"state": {"target": ["9", "10", "9", "1", "3", "4"], "time": [1386, 1669, 2235, 3185, 3569, 4685]}, "edge": {"target": [], "time": []}}}, "displayed_time": "9.14", "trialTime": 10811, "trial_type": "mouselab-mdp", "trial_index": 60, "time_elapsed": 976254, "internal_node_id": "0.0-4.0-3.0-20.0"}}, {"uniqueid": "w58047528:a29038827", "current_trial": 61, "dateTime": 1664874100143, "trialdata": {"revealed_states": [], "num_clicks_accrued": [0, 0, 0, 0, 0, 0, 0, 0, 0, 0, 0, 0, 0], "stateRewards": ["", -2, -8, -24, 48, -2, -8, -48, -48, 2, -8, -48, 24], "withholdReward": true, "trial_id": "mdp_288324580942", "block": "test2", "trialIndex": 53, "score": 22.25, "costs": -0.75, "simulationMode": [null, null, null], "rewards": [2, -8, 24], "path": ["0", "0", "9", "10", "12"], "rt": [2659, 107, 82], "actions": ["left", "left", "down"], "actionTimes": [3973, 4573, 5165], "queries": {"click": {"state": {"target": ["1", "9", "12"], "time": [1840, 2405, 3094]}, "edge": {"target": [], "time": []}}, "mouseover": {"state": {"target": ["1", "0", "9", "12"], "time": [1716, 2099, 2266, 2967]}, "edge": {"target": [], "time": []}}, "mouseout": {"state": {"target": ["1", "1", "0", "9", "12"], "time": [1083, 2016, 2116, 2599, 3283]}, "edge": {"target": [], "time": []}}}, "displayed_time": "10.31", "trialTime": 10837, "trial_type": "mouselab-mdp", "trial_index": 61, "time_elapsed": 987150, "internal_node_id": "0.0-4.0-3.0-21.0"}}, {"uniqueid": "w58047528:a29038827", "current_trial": 62, "dateTime": 1664874111375, "trialdata": {"revealed_states": [], "num_clicks_accrued": [0, 0, 0, 0, 0, 0, 0, 0, 0, 0, 0, 0, 0], "stateRewards": ["", 2, 4, -48, -24, 2, 8, 24, 48, -2, 4, 48, -48], "withholdReward": true, "trial_id": "mdp_551894842204", "block": "test2", "trialIndex": 54, "score": 61.5, "costs": -1.5, "simulationMode": [null, null, null], "rewards": [2, 8, 48], "path": ["0", "0", "5", "6", "8"], "rt": [4646, 145, 126], "actions": ["right", "right", "down"], "actionTimes": [5938, 6579, 7211], "queries": {"click": {"state": {"target": ["1", "3", "4", "9", "5", "8"], "time": [1740, 2476, 3165, 3893, 4489, 4974]}, "edge": {"target": [], "time": []}}, "mouseover": {"state": {"target": ["1", "3", "2", "4", "4", "5", "9", "5", "8"], "time": [1617, 2333, 2750, 2783, 3083, 3500, 3767, 4450, 4834]}, "edge": {"target": [], "time": []}}, "mouseout": {"state": {"target": ["1", "0", "1", "1", "3", "2", "4", "4", "1", "5", "9", "5", "8"], "time": [1067, 1530, 1984, 2283, 2683, 2767, 2817, 3400, 3450, 3617, 4067, 4750, 5183]}, "edge": {"target": [], "time": []}}}, "displayed_time": "10.29", "trialTime": 11170, "trial_type": "mouselab-mdp", "trial_index": 62, "time_elapsed": 998381, "internal_node_id": "0.0-4.0-3.0-22.0"}}, {"uniqueid": "w58047528:a29038827", "current_trial": 63, "dateTime": 1664874123023, "trialdata": {"revealed_states": [], "num_clicks_accrued": [0, 0, 0, 0, 0, 0, 0, 0, 0, 0, 0, 0, 0], "stateRewards": ["", -4, -8, 48, -24, 4, -8, 48, 48, -2, 4, -48, -24], "withholdReward": false, "trial_id": "mdp_925905402462", "block": "test2", "trialIndex": 55, "score": 48, "costs": -1, "simulationMode": [null, null, null], "rewards": [4, -8, 48], "path": ["0", "0", "5", "6", "8"], "rt": [2973, 180, 223], "actions": ["right", "right", "down"], "actionTimes": [4217, 4914, 5641], "queries": {"click": {"state": {"target": ["1", "9", "5", "8"], "time": [1773, 2336, 2933, 3388]}, "edge": {"target": [], "time": []}}, "mouseover": {"state": {"target": ["0", "1", "0", "9", "5", "8"], "time": [1383, 1667, 2017, 2302, 2734, 3200]}, "edge": {"target": [], "time": []}}, "mouseout": {"state": {"target": ["8", "0", "0", "1", "0", "9", "5", "8", "8"], "time": [783, 967, 1617, 1967, 2051, 2600, 3150, 9011, 9083]}, "edge": {"target": [], "time": []}}}, "displayed_time": "10.24", "trialTime": 11585, "trial_type": "mouselab-mdp", "trial_index": 63, "time_elapsed": 1010030, "internal_node_id": "0.0-4.0-3.0-23.0"}}, {"uniqueid": "w58047528:a29038827", "current_trial": 64, "dateTime": 1664874133207, "trialdata": {"revealed_states": [], "num_clicks_accrued": [0, 0, 0, 0, 0, 0, 0, 0, 0, 0, 0, 0, 0], "stateRewards": ["", 4, -4, 24, 48, 4, 8, -24, -24, -2, 4, 48, 48], "withholdReward": true, "trial_id": "mdp_624998450453", "block": "test2", "trialIndex": 56, "score": 52.5, "costs": -0.5, "simulationMode": [null, null, null], "rewards": [4, -4, 48], "path": ["0", "0", "1", "2", "4"], "rt": [2313, 56, 841], "actions": ["up", "up", "left"], "actionTimes": [4063, 4623, 5991], "queries": {"click": {"state": {"target": ["1", "4"], "time": [2242, 3277]}, "edge": {"target": [], "time": []}}, "mouseover": {"state": {"target": ["0", "1", "0", "0", "2", "4"], "time": [1899, 2149, 2449, 2699, 3049, 3215]}, "edge": {"target": [], "time": []}}, "mouseout": {"state": {"target": ["9", "0", "1", "0", "0", "1", "2", "4"], "time": [1099, 2032, 2382, 2582, 2733, 2999, 3065, 3449]}, "edge": {"target": [], "time": []}}}, "displayed_time": "9.75", "trialTime": 10118, "trial_type": "mouselab-mdp", "trial_index": 64, "time_elapsed": 1020214, "internal_node_id": "0.0-4.0-3.0-24.0"}}, {"uniqueid": "w58047528:a29038827", "current_trial": 65, "dateTime": 1664874143830, "trialdata": {"revealed_states": [], "num_clicks_accrued": [0, 0, 0, 0, 0, 0, 0, 0, 0, 0, 0, 0, 0], "stateRewards": ["", -2, -4, -24, -24, 4, 8, 24, 24, -2, 8, 48, 48], "withholdReward": true, "trial_id": "mdp_620787912291", "block": "test2", "trialIndex": 57, "score": 40, "costs": -1, "simulationMode": [null, null, null], "rewards": [4, 8, 24], "path": ["0", "0", "5", "6", "8"], "rt": [3224, 87, 56], "actions": ["right", "right", "down"], "actionTimes": [4502, 5101, 5653], "queries": {"click": {"state": {"target": ["1", "9", "5", "8"], "time": [1807, 2408, 3091, 3764]}, "edge": {"target": [], "time": []}}, "mouseover": {"state": {"target": ["1", "0", "9", "5", "8"], "time": [1664, 2130, 2264, 2914, 3663]}, "edge": {"target": [], "time": []}}, "mouseout": {"state": {"target": ["1", "0", "1", "0", "9", "5", "8"], "time": [1013, 1564, 1997, 2180, 2647, 3247, 3947]}, "edge": {"target": [], "time": []}}}, "displayed_time": "9.28", "trialTime": 10557, "trial_type": "mouselab-mdp", "trial_index": 65, "time_elapsed": 1030837, "internal_node_id": "0.0-4.0-3.0-25.0"}}, {"uniqueid": "w58047528:a29038827", "current_trial": 66, "dateTime": 1664874154399, "trialdata": {"revealed_states": [], "num_clicks_accrued": [0, 0, 0, 0, 0, 0, 0, 0, 0, 0, 0, 0, 0], "stateRewards": ["", 4, -8, -48, 24, 4, 4, -24, -24, 2, 4, -48, 24], "withholdReward": true, "trial_id": "mdp_626971397185", "block": "test2", "trialIndex": 58, "score": 24.5, "costs": -0.5, "simulationMode": [null, null, null], "rewards": [4, -8, 24], "path": ["0", "0", "1", "2", "4"], "rt": [2303, 175, 173], "actions": ["up", "up", "left"], "actionTimes": [3485, 4173, 4837], "queries": {"click": {"state": {"target": ["1", "4"], "time": [1955, 2653]}, "edge": {"target": [], "time": []}}, "mouseover": {"state": {"target": ["0", "1", "0", "4"], "time": [1314, 1864, 2247, 2530]}, "edge": {"target": [], "time": []}}, "mouseout": {"state": {"target": ["0", "0", "1", "0", "4", "1", "0"], "time": [1080, 1347, 2147, 2314, 2830, 5914, 5947]}, "edge": {"target": [], "time": []}}}, "displayed_time": "10.18", "trialTime": 10509, "trial_type": "mouselab-mdp", "trial_index": 66, "time_elapsed": 1041405, "internal_node_id": "0.0-4.0-3.0-26.0"}}, {"uniqueid": "w58047528:a29038827", "current_trial": 67, "dateTime": 1664874165487, "trialdata": {"revealed_states": [], "num_clicks_accrued": [0, 0, 0, 0, 0, 0, 0, 0, 0, 0, 0, 0, 0], "stateRewards": ["", -4, 8, 48, -48, 2, -4, 24, -24, -2, 4, -24, -24], "withholdReward": true, "trial_id": "mdp_804988042722", "block": "test2", "trialIndex": 59, "score": 25.75, "costs": -1.25, "simulationMode": [null, null, null], "rewards": [2, -4, 24], "path": ["0", "0", "5", "6", "7"], "rt": [4042, 159, 198], "actions": ["right", "right", "up"], "actionTimes": [5721, 6385, 7073], "queries": {"click": {"state": {"target": ["9", "1", "5", "8", "7"], "time": [2130, 2945, 3381, 3862, 4939]}, "edge": {"target": [], "time": []}}, "mouseover": {"state": {"target": ["0", "9", "0", "1", "5", "8", "7"], "time": [1841, 2091, 2458, 2791, 3259, 3708, 4825]}, "edge": {"target": [], "time": []}}, "mouseout": {"state": {"target": ["0", "0", "9", "0", "1", "5", "8", "7"], "time": [1575, 1891, 2441, 2491, 3191, 3591, 4192, 5108]}, "edge": {"target": [], "time": []}}}, "displayed_time": "9.68", "trialTime": 11025, "trial_type": "mouselab-mdp", "trial_index": 67, "time_elapsed": 1052493, "internal_node_id": "0.0-4.0-3.0-27.0"}}, {"uniqueid": "w58047528:a29038827", "current_trial": 68, "dateTime": 1664874176839, "trialdata": {"revealed_states": [], "num_clicks_accrued": [0, 0, 0, 0, 0, 0, 0, 0, 0, 0, 0, 0, 0], "stateRewards": ["", -4, -4, 24, -24, 4, 4, 24, 48, 4, -4, 48, -48], "withholdReward": true, "trial_id": "mdp_522385334882", "block": "test2", "trialIndex": 60, "score": 60.25, "costs": -0.75, "simulationMode": [null, null, null], "rewards": [4, 4, 48], "path": ["0", "0", "5", "6", "8"], "rt": [2900, 145, 79], "actions": ["right", "right", "down"], "actionTimes": [4211, 4843, 5427], "queries": {"click": {"state": {"target": ["1", "5", "8"], "time": [1845, 2373, 3341]}, "edge": {"target": [], "time": []}}, "mouseover": {"state": {"target": ["1", "5", "8", "8"], "time": [1664, 2230, 2730, 3230]}, "edge": {"target": [], "time": []}}, "mouseout": {"state": {"target": ["5", "0", "1", "5", "8", "8", "8"], "time": [1130, 1580, 2131, 2580, 2814, 3539, 10130]}, "edge": {"target": [], "time": []}}}, "displayed_time": "10.31", "trialTime": 11283, "trial_type": "mouselab-mdp", "trial_index": 68, "time_elapsed": 1063846, "internal_node_id": "0.0-4.0-3.0-28.0"}}, {"uniqueid": "w58047528:a29038827", "current_trial": 69, "dateTime": 1664874188447, "trialdata": {"revealed_states": [], "num_clicks_accrued": [0, 0, 0, 0, 0, 0, 0, 0, 0, 0, 0, 0, 0], "stateRewards": ["", -4, -4, 24, 48, 4, -4, -24, 24, -4, -4, 24, 24], "withholdReward": true, "trial_id": "mdp_357725458160", "block": "test2", "trialIndex": 61, "score": 28, "costs": -1, "simulationMode": [null, null, null], "rewards": [4, -4, 24], "path": ["0", "0", "5", "6", "8"], "rt": [3636, 140, 98], "actions": ["right", "right", "down"], "actionTimes": [5007, 5639, 6247], "queries": {"click": {"state": {"target": ["9", "1", "5", "8"], "time": [1915, 3155, 3623, 4203]}, "edge": {"target": [], "time": []}}, "mouseover": {"state": {"target": ["9", "5", "1", "5", "8"], "time": [1816, 2299, 3032, 3482, 4132]}, "edge": {"target": [], "time": []}}, "mouseout": {"state": {"target": ["0", "9", "5", "1", "5", "8", "8"], "time": [1732, 2099, 2316, 3415, 3765, 4382, 9332]}, "edge": {"target": [], "time": []}}}, "displayed_time": "10.37", "trialTime": 11543, "trial_type": "mouselab-mdp", "trial_index": 69, "time_elapsed": 1075453, "internal_node_id": "0.0-4.0-3.0-29.0"}}, {"uniqueid": "w58047528:a29038827", "current_trial": 70, "dateTime": 1664874191103, "trialdata": {"rt": 2653, "stimulus": "<h1> End of block! </h1>\n\nYou have reached the end of the block 2/4. If you need a short break, feel free to take one now before moving on.\n\n<br><br>\nIn the next block, you will complete another 30 rounds of this game.\n\n<br><br>\n<div style='text-align: center;'>Press <code>space</code> to begin.</div>\n<br><br>\n<div style='text-align: center;'>(If the experiment doesn't continue, try clicking on the text and then pressing <code>space</code>.)</div>", "response": " ", "trial_id": "mdp_ready_3", "trial_type": "html-keyboard-response", "trial_index": 70, "time_elapsed": 1078110, "internal_node_id": "0.0-4.0-4.0"}}, {"uniqueid": "w58047528:a29038827", "current_trial": 71, "dateTime": 1664874201927, "trialdata": {"revealed_states": [], "num_clicks_accrued": [0, 0, 0, 0, 0, 0, 0, 0, 0, 0, 0, 0, 0], "stateRewards": ["", 4, 8, -24, 48, 4, -8, -48, 48, -4, 8, -24, -48], "withholdReward": true, "trial_id": "mdp_376126356841", "block": "test3", "trialIndex": 62, "score": 64.25, "costs": -0.75, "simulationMode": [null, null, null], "rewards": [4, 8, 48], "path": ["0", "0", "1", "2", "4"], "rt": [2609, 33, 1027], "actions": ["up", "up", "left"], "actionTimes": [3998, 4550, 6094], "queries": {"click": {"state": {"target": ["1", "3", "4"], "time": [1873, 2513, 3256]}, "edge": {"target": [], "time": []}}, "mouseover": {"state": {"target": ["1", "3", "7", "11", "4"], "time": [1734, 2417, 2767, 2917, 3150]}, "edge": {"target": [], "time": []}}, "mouseout": {"state": {"target": ["0", "1", "3", "7", "1", "11", "4", "1"], "time": [1683, 2167, 2683, 2834, 2883, 3017, 3400, 3483]}, "edge": {"target": [], "time": []}}}, "displayed_time": "10.39", "trialTime": 10758, "trial_type": "mouselab-mdp", "trial_index": 71, "time_elapsed": 1088934, "internal_node_id": "0.0-4.0-5.0-0.0"}}, {"uniqueid": "w58047528:a29038827", "current_trial": 72, "dateTime": 1664874213471, "trialdata": {"revealed_states": [], "num_clicks_accrued": [0, 0, 0, 0, 0, 0, 0, 0, 0, 0, 0, 0, 0], "stateRewards": ["", -2, 8, 48, 48, 2, 4, -48, 24, -4, -8, 48, 24], "withholdReward": true, "trial_id": "mdp_572910394648", "block": "test3", "trialIndex": 63, "score": 34.25, "costs": -0.75, "simulationMode": [null, null, null], "rewards": [2, 4, 24], "path": ["0", "0", "5", "6", "8"], "rt": [2425, 15, 36], "actions": ["right", "right", "down"], "actionTimes": [4016, 4544, 5080], "queries": {"click": {"state": {"target": ["9", "5", "8"], "time": [1986, 2595, 3260]}, "edge": {"target": [], "time": []}}, "mouseover": {"state": {"target": ["0", "9", "0", "5", "8"], "time": [1744, 1877, 2344, 2377, 3110]}, "edge": {"target": [], "time": []}}, "mouseout": {"state": {"target": ["0", "9", "0", "5", "8"], "time": [1810, 2327, 2360, 2760, 3443]}, "edge": {"target": [], "time": []}}}, "displayed_time": "10.59", "trialTime": 11480, "trial_type": "mouselab-mdp", "trial_index": 72, "time_elapsed": 1100478, "internal_node_id": "0.0-4.0-5.0-1.0"}}, {"uniqueid": "w58047528:a29038827", "current_trial": 73, "dateTime": 1664874225311, "trialdata": {"revealed_states": [], "num_clicks_accrued": [0, 0, 0, 0, 0, 0, 0, 0, 0, 0, 0, 0, 0], "stateRewards": ["", -4, 8, -24, 24, -2, -8, 24, -24, 4, -4, -48, 48], "withholdReward": false, "trial_id": "mdp_297684722007", "block": "test3", "trialIndex": 64, "score": 52, "costs": -1, "simulationMode": [null, null, null], "rewards": [4, -4, 48], "path": ["0", "0", "9", "10", "12"], "rt": [4187, 117, 99], "actions": ["left", "left", "down"], "actionTimes": [6789, 7397, 8013], "queries": {"click": {"state": {"target": ["1", "5", "9", "12"], "time": [3142, 4392, 4919, 5960]}, "edge": {"target": [], "time": []}}, "mouseover": {"state": {"target": ["1", "5", "5", "5", "9", "12"], "time": [3077, 3463, 3998, 4263, 4763, 5805]}, "edge": {"target": [], "time": []}}, "mouseout": {"state": {"target": ["6", "1", "1", "0", "0", "1", "5", "5", "5", "9", "12"], "time": [1413, 1530, 1846, 1913, 2863, 3325, 3496, 4029, 4530, 5114, 6279]}, "edge": {"target": [], "time": []}}}, "displayed_time": "10.60", "trialTime": 11772, "trial_type": "mouselab-mdp", "trial_index": 73, "time_elapsed": 1112318, "internal_node_id": "0.0-4.0-5.0-2.0"}}, {"uniqueid": "w58047528:a29038827", "current_trial": 74, "dateTime": 1664874235247, "trialdata": {"revealed_states": [], "num_clicks_accrued": [0, 0, 0, 0, 0, 0, 0, 0, 0, 0, 0, 0, 0], "stateRewards": ["", 2, 4, 24, 48, -2, 8, 24, -24, -4, -4, 48, 48], "withholdReward": true, "trial_id": "mdp_753439303214", "block": "test3", "trialIndex": 65, "score": 34.5, "costs": -0.5, "simulationMode": [null, null, null], "rewards": [2, 4, 24], "path": ["0", "0", "1", "2", "3"], "rt": [2028, 188, 153], "actions": ["up", "up", "right"], "actionTimes": [3359, 4040, 4688], "queries": {"click": {"state": {"target": ["1", "3"], "time": [1834, 2387]}, "edge": {"target": [], "time": []}}, "mouseover": {"state": {"target": ["1", "3", "6"], "time": [1701, 2235, 2701]}, "edge": {"target": [], "time": []}}, "mouseout": {"state": {"target": ["0", "0", "1", "3", "6"], "time": [1051, 1618, 2168, 2634, 5587]}, "edge": {"target": [], "time": []}}}, "displayed_time": "9.33", "trialTime": 9863, "trial_type": "mouselab-mdp", "trial_index": 74, "time_elapsed": 1122254, "internal_node_id": "0.0-4.0-5.0-3.0"}}, {"uniqueid": "w58047528:a29038827", "current_trial": 75, "dateTime": 1664874245967, "trialdata": {"revealed_states": [], "num_clicks_accrued": [0, 0, 0, 0, 0, 0, 0, 0, 0, 0, 0, 0, 0], "stateRewards": ["", 4, -4, 48, -48, -2, -8, -24, 48, -2, 4, 24, -24], "withholdReward": true, "trial_id": "mdp_507290896735", "block": "test3", "trialIndex": 66, "score": 51.75, "costs": -1.25, "simulationMode": [null, null, null], "rewards": [4, -4, 48], "path": ["0", "0", "1", "2", "3"], "rt": [4230, 78, 55], "actions": ["up", "up", "right"], "actionTimes": [5352, 5920, 6463], "queries": {"click": {"state": {"target": ["9", "5", "1", "4", "3"], "time": [1596, 2145, 3227, 3888, 4448]}, "edge": {"target": [], "time": []}}, "mouseover": {"state": {"target": ["9", "5", "1", "0", "4", "3"], "time": [1340, 2123, 3106, 3423, 3823, 4322]}, "edge": {"target": [], "time": []}}, "mouseout": {"state": {"target": ["0", "9", "5", "1", "0", "1", "4", "3", "5"], "time": [1022, 1823, 2489, 3389, 3590, 3639, 4089, 4606, 4806]}, "edge": {"target": [], "time": []}}}, "displayed_time": "9.12", "trialTime": 10655, "trial_type": "mouselab-mdp", "trial_index": 75, "time_elapsed": 1132974, "internal_node_id": "0.0-4.0-5.0-4.0"}}, {"uniqueid": "w58047528:a29038827", "current_trial": 76, "dateTime": 1664874258343, "trialdata": {"revealed_states": [], "num_clicks_accrued": [0, 0, 0, 0, 0, 0, 0, 0, 0, 0, 0, 0, 0], "stateRewards": ["", -4, 4, 24, 24, 4, -8, 48, -48, -2, -8, 24, 24], "withholdReward": true, "trial_id": "mdp_395264223239", "block": "test3", "trialIndex": 67, "score": 48, "costs": -1, "simulationMode": [null, null, null], "rewards": [4, -8, 48], "path": ["0", "0", "5", "6", "7"], "rt": [3881, 53, 55], "actions": ["right", "right", "up"], "actionTimes": [6859, 7419, 8003], "queries": {"click": {"state": {"target": ["9", "5", "8", "7"], "time": [3764, 4469, 5145, 5809]}, "edge": {"target": [], "time": []}}, "mouseover": {"state": {"target": ["9", "10", "9", "5", "5", "8", "7", "6"], "time": [3347, 3398, 3647, 4114, 4347, 5037, 5697, 6264]}, "edge": {"target": [], "time": []}}, "mouseout": {"state": {"target": ["1", "2", "4", "1", "9", "10", "9", "5", "5", "8", "7", "6"], "time": [2347, 2364, 2614, 2630, 3381, 3597, 3947, 4214, 4647, 5481, 5947, 6297]}, "edge": {"target": [], "time": []}}}, "displayed_time": "10.98", "trialTime": 12306, "trial_type": "mouselab-mdp", "trial_index": 76, "time_elapsed": 1145349, "internal_node_id": "0.0-4.0-5.0-5.0"}}, {"uniqueid": "w58047528:a29038827", "current_trial": 77, "dateTime": 1664874270407, "trialdata": {"revealed_states": [], "num_clicks_accrued": [0, 0, 0, 0, 0, 0, 0, 0, 0, 0, 0, 0, 0], "stateRewards": ["", -4, 8, -24, -24, 2, 4, 48, 48, -2, 4, 24, -48], "withholdReward": false, "trial_id": "mdp_397308196941", "block": "test3", "trialIndex": 68, "score": 58, "costs": -1, "simulationMode": [null, null, null], "rewards": [2, 4, 48], "path": ["0", "0", "5", "6", "8"], "rt": [3746, 39, 9], "actions": ["right", "right", "down"], "actionTimes": [5488, 6040, 6560], "queries": {"click": {"state": {"target": ["1", "9", "5", "8"], "time": [2259, 3501, 4068, 4647]}, "edge": {"target": [], "time": []}}, "mouseover": {"state": {"target": ["1", "0", "9", "9", "0", "9", "5", "8"], "time": [2101, 2551, 2635, 2999, 3201, 3417, 3901, 4534]}, "edge": {"target": [], "time": []}}, "mouseout": {"state": {"target": ["12", "0", "1", "0", "9", "9", "0", "9", "5", "8"], "time": [784, 2034, 2450, 2634, 2684, 3034, 3301, 3718, 4218, 4784]}, "edge": {"target": [], "time": []}}}, "displayed_time": "10.74", "trialTime": 12008, "trial_type": "mouselab-mdp", "trial_index": 77, "time_elapsed": 1157414, "internal_node_id": "0.0-4.0-5.0-6.0"}}, {"uniqueid": "w58047528:a29038827", "current_trial": 78, "dateTime": 1664874279943, "trialdata": {"revealed_states": [], "num_clicks_accrued": [0, 0, 0, 0, 0, 0, 0, 0, 0, 0, 0, 0, 0], "stateRewards": ["", 4, -4, 24, 48, 4, 8, -24, -24, -2, 4, 48, 48], "withholdReward": false, "trial_id": "mdp_624998450453", "block": "test3", "trialIndex": 69, "score": 52.5, "costs": -0.5, "simulationMode": [null, null, null], "rewards": [4, -4, 48], "path": ["0", "0", "1", "2", "4"], "rt": [1828, 138, 153], "actions": ["up", "up", "left"], "actionTimes": [2942, 3566, 4214], "queries": {"click": {"state": {"target": ["1", "4"], "time": [1526, 2193]}, "edge": {"target": [], "time": []}}, "mouseover": {"state": {"target": ["1", "4"], "time": [1393, 2060]}, "edge": {"target": [], "time": []}}, "mouseout": {"state": {"target": ["0", "1", "1", "4", "1"], "time": [960, 1744, 1993, 2377, 2427]}, "edge": {"target": [], "time": []}}}, "displayed_time": "9.12", "trialTime": 9470, "trial_type": "mouselab-mdp", "trial_index": 78, "time_elapsed": 1166950, "internal_node_id": "0.0-4.0-5.0-7.0"}}, {"uniqueid": "w58047528:a29038827", "current_trial": 79, "dateTime": 1664874292455, "trialdata": {"revealed_states": [], "num_clicks_accrued": [0, 0, 0, 0, 0, 0, 0, 0, 0, 0, 0, 0, 0], "stateRewards": ["", 2, 4, -48, -24, -4, 4, -24, 24, -2, -8, -24, 24], "withholdReward": true, "trial_id": "mdp_640720803523", "block": "test3", "trialIndex": 70, "score": 17.25, "costs": -1.75, "simulationMode": [null, null, null], "rewards": [-2, -8, 24], "path": ["0", "0", "9", "10", "12"], "rt": [8461, 40, 11], "actions": ["left", "left", "down"], "actionTimes": [9658, 10186, 10706], "queries": {"click": {"state": {"target": ["9", "1", "3", "4", "5", "8", "12"], "time": [1695, 3040, 3864, 4877, 5605, 6975, 8223]}, "edge": {"target": [], "time": []}}, "mouseover": {"state": {"target": ["9", "0", "5", "1", "3", "2", "4", "4", "5", "5", "8", "6", "7", "0", "12"], "time": [1562, 2162, 2522, 2795, 3728, 4295, 4312, 4595, 5295, 5478, 6029, 7378, 7495, 7878, 8028]}, "edge": {"target": [], "time": []}}, "mouseout": {"state": {"target": ["5", "0", "9", "0", "5", "1", "3", "2", "4", "4", "1", "5", "5", "8", "6", "7", "5", "0", "9", "12"], "time": [995, 1095, 1878, 2195, 2678, 3278, 4278, 4311, 4346, 5095, 5145, 5345, 5795, 7362, 7412, 7828, 7862, 7912, 7978, 8395]}, "edge": {"target": [], "time": []}}}, "displayed_time": "11.21", "trialTime": 12434, "trial_type": "mouselab-mdp", "trial_index": 79, "time_elapsed": 1179462, "internal_node_id": "0.0-4.0-5.0-8.0"}}, {"uniqueid": "w58047528:a29038827", "current_trial": 80, "dateTime": 1664874303807, "trialdata": {"revealed_states": [], "num_clicks_accrued": [0, 0, 0, 0, 0, 0, 0, 0, 0, 0, 0, 0, 0], "stateRewards": ["", -2, -8, -24, 24, -2, -8, -48, 24, -2, -8, 24, 24], "withholdReward": false, "trial_id": "mdp_336617436097", "block": "test3", "trialIndex": 71, "score": 17.75, "costs": -1.25, "simulationMode": [null, null, null], "rewards": [-2, -8, 24], "path": ["0", "0", "9", "10", "12"], "rt": [6295, 69, 38], "actions": ["left", "left", "down"], "actionTimes": [7838, 8398, 8950], "queries": {"click": {"state": {"target": ["1", "9", "5", "12", "7"], "time": [2029, 2902, 3494, 5115, 6523]}, "edge": {"target": [], "time": []}}, "mouseover": {"state": {"target": ["1", "9", "9", "0", "5", "6", "12", "8", "6", "7"], "time": [1895, 2378, 2778, 3261, 3295, 4095, 5102, 5845, 6328, 6378]}, "edge": {"target": [], "time": []}}, "mouseout": {"state": {"target": ["0", "1", "9", "9", "0", "5", "6", "5", "12", "8", "6", "7"], "time": [1428, 2345, 2411, 3245, 3278, 3644, 4112, 4828, 5261, 5861, 6361, 6678]}, "edge": {"target": [], "time": []}}}, "displayed_time": "9.54", "trialTime": 11286, "trial_type": "mouselab-mdp", "trial_index": 80, "time_elapsed": 1190814, "internal_node_id": "0.0-4.0-5.0-9.0"}}, {"uniqueid": "w58047528:a29038827", "current_trial": 81, "dateTime": 1664874319079, "trialdata": {"revealed_states": [], "num_clicks_accrued": [0, 0, 0, 0, 0, 0, 0, 0, 0, 0, 0, 0, 0], "stateRewards": ["", 2, 8, -48, -24, 2, -4, -48, 24, 2, -4, -24, -24], "withholdReward": true, "trial_id": "mdp_954659099093", "block": "test3", "trialIndex": 72, "score": 24.75, "costs": -2.25, "simulationMode": [null, null, null], "rewards": [2, -4, 24], "path": ["0", "0", "5", "6", "8"], "rt": [9502, 35, 1204], "actions": ["right", "right", "down"], "actionTimes": [10940, 11492, 13228], "queries": {"click": {"state": {"target": ["1", "4", "3", "8", "12", "11", "7", "9", "5"], "time": [1922, 3257, 3810, 4534, 5959, 6603, 7131, 8991, 9533]}, "edge": {"target": [], "time": []}}, "mouseover": {"state": {"target": ["1", "5", "2", "4", "3", "5", "8", "5", "12", "9", "11", "7", "6", "0", "9", "5"], "time": [1790, 2357, 3024, 3140, 3723, 4174, 4340, 5140, 5657, 6340, 6474, 6924, 7357, 8824, 8890, 9390]}, "edge": {"target": [], "time": []}}, "mouseout": {"state": {"target": ["6", "5", "1", "5", "2", "4", "3", "5", "8", "5", "12", "9", "11", "7", "6", "8", "0", "9", "5"], "time": [1024, 1107, 2191, 2374, 3057, 3457, 4057, 4240, 5057, 5557, 6124, 6357, 6774, 7257, 7424, 7824, 8840, 9157, 9674]}, "edge": {"target": [], "time": []}}}, "displayed_time": "13.73", "trialTime": 15204, "trial_type": "mouselab-mdp", "trial_index": 81, "time_elapsed": 1206086, "internal_node_id": "0.0-4.0-5.0-10.0"}}, {"uniqueid": "w58047528:a29038827", "current_trial": 82, "dateTime": 1664874328951, "trialdata": {"revealed_states": [], "num_clicks_accrued": [0, 0, 0, 0, 0, 0, 0, 0, 0, 0, 0, 0, 0], "stateRewards": ["", 2, -4, 48, -48, -4, -8, -48, 24, -4, 4, 48, 48], "withholdReward": true, "trial_id": "mdp_544803968425", "block": "test3", "trialIndex": 73, "score": 50, "costs": -1, "simulationMode": [null, null, null], "rewards": [2, -4, 48], "path": ["0", "0", "1", "2", "3"], "rt": [3163, 46, 57], "actions": ["up", "up", "right"], "actionTimes": [4614, 5150, 5710], "queries": {"click": {"state": {"target": ["9", "1", "5", "3"], "time": [1963, 2514, 3004, 3516]}, "edge": {"target": [], "time": []}}, "mouseover": {"state": {"target": ["9", "1", "5", "3"], "time": [1788, 2437, 2903, 3387]}, "edge": {"target": [], "time": []}}, "mouseout": {"state": {"target": ["12", "9", "0", "9", "1", "5", "3"], "time": [937, 1271, 1738, 2221, 2670, 3253, 3737]}, "edge": {"target": [], "time": []}}}, "displayed_time": "9.45", "trialTime": 9806, "trial_type": "mouselab-mdp", "trial_index": 82, "time_elapsed": 1215957, "internal_node_id": "0.0-4.0-5.0-11.0"}}, {"uniqueid": "w58047528:a29038827", "current_trial": 83, "dateTime": 1664874338663, "trialdata": {"revealed_states": [], "num_clicks_accrued": [0, 0, 0, 0, 0, 0, 0, 0, 0, 0, 0, 0, 0], "stateRewards": ["", 4, -4, 48, 24, 2, 4, 24, -24, 2, 4, 24, 48], "withholdReward": true, "trial_id": "mdp_736351885282", "block": "test3", "trialIndex": 74, "score": 52.5, "costs": -0.5, "simulationMode": [null, null, null], "rewards": [4, -4, 48], "path": ["0", "0", "1", "2", "3"], "rt": [2254, 96, 57], "actions": ["up", "up", "right"], "actionTimes": [3456, 4056, 4600], "queries": {"click": {"state": {"target": ["1", "3"], "time": [1726, 2509]}, "edge": {"target": [], "time": []}}, "mouseover": {"state": {"target": ["1", "9", "3"], "time": [1625, 2008, 2242]}, "edge": {"target": [], "time": []}}, "mouseout": {"state": {"target": ["5", "0", "1", "9", "1", "3", "1"], "time": [1058, 1475, 1926, 2148, 2208, 2659, 2859]}, "edge": {"target": [], "time": []}}}, "displayed_time": "9.20", "trialTime": 9640, "trial_type": "mouselab-mdp", "trial_index": 83, "time_elapsed": 1225670, "internal_node_id": "0.0-4.0-5.0-12.0"}}, {"uniqueid": "w58047528:a29038827", "current_trial": 84, "dateTime": 1664874350071, "trialdata": {"revealed_states": [], "num_clicks_accrued": [0, 0, 0, 0, 0, 0, 0, 0, 0, 0, 0, 0, 0], "stateRewards": ["", -2, 4, -24, -24, -2, 4, 48, 24, -4, -8, 24, -48], "withholdReward": true, "trial_id": "mdp_191839460481", "block": "test3", "trialIndex": 75, "score": 29.5, "costs": -1.5, "simulationMode": [null, null, null], "rewards": [-2, 4, 24], "path": ["0", "0", "5", "6", "8"], "rt": [5580, 614, 274], "actions": ["right", "right", "down"], "actionTimes": [6844, 7948, 8708], "queries": {"click": {"state": {"target": ["9", "5", "1", "12", "3", "8"], "time": [1679, 2522, 3078, 4064, 4756, 5407]}, "edge": {"target": [], "time": []}}, "mouseover": {"state": {"target": ["9", "5", "5", "1", "0", "12", "3", "8"], "time": [1484, 2050, 2433, 2950, 3250, 3967, 4650, 5117]}, "edge": {"target": [], "time": []}}, "mouseout": {"state": {"target": ["1", "9", "5", "5", "1", "0", "12", "5", "3", "8"], "time": [933, 1898, 2067, 2700, 3217, 3284, 4317, 4433, 4900, 5550]}, "edge": {"target": [], "time": []}}}, "displayed_time": "10.27", "trialTime": 11340, "trial_type": "mouselab-mdp", "trial_index": 84, "time_elapsed": 1237077, "internal_node_id": "0.0-4.0-5.0-13.0"}}, {"uniqueid": "w58047528:a29038827", "current_trial": 85, "dateTime": 1664874361062, "trialdata": {"revealed_states": [], "num_clicks_accrued": [0, 0, 0, 0, 0, 0, 0, 0, 0, 0, 0, 0, 0], "stateRewards": ["", -4, -4, -24, -24, -2, 4, 48, -24, -2, -4, -24, 48], "withholdReward": true, "trial_id": "mdp_855903341564", "block": "test3", "trialIndex": 76, "score": 54, "costs": -1, "simulationMode": [null, null, null], "rewards": [-2, 4, 48], "path": ["0", "0", "5", "6", "7"], "rt": [3891, 15, 25], "actions": ["right", "right", "up"], "actionTimes": [5412, 5939, 6483], "queries": {"click": {"state": {"target": ["9", "1", "5", "7"], "time": [1987, 2678, 3115, 4066]}, "edge": {"target": [], "time": []}}, "mouseover": {"state": {"target": ["0", "9", "1", "1", "5", "6", "7", "10"], "time": [1658, 1808, 2391, 2549, 3024, 3908, 3941, 4607]}, "edge": {"target": [], "time": []}}, "mouseout": {"state": {"target": ["12", "0", "9", "1", "1", "5", "6", "7", "10"], "time": [1241, 1674, 2157, 2407, 2824, 3258, 3925, 4207, 4674]}, "edge": {"target": [], "time": []}}}, "displayed_time": "10.52", "trialTime": 10923, "trial_type": "mouselab-mdp", "trial_index": 85, "time_elapsed": 1248069, "internal_node_id": "0.0-4.0-5.0-14.0"}}, {"uniqueid": "w58047528:a29038827", "current_trial": 86, "dateTime": 1664874374414, "trialdata": {"revealed_states": [], "num_clicks_accrued": [0, 0, 0, 0, 0, 0, 0, 0, 0, 0, 0, 0, 0], "stateRewards": ["", 2, 4, -48, -48, 4, 4, -48, -48, -2, -8, 48, -24], "withholdReward": true, "trial_id": "mdp_175327338412", "block": "test3", "trialIndex": 77, "score": 40.75, "costs": -2.25, "simulationMode": [null, null, null], "rewards": [-2, -8, 48], "path": ["0", "0", "9", "10", "11"], "rt": [8308, 162, 166], "actions": ["left", "left", "up"], "actionTimes": [9964, 10628, 11300], "queries": {"click": {"state": {"target": ["1", "4", "3", "5", "8", "7", "9", "12", "11"], "time": [2153, 3694, 4414, 5555, 6615, 7203, 7952, 8416, 8992]}, "edge": {"target": [], "time": []}}, "mouseover": {"state": {"target": ["1", "9", "4", "3", "8", "8", "5", "8", "6", "7", "9", "12", "10", "11"], "time": [2016, 2416, 3416, 4283, 4649, 5100, 5449, 6399, 6966, 7016, 7866, 8216, 8716, 8749]}, "edge": {"target": [], "time": []}}, "mouseout": {"state": {"target": ["0", "0", "1", "9", "4", "1", "3", "8", "8", "5", "8", "6", "7", "9", "12", "10", "11", "9"], "time": [1050, 1399, 2316, 2683, 3916, 4049, 4533, 4700, 5366, 5733, 6949, 6983, 7399, 8150, 8616, 8733, 9166, 9216]}, "edge": {"target": [], "time": []}}}, "displayed_time": "11.80", "trialTime": 13284, "trial_type": "mouselab-mdp", "trial_index": 86, "time_elapsed": 1261421, "internal_node_id": "0.0-4.0-5.0-15.0"}}, {"uniqueid": "w58047528:a29038827", "current_trial": 87, "dateTime": 1664874384078, "trialdata": {"revealed_states": [], "num_clicks_accrued": [0, 0, 0, 0, 0, 0, 0, 0, 0, 0, 0, 0, 0], "stateRewards": ["", 4, 4, 48, -24, 2, -4, 48, 24, -4, -4, -48, 24], "withholdReward": true, "trial_id": "mdp_496003763005", "block": "test3", "trialIndex": 78, "score": 60.25, "costs": -0.75, "simulationMode": [null, null, null], "rewards": [4, 4, 48], "path": ["0", "0", "1", "2", "3"], "rt": [3134, 101, 92], "actions": ["up", "up", "right"], "actionTimes": [4324, 4932, 5540], "queries": {"click": {"state": {"target": ["1", "4", "3"], "time": [1814, 2856, 3460]}, "edge": {"target": [], "time": []}}, "mouseover": {"state": {"target": ["1", "4", "2", "3", "5"], "time": [1747, 2797, 3197, 3347, 3797]}, "edge": {"target": [], "time": []}}, "mouseout": {"state": {"target": ["0", "1", "4", "2", "3", "5"], "time": [1577, 2031, 3047, 3248, 3680, 3832]}, "edge": {"target": [], "time": []}}}, "displayed_time": "9.19", "trialTime": 9596, "trial_type": "mouselab-mdp", "trial_index": 87, "time_elapsed": 1271085, "internal_node_i