{"condition": 1, "counterbalance": 0, "assignmentId": "a81654916", "workerId": "w81325055", "hitId": "h47593436", "currenttrial": 14, "bonus": 0, "data": [{"uniqueid": "w81325055:a81654916", "current_trial": 0, "dateTime": 1664555108215, "trialdata": {"success": true, "trial_type": "fullscreen", "trial_index": 0, "time_elapsed": 7664, "internal_node_id": "0.0-0.0"}}, {"uniqueid": "w81325055:a81654916", "current_trial": 1, "dateTime": 1664555128197, "trialdata": {"view_history": [{"page_index": 0, "viewing_time": 19968}], "rt": 19970, "trial_id": "exp_instructions_no_distractor", "trial_type": "instructions", "trial_index": 1, "time_elapsed": 27648, "internal_node_id": "0.0-1.0"}}, {"uniqueid": "w81325055:a81654916", "current_trial": 2, "dateTime": 1664555132497, "trialdata": {"success": true, "trial_type": "fullscreen", "trial_index": 2, "time_elapsed": 31948, "internal_node_id": "0.0-2.0-0.0"}}, {"uniqueid": "w81325055:a81654916", "current_trial": 3, "dateTime": 1664555321979, "trialdata": {"view_history": [{"page_index": 0, "viewing_time": 77735}, {"page_index": 1, "viewing_time": 21237}, {"page_index": 2, "viewing_time": 70583}, {"page_index": 3, "viewing_time": 6239}, {"page_index": 4, "viewing_time": 13680}], "rt": 189475, "trial_id": "mouselab_instructions_1", "trial_type": "instructions", "trial_index": 3, "time_elapsed": 221430, "internal_node_id": "0.0-2.0-1.0"}}, {"uniqueid": "w81325055:a81654916", "current_trial": 4, "dateTime": 1664555347620, "trialdata": {"revealed_states": [], "num_clicks_accrued": [0, 0, 0, 0, 0, 0, 0, 0, 0, 0, 0, 0, 0], "stateRewards": ["", 10, -10, 10, 10, 10, 10, 10, 10, -10, 10, -10, 10], "withholdReward": false, "trial_id": "practice_1", "block": "test", "trialIndex": 0, "score": 31.75, "costs": -0.25, "simulationMode": [null, null, null], "rewards": [10, 10, 10], "path": ["0", "0", "5", "6", "8"], "rt": [7540, 5584, 1487], "actions": ["right", "right", "down"], "actionTimes": [10471, 16555, 18546], "queries": {"click": {"state": {"target": ["5"], "time": [8560]}, "edge": {"target": [], "time": []}}, "mouseover": {"state": {"target": ["5"], "time": [8279]}, "edge": {"target": [], "time": []}}, "mouseout": {"state": {"target": ["5", "5", "6", "6", "6"], "time": [9566, 11907, 13379, 14380, 14582]}, "edge": {"target": [], "time": []}}}, "displayed_time": "19.05", "trialTime": 24986, "trial_type": "mouselab-mdp", "trial_index": 4, "time_elapsed": 247069, "internal_node_id": "0.0-2.0-2.0-0.0"}}, {"uniqueid": "w81325055:a81654916", "current_trial": 5, "dateTime": 1664555370514, "trialdata": {"revealed_states": [], "num_clicks_accrued": [0, 0, 0, 0, 0, 0, 0, 0, 0, 0, 0, 0, 0], "stateRewards": ["", 10, -10, 10, -10, -10, 10, -10, -10, 10, -10, -10, -10], "withholdReward": false, "trial_id": "practice_2", "block": "test", "trialIndex": 1, "score": -9.25, "costs": -1.25, "simulationMode": [null, null, null], "rewards": [10, -10, -10], "path": ["0", "0", "1", "2", "4"], "rt": [10559, 4414, 387], "actions": ["up", "up", "left"], "actionTimes": [13788, 18713, 19602], "queries": {"click": {"state": {"target": ["9", "11", "10", "1", "2"], "time": [6450, 9079, 10339, 11590, 13058]}, "edge": {"target": [], "time": []}}, "mouseover": {"state": {"target": ["0", "9", "11", "10", "12", "1", "2"], "time": [4778, 5379, 8708, 9662, 10881, 11484, 12168]}, "edge": {"target": [], "time": []}}, "mouseout": {"state": {"target": ["7", "0", "9", "11", "10", "12", "9", "1", "2", "1", "3"], "time": [2519, 5144, 7538, 9495, 10614, 11184, 11251, 12085, 13658, 15748, 17508]}, "edge": {"target": [], "time": []}}}, "displayed_time": "20.10", "trialTime": 22753, "trial_type": "mouselab-mdp", "trial_index": 5, "time_elapsed": 269964, "internal_node_id": "0.0-2.0-2.0-1.0"}}, {"uniqueid": "w81325055:a81654916", "current_trial": 6, "dateTime": 1664555397991, "trialdata": {"view_history": [{"page_index": 0, "viewing_time": 19225}, {"page_index": 1, "viewing_time": 5871}, {"page_index": 2, "viewing_time": 2368}], "rt": 27466, "trial_id": "mouselab_instructions_2_scarce", "trial_type": "instructions", "trial_index": 6, "time_elapsed": 297442, "internal_node_id": "0.0-2.0-3.0"}}, {"uniqueid": "w81325055:a81654916", "current_trial": 7, "dateTime": 1664555454065, "trialdata": {"rt": 56065, "response": {"Q0": "$-48 to $48", "Q1": "The cost is always $0.25.", "Q2": "I will receive a $1 bonus regardless of my performance.", "Q3": "No, the amount of cash at each node of the web may be different each time.", "Q4": "The values of the nodes walked through from start to finish.", "Q5": "Yes."}, "question_order": [0, 1, 2, 3, 4, 5], "correct": {"Q0": "$-48 to $48", "Q1": "The cost is always $0.25.", "Q2": "The better I perform the higher my bonus will be.", "Q3": "No, the amount of cash at each node of the web may be different each time.", "Q4": "The values of the nodes walked through from start to finish.", "Q5": "No, the spider might forget to count the money on some rounds."}, "trial_id": "mouselab_quiz_scarce", "trial_type": "survey-multi-choice", "trial_index": 7, "time_elapsed": 353516, "internal_node_id": "0.0-2.0-4.0"}}, {"uniqueid": "w81325055:a81654916", "current_trial": 8, "dateTime": 1664555464542, "trialdata": {"success": true, "trial_type": "fullscreen", "trial_index": 8, "time_elapsed": 363993, "internal_node_id": "0.0-2.1-0.1"}}, {"uniqueid": "w81325055:a81654916", "current_trial": 9, "dateTime": 1664555468533, "trialdata": {"view_history": [{"page_index": 0, "viewing_time": 917}, {"page_index": 1, "viewing_time": 784}, {"page_index": 2, "viewing_time": 649}, {"page_index": 3, "viewing_time": 591}, {"page_index": 4, "viewing_time": 1040}], "rt": 3981, "trial_id": "mouselab_instructions_1", "trial_type": "instructions", "trial_index": 9, "time_elapsed": 367984, "internal_node_id": "0.0-2.1-1.1"}}, {"uniqueid": "w81325055:a81654916", "current_trial": 10, "dateTime": 1664555479530, "trialdata": {"revealed_states": [], "num_clicks_accrued": [0, 0, 0, 0, 0, 0, 0, 0, 0, 0, 0, 0, 0], "stateRewards": ["", 10, -10, 10, 10, 10, 10, 10, 10, -10, 10, -10, 10], "withholdReward": false, "trial_id": "practice_1", "block": "test", "trialIndex": 2, "score": 31, "costs": -1, "simulationMode": [null, null, null], "rewards": [10, 10, 10], "path": ["0", "0", "5", "6", "7"], "rt": [5545, 144, 277], "actions": ["right", "right", "up"], "actionTimes": [6757, 7405, 8189], "queries": {"click": {"state": {"target": ["5", "6", "7", "8"], "time": [3095, 3745, 5007, 5859]}, "edge": {"target": [], "time": []}}, "mouseover": {"state": {"target": ["5", "0", "5", "6", "7", "8"], "time": [1907, 2694, 2859, 3530, 4598, 5668]}, "edge": {"target": [], "time": []}}, "mouseout": {"state": {"target": ["0", "5", "0", "5", "6", "7", "6", "8", "5"], "time": [1708, 2631, 2788, 3463, 4498, 5353, 5401, 6153, 9884]}, "edge": {"target": [], "time": []}}}, "displayed_time": "8.68", "trialTime": 10853, "trial_type": "mouselab-mdp", "trial_index": 10, "time_elapsed": 378981, "internal_node_id": "0.0-2.1-2.1-0.1"}}, {"uniqueid": "w81325055:a81654916", "current_trial": 11, "dateTime": 1664555487944, "trialdata": {"revealed_states": [], "num_clicks_accrued": [0, 0, 0, 0, 0, 0, 0, 0, 0, 0, 0, 0, 0], "stateRewards": ["", 10, -10, 10, -10, -10, 10, -10, -10, 10, -10, -10, -10], "withholdReward": false, "trial_id": "practice_2", "block": "test", "trialIndex": 3, "score": -8.75, "costs": -0.75, "simulationMode": [null, null, null], "rewards": [10, -10, -10], "path": ["0", "0", "9", "10", "11"], "rt": [2931, 859, 154], "actions": ["left", "left", "up"], "actionTimes": [4289, 5656, 6320], "queries": {"click": {"state": {"target": ["9", "1", "2"], "time": [2133, 3129, 3641]}, "edge": {"target": [], "time": []}}, "mouseover": {"state": {"target": ["9", "1", "2"], "time": [1834, 2972, 3439]}, "edge": {"target": [], "time": []}}, "mouseout": {"state": {"target": ["2", "1", "0", "0", "9", "1"], "time": [845, 862, 1013, 1785, 2787, 3393]}, "edge": {"target": [], "time": []}}}, "displayed_time": "6.82", "trialTime": 8238, "trial_type": "mouselab-mdp", "trial_index": 11, "time_elapsed": 387394, "internal_node_id": "0.0-2.1-2.1-1.1"}}, {"uniqueid": "w81325055:a81654916", "current_trial": 12, "dateTime": 1664555517664, "trialdata": {"view_history": [{"page_index": 0, "viewing_time": 18145}, {"page_index": 1, "viewing_time": 10606}, {"page_index": 2, "viewing_time": 962}], "rt": 29715, "trial_id": "mouselab_instructions_2_scarce", "trial_type": "instructions", "trial_index": 12, "time_elapsed": 417115, "internal_node_id": "0.0-2.1-3.1"}}, {"uniqueid": "w81325055:a81654916", "current_trial": 13, "dateTime": 1664555541773, "trialdata": {"rt": 24099, "response": {"Q0": "$-48 to $48", "Q1": "The cost is always $0.25.", "Q2": "The better I perform the higher my bonus will be.", "Q3": "No, the amount of cash at each node of the web may be different each time.", "Q4": "The values of the nodes walked through from start to finish.", "Q5": "No, the score will only be displayed once at the end of the game."}, "question_order": [0, 1, 2, 3, 4, 5], "correct": {"Q0": "$-48 to $48", "Q1": "The cost is always $0.25.", "Q2": "The better I perform the higher my bonus will be.", "Q3": "No, the amount of cash at each node of the web may be different each time.", "Q4": "The values of the nodes walked through from start to finish.", "Q5": "No, the spider might forget to count the money on some rounds."}, "trial_id": "mouselab_quiz_scarce", "trial_type": "survey-multi-choice", "trial_index": 13, "time_elapsed": 441223, "internal_node_id": "0.0-2.1-4.1"}}], "questiondata": {"params": {"CODE": "C6DMOQA6", "MIN_TIME": 7, "inspectCost": 0.25, "startTime": "Fri Sep 30 2022 11:24:59 GMT-0500 (hora de verano central)", "bonusRate": 0.002, "variance": "2_4_24", "branching": "312"}}, "eventdata": [{"eventtype": "initialized", "value": null, "timestamp": 1664555099250, "interval": 0}, {"eventtype": "window_resize", "value": [1024, 660], "timestamp": 1664555099250, "interval": 0}, {"eventtype": "window_resize", "value": [1024, 660], "timestamp": 1664555099637, "interval": 387}, {"eventtype": "window_resize", "value": [1366, 768], "timestamp": 1664555107534, "interval": 7897}, {"eventtype": "focus", "value": "off", "timestamp": 1664555461701, "interval": 354167}, {"eventtype": "focus", "value": "on", "timestamp": 1664555461702, "interval": 1}, {"eventtype": "window_resize", "value": [1024, 660], "timestamp": 1664555461952, "interval": 250}, {"eventtype": "window_resize", "value": [1366, 768], "timestamp": 1664555463809, "interval": 1857}, {"eventtype": "focus", "value": "off", "timestamp": 1664555550222, "interval": 86413}, {"eventtype": "focus", "value": "on", "timestamp": 1664555550223, "interval": 1}, {"eventtype": "window_resize", "value": [1024, 660], "timestamp": 1664555550451, "interval": 228}], "useragent": "Mozilla/5.0 (Windows NT 10.0; Win64; x64) AppleWebKit/537.36 (KHTML, like Gecko) Chrome/106.0.0.0 Safari/537.36", "mode": "live", "id": "w81325055:a81654916", "status": "user data saved", "Beginhit": "2022-09-30 16:24:57.468096", "Beginexp": "2022-09-30 16:25:08.326507", "Endhit": null, "psiturkStatus": 6, "browser": "<redacted>", "platform": "windows", "language": "es-419"}