{"condition": 1, "counterbalance": 0, "assignmentId": "a50907987", "workerId": "w70893464", "hitId": "h91469004", "currenttrial": 143, "bonus": 0, "data": [{"uniqueid": "w70893464:a50907987", "current_trial": 0, "dateTime": 1664368275326, "trialdata": {"success": true, "trial_type": "fullscreen", "trial_index": 0, "time_elapsed": 4882, "internal_node_id": "0.0-0.0"}}, {"uniqueid": "w70893464:a50907987", "current_trial": 1, "dateTime": 1664368317970, "trialdata": {"view_history": [{"page_index": 0, "viewing_time": 42640}], "rt": 42641, "trial_id": "exp_instructions_no_distractor", "trial_type": "instructions", "trial_index": 1, "time_elapsed": 47527, "internal_node_id": "0.0-1.0"}}, {"uniqueid": "w70893464:a50907987", "current_trial": 2, "dateTime": 1664368321867, "trialdata": {"success": true, "trial_type": "fullscreen", "trial_index": 2, "time_elapsed": 51424, "internal_node_id": "0.0-2.0-0.0"}}, {"uniqueid": "w70893464:a50907987", "current_trial": 3, "dateTime": 1664368517586, "trialdata": {"view_history": [{"page_index": 0, "viewing_time": 96805}, {"page_index": 1, "viewing_time": 40634}, {"page_index": 2, "viewing_time": 21585}, {"page_index": 3, "viewing_time": 6532}, {"page_index": 4, "viewing_time": 30162}], "rt": 195717, "trial_id": "mouselab_instructions_1", "trial_type": "instructions", "trial_index": 3, "time_elapsed": 247143, "internal_node_id": "0.0-2.0-1.0"}}, {"uniqueid": "w70893464:a50907987", "current_trial": 4, "dateTime": 1664368544351, "trialdata": {"revealed_states": [], "num_clicks_accrued": [0, 0, 0, 0, 0, 0, 0, 0, 0, 0, 0, 0, 0], "stateRewards": ["", -10, 10, -10, -10, -10, 10, 10, -10, 10, 10, 10, 10], "withholdReward": false, "trial_id": "practice_1", "block": "test", "trialIndex": 0, "score": 31.5, "costs": -0.5, "simulationMode": [null, null, null], "rewards": [10, 10, 10], "path": ["0", "0", "9", "10", "11"], "rt": [11431, 2113, 756], "actions": ["left", "left", "up"], "actionTimes": [13950, 16562, 17812], "queries": {"click": {"state": {"target": ["5", "1"], "time": [8359, 12450]}, "edge": {"target": [], "time": []}}, "mouseover": {"state": {"target": ["5", "6", "6", "5", "1", "7"], "time": [2873, 6273, 7748, 8006, 10089, 12782]}, "edge": {"target": [], "time": []}}, "mouseout": {"state": {"target": ["5", "0", "5", "6", "6", "5", "1", "7"], "time": [2040, 2856, 2898, 6656, 7773, 9931, 12740, 12799]}, "edge": {"target": [], "time": []}}}, "displayed_time": "18.31", "trialTime": 25626, "trial_type": "mouselab-mdp", "trial_index": 4, "time_elapsed": 273908, "internal_node_id": "0.0-2.0-2.0-0.0"}}, {"uniqueid": "w70893464:a50907987", "current_trial": 5, "dateTime": 1664368555802, "trialdata": {"revealed_states": [], "num_clicks_accrued": [0, 0, 0, 0, 0, 0, 0, 0, 0, 0, 0, 0, 0], "stateRewards": ["", 10, -10, -10, -10, -10, 10, -10, -10, 10, -10, 10, -10], "withholdReward": false, "trial_id": "practice_2", "block": "test", "trialIndex": 1, "score": -8.25, "costs": -0.25, "simulationMode": [null, null, null], "rewards": [10, -10, -10], "path": ["0", "0", "1", "2", "3"], "rt": [3415, 2293, 331], "actions": ["up", "up", "right"], "actionTimes": [5100, 7889, 8719], "queries": {"click": {"state": {"target": ["5"], "time": [3936]}, "edge": {"target": [], "time": []}}, "mouseover": {"state": {"target": ["0", "5", "6", "5", "5", "6"], "time": [2088, 2221, 2345, 2595, 3228, 4237]}, "edge": {"target": [], "time": []}}, "mouseout": {"state": {"target": ["8", "0", "0", "5", "6", "5", "5", "6"], "time": [1170, 1504, 2103, 2278, 2562, 2655, 4212, 4262]}, "edge": {"target": [], "time": []}}}, "displayed_time": "9.22", "trialTime": 11358, "trial_type": "mouselab-mdp", "trial_index": 5, "time_elapsed": 285359, "internal_node_id": "0.0-2.0-2.0-1.0"}}, {"uniqueid": "w70893464:a50907987", "current_trial": 6, "dateTime": 1664368730623, "trialdata": {"view_history": [{"page_index": 0, "viewing_time": 102768}, {"page_index": 1, "viewing_time": 24269}, {"page_index": 2, "viewing_time": 47779}], "rt": 174816, "trial_id": "mouselab_instructions_2_scarce", "trial_type": "instructions", "trial_index": 6, "time_elapsed": 460179, "internal_node_id": "0.0-2.0-3.0"}}, {"uniqueid": "w70893464:a50907987", "current_trial": 7, "dateTime": 1664368797227, "trialdata": {"rt": 66598, "response": {"Q0": "$-48 to $48", "Q1": "The cost is always $0.25.", "Q2": "The better I perform the higher my bonus will be.", "Q3": "Yes.", "Q4": "The values of the nodes walked through from start to finish.", "Q5": "No, the spider might forget to count the money on some rounds."}, "question_order": [0, 1, 2, 3, 4, 5], "correct": {"Q0": "$-48 to $48", "Q1": "The cost is always $0.25.", "Q2": "The better I perform the higher my bonus will be.", "Q3": "No, the amount of cash at each node of the web may be different each time.", "Q4": "The values of the nodes walked through from start to finish.", "Q5": "No, the spider might forget to count the money on some rounds."}, "trial_id": "mouselab_quiz_scarce", "trial_type": "survey-multi-choice", "trial_index": 7, "time_elapsed": 526784, "internal_node_id": "0.0-2.0-4.0"}}, {"uniqueid": "w70893464:a50907987", "current_trial": 8, "dateTime": 1664368806562, "trialdata": {"success": true, "trial_type": "fullscreen", "trial_index": 8, "time_elapsed": 536119, "internal_node_id": "0.0-2.1-0.1"}}, {"uniqueid": "w70893464:a50907987", "current_trial": 9, "dateTime": 1664368882860, "trialdata": {"view_history": [{"page_index": 0, "viewing_time": 25213}, {"page_index": 1, "viewing_time": 8052}, {"page_index": 2, "viewing_time": 7842}, {"page_index": 3, "viewing_time": 4489}, {"page_index": 2, "viewing_time": 949}, {"page_index": 1, "viewing_time": 9496}, {"page_index": 2, "viewing_time": 1199}, {"page_index": 3, "viewing_time": 1194}, {"page_index": 4, "viewing_time": 17859}], "rt": 76295, "trial_id": "mouselab_instructions_1", "trial_type": "instructions", "trial_index": 9, "time_elapsed": 612417, "internal_node_id": "0.0-2.1-1.1"}}, {"uniqueid": "w70893464:a50907987", "current_trial": 10, "dateTime": 1664368890083, "trialdata": {"revealed_states": [], "num_clicks_accrued": [0, 0, 0, 0, 0, 0, 0, 0, 0, 0, 0, 0, 0], "stateRewards": ["", -10, 10, -10, -10, -10, 10, 10, -10, 10, 10, 10, 10], "withholdReward": false, "trial_id": "practice_1", "block": "test", "trialIndex": 2, "score": -8, "costs": 0, "simulationMode": [null, null, null], "rewards": [-10, 10, -10], "path": ["0", "0", "5", "6", "8"], "rt": [825, 746, 295], "actions": ["right", "right", "down"], "actionTimes": [2629, 3878, 4668], "queries": {"click": {"state": {"target": [], "time": []}, "edge": {"target": [], "time": []}}, "mouseover": {"state": {"target": [], "time": []}, "edge": {"target": [], "time": []}}, "mouseout": {"state": {"target": ["11"], "time": [1080]}, "edge": {"target": [], "time": []}}}, "displayed_time": "5.16", "trialTime": 7135, "trial_type": "mouselab-mdp", "trial_index": 10, "time_elapsed": 619640, "internal_node_id": "0.0-2.1-2.1-0.1"}}, {"uniqueid": "w70893464:a50907987", "current_trial": 11, "dateTime": 1664368900940, "trialdata": {"revealed_states": [], "num_clicks_accrued": [0, 0, 0, 0, 0, 0, 0, 0, 0, 0, 0, 0, 0], "stateRewards": ["", 10, -10, -10, -10, -10, 10, -10, -10, 10, -10, 10, -10], "withholdReward": false, "trial_id": "practice_2", "block": "test", "trialIndex": 3, "score": -8.5, "costs": -0.5, "simulationMode": [null, null, null], "rewards": [10, -10, -10], "path": ["0", "0", "1", "2", "4"], "rt": [3244, 244, 198], "actions": ["up", "up", "left"], "actionTimes": [4467, 5210, 5913], "queries": {"click": {"state": {"target": ["9", "1"], "time": [1680, 3202]}, "edge": {"target": [], "time": []}}, "mouseover": {"state": {"target": ["9", "1", "11", "1"], "time": [1540, 2290, 2790, 2956]}, "edge": {"target": [], "time": []}}, "mouseout": {"state": {"target": ["8", "8", "0", "9", "1", "11", "1"], "time": [689, 781, 1440, 2123, 2698, 2798, 3648]}, "edge": {"target": [], "time": []}}}, "displayed_time": "6.42", "trialTime": 10777, "trial_type": "mouselab-mdp", "trial_index": 11, "time_elapsed": 630497, "internal_node_id": "0.0-2.1-2.1-1.1"}}, {"uniqueid": "w70893464:a50907987", "current_trial": 12, "dateTime": 1664368960649, "trialdata": {"view_history": [{"page_index": 0, "viewing_time": 26618}, {"page_index": 1, "viewing_time": 30352}, {"page_index": 2, "viewing_time": 2736}], "rt": 59707, "trial_id": "mouselab_instructions_2_scarce", "trial_type": "instructions", "trial_index": 12, "time_elapsed": 690206, "internal_node_id": "0.0-2.1-3.1"}}, {"uniqueid": "w70893464:a50907987", "current_trial": 13, "dateTime": 1664369004464, "trialdata": {"rt": 43811, "response": {"Q0": "$-48 to $48", "Q1": "The cost is always $0.25.", "Q2": "The better I perform the higher my bonus will be.", "Q3": "No, the amount of cash at each node of the web may be different each time.", "Q4": "The values of the nodes walked through from start to finish.", "Q5": "No, the spider might forget to count the money on some rounds."}, "question_order": [0, 1, 2, 3, 4, 5], "correct": {"Q0": "$-48 to $48", "Q1": "The cost is always $0.25.", "Q2": "The better I perform the higher my bonus will be.", "Q3": "No, the amount of cash at each node of the web may be different each time.", "Q4": "The values of the nodes walked through from start to finish.", "Q5": "No, the spider might forget to count the money on some rounds."}, "trial_id": "mouselab_quiz_scarce", "trial_type": "survey-multi-choice", "trial_index": 13, "time_elapsed": 734021, "internal_node_id": "0.0-2.1-4.1"}}, {"uniqueid": "w70893464:a50907987", "current_trial": 14, "dateTime": 1664369028885, "trialdata": {"rt": 24412, "stimulus": "\n<h1> Get ready to start the game! </h1>\n\nThank you for reading the instructions. Get ready start with the first of 4 block(s) of this game.\n<br><br>\nIn this first block, you will complete 30 rounds of this game before moving on.\n<br><br>\nRemember, the more money the spider gets, the bigger your bonus will be!\n<br><br>\n<div style='text-align: center;'>Press <code>space</code> to begin.</div>\n\n<br><br>\n(If, at any point, the <code>space</code> key does not take you to the next page, click once on the text and try again.)", "response": " ", "trial_id": "mdp_ready_1", "trial_type": "html-keyboard-response", "trial_index": 14, "time_elapsed": 758442, "internal_node_id": "0.0-4.0-0.0"}}, {"uniqueid": "w70893464:a50907987", "current_trial": 15, "dateTime": 1664369042021, "trialdata": {"revealed_states": [], "num_clicks_accrued": [0, 0, 0, 0, 0, 0, 0, 0, 0, 0, 0, 0, 0], "stateRewards": ["", -2, 8, -24, 24, -4, -8, -24, 48, -2, -8, -48, 48], "withholdReward": true, "trial_id": "mdp_238332601315", "block": "test1", "trialIndex": 4, "score": 34.25, "costs": -0.75, "simulationMode": [null, null, null], "rewards": [-2, 8, 24], "path": ["0", "0", "1", "2", "4"], "rt": [5095, 265, 179], "actions": ["up", "up", "left"], "actionTimes": [6886, 7652, 8341], "queries": {"click": {"state": {"target": ["1", "5", "9"], "time": [2985, 3840, 4651]}, "edge": {"target": [], "time": []}}, "mouseover": {"state": {"target": ["1", "5", "9", "0", "6"], "time": [2286, 3595, 4353, 4969, 5036]}, "edge": {"target": [], "time": []}}, "mouseout": {"state": {"target": ["5", "1", "5", "9", "0", "5", "6"], "time": [1245, 3378, 4227, 4936, 4994, 5019, 5095]}, "edge": {"target": [], "time": []}}}, "displayed_time": "10.79", "trialTime": 13038, "trial_type": "mouselab-mdp", "trial_index": 15, "time_elapsed": 771577, "internal_node_id": "0.0-4.0-1.0-0.0"}}, {"uniqueid": "w70893464:a50907987", "current_trial": 16, "dateTime": 1664369053122, "trialdata": {"revealed_states": [], "num_clicks_accrued": [0, 0, 0, 0, 0, 0, 0, 0, 0, 0, 0, 0, 0], "stateRewards": ["", 4, 8, -24, 48, -2, -4, 24, -24, -2, 4, 24, 24], "withholdReward": true, "trial_id": "mdp_948713805479", "block": "test1", "trialIndex": 5, "score": -7.75, "costs": -0.75, "simulationMode": [null, null, null], "rewards": [4, 8, -24], "path": ["0", "0", "1", "2", "3"], "rt": [4768, 125, 149], "actions": ["up", "up", "right"], "actionTimes": [6395, 7018, 7675], "queries": {"click": {"state": {"target": ["9", "5", "6"], "time": [2458, 3819, 4456]}, "edge": {"target": [], "time": []}}, "mouseover": {"state": {"target": ["9", "10", "0", "0", "5", "6"], "time": [1951, 3017, 3266, 3534, 3600, 4284]}, "edge": {"target": [], "time": []}}, "mouseout": {"state": {"target": ["6", "5", "9", "10", "9", "0", "0", "5", "5", "6"], "time": [1100, 1291, 2783, 3183, 3243, 3408, 3576, 4051, 4234, 4767]}, "edge": {"target": [], "time": []}}}, "displayed_time": "9.63", "trialTime": 11021, "trial_type": "mouselab-mdp", "trial_index": 16, "time_elapsed": 782679, "internal_node_id": "0.0-4.0-1.0-1.0"}}, {"uniqueid": "w70893464:a50907987", "current_trial": 17, "dateTime": 1664369064357, "trialdata": {"revealed_states": [], "num_clicks_accrued": [0, 0, 0, 0, 0, 0, 0, 0, 0, 0, 0, 0, 0], "stateRewards": ["", -2, -4, -24, -48, 2, -8, -24, -24, 4, -8, 48, 48], "withholdReward": false, "trial_id": "mdp_950599994674", "block": "test1", "trialIndex": 6, "score": 48.75, "costs": -0.25, "simulationMode": [null, null, null], "rewards": [4, -8, 48], "path": ["0", "0", "9", "10", "12"], "rt": [2105, 85, 124], "actions": ["left", "left", "down"], "actionTimes": [3302, 3891, 4514], "queries": {"click": {"state": {"target": ["9"], "time": [1815]}, "edge": {"target": [], "time": []}}, "mouseover": {"state": {"target": ["9", "1", "1"], "time": [1540, 2514, 2689]}, "edge": {"target": [], "time": []}}, "mouseout": {"state": {"target": ["6", "5", "0", "9", "9", "1", "1"], "time": [848, 897, 1497, 2239, 2422, 2573, 2697]}, "edge": {"target": [], "time": []}}}, "displayed_time": "9.20", "trialTime": 11144, "trial_type": "mouselab-mdp", "trial_index": 17, "time_elapsed": 793913, "internal_node_id": "0.0-4.0-1.0-2.0"}}, {"uniqueid": "w70893464:a50907987", "current_trial": 18, "dateTime": 1664369075772, "trialdata": {"revealed_states": [], "num_clicks_accrued": [0, 0, 0, 0, 0, 0, 0, 0, 0, 0, 0, 0, 0], "stateRewards": ["", 4, -4, 48, 24, 2, -8, 24, -48, -2, -4, -48, -48], "withholdReward": true, "trial_id": "mdp_655302318695", "block": "test1", "trialIndex": 7, "score": 22.5, "costs": -0.5, "simulationMode": [null, null, null], "rewards": [2, -8, 24], "path": ["0", "0", "5", "6", "7"], "rt": [5205, 109, 110], "actions": ["right", "right", "up"], "actionTimes": [7061, 7667, 8279], "queries": {"click": {"state": {"target": ["5", "9"], "time": [3503, 5486]}, "edge": {"target": [], "time": []}}, "mouseover": {"state": {"target": ["5", "5", "6", "6", "8", "0", "9", "0", "6"], "time": [2624, 2949, 3965, 4182, 5015, 5182, 5373, 5757, 5815]}, "edge": {"target": [], "time": []}}, "mouseout": {"state": {"target": ["7", "5", "0", "5", "5", "6", "6", "8", "0", "9", "0", "5", "6"], "time": [1132, 1382, 1656, 2749, 3874, 4066, 4190, 5041, 5265, 5740, 5790, 5807, 5823]}, "edge": {"target": [], "time": []}}}, "displayed_time": "9.86", "trialTime": 11327, "trial_type": "mouselab-mdp", "trial_index": 18, "time_elapsed": 805328, "internal_node_id": "0.0-4.0-1.0-3.0"}}, {"uniqueid": "w70893464:a50907987", "current_trial": 19, "dateTime": 1664369086981, "trialdata": {"revealed_states": [], "num_clicks_accrued": [0, 0, 0, 0, 0, 0, 0, 0, 0, 0, 0, 0, 0], "stateRewards": ["", 4, -4, 48, -48, -4, -4, 48, -48, 4, 4, -48, -24], "withholdReward": true, "trial_id": "mdp_490058671112", "block": "test1", "trialIndex": 8, "score": -43.75, "costs": -0.75, "simulationMode": [null, null, null], "rewards": [4, -4, -48], "path": ["0", "0", "1", "2", "4"], "rt": [4422, 75, 2], "actions": ["up", "up", "left"], "actionTimes": [5628, 6197, 6708], "queries": {"click": {"state": {"target": ["1", "5", "9"], "time": [1682, 2533, 4410]}, "edge": {"target": [], "time": []}}, "mouseover": {"state": {"target": ["1", "5", "7", "0", "9", "0", "6"], "time": [1531, 2280, 2872, 3989, 4297, 4638, 4681]}, "edge": {"target": [], "time": []}}, "mouseout": {"state": {"target": ["5", "0", "1", "5", "7", "5", "0", "9", "0", "5", "6"], "time": [789, 1447, 2080, 2822, 3898, 3938, 4038, 4622, 4656, 4680, 4697]}, "edge": {"target": [], "time": []}}}, "displayed_time": "10.21", "trialTime": 11119, "trial_type": "mouselab-mdp", "trial_index": 19, "time_elapsed": 816538, "internal_node_id": "0.0-4.0-1.0-4.0"}}, {"uniqueid": "w70893464:a50907987", "current_trial": 20, "dateTime": 1664369098069, "trialdata": {"revealed_states": [], "num_clicks_accrued": [0, 0, 0, 0, 0, 0, 0, 0, 0, 0, 0, 0, 0], "stateRewards": ["", 2, 4, -24, -48, 4, -4, 24, 48, -4, -4, -24, 48], "withholdReward": true, "trial_id": "mdp_181958792175", "block": "test1", "trialIndex": 9, "score": 52.25, "costs": -0.75, "simulationMode": [null, null, null], "rewards": [4, -4, 48], "path": ["0", "0", "5", "6", "8"], "rt": [3977, 6, 37], "actions": ["right", "right", "down"], "actionTimes": [4993, 5508, 6055], "queries": {"click": {"state": {"target": ["9", "1", "5"], "time": [1537, 2053, 4069]}, "edge": {"target": [], "time": []}}, "mouseover": {"state": {"target": ["9", "1", "0", "5", "6", "5", "6", "6", "5", "6"], "time": [1402, 1910, 2393, 2436, 2843, 3001, 3351, 3693, 3926, 4244]}, "edge": {"target": [], "time": []}}, "mouseout": {"state": {"target": ["0", "9", "1", "0", "5", "6", "5", "6", "6", "5", "6"], "time": [1301, 1826, 2293, 2401, 2468, 2902, 3327, 3378, 3820, 4218, 4269]}, "edge": {"target": [], "time": []}}}, "displayed_time": "10.02", "trialTime": 10995, "trial_type": "mouselab-mdp", "trial_index": 20, "time_elapsed": 827626, "internal_node_id": "0.0-4.0-1.0-5.0"}}, {"uniqueid": "w70893464:a50907987", "current_trial": 21, "dateTime": 1664369109632, "trialdata": {"revealed_states": [], "num_clicks_accrued": [0, 0, 0, 0, 0, 0, 0, 0, 0, 0, 0, 0, 0], "stateRewards": ["", 2, -8, 48, -24, -4, -8, -24, 48, -2, 4, 24, -48], "withholdReward": false, "trial_id": "mdp_186932504904", "block": "test1", "trialIndex": 10, "score": -25.75, "costs": -0.75, "simulationMode": [null, null, null], "rewards": [2, -8, -24], "path": ["0", "0", "1", "2", "4"], "rt": [2674, 32, 134], "actions": ["up", "up", "left"], "actionTimes": [3726, 4258, 4900], "queries": {"click": {"state": {"target": ["5", "1", "9"], "time": [1423, 1963, 2854]}, "edge": {"target": [], "time": []}}, "mouseover": {"state": {"target": ["5", "1", "0", "9", "6"], "time": [1299, 1824, 2507, 2749, 3149]}, "edge": {"target": [], "time": []}}, "mouseout": {"state": {"target": ["6", "5", "0", "5", "1", "5", "5", "0", "9", "5", "6"], "time": [640, 724, 1240, 1715, 2233, 2332, 2490, 2549, 3032, 3140, 3174]}, "edge": {"target": [], "time": []}}}, "displayed_time": "10.05", "trialTime": 11471, "trial_type": "mouselab-mdp", "trial_index": 21, "time_elapsed": 839189, "internal_node_id": "0.0-4.0-1.0-6.0"}}, {"uniqueid": "w70893464:a50907987", "current_trial": 22, "dateTime": 1664369119915, "trialdata": {"revealed_states": [], "num_clicks_accrued": [0, 0, 0, 0, 0, 0, 0, 0, 0, 0, 0, 0, 0], "stateRewards": ["", -2, -8, 48, 24, 2, 8, -48, 24, -4, 8, 48, 48], "withholdReward": true, "trial_id": "mdp_875436109858", "block": "test1", "trialIndex": 11, "score": 42.25, "costs": -0.75, "simulationMode": [null, null, null], "rewards": [-2, -8, 48], "path": ["0", "0", "1", "2", "3"], "rt": [3221, 9, 6], "actions": ["up", "up", "right"], "actionTimes": [4435, 4946, 5459], "queries": {"click": {"state": {"target": ["5", "1", "9"], "time": [1652, 2498, 3072]}, "edge": {"target": [], "time": []}}, "mouseover": {"state": {"target": ["5", "1", "9", "6"], "time": [1552, 2361, 2986, 3402]}, "edge": {"target": [], "time": []}}, "mouseout": {"state": {"target": ["6", "5", "0", "0", "5", "1", "9", "5", "6"], "time": [619, 712, 836, 1102, 2236, 2828, 3277, 3386, 3427]}, "edge": {"target": [], "time": []}}}, "displayed_time": "9.21", "trialTime": 10191, "trial_type": "mouselab-mdp", "trial_index": 22, "time_elapsed": 849471, "internal_node_id": "0.0-4.0-1.0-7.0"}}, {"uniqueid": "w70893464:a50907987", "current_trial": 23, "dateTime": 1664369130017, "trialdata": {"revealed_states": [], "num_clicks_accrued": [0, 0, 0, 0, 0, 0, 0, 0, 0, 0, 0, 0, 0], "stateRewards": ["", -2, -8, -24, -48, -2, -4, 48, -48, 4, 4, -48, 48], "withholdReward": true, "trial_id": "mdp_156977432949", "block": "test1", "trialIndex": 12, "score": 60.25, "costs": -0.75, "simulationMode": [null, null, null], "rewards": [4, 4, 48], "path": ["0", "0", "9", "10", "12"], "rt": [3367, 516, 80], "actions": ["left", "left", "down"], "actionTimes": [4361, 5371, 5951], "queries": {"click": {"state": {"target": ["1", "5", "9"], "time": [1392, 2788, 3413]}, "edge": {"target": [], "time": []}}, "mouseover": {"state": {"target": ["1", "5", "9", "0"], "time": [1271, 2263, 3338, 3671]}, "edge": {"target": [], "time": []}}, "mouseout": {"state": {"target": ["0", "1", "5", "9", "0", "5"], "time": [887, 1738, 3054, 3629, 3704, 3772]}, "edge": {"target": [], "time": []}}}, "displayed_time": "8.99", "trialTime": 9996, "trial_type": "mouselab-mdp", "trial_index": 23, "time_elapsed": 859574, "internal_node_id": "0.0-4.0-1.0-8.0"}}, {"uniqueid": "w70893464:a50907987", "current_trial": 24, "dateTime": 1664369140134, "trialdata": {"revealed_states": [], "num_clicks_accrued": [0, 0, 0, 0, 0, 0, 0, 0, 0, 0, 0, 0, 0], "stateRewards": ["", -2, 4, -24, 24, -4, -8, 24, -48, -4, -4, -48, -24], "withholdReward": true, "trial_id": "mdp_753137520419", "block": "test1", "trialIndex": 13, "score": 30.25, "costs": -0.75, "simulationMode": [null, null, null], "rewards": [-2, 4, 24], "path": ["0", "0", "1", "2", "4"], "rt": [3455, 55, 31], "actions": ["up", "up", "left"], "actionTimes": [4476, 5030, 5557], "queries": {"click": {"state": {"target": ["9", "1", "5"], "time": [1623, 2383, 3008]}, "edge": {"target": [], "time": []}}, "mouseover": {"state": {"target": ["9", "1", "5"], "time": [1541, 2241, 2875]}, "edge": {"target": [], "time": []}}, "mouseout": {"state": {"target": ["5", "0", "9", "1", "5"], "time": [549, 815, 1967, 2699, 3341]}, "edge": {"target": [], "time": []}}}, "displayed_time": "9.02", "trialTime": 10033, "trial_type": "mouselab-mdp", "trial_index": 24, "time_elapsed": 869691, "internal_node_id": "0.0-4.0-1.0-9.0"}}, {"uniqueid": "w70893464:a50907987", "current_trial": 25, "dateTime": 1664369151387, "trialdata": {"revealed_states": [], "num_clicks_accrued": [0, 0, 0, 0, 0, 0, 0, 0, 0, 0, 0, 0, 0], "stateRewards": ["", 2, 4, 24, 48, -2, 8, 24, -24, -4, -4, 48, 48], "withholdReward": false, "trial_id": "mdp_753439303214", "block": "test1", "trialIndex": 14, "score": 34.25, "costs": -0.75, "simulationMode": [null, null, null], "rewards": [2, 4, 24], "path": ["0", "0", "1", "2", "3"], "rt": [3599, 12, 373], "actions": ["up", "up", "right"], "actionTimes": [4570, 5083, 5969], "queries": {"click": {"state": {"target": ["9", "1", "5"], "time": [1613, 2313, 3457]}, "edge": {"target": [], "time": []}}, "mouseover": {"state": {"target": ["9", "1", "5", "6", "5"], "time": [1462, 2212, 2828, 2871, 3253]}, "edge": {"target": [], "time": []}}, "mouseout": {"state": {"target": ["8", "0", "9", "1", "5", "6", "5"], "time": [503, 787, 2003, 2670, 2837, 3195, 3687]}, "edge": {"target": [], "time": []}}}, "displayed_time": "9.97", "trialTime": 11156, "trial_type": "mouselab-mdp", "trial_index": 25, "time_elapsed": 880943, "internal_node_id": "0.0-4.0-1.0-10.0"}}, {"uniqueid": "w70893464:a50907987", "current_trial": 26, "dateTime": 1664369164899, "trialdata": {"revealed_states": [], "num_clicks_accrued": [0, 0, 0, 0, 0, 0, 0, 0, 0, 0, 0, 0, 0], "stateRewards": ["", 4, -8, -24, 24, 2, -4, 24, 24, 2, -4, 48, 48], "withholdReward": false, "trial_id": "mdp_457607480918", "block": "test1", "trialIndex": 15, "score": 50.75, "costs": -0.25, "simulationMode": [null, null, null], "rewards": [2, -4, 48], "path": ["0", "0", "9", "10", "11"], "rt": [1328, 16, 487], "actions": ["left", "left", "up"], "actionTimes": [2831, 3343, 4339], "queries": {"click": {"state": {"target": ["9"], "time": [1889]}, "edge": {"target": [], "time": []}}, "mouseover": {"state": {"target": ["9"], "time": [1759]}, "edge": {"target": [], "time": []}}, "mouseout": {"state": {"target": ["11", "11", "9", "5"], "time": [967, 1175, 2201, 12292]}, "edge": {"target": [], "time": []}}}, "displayed_time": "10.51", "trialTime": 13415, "trial_type": "mouselab-mdp", "trial_index": 26, "time_elapsed": 894456, "internal_node_id": "0.0-4.0-1.0-11.0"}}, {"uniqueid": "w70893464:a50907987", "current_trial": 27, "dateTime": 1664369177671, "trialdata": {"revealed_states": [], "num_clicks_accrued": [0, 0, 0, 0, 0, 0, 0, 0, 0, 0, 0, 0, 0], "stateRewards": ["", -2, -8, 24, -48, 4, 4, -24, -48, -2, -8, -48, 24], "withholdReward": true, "trial_id": "mdp_556006673466", "block": "test1", "trialIndex": 16, "score": -35.75, "costs": -0.75, "simulationMode": [null, null, null], "rewards": [4, 4, -48], "path": ["0", "0", "5", "6", "8"], "rt": [3844, 464, 349], "actions": ["right", "right", "down"], "actionTimes": [5305, 6264, 7108], "queries": {"click": {"state": {"target": ["9", "1", "5"], "time": [2885, 3451, 4010]}, "edge": {"target": [], "time": []}}, "mouseover": {"state": {"target": ["5", "9", "1", "5", "6"], "time": [1641, 2808, 3325, 3907, 4224]}, "edge": {"target": [], "time": []}}, "mouseout": {"state": {"target": ["6", "0", "5", "9", "1", "5", "6"], "time": [1075, 1465, 1666, 3117, 3791, 4208, 4241]}, "edge": {"target": [], "time": []}}}, "displayed_time": "11.46", "trialTime": 12670, "trial_type": "mouselab-mdp", "trial_index": 27, "time_elapsed": 907228, "internal_node_id": "0.0-4.0-1.0-12.0"}}, {"uniqueid": "w70893464:a50907987", "current_trial": 28, "dateTime": 1664369190282, "trialdata": {"revealed_states": [], "num_clicks_accrued": [0, 0, 0, 0, 0, 0, 0, 0, 0, 0, 0, 0, 0], "stateRewards": ["", 2, 4, -48, 48, -4, 8, -48, -24, -4, -4, 48, 48], "withholdReward": true, "trial_id": "mdp_613582696541", "block": "test1", "trialIndex": 17, "score": -39, "costs": 0, "simulationMode": [null, null, null], "rewards": [-4, 8, -48], "path": ["0", "0", "5", "6", "7"], "rt": [920, 477, 256], "actions": ["right", "right", "up"], "actionTimes": [2091, 3076, 3831], "queries": {"click": {"state": {"target": [], "time": []}, "edge": {"target": [], "time": []}}, "mouseover": {"state": {"target": ["5", "7"], "time": [1331, 1390]}, "edge": {"target": [], "time": []}}, "mouseout": {"state": {"target": ["5", "0", "5", "7"], "time": [864, 1230, 1340, 1431]}, "edge": {"target": [], "time": []}}}, "displayed_time": "11.17", "trialTime": 12513, "trial_type": "mouselab-mdp", "trial_index": 28, "time_elapsed": 919839, "internal_node_id": "0.0-4.0-1.0-13.0"}}, {"uniqueid": "w70893464:a50907987", "current_trial": 29, "dateTime": 1664369200889, "trialdata": {"revealed_states": [], "num_clicks_accrued": [0, 0, 0, 0, 0, 0, 0, 0, 0, 0, 0, 0, 0], "stateRewards": ["", 2, 4, -48, -24, 2, 8, 24, 48, -2, 4, 48, -48], "withholdReward": true, "trial_id": "mdp_551894842204", "block": "test1", "trialIndex": 18, "score": 55, "costs": 0, "simulationMode": [null, null, null], "rewards": [-2, 4, 48], "path": ["0", "0", "9", "10", "11"], "rt": [923, 20, 8], "actions": ["left", "left", "up"], "actionTimes": [1837, 2358, 2880], "queries": {"click": {"state": {"target": [], "time": []}, "edge": {"target": [], "time": []}}, "mouseover": {"state": {"target": ["9", "5", "6"], "time": [1263, 1396, 1430]}, "edge": {"target": [], "time": []}}, "mouseout": {"state": {"target": ["7", "9", "5", "6"], "time": [537, 1272, 1421, 1438]}, "edge": {"target": [], "time": []}}}, "displayed_time": "9.92", "trialTime": 10509, "trial_type": "mouselab-mdp", "trial_index": 29, "time_elapsed": 930445, "internal_node_id": "0.0-4.0-1.0-14.0"}}, {"uniqueid": "w70893464:a50907987", "current_trial": 30, "dateTime": 1664369213269, "trialdata": {"revealed_states": [], "num_clicks_accrued": [0, 0, 0, 0, 0, 0, 0, 0, 0, 0, 0, 0, 0], "stateRewards": ["", -2, 4, -48, -48, -4, -8, 48, -48, 2, 4, 48, -48], "withholdReward": true, "trial_id": "mdp_258647270500", "block": "test1", "trialIndex": 19, "score": -41, "costs": 0, "simulationMode": [null, null, null], "rewards": [-2, 4, -48], "path": ["0", "0", "1", "2", "4"], "rt": [913, 446, 275], "actions": ["up", "up", "left"], "actionTimes": [2075, 3020, 3792], "queries": {"click": {"state": {"target": [], "time": []}, "edge": {"target": [], "time": []}}, "mouseover": {"state": {"target": ["0", "5", "6"], "time": [1232, 1258, 1282]}, "edge": {"target": [], "time": []}}, "mouseout": {"state": {"target": ["6", "5", "0", "0", "5", "6"], "time": [715, 724, 1018, 1240, 1274, 1290]}, "edge": {"target": [], "time": []}}}, "displayed_time": "11.16", "trialTime": 12293, "trial_type": "mouselab-mdp", "trial_index": 30, "time_elapsed": 942826, "internal_node_id": "0.0-4.0-1.0-15.0"}}, {"uniqueid": "w70893464:a50907987", "current_trial": 31, "dateTime": 1664369224574, "trialdata": {"revealed_states": [], "num_clicks_accrued": [0, 0, 0, 0, 0, 0, 0, 0, 0, 0, 0, 0, 0], "stateRewards": ["", -4, 8, 24, -48, -4, -8, -24, 24, 2, -4, -48, 24], "withholdReward": true, "trial_id": "mdp_898449441629", "block": "test1", "trialIndex": 20, "score": 27, "costs": 0, "simulationMode": [null, null, null], "rewards": [2, -4, 24], "path": ["0", "0", "9", "10", "12"], "rt": [1069, 1, 424], "actions": ["left", "left", "down"], "actionTimes": [2558, 3056, 3996], "queries": {"click": {"state": {"target": [], "time": []}, "edge": {"target": [], "time": []}}, "mouseover": {"state": {"target": ["5", "6"], "time": [1587, 1605]}, "edge": {"target": [], "time": []}}, "mouseout": {"state": {"target": ["8", "5", "6"], "time": [938, 1604, 1621]}, "edge": {"target": [], "time": []}}}, "displayed_time": "10.49", "trialTime": 11203, "trial_type": "mouselab-mdp", "trial_index": 31, "time_elapsed": 954130, "internal_node_id": "0.0-4.0-1.0-16.0"}}, {"uniqueid": "w70893464:a50907987", "current_trial": 32, "dateTime": 1664369235853, "trialdata": {"revealed_states": [], "num_clicks_accrued": [0, 0, 0, 0, 0, 0, 0, 0, 0, 0, 0, 0, 0], "stateRewards": ["", -2, 8, 24, -48, -4, -8, -24, -48, -4, 8, -24, 48], "withholdReward": true, "trial_id": "mdp_464339499860", "block": "test1", "trialIndex": 21, "score": -37, "costs": 0, "simulationMode": [null, null, null], "rewards": [-2, 8, -48], "path": ["0", "0", "1", "2", "4"], "rt": [756, 73, 1014], "actions": ["up", "up", "left"], "actionTimes": [2121, 2692, 4216], "queries": {"click": {"state": {"target": [], "time": []}, "edge": {"target": [], "time": []}}, "mouseover": {"state": {"target": ["5", "6"], "time": [1526, 1560]}, "edge": {"target": [], "time": []}}, "mouseout": {"state": {"target": ["6", "5", "0", "5", "6"], "time": [534, 651, 734, 1551, 1568]}, "edge": {"target": [], "time": []}}}, "displayed_time": "10.37", "trialTime": 11179, "trial_type": "mouselab-mdp", "trial_index": 32, "time_elapsed": 965410, "internal_node_id": "0.0-4.0-1.0-17.0"}}, {"uniqueid": "w70893464:a50907987", "current_trial": 33, "dateTime": 1664369246783, "trialdata": {"revealed_states": [], "num_clicks_accrued": [0, 0, 0, 0, 0, 0, 0, 0, 0, 0, 0, 0, 0], "stateRewards": ["", -4, -4, -24, 48, 2, 4, -24, -48, -2, 4, 24, 24], "withholdReward": true, "trial_id": "mdp_360934723192", "block": "test1", "trialIndex": 22, "score": -13, "costs": 0, "simulationMode": [null, null, null], "rewards": [2, 4, -24], "path": ["0", "0", "5", "6", "7"], "rt": [640, 102, 21], "actions": ["right", "right", "up"], "actionTimes": [1593, 2194, 2713], "queries": {"click": {"state": {"target": [], "time": []}, "edge": {"target": [], "time": []}}, "mouseover": {"state": {"target": ["5", "6"], "time": [1049, 1059]}, "edge": {"target": [], "time": []}}, "mouseout": {"state": {"target": ["6", "5", "5", "6"], "time": [632, 699, 1058, 1066]}, "edge": {"target": [], "time": []}}}, "displayed_time": "9.96", "trialTime": 10825, "trial_type": "mouselab-mdp", "trial_index": 33, "time_elapsed": 976340, "internal_node_id": "0.0-4.0-1.0-18.0"}}, {"uniqueid": "w70893464:a50907987", "current_trial": 34, "dateTime": 1664369257251, "trialdata": {"revealed_states": [], "num_clicks_accrued": [0, 0, 0, 0, 0, 0, 0, 0, 0, 0, 0, 0, 0], "stateRewards": ["", 4, 8, 48, -48, -4, 8, -24, -24, -4, 8, 48, 48], "withholdReward": true, "trial_id": "mdp_377640328420", "block": "test1", "trialIndex": 23, "score": 57, "costs": 0, "simulationMode": [null, null, null], "rewards": [-4, 8, 48], "path": ["0", "0", "9", "10", "11"], "rt": [738, 3, 402], "actions": ["left", "left", "up"], "actionTimes": [2253, 2752, 3668], "queries": {"click": {"state": {"target": [], "time": []}, "edge": {"target": [], "time": []}}, "mouseover": {"state": {"target": ["5", "6"], "time": [1658, 1674]}, "edge": {"target": [], "time": []}}, "mouseout": {"state": {"target": ["8", "0", "5", "6"], "time": [1081, 1398, 1673, 1690]}, "edge": {"target": [], "time": []}}}, "displayed_time": "9.52", "trialTime": 10367, "trial_type": "mouselab-mdp", "trial_index": 34, "time_elapsed": 986808, "internal_node_id": "0.0-4.0-1.0-19.0"}}, {"uniqueid": "w70893464:a50907987", "current_trial": 35, "dateTime": 1664369270015, "trialdata": {"revealed_states": [], "num_clicks_accrued": [0, 0, 0, 0, 0, 0, 0, 0, 0, 0, 0, 0, 0], "stateRewards": ["", 2, 4, 48, 48, 4, -8, 24, -48, -4, -8, -24, -48], "withholdReward": true, "trial_id": "mdp_343818007251", "block": "test1", "trialIndex": 24, "score": 59, "costs": 0, "simulationMode": [null, null, null], "rewards": [2, 4, 48], "path": ["0", "0", "1", "2", "3"], "rt": [866, 383, 355], "actions": ["up", "up", "right"], "actionTimes": [2025, 2908, 3773], "queries": {"click": {"state": {"target": [], "time": []}, "edge": {"target": [], "time": []}}, "mouseover": {"state": {"target": ["5", "6"], "time": [1325, 1350]}, "edge": {"target": [], "time": []}}, "mouseout": {"state": {"target": ["5", "6"], "time": [1342, 1359]}, "edge": {"target": [], "time": []}}}, "displayed_time": "11.16", "trialTime": 12666, "trial_type": "mouselab-mdp", "trial_index": 35, "time_elapsed": 999572, "internal_node_id": "0.0-4.0-1.0-20.0"}}, {"uniqueid": "w70893464:a50907987", "current_trial": 36, "dateTime": 1664369280121, "trialdata": {"revealed_states": [], "num_clicks_accrued": [0, 0, 0, 0, 0, 0, 0, 0, 0, 0, 0, 0, 0], "stateRewards": ["", -2, 8, 24, -48, -2, -4, 24, 48, 2, 8, -48, -48], "withholdReward": true, "trial_id": "mdp_562228697607", "block": "test1", "trialIndex": 25, "score": -33, "costs": 0, "simulationMode": [null, null, null], "rewards": [2, 8, -48], "path": ["0", "0", "9", "10", "11"], "rt": [2027, 175, 234], "actions": ["left", "left", "up"], "actionTimes": [3052, 3726, 4460], "queries": {"click": {"state": {"target": [], "time": []}, "edge": {"target": [], "time": []}}, "mouseover": {"state": {"target": ["5", "6"], "time": [1225, 1250]}, "edge": {"target": [], "time": []}}, "mouseout": {"state": {"target": ["6", "5", "0", "5", "6"], "time": [567, 741, 1167, 1242, 1258]}, "edge": {"target": [], "time": []}}}, "displayed_time": "9.03", "trialTime": 10014, "trial_type": "mouselab-mdp", "trial_index": 36, "time_elapsed": 1009678, "internal_node_id": "0.0-4.0-1.0-21.0"}}, {"uniqueid": "w70893464:a50907987", "current_trial": 37, "dateTime": 1664369290425, "trialdata": {"revealed_states": [], "num_clicks_accrued": [0, 0, 0, 0, 0, 0, 0, 0, 0, 0, 0, 0, 0], "stateRewards": ["", 2, 4, 48, -48, 2, -4, 48, 24, -2, -8, -24, 48], "withholdReward": true, "trial_id": "mdp_962424406744", "block": "test1", "trialIndex": 26, "score": -37, "costs": 0, "simulationMode": [null, null, null], "rewards": [2, 4, -48], "path": ["0", "0", "1", "2", "4"], "rt": [1242, 323, 299], "actions": ["up", "up", "left"], "actionTimes": [2355, 3174, 3976], "queries": {"click": {"state": {"target": [], "time": []}, "edge": {"target": [], "time": []}}, "mouseover": {"state": {"target": ["5"], "time": [1309]}, "edge": {"target": [], "time": []}}, "mouseout": {"state": {"target": ["5", "5"], "time": [834, 1334]}, "edge": {"target": [], "time": []}}}, "displayed_time": "9.11", "trialTime": 10210, "trial_type": "mouselab-mdp", "trial_index": 37, "time_elapsed": 1019982, "internal_node_id": "0.0-4.0-1.0-22.0"}}, {"uniqueid": "w70893464:a50907987", "current_trial": 38, "dateTime": 1664369305430, "trialdata": {"revealed_states": [], "num_clicks_accrued": [0, 0, 0, 0, 0, 0, 0, 0, 0, 0, 0, 0, 0], "stateRewards": ["", -4, -8, -48, -48, 4, -8, 48, 48, 2, 8, 48, 24], "withholdReward": false, "trial_id": "mdp_880437222492", "block": "test1", "trialIndex": 27, "score": 49, "costs": 0, "simulationMode": [null, null, null], "rewards": [4, -8, 48], "path": ["0", "0", "5", "6", "8"], "rt": [1496, 130, 375], "actions": ["right", "right", "down"], "actionTimes": [2564, 3197, 4066], "queries": {"click": {"state": {"target": [], "time": []}, "edge": {"target": [], "time": []}}, "mouseover": {"state": {"target": ["5"], "time": [1324]}, "edge": {"target": [], "time": []}}, "mouseout": {"state": {"target": ["5", "5"], "time": [674, 1341]}, "edge": {"target": [], "time": []}}}, "displayed_time": "9.07", "trialTime": 14904, "trial_type": "mouselab-mdp", "trial_index": 38, "time_elapsed": 1034986, "internal_node_id": "0.0-4.0-1.0-23.0"}}, {"uniqueid": "w70893464:a50907987", "current_trial": 39, "dateTime": 1664369317453, "trialdata": {"revealed_states": [], "num_clicks_accrued": [0, 0, 0, 0, 0, 0, 0, 0, 0, 0, 0, 0, 0], "stateRewards": ["", 2, -4, 48, -48, -2, 8, -48, 24, -2, -8, 48, 48], "withholdReward": false, "trial_id": "mdp_949326095747", "block": "test1", "trialIndex": 28, "score": 50.25, "costs": -0.75, "simulationMode": [null, null, null], "rewards": [2, -4, 48], "path": ["0", "0", "1", "2", "3"], "rt": [2785, 481, 207], "actions": ["up", "up", "right"], "actionTimes": [3940, 4921, 5629], "queries": {"click": {"state": {"target": ["5", "1", "9"], "time": [1513, 2183, 2811]}, "edge": {"target": [], "time": []}}, "mouseover": {"state": {"target": ["0", "5", "1", "9", "6"], "time": [1240, 1405, 2044, 2581, 3089]}, "edge": {"target": [], "time": []}}, "mouseout": {"state": {"target": ["0", "5", "1", "9", "5", "6"], "time": [1272, 1806, 2397, 3014, 3081, 3097]}, "edge": {"target": [], "time": []}}}, "displayed_time": "10.16", "trialTime": 11910, "trial_type": "mouselab-mdp", "trial_index": 39, "time_elapsed": 1047010, "internal_node_id": "0.0-4.0-1.0-24.0"}}, {"uniqueid": "w70893464:a50907987", "current_trial": 40, "dateTime": 1664369328964, "trialdata": {"revealed_states": [], "num_clicks_accrued": [0, 0, 0, 0, 0, 0, 0, 0, 0, 0, 0, 0, 0], "stateRewards": ["", 2, 8, 48, 24, 2, 8, 48, 48, -2, -4, -24, -48], "withholdReward": true, "trial_id": "mdp_717636349175", "block": "test1", "trialIndex": 29, "score": 62.5, "costs": -0.5, "simulationMode": [null, null, null], "rewards": [2, 8, 48], "path": ["0", "0", "5", "6", "8"], "rt": [3452, 20, 92], "actions": ["right", "right", "down"], "actionTimes": [4804, 5324, 5913], "queries": {"click": {"state": {"target": ["1", "5"], "time": [2839, 3566]}, "edge": {"target": [], "time": []}}, "mouseover": {"state": {"target": ["5", "1", "5", "6"], "time": [2395, 2679, 3137, 4187]}, "edge": {"target": [], "time": []}}, "mouseout": {"state": {"target": ["0", "5", "1", "5", "5", "6"], "time": [863, 2579, 3080, 3804, 4170, 4196]}, "edge": {"target": [], "time": []}}}, "displayed_time": "10.35", "trialTime": 11419, "trial_type": "mouselab-mdp", "trial_index": 40, "time_elapsed": 1058521, "internal_node_id": "0.0-4.0-1.0-25.0"}}, {"uniqueid": "w70893464:a50907987", "current_trial": 41, "dateTime": 1664369340454, "trialdata": {"revealed_states": [], "num_clicks_accrued": [0, 0, 0, 0, 0, 0, 0, 0, 0, 0, 0, 0, 0], "stateRewards": ["", 2, -8, 24, 24, 4, -4, -24, -48, 4, 8, 24, 24], "withholdReward": false, "trial_id": "mdp_249803813713", "block": "test1", "trialIndex": 30, "score": 22.25, "costs": -0.75, "simulationMode": [null, null, null], "rewards": [2, -8, 24], "path": ["0", "0", "1", "2", "4"], "rt": [4338, 88, 94], "actions": ["up", "up", "left"], "actionTimes": [5301, 5884, 6481], "queries": {"click": {"state": {"target": ["1", "5", "6"], "time": [1363, 1834, 3160]}, "edge": {"target": [], "time": []}}, "mouseover": {"state": {"target": ["1", "5", "6", "6", "7"], "time": [1212, 1729, 2330, 3013, 3854]}, "edge": {"target": [], "time": []}}, "mouseout": {"state": {"target": ["6", "5", "9", "1", "5", "6", "6", "7"], "time": [454, 470, 737, 1621, 2304, 2346, 3379, 4087]}, "edge": {"target": [], "time": []}}}, "displayed_time": "9.96", "trialTime": 11368, "trial_type": "mouselab-mdp", "trial_index": 41, "time_elapsed": 1070011, "internal_node_id": "0.0-4.0-1.0-26.0"}}, {"uniqueid": "w70893464:a50907987", "current_trial": 42, "dateTime": 1664369352326, "trialdata": {"revealed_states": [], "num_clicks_accrued": [0, 0, 0, 0, 0, 0, 0, 0, 0, 0, 0, 0, 0], "stateRewards": ["", 2, -8, -24, -48, -2, -4, 48, 48, 4, 8, 48, 48], "withholdReward": false, "trial_id": "mdp_347285045422", "block": "test1", "trialIndex": 31, "score": 64.25, "costs": -0.75, "simulationMode": [null, null, null], "rewards": [4, 8, 48], "path": ["0", "0", "9", "10", "12"], "rt": [4517, 33, 84], "actions": ["left", "left", "down"], "actionTimes": [5584, 6118, 6710], "queries": {"click": {"state": {"target": ["1", "5", "2"], "time": [2261, 2828, 4343]}, "edge": {"target": [], "time": []}}, "mouseover": {"state": {"target": ["5", "6", "6", "1", "5", "6", "6", "2", "3", "7"], "time": [1276, 1301, 1767, 1959, 2643, 3201, 3501, 4184, 4584, 4625]}, "edge": {"target": [], "time": []}}, "mouseout": {"state": {"target": ["6", "5", "5", "6", "6", "1", "5", "6", "6", "5", "5", "2", "3", "7"], "time": [659, 759, 1292, 1309, 1776, 2576, 3176, 3259, 3542, 3568, 3759, 4564, 4592, 4642]}, "edge": {"target": [], "time": []}}}, "displayed_time": "10.07", "trialTime": 11770, "trial_type": "mouselab-mdp", "trial_index": 42, "time_elapsed": 1081883, "internal_node_id": "0.0-4.0-1.0-27.0"}}, {"uniqueid": "w70893464:a50907987", "current_trial": 43, "dateTime": 1664369363338, "trialdata": {"revealed_states": [], "num_clicks_accrued": [0, 0, 0, 0, 0, 0, 0, 0, 0, 0, 0, 0, 0], "stateRewards": ["", 4, -8, 24, 48, -2, -4, -48, 24, 2, 4, -48, -24], "withholdReward": true, "trial_id": "mdp_749974461966", "block": "test1", "trialIndex": 32, "score": -13.5, "costs": -0.5, "simulationMode": [null, null, null], "rewards": [2, 4, -24], "path": ["0", "0", "9", "10", "12"], "rt": [3370, 111, 82], "actions": ["left", "left", "down"], "actionTimes": [4360, 4968, 5547], "queries": {"click": {"state": {"target": ["9", "10"], "time": [2618, 3497]}, "edge": {"target": [], "time": []}}, "mouseover": {"state": {"target": ["5", "6", "8", "0", "9", "10", "10", "8"], "time": [1139, 1164, 1965, 2272, 2439, 3089, 3347, 3889]}, "edge": {"target": [], "time": []}}, "mouseout": {"state": {"target": ["6", "5", "0", "5", "6", "8", "0", "9", "10", "10", "9", "8"], "time": [589, 730, 1122, 1155, 1173, 1980, 2355, 3062, 3122, 3797, 3822, 3897]}, "edge": {"target": [], "time": []}}}, "displayed_time": "9.99", "trialTime": 10912, "trial_type": "mouselab-mdp", "trial_index": 43, "time_elapsed": 1092895, "internal_node_id": "0.0-4.0-1.0-28.0"}}, {"uniqueid": "w70893464:a50907987", "current_trial": 44, "dateTime": 1664369374425, "trialdata": {"revealed_states": [], "num_clicks_accrued": [0, 0, 0, 0, 0, 0, 0, 0, 0, 0, 0, 0, 0], "stateRewards": ["", -4, 8, 24, -24, -2, 4, -24, 48, -2, 8, -48, -24], "withholdReward": true, "trial_id": "mdp_799359103169", "block": "test1", "trialIndex": 33, "score": 32.25, "costs": -0.75, "simulationMode": [null, null, null], "rewards": [-4, 8, 24], "path": ["0", "0", "1", "2", "3"], "rt": [3404, 46, 49], "actions": ["up", "up", "right"], "actionTimes": [4440, 4988, 5533], "queries": {"click": {"state": {"target": ["9", "1", "2"], "time": [1847, 2330, 3460]}, "edge": {"target": [], "time": []}}, "mouseover": {"state": {"target": ["5", "6", "9", "1", "2", "7"], "time": [1167, 1194, 1716, 2217, 3275, 3825]}, "edge": {"target": [], "time": []}}, "mouseout": {"state": {"target": ["5", "5", "6", "9", "1", "2", "7"], "time": [683, 1187, 1201, 2067, 2791, 3767, 3833]}, "edge": {"target": [], "time": []}}}, "displayed_time": "10.04", "trialTime": 10985, "trial_type": "mouselab-mdp", "trial_index": 44, "time_elapsed": 1103982, "internal_node_id": "0.0-4.0-1.0-29.0"}}, {"uniqueid": "w70893464:a50907987", "current_trial": 45, "dateTime": 1664369383748, "trialdata": {"rt": 9319, "stimulus": "<h1> End of block! </h1>\n\nYou have reached the end of the block 1/4. If you need a short break, feel free to take one now before moving on.\n\n<br><br>\nIn the next block, you will complete another 30 rounds of this game.\n\n<br><br>\n<div style='text-align: center;'>Press <code>space</code> to begin.</div>\n<br><br>\n<div style='text-align: center;'>(If the experiment doesn't continue, try clicking on the text and then pressing <code>space</code>.)</div>", "response": " ", "trial_id": "mdp_ready_2", "trial_type": "html-keyboard-response", "trial_index": 45, "time_elapsed": 1113305, "internal_node_id": "0.0-4.0-2.0"}}, {"uniqueid": "w70893464:a50907987", "current_trial": 46, "dateTime": 1664369394850, "trialdata": {"revealed_states": [], "num_clicks_accrued": [0, 0, 0, 0, 0, 0, 0, 0, 0, 0, 0, 0, 0], "stateRewards": ["", 2, -8, 24, 24, 2, 4, -48, -48, 4, 4, -24, 48], "withholdReward": true, "trial_id": "mdp_985707010949", "block": "test2", "trialIndex": 34, "score": 60.5, "costs": -0.5, "simulationMode": [null, null, null], "rewards": [4, 4, 48], "path": ["0", "0", "9", "10", "12"], "rt": [2468, 95, 1135], "actions": ["left", "left", "down"], "actionTimes": [4180, 4772, 6413], "queries": {"click": {"state": {"target": ["9", "10"], "time": [2311, 3211]}, "edge": {"target": [], "time": []}}, "mouseover": {"state": {"target": ["9", "9", "1", "10", "7"], "time": [2051, 2159, 2776, 2979, 3634]}, "edge": {"target": [], "time": []}}, "mouseout": {"state": {"target": ["6", "5", "9", "9", "1", "10", "9", "7"], "time": [1309, 1376, 2060, 2592, 2818, 3443, 3493, 3659]}, "edge": {"target": [], "time": []}}}, "displayed_time": "9.71", "trialTime": 11002, "trial_type": "mouselab-mdp", "trial_index": 46, "time_elapsed": 1124406, "internal_node_id": "0.0-4.0-3.0-0.0"}}, {"uniqueid": "w70893464:a50907987", "current_trial": 47, "dateTime": 1664369405054, "trialdata": {"revealed_states": [], "num_clicks_accrued": [0, 0, 0, 0, 0, 0, 0, 0, 0, 0, 0, 0, 0], "stateRewards": ["", 4, 4, 48, -24, 2, -4, 48, 24, -4, -4, -48, 24], "withholdReward": true, "trial_id": "mdp_496003763005", "block": "test2", "trialIndex": 35, "score": 60.5, "costs": -0.5, "simulationMode": [null, null, null], "rewards": [4, 4, 48], "path": ["0", "0", "1", "2", "3"], "rt": [2227, 67, 9], "actions": ["up", "up", "right"], "actionTimes": [3207, 3770, 4286], "queries": {"click": {"state": {"target": ["1", "2"], "time": [1762, 2359]}, "edge": {"target": [], "time": []}}, "mouseover": {"state": {"target": ["1", "2", "7"], "time": [1427, 2151, 2693]}, "edge": {"target": [], "time": []}}, "mouseout": {"state": {"target": ["7", "0", "1", "2", "7"], "time": [453, 1302, 2094, 2602, 2711]}, "edge": {"target": [], "time": []}}}, "displayed_time": "8.98", "trialTime": 10091, "trial_type": "mouselab-mdp", "trial_index": 47, "time_elapsed": 1134611, "internal_node_id": "0.0-4.0-3.0-1.0"}}, {"uniqueid": "w70893464:a50907987", "current_trial": 48, "dateTime": 1664369416276, "trialdata": {"revealed_states": [], "num_clicks_accrued": [0, 0, 0, 0, 0, 0, 0, 0, 0, 0, 0, 0, 0], "stateRewards": ["", -4, 8, 24, -24, 4, 8, -24, -48, 2, 4, 24, -24], "withholdReward": false, "trial_id": "mdp_782187007008", "block": "test2", "trialIndex": 36, "score": -7.75, "costs": -0.75, "simulationMode": [null, null, null], "rewards": [4, 8, -24], "path": ["0", "0", "5", "6", "7"], "rt": [4590, 64, 177], "actions": ["right", "right", "up"], "actionTimes": [5520, 6082, 6753], "queries": {"click": {"state": {"target": ["1", "2", "5"], "time": [1302, 2480, 4614]}, "edge": {"target": [], "time": []}}, "mouseover": {"state": {"target": ["1", "2", "2", "7", "6", "5", "5", "6"], "time": [1142, 2060, 2342, 2817, 4243, 4359, 4501, 4826]}, "edge": {"target": [], "time": []}}, "mouseout": {"state": {"target": ["1", "1", "1", "2", "2", "7", "6", "5", "5", "6"], "time": [1618, 1851, 2050, 2150, 2692, 2842, 4334, 4456, 4809, 4842]}, "edge": {"target": [], "time": []}}}, "displayed_time": "9.93", "trialTime": 11112, "trial_type": "mouselab-mdp", "trial_index": 48, "time_elapsed": 1145833, "internal_node_id": "0.0-4.0-3.0-2.0"}}, {"uniqueid": "w70893464:a50907987", "current_trial": 49, "dateTime": 1664369428105, "trialdata": {"revealed_states": [], "num_clicks_accrued": [0, 0, 0, 0, 0, 0, 0, 0, 0, 0, 0, 0, 0], "stateRewards": ["", 4, -4, 48, -48, -4, -4, 48, -48, 4, 4, -48, -24], "withholdReward": true, "trial_id": "mdp_490058671112", "block": "test2", "trialIndex": 37, "score": 52.25, "costs": -0.75, "simulationMode": [null, null, null], "rewards": [4, -4, 48], "path": ["0", "0", "1", "2", "3"], "rt": [2713, 49, 211], "actions": ["up", "up", "right"], "actionTimes": [3873, 4422, 5141], "queries": {"click": {"state": {"target": ["1", "2", "3"], "time": [1637, 2395, 2912]}, "edge": {"target": [], "time": []}}, "mouseover": {"state": {"target": ["1", "2", "3", "7"], "time": [1389, 2014, 2689, 3155]}, "edge": {"target": [], "time": []}}, "mouseout": {"state": {"target": ["6", "0", "0", "1", "2", "3", "7"], "time": [572, 830, 988, 1888, 2647, 3138, 3173]}, "edge": {"target": [], "time": []}}}, "displayed_time": "10.16", "trialTime": 11729, "trial_type": "mouselab-mdp", "trial_index": 49, "time_elapsed": 1157662, "internal_node_id": "0.0-4.0-3.0-3.0"}}, {"uniqueid": "w70893464:a50907987", "current_trial": 50, "dateTime": 1664369440367, "trialdata": {"revealed_states": [], "num_clicks_accrued": [0, 0, 0, 0, 0, 0, 0, 0, 0, 0, 0, 0, 0], "stateRewards": ["", 2, -4, 48, -48, -2, 8, -48, 24, -2, -8, 48, 48], "withholdReward": true, "trial_id": "mdp_949326095747", "block": "test2", "trialIndex": 38, "score": 42.5, "costs": -0.5, "simulationMode": [null, null, null], "rewards": [-2, -8, 48], "path": ["0", "0", "9", "10", "11"], "rt": [3387, 55, 49], "actions": ["left", "left", "up"], "actionTimes": [5447, 6002, 6560], "queries": {"click": {"state": {"target": ["7", "11"], "time": [3043, 4473]}, "edge": {"target": [], "time": []}}, "mouseover": {"state": {"target": ["5", "7", "6", "5", "0", "9", "11", "11", "1"], "time": [2427, 2835, 3569, 3695, 3752, 3794, 3860, 4068, 4852]}, "edge": {"target": [], "time": []}}, "mouseout": {"state": {"target": ["5", "0", "5", "7", "6", "5", "0", "9", "11", "11", "1"], "time": [1710, 1968, 2486, 3468, 3652, 3743, 3768, 3811, 3927, 4802, 4878]}, "edge": {"target": [], "time": []}}}, "displayed_time": "11.06", "trialTime": 12162, "trial_type": "mouselab-mdp", "trial_index": 50, "time_elapsed": 1169924, "internal_node_id": "0.0-4.0-3.0-4.0"}}, {"uniqueid": "w70893464:a50907987", "current_trial": 51, "dateTime": 1664369451782, "trialdata": {"revealed_states": [], "num_clicks_accrued": [0, 0, 0, 0, 0, 0, 0, 0, 0, 0, 0, 0, 0], "stateRewards": ["", -2, -4, 48, -24, 2, -4, -24, -48, 2, 8, -48, -24], "withholdReward": true, "trial_id": "mdp_238243948191", "block": "test2", "trialIndex": 39, "score": 46.25, "costs": -0.75, "simulationMode": [null, null, null], "rewards": [-2, -4, 48], "path": ["0", "0", "1", "2", "3"], "rt": [3727, 67, 48], "actions": ["up", "up", "right"], "actionTimes": [5154, 5722, 6278], "queries": {"click": {"state": {"target": ["11", "8", "3"], "time": [2234, 2912, 4116]}, "edge": {"target": [], "time": []}}, "mouseover": {"state": {"target": ["9", "10", "11", "9", "0", "8", "6", "7", "3", "3"], "time": [1655, 1887, 1988, 2529, 2546, 2629, 3329, 3462, 3562, 3813]}, "edge": {"target": [], "time": []}}, "mouseout": {"state": {"target": ["8", "0", "9", "10", "11", "9", "0", "8", "6", "7", "3", "3"], "time": [979, 1554, 1764, 1905, 2496, 2538, 2571, 3279, 3413, 3504, 3621, 4488]}, "edge": {"target": [], "time": []}}}, "displayed_time": "10.43", "trialTime": 11297, "trial_type": "mouselab-mdp", "trial_index": 51, "time_elapsed": 1181339, "internal_node_id": "0.0-4.0-3.0-5.0"}}, {"uniqueid": "w70893464:a50907987", "current_trial": 52, "dateTime": 1664369461627, "trialdata": {"revealed_states": [], "num_clicks_accrued": [0, 0, 0, 0, 0, 0, 0, 0, 0, 0, 0, 0, 0], "stateRewards": ["", 2, 8, 48, -24, -4, 4, 48, 24, -2, 8, 24, 24], "withholdReward": true, "trial_id": "mdp_123436106791", "block": "test2", "trialIndex": 40, "score": 62.5, "costs": -0.5, "simulationMode": [null, null, null], "rewards": [2, 8, 48], "path": ["0", "0", "1", "2", "3"], "rt": [2329, 58, 31], "actions": ["up", "up", "right"], "actionTimes": [3221, 3781, 4319], "queries": {"click": {"state": {"target": ["3", "4"], "time": [1519, 2300]}, "edge": {"target": [], "time": []}}, "mouseover": {"state": {"target": ["3", "2", "4", "2", "7"], "time": [1371, 1937, 1987, 2570, 2637]}, "edge": {"target": [], "time": []}}, "mouseout": {"state": {"target": ["0", "3", "2", "4", "2", "7"], "time": [720, 1912, 1971, 2545, 2587, 2653]}, "edge": {"target": [], "time": []}}}, "displayed_time": "8.89", "trialTime": 9732, "trial_type": "mouselab-mdp", "trial_index": 52, "time_elapsed": 1191183, "internal_node_id": "0.0-4.0-3.0-6.0"}}, {"uniqueid": "w70893464:a50907987", "current_trial": 53, "dateTime": 1664369472979, "trialdata": {"revealed_states": [], "num_clicks_accrued": [0, 0, 0, 0, 0, 0, 0, 0, 0, 0, 0, 0, 0], "stateRewards": ["", 2, 4, -48, -48, 4, 4, -48, -48, -2, -8, 48, -24], "withholdReward": true, "trial_id": "mdp_175327338412", "block": "test2", "trialIndex": 41, "score": 42.25, "costs": -0.75, "simulationMode": [null, null, null], "rewards": [-2, -8, 48], "path": ["0", "0", "9", "10", "11"], "rt": [3292, 93, 32], "actions": ["left", "left", "up"], "actionTimes": [4330, 4921, 5460], "queries": {"click": {"state": {"target": ["11", "3", "4"], "time": [1706, 2465, 3574]}, "edge": {"target": [], "time": []}}, "mouseover": {"state": {"target": ["11", "2", "3", "2", "2", "4", "2"], "time": [1428, 2069, 2278, 2812, 3179, 3286, 3812]}, "edge": {"target": [], "time": []}}, "mouseout": {"state": {"target": ["6", "5", "0", "11", "2", "3", "2", "3", "2", "4", "2", "3"], "time": [637, 736, 1095, 1945, 2228, 2778, 3020, 3145, 3253, 3795, 3836, 3862]}, "edge": {"target": [], "time": []}}}, "displayed_time": "9.04", "trialTime": 11268, "trial_type": "mouselab-mdp", "trial_index": 53, "time_elapsed": 1202536, "internal_node_id": "0.0-4.0-3.0-7.0"}}, {"uniqueid": "w70893464:a50907987", "current_trial": 54, "dateTime": 1664369483749, "trialdata": {"revealed_states": [], "num_clicks_accrued": [0, 0, 0, 0, 0, 0, 0, 0, 0, 0, 0, 0, 0], "stateRewards": ["", 2, 8, -24, -48, 2, 4, -24, 48, 2, -8, 48, -24], "withholdReward": true, "trial_id": "mdp_791659307216", "block": "test2", "trialIndex": 42, "score": 46.5, "costs": -0.5, "simulationMode": [null, null, null], "rewards": [2, -8, 48], "path": ["0", "0", "9", "10", "11"], "rt": [2211, 15, 29], "actions": ["left", "left", "up"], "actionTimes": [3681, 4194, 4732], "queries": {"click": {"state": {"target": ["11", "8"], "time": [2278, 2972]}, "edge": {"target": [], "time": []}}, "mouseover": {"state": {"target": ["9", "11", "5", "6", "8"], "time": [1986, 2127, 2603, 2627, 2794]}, "edge": {"target": [], "time": []}}, "mouseout": {"state": {"target": ["5", "9", "11", "5", "6", "8"], "time": [1144, 2011, 2527, 2619, 2644, 3202]}, "edge": {"target": [], "time": []}}}, "displayed_time": "9.47", "trialTime": 10654, "trial_type": "mouselab-mdp", "trial_index": 54, "time_elapsed": 1213306, "internal_node_id": "0.0-4.0-3.0-8.0"}}, {"uniqueid": "w70893464:a50907987", "current_trial": 55, "dateTime": 1664369493880, "trialdata": {"revealed_states": [], "num_clicks_accrued": [0, 0, 0, 0, 0, 0, 0, 0, 0, 0, 0, 0, 0], "stateRewards": ["", 2, -4, -24, -48, -2, 8, -24, 48, -2, 8, 24, -48], "withholdReward": true, "trial_id": "mdp_566582551557", "block": "test2", "trialIndex": 43, "score": 34, "costs": -1, "simulationMode": [null, null, null], "rewards": [-2, 8, 24], "path": ["0", "0", "9", "10", "11"], "rt": [5171, 29, 2], "actions": ["left", "left", "up"], "actionTimes": [6294, 6825, 7340], "queries": {"click": {"state": {"target": ["11", "7", "4", "3"], "time": [1658, 2410, 3327, 4851]}, "edge": {"target": [], "time": []}}, "mouseover": {"state": {"target": ["11", "1", "7", "1", "4", "2", "3"], "time": [1546, 1971, 2287, 2779, 2937, 3570, 4538]}, "edge": {"target": [], "time": []}}, "mouseout": {"state": {"target": ["6", "5", "11", "1", "7", "1", "4", "2", "7", "3"], "time": [695, 737, 1887, 1995, 2679, 2820, 3554, 3579, 3687, 5103]}, "edge": {"target": [], "time": []}}}, "displayed_time": "9.12", "trialTime": 10028, "trial_type": "mouselab-mdp", "trial_index": 55, "time_elapsed": 1223437, "internal_node_id": "0.0-4.0-3.0-9.0"}}, {"uniqueid": "w70893464:a50907987", "current_trial": 56, "dateTime": 1664369505313, "trialdata": {"revealed_states": [], "num_clicks_accrued": [0, 0, 0, 0, 0, 0, 0, 0, 0, 0, 0, 0, 0], "stateRewards": ["", -2, -8, 24, -48, -4, 8, -48, -24, 4, 8, -24, 24], "withholdReward": false, "trial_id": "mdp_940444641142", "block": "test2", "trialIndex": 44, "score": 18.25, "costs": -0.75, "simulationMode": [null, null, null], "rewards": [-2, -8, 24], "path": ["0", "0", "1", "2", "3"], "rt": [3557, 88, 83], "actions": ["up", "up", "right"], "actionTimes": [4731, 5317, 5905], "queries": {"click": {"state": {"target": ["11", "8", "7"], "time": [1740, 2377, 3403]}, "edge": {"target": [], "time": []}}, "mouseover": {"state": {"target": ["9", "11", "9", "0", "8", "6", "7"], "time": [1371, 1604, 2063, 2096, 2170, 2662, 3237]}, "edge": {"target": [], "time": []}}, "mouseout": {"state": {"target": ["7", "5", "9", "11", "9", "0", "8", "6", "7"], "time": [687, 837, 1395, 2004, 2079, 2113, 2637, 2671, 3662]}, "edge": {"target": [], "time": []}}}, "displayed_time": "10.18", "trialTime": 11328, "trial_type": "mouselab-mdp", "trial_index": 56, "time_elapsed": 1234870, "internal_node_id": "0.0-4.0-3.0-10.0"}}, {"uniqueid": "w70893464:a50907987", "current_trial": 57, "dateTime": 1664369515634, "trialdata": {"revealed_states": [], "num_clicks_accrued": [0, 0, 0, 0, 0, 0, 0, 0, 0, 0, 0, 0, 0], "stateRewards": ["", -2, 4, -24, -24, -2, 4, 48, 24, -4, -8, 24, -48], "withholdReward": false, "trial_id": "mdp_191839460481", "block": "test2", "trialIndex": 45, "score": 16.25, "costs": -0.75, "simulationMode": [null, null, null], "rewards": [-4, -8, 24], "path": ["0", "0", "9", "10", "11"], "rt": [3004, 518, 271], "actions": ["left", "left", "up"], "actionTimes": [4053, 5073, 5843], "queries": {"click": {"state": {"target": ["11", "4", "3"], "time": [1659, 2287, 2904]}, "edge": {"target": [], "time": []}}, "mouseover": {"state": {"target": ["9", "11", "4", "2", "3", "7"], "time": [1271, 1553, 2053, 2553, 2695, 3195]}, "edge": {"target": [], "time": []}}, "mouseout": {"state": {"target": ["9", "11", "4", "2", "3", "7"], "time": [1295, 1937, 2529, 2562, 3170, 3229]}, "edge": {"target": [], "time": []}}}, "displayed_time": "9.05", "trialTime": 10207, "trial_type": "mouselab-mdp", "trial_index": 57, "time_elapsed": 1245191, "internal_node_id": "0.0-4.0-3.0-11.0"}}, {"uniqueid": "w70893464:a50907987", "current_trial": 58, "dateTime": 1664369526938, "trialdata": {"revealed_states": [], "num_clicks_accrued": [0, 0, 0, 0, 0, 0, 0, 0, 0, 0, 0, 0, 0], "stateRewards": ["", 2, 4, 48, -48, 2, 4, 24, -24, 2, -4, -24, -48], "withholdReward": false, "trial_id": "mdp_706591889062", "block": "test2", "trialIndex": 46, "score": 58.25, "costs": -0.75, "simulationMode": [null, null, null], "rewards": [2, 4, 48], "path": ["0", "0", "1", "2", "3"], "rt": [3621, 18, 517], "actions": ["up", "up", "right"], "actionTimes": [4781, 5293, 6317], "queries": {"click": {"state": {"target": ["11", "4", "3"], "time": [2096, 3064, 3855]}, "edge": {"target": [], "time": []}}, "mouseover": {"state": {"target": ["9", "10", "11", "1", "2", "4", "2", "3", "7"], "time": [1457, 1482, 1883, 2424, 2516, 2891, 3333, 3701, 4208]}, "edge": {"target": [], "time": []}}, "mouseout": {"state": {"target": ["8", "0", "9", "10", "11", "1", "2", "4", "2", "3", "7"], "time": [800, 1449, 1474, 1499, 2349, 2441, 2599, 3307, 3474, 4158, 4241]}, "edge": {"target": [], "time": []}}}, "displayed_time": "9.16", "trialTime": 11214, "trial_type": "mouselab-mdp", "trial_index": 58, "time_elapsed": 1256495, "internal_node_id": "0.0-4.0-3.0-12.0"}}, {"uniqueid": "w70893464:a50907987", "current_trial": 59, "dateTime": 1664369536671, "trialdata": {"revealed_states": [], "num_clicks_accrued": [0, 0, 0, 0, 0, 0, 0, 0, 0, 0, 0, 0, 0], "stateRewards": ["", 4, 4, -24, -48, -4, 4, -48, 24, 4, -8, -48, 48], "withholdReward": true, "trial_id": "mdp_566768794366", "block": "test2", "trialIndex": 47, "score": 48, "costs": -1, "simulationMode": [null, null, null], "rewards": [4, -8, 48], "path": ["0", "0", "9", "10", "12"], "rt": [4474, 110, 91], "actions": ["left", "left", "down"], "actionTimes": [5504, 6109, 6707], "queries": {"click": {"state": {"target": ["3", "4", "11", "12"], "time": [1818, 2472, 3125, 4772]}, "edge": {"target": [], "time": []}}, "mouseover": {"state": {"target": ["3", "3", "2", "4", "11", "6", "8", "12", "8"], "time": [1448, 1678, 2082, 2332, 2973, 3548, 4056, 4532, 5115]}, "edge": {"target": [], "time": []}}, "mouseout": {"state": {"target": ["0", "3", "3", "2", "4", "11", "6", "8", "12"], "time": [1274, 1481, 2032, 2223, 2748, 3406, 3573, 4081, 4981]}, "edge": {"target": [], "time": []}}}, "displayed_time": "9.03", "trialTime": 9622, "trial_type": "mouselab-mdp", "trial_index": 59, "time_elapsed": 1266228, "internal_node_id": "0.0-4.0-3.0-13.0"}}, {"uniqueid": "w70893464:a50907987", "current_trial": 60, "dateTime": 1664369547328, "trialdata": {"revealed_states": [], "num_clicks_accrued": [0, 0, 0, 0, 0, 0, 0, 0, 0, 0, 0, 0, 0], "stateRewards": ["", -4, -4, 24, -24, 4, 4, 24, 48, 4, -4, 48, -48], "withholdReward": true, "trial_id": "mdp_522385334882", "block": "test2", "trialIndex": 48, "score": 52.5, "costs": -0.5, "simulationMode": [null, null, null], "rewards": [4, -4, 48], "path": ["0", "0", "9", "10", "11"], "rt": [1965, 73, 51], "actions": ["left", "left", "up"], "actionTimes": [2876, 3445, 3998], "queries": {"click": {"state": {"target": ["12", "11"], "time": [1311, 1882]}, "edge": {"target": [], "time": []}}, "mouseover": {"state": {"target": ["9", "12", "10", "11", "4", "2"], "time": [1079, 1163, 1596, 1721, 2172, 2404]}, "edge": {"target": [], "time": []}}, "mouseout": {"state": {"target": ["8", "0", "9", "12", "10", "11", "4", "2"], "time": [471, 1038, 1087, 1546, 1688, 2096, 2347, 2438]}, "edge": {"target": [], "time": []}}}, "displayed_time": "9.91", "trialTime": 10552, "trial_type": "mouselab-mdp", "trial_index": 60, "time_elapsed": 1276885, "internal_node_id": "0.0-4.0-3.0-14.0"}}, {"uniqueid": "w70893464:a50907987", "current_trial": 61, "dateTime": 1664369558667, "trialdata": {"revealed_states": [], "num_clicks_accrued": [0, 0, 0, 0, 0, 0, 0, 0, 0, 0, 0, 0, 0], "stateRewards": ["", 2, 4, -48, 24, -4, -4, -24, 24, 2, -4, 24, -24], "withholdReward": true, "trial_id": "mdp_163600331068", "block": "test2", "trialIndex": 49, "score": 26.25, "costs": -0.75, "simulationMode": [null, null, null], "rewards": [2, -4, 24], "path": ["0", "0", "9", "10", "11"], "rt": [2570, 72, 104], "actions": ["left", "left", "up"], "actionTimes": [3903, 4481, 5089], "queries": {"click": {"state": {"target": ["11", "4", "3"], "time": [1821, 2409, 2986]}, "edge": {"target": [], "time": []}}, "mouseover": {"state": {"target": ["11", "4", "2", "3"], "time": [1617, 2201, 2701, 2808]}, "edge": {"target": [], "time": []}}, "mouseout": {"state": {"target": ["3", "3", "0", "11", "4", "2", "3", "7"], "time": [442, 642, 1500, 2117, 2683, 2751, 3325, 10400]}, "edge": {"target": [], "time": []}}}, "displayed_time": "10.33", "trialTime": 11237, "trial_type": "mouselab-mdp", "trial_index": 61, "time_elapsed": 1288224, "internal_node_id": "0.0-4.0-3.0-15.0"}}, {"uniqueid": "w70893464:a50907987", "current_trial": 62, "dateTime": 1664369577863, "trialdata": {"revealed_states": [], "num_clicks_accrued": [0, 0, 0, 0, 0, 0, 0, 0, 0, 0, 0, 0, 0], "stateRewards": ["", -2, -8, 48, 24, 2, 4, 24, -24, -2, -4, 48, -48], "withholdReward": false, "trial_id": "mdp_411152402386", "block": "test2", "trialIndex": 50, "score": 46.75, "costs": -0.25, "simulationMode": [null, null, null], "rewards": [-2, -4, 48], "path": ["0", "0", "9", "10", "11"], "rt": [1903, 336, 152], "actions": ["left", "left", "up"], "actionTimes": [10822, 11662, 12319], "queries": {"click": {"state": {"target": ["11"], "time": [9487]}, "edge": {"target": [], "time": []}}, "mouseover": {"state": {"target": ["11", "4"], "time": [9300, 9808]}, "edge": {"target": [], "time": []}}, "mouseout": {"state": {"target": ["0", "11", "4", "2", "3", "5"], "time": [9215, 9716, 10091, 17133, 17158, 18149]}, "edge": {"target": [], "time": []}}}, "displayed_time": "17.92", "trialTime": 19099, "trial_type": "mouselab-mdp", "trial_index": 62, "time_elapsed": 1307420, "internal_node_id": "0.0-4.0-3.0-16.0"}}, {"uniqueid": "w70893464:a50907987", "current_trial": 63, "dateTime": 1664369587842, "trialdata": {"revealed_states": [], "num_clicks_accrued": [0, 0, 0, 0, 0, 0, 0, 0, 0, 0, 0, 0, 0], "stateRewards": ["", -4, -4, -48, -24, 2, 8, 24, -48, 4, 4, 48, 48], "withholdReward": true, "trial_id": "mdp_693501840209", "block": "test2", "trialIndex": 51, "score": 60.75, "costs": -0.25, "simulationMode": [null, null, null], "rewards": [4, 4, 48], "path": ["0", "0", "9", "10", "11"], "rt": [1357, 166, 132], "actions": ["left", "left", "up"], "actionTimes": [2386, 3052, 3685], "queries": {"click": {"state": {"target": ["11"], "time": [1485]}, "edge": {"target": [], "time": []}}, "mouseover": {"state": {"target": ["11", "4"], "time": [1353, 1819]}, "edge": {"target": [], "time": []}}, "mouseout": {"state": {"target": ["0", "11", "4"], "time": [878, 1703, 1994]}, "edge": {"target": [], "time": []}}}, "displayed_time": "9.03", "trialTime": 9865, "trial_type": "mouselab-mdp", "trial_index": 63, "time_elapsed": 1317399, "internal_node_id": "0.0-4.0-3.0-17.0"}}, {"uniqueid": "w70893464:a50907987", "current_trial": 64, "dateTime": 1664369598296, "trialdata": {"revealed_states": [], "num_clicks_accrued": [0, 0, 0, 0, 0, 0, 0, 0, 0, 0, 0, 0, 0], "stateRewards": ["", -2, -4, -48, 48, -2, -4, 24, 48, -4, -8, -24, 24], "withholdReward": false, "trial_id": "mdp_917590390609", "block": "test2", "trialIndex": 52, "score": 46.5, "costs": -0.5, "simulationMode": [null, null, null], "rewards": [-2, -4, 48], "path": ["0", "0", "1", "2", "4"], "rt": [2031, 60, 72], "actions": ["up", "up", "left"], "actionTimes": [2933, 3487, 4066], "queries": {"click": {"state": {"target": ["11", "4"], "time": [1448, 1980]}, "edge": {"target": [], "time": []}}, "mouseover": {"state": {"target": ["11", "4", "2", "3"], "time": [1343, 1826, 2236, 2277]}, "edge": {"target": [], "time": []}}, "mouseout": {"state": {"target": ["0", "11", "4", "2", "3"], "time": [693, 1669, 2218, 2260, 2469]}, "edge": {"target": [], "time": []}}}, "displayed_time": "8.90", "trialTime": 10343, "trial_type": "mouselab-mdp", "trial_index": 64, "time_elapsed": 1327853, "internal_node_id": "0.0-4.0-3.0-18.0"}}, {"uniqueid": "w70893464:a50907987", "current_trial": 65, "dateTime": 1664369608794, "trialdata": {"revealed_states": [], "num_clicks_accrued": [0, 0, 0, 0, 0, 0, 0, 0, 0, 0, 0, 0, 0], "stateRewards": ["", -4, -8, 48, 24, 4, -8, 24, -48, -2, -8, 24, -48], "withholdReward": true, "trial_id": "mdp_952038635544", "block": "test2", "trialIndex": 53, "score": 40.25, "costs": -0.75, "simulationMode": [null, null, null], "rewards": [-4, -8, 48], "path": ["0", "0", "1", "2", "3"], "rt": [2392, 151, 377], "actions": ["up", "up", "right"], "actionTimes": [3399, 4052, 4926], "queries": {"click": {"state": {"target": ["11", "4", "3"], "time": [1497, 2020, 2496]}, "edge": {"target": [], "time": []}}, "mouseover": {"state": {"target": ["11", "4", "2", "3", "7"], "time": [1331, 1881, 2239, 2323, 2823]}, "edge": {"target": [], "time": []}}, "mouseout": {"state": {"target": ["3", "5", "11", "4", "2", "3", "7"], "time": [622, 682, 1756, 2206, 2289, 2747, 2848]}, "edge": {"target": [], "time": []}}}, "displayed_time": "9.01", "trialTime": 10387, "trial_type": "mouselab-mdp", "trial_index": 65, "time_elapsed": 1338351, "internal_node_id": "0.0-4.0-3.0-19.0"}}, {"uniqueid": "w70893464:a50907987", "current_trial": 66, "dateTime": 1664369620244, "trialdata": {"revealed_states": [], "num_clicks_accrued": [0, 0, 0, 0, 0, 0, 0, 0, 0, 0, 0, 0, 0], "stateRewards": ["", 2, 4, -48, -24, 2, 8, 24, 48, -2, 4, 48, -48], "withholdReward": true, "trial_id": "mdp_551894842204", "block": "test2", "trialIndex": 54, "score": 54.25, "costs": -0.75, "simulationMode": [null, null, null], "rewards": [-2, 4, 48], "path": ["0", "0", "9", "10", "11"], "rt": [2815, 262, 127], "actions": ["left", "left", "up"], "actionTimes": [3686, 4443, 5075], "queries": {"click": {"state": {"target": ["3", "4", "11"], "time": [1792, 2331, 2899]}, "edge": {"target": [], "time": []}}, "mouseover": {"state": {"target": ["1", "2", "3", "2", "4", "11", "1"], "time": [1081, 1456, 1664, 1997, 2197, 2747, 3214]}, "edge": {"target": [], "time": []}}, "mouseout": {"state": {"target": ["1", "2", "3", "2", "4", "11", "1"], "time": [1114, 1572, 1956, 2048, 2615, 3147, 3231]}, "edge": {"target": [], "time": []}}}, "displayed_time": "9.87", "trialTime": 11336, "trial_type": "mouselab-mdp", "trial_index": 66, "time_elapsed": 1349800, "internal_node_id": "0.0-4.0-3.0-20.0"}}, {"uniqueid": "w70893464:a50907987", "current_trial": 67, "dateTime": 1664369630897, "trialdata": {"revealed_states": [], "num_clicks_accrued": [0, 0, 0, 0, 0, 0, 0, 0, 0, 0, 0, 0, 0], "stateRewards": ["", 2, 8, -48, 24, -4, 8, 48, -24, 2, 8, 24, 24], "withholdReward": true, "trial_id": "mdp_175372499314", "block": "test2", "trialIndex": 55, "score": 38.25, "costs": -0.75, "simulationMode": [null, null, null], "rewards": [2, 8, 24], "path": ["0", "0", "9", "10", "11"], "rt": [2328, 127, 86], "actions": ["left", "left", "up"], "actionTimes": [3177, 3804, 4397], "queries": {"click": {"state": {"target": ["11", "4", "3"], "time": [1297, 1784, 2326]}, "edge": {"target": [], "time": []}}, "mouseover": {"state": {"target": ["11", "4", "2", "3"], "time": [1136, 1701, 2026, 2226]}, "edge": {"target": [], "time": []}}, "mouseout": {"state": {"target": ["1", "11", "4", "2"], "time": [567, 1476, 2001, 2076]}, "edge": {"target": [], "time": []}}}, "displayed_time": "9.85", "trialTime": 10551, "trial_type": "mouselab-mdp", "trial_index": 67, "time_elapsed": 1360453, "internal_node_id": "0.0-4.0-3.0-21.0"}}, {"uniqueid": "w70893464:a50907987", "current_trial": 68, "dateTime": 1664369642644, "trialdata": {"revealed_states": [], "num_clicks_accrued": [0, 0, 0, 0, 0, 0, 0, 0, 0, 0, 0, 0, 0], "stateRewards": ["", 2, 8, -48, -24, 2, -4, -48, 24, 2, -4, -24, -24], "withholdReward": true, "trial_id": "mdp_954659099093", "block": "test2", "trialIndex": 56, "score": -22, "costs": -1, "simulationMode": [null, null, null], "rewards": [2, -4, -24], "path": ["0", "0", "9", "10", "12"], "rt": [4000, 127, 61], "actions": ["left", "left", "down"], "actionTimes": [5857, 6483, 7051], "queries": {"click": {"state": {"target": ["11", "4", "3", "7"], "time": [2348, 2867, 3778, 4865]}, "edge": {"target": [], "time": []}}, "mouseover": {"state": {"target": ["11", "4", "2", "3", "3", "7", "7", "6", "7"], "time": [2189, 2739, 3122, 3197, 3616, 4089, 4180, 4580, 4722]}, "edge": {"target": [], "time": []}}, "mouseout": {"state": {"target": ["3", "3", "2", "4", "11", "11", "4", "2", "3", "3", "7", "7", "6", "7"], "time": [540, 622, 639, 664, 814, 2530, 3081, 3172, 3339, 4022, 4115, 4348, 4648, 5072]}, "edge": {"target": [], "time": []}}}, "displayed_time": "10.86", "trialTime": 11636, "trial_type": "mouselab-mdp", "trial_index": 68, "time_elapsed": 1372200, "internal_node_id": "0.0-4.0-3.0-22.0"}}, {"uniqueid": "w70893464:a50907987", "current_trial": 69, "dateTime": 1664369653193, "trialdata": {"revealed_states": [], "num_clicks_accrued": [0, 0, 0, 0, 0, 0, 0, 0, 0, 0, 0, 0, 0], "stateRewards": ["", -2, -8, -24, 48, -2, -8, -48, -48, 2, -8, -48, 24], "withholdReward": true, "trial_id": "mdp_288324580942", "block": "test2", "trialIndex": 57, "score": 42.5, "costs": -0.5, "simulationMode": [null, null, null], "rewards": [-2, -8, 48], "path": ["0", "0", "1", "2", "4"], "rt": [2313, 44, 43], "actions": ["up", "up", "left"], "actionTimes": [3385, 3927, 4476], "queries": {"click": {"state": {"target": ["11", "4"], "time": [1720, 2318]}, "edge": {"target": [], "time": []}}, "mouseover": {"state": {"target": ["11", "4", "1", "7"], "time": [1558, 2158, 2716, 2891]}, "edge": {"target": [], "time": []}}, "mouseout": {"state": {"target": ["6", "5", "11", "4", "1", "7"], "time": [641, 808, 1991, 2600, 2725, 2934]}, "edge": {"target": [], "time": []}}}, "displayed_time": "9.07", "trialTime": 10430, "trial_type": "mouselab-mdp", "trial_index": 69, "time_elapsed": 1382750, "internal_node_id": "0.0-4.0-3.0-23.0"}}, {"uniqueid": "w70893464:a50907987", "current_trial": 70, "dateTime": 1664369663845, "trialdata": {"revealed_states": [], "num_clicks_accrued": [0, 0, 0, 0, 0, 0, 0, 0, 0, 0, 0, 0, 0], "stateRewards": ["", -2, 8, 24, -48, -4, -8, -24, -48, -4, 8, -24, 48], "withholdReward": false, "trial_id": "mdp_464339499860", "block": "test2", "trialIndex": 58, "score": 34, "costs": -1, "simulationMode": [null, null, null], "rewards": [-2, 8, 24], "path": ["0", "0", "1", "2", "3"], "rt": [3787, 138, 78], "actions": ["up", "up", "right"], "actionTimes": [4655, 5290, 5872], "queries": {"click": {"state": {"target": ["11", "4", "3", "7"], "time": [1235, 1661, 2149, 3342]}, "edge": {"target": [], "time": []}}, "mouseover": {"state": {"target": ["11", "4", "2", "3", "6", "8", "6", "7"], "time": [1118, 1543, 1893, 1968, 2793, 2935, 3084, 3143]}, "edge": {"target": [], "time": []}}, "mouseout": {"state": {"target": ["7", "5", "0", "11", "4", "2", "3", "6", "8", "6", "7"], "time": [468, 543, 676, 1426, 1851, 1935, 2460, 2877, 3051, 3118, 3576]}, "edge": {"target": [], "time": []}}}, "displayed_time": "8.87", "trialTime": 10559, "trial_type": "mouselab-mdp", "trial_index": 70, "time_elapsed": 1393402, "internal_node_id": "0.0-4.0-3.0-24.0"}}, {"uniqueid": "w70893464:a50907987", "current_trial": 71, "dateTime": 1664369673650, "trialdata": {"revealed_states": [], "num_clicks_accrued": [0, 0, 0, 0, 0, 0, 0, 0, 0, 0, 0, 0, 0], "stateRewards": ["", -4, -8, -24, -48, -2, -8, 24, -48, -4, -8, 24, -48], "withholdReward": true, "trial_id": "mdp_621812384092", "block": "test2", "trialIndex": 59, "score": 16, "costs": -1, "simulationMode": [null, null, null], "rewards": [-4, -8, 24], "path": ["0", "0", "9", "10", "11"], "rt": [3232, 103, 57], "actions": ["left", "left", "up"], "actionTimes": [4078, 4678, 5232], "queries": {"click": {"state": {"target": ["11", "4", "3", "7"], "time": [1393, 1930, 2419, 3275]}, "edge": {"target": [], "time": []}}, "mouseover": {"state": {"target": ["11", "4", "2", "3", "7", "7"], "time": [1257, 1741, 2199, 2249, 2857, 3124]}, "edge": {"target": [], "time": []}}, "mouseout": {"state": {"target": ["7", "11", "4", "2", "3", "7", "7"], "time": [507, 1625, 2175, 2224, 2749, 2866, 3507]}, "edge": {"target": [], "time": []}}}, "displayed_time": "8.85", "trialTime": 9695, "trial_type": "mouselab-mdp", "trial_index": 71, "time_elapsed": 1403207, "internal_node_id": "0.0-4.0-3.0-25.0"}}, {"uniqueid": "w70893464:a50907987", "current_trial": 72, "dateTime": 1664369683753, "trialdata": {"revealed_states": [], "num_clicks_accrued": [0, 0, 0, 0, 0, 0, 0, 0, 0, 0, 0, 0, 0], "stateRewards": ["", -4, -8, -48, 24, -4, -4, -24, -48, 2, -8, -24, -48], "withholdReward": true, "trial_id": "mdp_628181832088", "block": "test2", "trialIndex": 60, "score": 16, "costs": -1, "simulationMode": [null, null, null], "rewards": [-4, -8, 24], "path": ["0", "0", "1", "2", "4"], "rt": [4083, 113, 89], "actions": ["up", "up", "left"], "actionTimes": [5151, 5761, 6354], "queries": {"click": {"state": {"target": ["11", "4", "3", "7"], "time": [1593, 2150, 3023, 4100]}, "edge": {"target": [], "time": []}}, "mouseover": {"state": {"target": ["11", "4", "2", "3", "7"], "time": [1448, 1973, 2415, 2856, 3781]}, "edge": {"target": [], "time": []}}, "mouseout": {"state": {"target": ["5", "11", "4", "2", "3", "7"], "time": [739, 1848, 2375, 2482, 3431, 4506]}, "edge": {"target": [], "time": []}}}, "displayed_time": "9.07", "trialTime": 10004, "trial_type": "mouselab-mdp", "trial_index": 72, "time_elapsed": 1413310, "internal_node_id": "0.0-4.0-3.0-26.0"}}, {"uniqueid": "w70893464:a50907987", "current_trial": 73, "dateTime": 1664369694198, "trialdata": {"revealed_states": [], "num_clicks_accrued": [0, 0, 0, 0, 0, 0, 0, 0, 0, 0, 0, 0, 0], "stateRewards": ["", -2, -4, 48, -24, -4, -4, -24, -24, -2, 4, -48, -24], "withholdReward": true, "trial_id": "mdp_410467837196", "block": "test2", "trialIndex": 61, "score": 46.25, "costs": -0.75, "simulationMode": [null, null, null], "rewards": [-2, -4, 48], "path": ["0", "0", "1", "2", "3"], "rt": [2466, 94, 110], "actions": ["up", "up", "right"], "actionTimes": [3642, 4237, 4844], "queries": {"click": {"state": {"target": ["11", "4", "3"], "time": [1676, 2169, 2669]}, "edge": {"target": [], "time": []}}, "mouseover": {"state": {"target": ["11", "4", "2", "3"], "time": [1500, 2042, 2434, 2475]}, "edge": {"target": [], "time": []}}, "mouseout": {"state": {"target": ["5", "11", "4", "2", "3"], "time": [841, 1942, 2409, 2458, 2967]}, "edge": {"target": [], "time": []}}}, "displayed_time": "9.18", "trialTime": 10343, "trial_type": "mouselab-mdp", "trial_index": 73, "time_elapsed": 1423754, "internal_node_id": "0.0-4.0-3.0-27.0"}}, {"uniqueid": "w70893464:a50907987", "current_trial": 74, "dateTime": 1664369704991, "trialdata": {"revealed_states": [], "num_clicks_accrued": [0, 0, 0, 0, 0, 0, 0, 0, 0, 0, 0, 0, 0], "stateRewards": ["", 2, 4, 48, -48, 2, 8, -24, 48, 4, 8, 48, -48], "withholdReward": false, "trial_id": "mdp_110142964375", "block": "test2", "trialIndex": 62, "score": 64.75, "costs": -0.25, "simulationMode": [null, null, null], "rewards": [4, 8, 48], "path": ["0", "0", "9", "10", "11"], "rt": [1663, 179, 117], "actions": ["left", "left", "up"], "actionTimes": [2674, 3358, 3971], "queries": {"click": {"state": {"target": ["11"], "time": [1581]}, "edge": {"target": [], "time": []}}, "mouseover": {"state": {"target": ["11", "4"], "time": [1437, 2010]}, "edge": {"target": [], "time": []}}, "mouseout": {"state": {"target": ["1", "11"], "time": [744, 1894]}, "edge": {"target": [], "time": []}}}, "displayed_time": "10.01", "trialTime": 10681, "trial_type": "mouselab-mdp", "trial_index": 74, "time_elapsed": 1434548, "internal_node_id": "0.0-4.0-3.0-28.0"}}, {"uniqueid": "w70893464:a50907987", "current_trial": 75, "dateTime": 1664369716064, "trialdata": {"revealed_states": [], "num_clicks_accrued": [0, 0, 0, 0, 0, 0, 0, 0, 0, 0, 0, 0, 0], "stateRewards": ["", -2, 8, 24, -48, -2, -4, 24, 48, 2, 8, -48, -48], "withholdReward": true, "trial_id": "mdp_562228697607", "block": "test2", "trialIndex": 63, "score": 34.25, "costs": -0.75, "simulationMode": [null, null, null], "rewards": [-2, 8, 24], "path": ["0", "0", "1", "2", "3"], "rt": [2467, 67, 54], "actions": ["up", "up", "right"], "actionTimes": [4148, 4713, 5276], "queries": {"click": {"state": {"target": ["11", "4", "3"], "time": [2318, 2764, 3245]}, "edge": {"target": [], "time": []}}, "mouseover": {"state": {"target": ["11", "11", "4", "2", "3"], "time": [2004, 2204, 2605, 2970, 3079]}, "edge": {"target": [], "time": []}}, "mouseout": {"state": {"target": ["4", "1", "9", "11", "11", "4", "2", "3"], "time": [1053, 1104, 1437, 2079, 2528, 2937, 3029, 3629]}, "edge": {"target": [], "time": []}}}, "displayed_time": "9.68", "trialTime": 10947, "trial_type": "mouselab-mdp", "trial_index": 75, "time_elapsed": 1445621, "internal_node_id": "0.0-4.0-3.0-29.0"}}, {"uniqueid": "w70893464:a50907987", "current_trial": 76, "dateTime": 1664369717953, "trialdata": {"rt": 1884, "stimulus": "<h1> End of block! </h1>\n\nYou have reached the end of the block 2/4. If you need a short break, feel free to take one now before moving on.\n\n<br><br>\nIn the next block, you will complete another 30 rounds of this game.\n\n<br><br>\n<div style='text-align: center;'>Press <code>space</code> to begin.</div>\n<br><br>\n<div style='text-align: center;'>(If the experiment doesn't continue, try clicking on the text and then pressing <code>space</code>.)</div>", "response": " ", "trial_id": "mdp_ready_3", "trial_type": "html-keyboard-response", "trial_index": 76, "time_elapsed": 1447510, "internal_node_id": "0.0-4.0-4.0"}}, {"uniqueid": "w70893464:a50907987", "current_trial": 77, "dateTime": 1664369727561, "trialdata": {"revealed_states": [], "num_clicks_accrued": [0, 0, 0, 0, 0, 0, 0, 0, 0, 0, 0, 0, 0], "stateRewards": ["", -2, -4, -24, 48, -2, -8, -48, -24, 4, 8, 48, 24], "withholdReward": true, "trial_id": "mdp_625355871626", "block": "test3", "trialIndex": 64, "score": 64.75, "costs": -0.25, "simulationMode": [null, null, null], "rewards": [4, 8, 48], "path": ["0", "0", "9", "10", "11"], "rt": [1392, 155, 124], "actions": ["left", "left", "up"], "actionTimes": [2364, 3013, 3632], "queries": {"click": {"state": {"target": ["11"], "time": [1472]}, "edge": {"target": [], "time": []}}, "mouseover": {"state": {"target": ["11", "4", "2"], "time": [1374, 1832, 1949]}, "edge": {"target": [], "time": []}}, "mouseout": {"state": {"target": ["11", "4"], "time": [1687, 1923]}, "edge": {"target": [], "time": []}}}, "displayed_time": "8.97", "trialTime": 9488, "trial_type": "mouselab-mdp", "trial_index": 77, "time_elapsed": 1457118, "internal_node_id": "0.0-4.0-5.0-0.0"}}, {"uniqueid": "w70893464:a50907987", "current_trial": 78, "dateTime": 1664369738629, "trialdata": {"revealed_states": [], "num_clicks_accrued": [0, 0, 0, 0, 0, 0, 0, 0, 0, 0, 0, 0, 0], "stateRewards": ["", -2, -8, -24, -24, 4, -4, -48, 48, 2, 8, 48, -48], "withholdReward": true, "trial_id": "mdp_498095124548", "block": "test3", "trialIndex": 65, "score": 62.75, "costs": -0.25, "simulationMode": [null, null, null], "rewards": [2, 8, 48], "path": ["0", "0", "9", "10", "11"], "rt": [1320, 61, 21], "actions": ["left", "left", "up"], "actionTimes": [2389, 2951, 3471], "queries": {"click": {"state": {"target": ["11"], "time": [1560]}, "edge": {"target": [], "time": []}}, "mouseover": {"state": {"target": ["11", "4"], "time": [1390, 1964]}, "edge": {"target": [], "time": []}}, "mouseout": {"state": {"target": ["2", "4", "11"], "time": [548, 589, 1764]}, "edge": {"target": [], "time": []}}}, "displayed_time": "9.07", "trialTime": 10947, "trial_type": "mouselab-mdp", "trial_index": 78, "time_elapsed": 1468185, "internal_node_id": "0.0-4.0-5.0-1.0"}}, {"uniqueid": "w70893464:a50907987", "current_trial": 79, "dateTime": 1664369749368, "trialdata": {"revealed_states": [], "num_clicks_accrued": [0, 0, 0, 0, 0, 0, 0, 0, 0, 0, 0, 0, 0], "stateRewards": ["", 4, 4, 24, -24, -4, -8, 48, -24, 4, 4, 48, 24], "withholdReward": false, "trial_id": "mdp_822446942217", "block": "test3", "trialIndex": 66, "score": 40.75, "costs": -0.25, "simulationMode": [null, null, null], "rewards": [-4, -8, 48], "path": ["0", "0", "5", "6", "7"], "rt": [1915, 116, 179], "actions": ["right", "right", "up"], "actionTimes": [3002, 3614, 4303], "queries": {"click": {"state": {"target": ["7"], "time": [1970]}, "edge": {"target": [], "time": []}}, "mouseover": {"state": {"target": ["7"], "time": [1747]}, "edge": {"target": [], "time": []}}, "mouseout": {"state": {"target": ["4", "1", "0", "7"], "time": [505, 514, 1556, 2173]}, "edge": {"target": [], "time": []}}}, "displayed_time": "10.09", "trialTime": 10620, "trial_type": "mouselab-mdp", "trial_index": 79, "time_elapsed": 1478925, "internal_node_id": "0.0-4.0-5.0-2.0"}}, {"uniqueid": "w70893464:a50907987", "current_trial": 80, "dateTime": 1664369760271, "trialdata": {"revealed_states": [], "num_clicks_accrued": [0, 0, 0, 0, 0, 0, 0, 0, 0, 0, 0, 0, 0], "stateRewards": ["", -2, -8, -24, -48, -2, -4, 48, -48, 4, 4, -48, 48], "withholdReward": false, "trial_id": "mdp_156977432949", "block": "test3", "trialIndex": 67, "score": 46, "costs": -1, "simulationMode": [null, null, null], "rewards": [-2, -4, 48], "path": ["0", "0", "5", "6", "7"], "rt": [2926, 168, 47], "actions": ["right", "right", "up"], "actionTimes": [4009, 4677, 5219], "queries": {"click": {"state": {"target": ["11", "4", "3", "7"], "time": [1577, 2113, 2707, 3314]}, "edge": {"target": [], "time": []}}, "mouseover": {"state": {"target": ["11", "4", "2", "3", "7"], "time": [1455, 1914, 2355, 2538, 3198]}, "edge": {"target": [], "time": []}}, "mouseout": {"state": {"target": ["11", "4", "2", "3", "7"], "time": [1839, 2331, 2405, 2964, 3530]}, "edge": {"target": [], "time": []}}}, "displayed_time": "10.08", "trialTime": 10781, "trial_type": "mouselab-mdp", "trial_index": 80, "time_elapsed": 1489828, "internal_node_id": "0.0-4.0-5.0-3.0"}}, {"uniqueid": "w70893464:a50907987", "current_trial": 81, "dateTime": 1664369771016, "trialdata": {"revealed_states": [], "num_clicks_accrued": [0, 0, 0, 0, 0, 0, 0, 0, 0, 0, 0, 0, 0], "stateRewards": ["", 4, -8, -24, 48, -4, 8, -24, -48, -4, -4, 24, 48], "withholdReward": true, "trial_id": "mdp_282352776624", "block": "test3", "trialIndex": 68, "score": 48.5, "costs": -0.5, "simulationMode": [null, null, null], "rewards": [4, -8, 48], "path": ["0", "0", "1", "2", "4"], "rt": [1831, 135, 109], "actions": ["up", "up", "left"], "actionTimes": [2792, 3422, 4038], "queries": {"click": {"state": {"target": ["11", "4"], "time": [1360, 1891]}, "edge": {"target": [], "time": []}}, "mouseover": {"state": {"target": ["11", "4", "2", "3"], "time": [1269, 1737, 2128, 2353]}, "edge": {"target": [], "time": []}}, "mouseout": {"state": {"target": ["7", "1", "11", "4", "2"], "time": [528, 727, 1603, 2094, 2320]}, "edge": {"target": [], "time": []}}}, "displayed_time": "8.96", "trialTime": 10631, "trial_type": "mouselab-mdp", "trial_index": 81, "time_elapsed": 1500572, "internal_node_id": "0.0-4.0-5.0-4.0"}}, {"uniqueid": "w70893464:a50907987", "current_trial": 82, "dateTime": 1664369782572, "trialdata": {"revealed_states": [], "num_clicks_accrued": [0, 0, 0, 0, 0, 0, 0, 0, 0, 0, 0, 0, 0], "stateRewards": ["", 2, 4, -24, -24, 4, 8, -48, 48, 2, 4, -24, -48], "withholdReward": false, "trial_id": "mdp_565165082781", "block": "test3", "trialIndex": 69, "score": -38, "costs": -1, "simulationMode": [null, null, null], "rewards": [2, 4, -48], "path": ["0", "0", "9", "10", "12"], "rt": [3340, 53, 100], "actions": ["left", "left", "down"], "actionTimes": [4497, 5053, 5659], "queries": {"click": {"state": {"target": ["11", "4", "3", "7"], "time": [1631, 2079, 2485, 2981]}, "edge": {"target": [], "time": []}}, "mouseover": {"state": {"target": ["11", "4", "2", "3", "7", "6", "10", "12", "0"], "time": [1475, 1958, 2291, 2358, 2833, 3408, 3683, 3900, 4108]}, "edge": {"target": [], "time": []}}, "mouseout": {"state": {"target": ["3", "1", "11", "4", "2", "3", "7", "6", "10", "12", "0"], "time": [700, 842, 1825, 2258, 2333, 2733, 3266, 3541, 3766, 4050, 4125]}, "edge": {"target": [], "time": []}}}, "displayed_time": "10.16", "trialTime": 11435, "trial_type": "mouselab-mdp", "trial_index": 82, "time_elapsed": 1512129, "internal_node_id": "0.0-4.0-5.0-5.0"}}, {"uniqueid": "w70893464:a50907987", "current_trial": 83, "dateTime": 1664369792776, "trialdata": {"revealed_states": [], "num_clicks_accrued": [0, 0, 0, 0, 0, 0, 0, 0, 0, 0, 0, 0, 0], "stateRewards": ["", -4, 4, -24, 48, 2, 4, -48, 24, 4, -8, -24, 24], "withholdReward": false, "trial_id": "mdp_740130150937", "block": "test3", "trialIndex": 70, "score": 52.25, "costs": -0.75, "simulationMode": [null, null, null], "rewards": [-4, 4, 48], "path": ["0", "0", "1", "2", "4"], "rt": [3056, 228, 123], "actions": ["up", "up", "left"], "actionTimes": [3944, 4669, 5287], "queries": {"click": {"state": {"target": ["3", "7", "4"], "time": [2027, 2555, 3239]}, "edge": {"target": [], "time": []}}, "mouseover": {"state": {"target": ["1", "2", "3", "7", "1", "4"], "time": [1197, 1564, 1880, 2397, 2980, 3121]}, "edge": {"target": [], "time": []}}, "mouseout": {"state": {"target": ["0", "1", "2", "3", "7", "1", "4"], "time": [1122, 1256, 1846, 2297, 2813, 2996, 3488]}, "edge": {"target": [], "time": []}}}, "displayed_time": "8.89", "trialTime": 10085, "trial_type": "mouselab-mdp", "trial_index": 83, "time_elapsed": 1522332, "internal_node_id": "0.0-4.0-5.0-6.0"}}, {"uniqueid": "w70893464:a50907987", "current_trial": 84, "dateTime": 1664369803952, "trialdata": {"revealed_states": [], "num_clicks_accrued": [0, 0, 0, 0, 0, 0, 0, 0, 0, 0, 0, 0, 0], "stateRewards": ["", -4, 4, 24, 24, -2, 8, 24, -48, 4, -8, -24, -48], "withholdReward": true, "trial_id": "mdp_651542905861", "block": "test3", "trialIndex": 71, "score": 28.25, "costs": -0.75, "simulationMode": [null, null, null], "rewards": [-4, 4, 24], "path": ["0", "0", "1", "2", "4"], "rt": [2767, 67, 68], "actions": ["up", "up", "left"], "actionTimes": [3747, 4314, 4886], "queries": {"click": {"state": {"target": ["4", "11", "3"], "time": [1635, 2363, 3056]}, "edge": {"target": [], "time": []}}, "mouseover": {"state": {"target": ["1", "2", "4", "11", "2", "3"], "time": [1142, 1284, 1493, 2151, 2751, 2926]}, "edge": {"target": [], "time": []}}, "mouseout": {"state": {"target": ["1", "11", "0", "1", "2", "4", "11", "2", "3"], "time": [467, 593, 1060, 1210, 1434, 1936, 2593, 2860, 3209]}, "edge": {"target": [], "time": []}}}, "displayed_time": "9.98", "trialTime": 11057, "trial_type": "mouselab-mdp", "trial_index": 84, "time_elapsed": 1533509, "internal_node_id": "0.0-4.0-5.0-7.0"}}, {"uniqueid": "w70893464:a50907987", "current_trial": 85, "dateTime": 1664369814392, "trialdata": {"revealed_states": [], "num_clicks_accrued": [0, 0, 0, 0, 0, 0, 0, 0, 0, 0, 0, 0, 0], "stateRewards": ["", 4, 4, 48, -24, -4, -8, 24, -24, 2, -8, -24, 24], "withholdReward": true, "trial_id": "mdp_933201675789", "block": "test3", "trialIndex": 72, "score": 60.25, "costs": -0.75, "simulationMode": [null, null, null], "rewards": [4, 4, 48], "path": ["0", "0", "1", "2", "3"], "rt": [2802, 35, 69], "actions": ["up", "up", "right"], "actionTimes": [3719, 4270, 4848], "queries": {"click": {"state": {"target": ["11", "4", "3"], "time": [1966, 2439, 2941]}, "edge": {"target": [], "time": []}}, "mouseover": {"state": {"target": ["0", "9", "11", "4", "2", "3"], "time": [1027, 1494, 1836, 2229, 2627, 2736]}, "edge": {"target": [], "time": []}}, "mouseout": {"state": {"target": ["6", "5", "0", "9", "11", "4", "2", "3"], "time": [452, 485, 1387, 1736, 2161, 2594, 2670, 3194]}, "edge": {"target": [], "time": []}}}, "displayed_time": "9.92", "trialTime": 10283, "trial_type": "mouselab-mdp", "trial_index": 85, "time_elapsed": 1543949, "internal_node_id": "0.0-4.0-5.0-8.0"}}, {"uniqueid": "w70893464:a50907987", "current_trial": 86, "dateTime": 1664369824405, "trialdata": {"revealed_states": [], "num_clicks_accrued": [0, 0, 0, 0, 0, 0, 0, 0, 0, 0, 0, 0, 0], "stateRewards": ["", -2, -8, 24, -48, 4, 4, -24, -48, -2, -8, -48, 24], "withholdReward": true, "trial_id": "mdp_556006673466", "block": "test3", "trialIndex": 73, "score": 18.25, "costs": -0.75, "simulationMode": [null, null, null], "rewards": [-2, -8, 24], "path": ["0", "0", "1", "2", "3"], "rt": [2426, 91, 5], "actions": ["up", "up", "right"], "actionTimes": [3609, 4209, 4714], "queries": {"click": {"state": {"target": ["11", "4", "3"], "time": [1726, 2141, 2624]}, "edge": {"target": [], "time": []}}, "mouseover": {"state": {"target": ["11", "4", "2", "3"], "time": [1601, 2000, 2341, 2408]}, "edge": {"target": [], "time": []}}, "mouseout": {"state": {"target": ["1", "11", "4", "2", "3"], "time": [817, 1917, 2316, 2375, 2908]}, "edge": {"target": [], "time": []}}}, "displayed_time": "9.18", "trialTime": 9894, "trial_type": "mouselab-mdp", "trial_index": 86, "time_elapsed": 1553962, "internal_node_id": "0.0-4.0-5.0-9.0"}}, {"uniqueid": "w70893464:a50907987", "current_trial": 87, "dateTime": 1664369837086, "trialdata": {"revealed_states": [], "num_clicks_accrued": [0, 0, 0, 0, 0, 0, 0, 0, 0, 0, 0, 0, 0], "stateRewards": ["", 2, 4, -24, -48, 4, -4, 24, 48, -4, -4, -24, 48], "withholdReward": true, "trial_id": "mdp_181958792175", "block": "test3", "trialIndex": 74, "score": 28, "costs": -1, "simulationMode": [null, null, null], "rewards": [4, -4, 24], "path": ["0", "0", "5", "6", "7"], "rt": [3416, 51, 154], "actions": ["right", "right", "up"], "actionTimes": [5598, 6146, 6808], "queries": {"click": {"state": {"target": ["4", "3", "11", "7"], "time": [2597, 3133, 3784, 4617]}, "edge": {"target": [], "time": []}}, "mouseover": {"state": {"target": ["4", "2", "3", "2", "11", "1", "5", "6", "7"], "time": [2461, 2828, 2961, 3352, 3711, 4144, 4203, 4228, 4361]}, "edge": {"target": [], "time": []}}, "mouseout": {"state": {"target": ["0", "0", "4", "2", "3", "2", "11", "1", "5", "6", "7"], "time": [1277, 2094, 2794, 2877, 3327, 3394, 4037, 4161, 4219, 4244, 4878]}, "edge": {"target": [], "time": []}}}, "displayed_time": "11.18", "trialTime": 12561, "trial_type": "mouselab-mdp", "trial_index": 87, "time_elapsed": 1566643, "internal_node_id": "0.0-4.0-5.0-10.0"}}, {"uniqueid": "w70893464:a50907987", "current_trial": 88, "dateTime": 1664369849394, "trialdata": {"revealed_states": [], "num_clicks_accrued": [0, 0, 0, 0, 0, 0, 0, 0, 0, 0, 0, 0, 0], "stateRewards": ["", -4, 8, -24, -24, 4, -8, 48, -24, -4, -8, -24, -48], "withholdReward": true, "trial_id": "mdp_391766721791", "block": "test3", "trialIndex": 75, "score": 48, "costs": -1, "simulationMode": [null, null, null], "rewards": [4, -8, 48], "path": ["0", "0", "5", "6", "7"], "rt": [2772, 92, 87], "actions": ["right", "right", "up"], "actionTimes": [3676, 4269, 4862], "queries": {"click": {"state": {"target": ["11", "4", "3", "7"], "time": [1335, 1971, 2398, 2940]}, "edge": {"target": [], "time": []}}, "mouseover": {"state": {"target": ["11", "4", "2", "3", "7"], "time": [1165, 1824, 2215, 2298, 2748]}, "edge": {"target": [], "time": []}}, "mouseout": {"state": {"target": ["6", "5", "11", "4", "2", "3", "7"], "time": [540, 565, 1516, 2165, 2265, 2665, 3173]}, "edge": {"target": [], "time": []}}}, "displayed_time": "9.90", "trialTime": 12165, "trial_type": "mouselab-mdp", "trial_index": 88, "time_elapsed": 1578951, "internal_node_id": "0.0-4.0-5.0-11.0"}}, {"uniqueid": "w70893464:a50907987", "current_trial": 89, "dateTime": 1664369860136, "trialdata": {"revealed_states": [], "num_clicks_accrued": [0, 0, 0, 0, 0, 0, 0, 0, 0, 0, 0, 0, 0], "stateRewards": ["", 4, -8, 48, 48, 2, 4, 48, -48, 4, -4, -48, 48], "withholdReward": true, "trial_id": "mdp_519605841135", "block": "test3", "trialIndex": 76, "score": 48.5, "costs": -0.5, "simulationMode": [null, null, null], "rewards": [4, -8, 48], "path": ["0", "0", "1", "2", "4"], "rt": [1811, 210, 25], "actions": ["up", "up", "left"], "actionTimes": [2989, 3694, 4226], "queries": {"click": {"state": {"target": ["11", "4"], "time": [1654, 2138]}, "edge": {"target": [], "time": []}}, "mouseover": {"state": {"target": ["11", "4", "2", "3"], "time": [1500, 2024, 2383, 2466]}, "edge": {"target": [], "time": []}}, "mouseout": {"state": {"target": ["6", "5", "0", "11", "4", "2", "3"], "time": [691, 841, 1242, 1891, 2341, 2425, 2549]}, "edge": {"target": [], "time": []}}}, "displayed_time": "10.18", "trialTime": 10625, "trial_type": "mouselab-mdp", "trial_index": 89, "time_elapsed": 1589693, "internal_node_id": "0.0-4.0-5.0-12.0"}}, {"uniqueid": "w70893464:a50907987", "current_trial": 90, "dateTime": 1664369871084, "trialdata": {"revealed_states": [], "num_clicks_accrued": [0, 0, 0, 0, 0, 0, 0, 0, 0, 0, 0, 0, 0], "stateRewards": ["", 2, 8, 48, 24, -4, 4, -48, 24, 2, 8, 48, 48], "withholdReward": true, "trial_id": "mdp_367344599162", "block": "test3", "trialIndex": 77, "score": 38.5, "costs": -0.5, "simulationMode": [null, null, null], "rewards": [2, 8, 24], "path": ["0", "0", "1", "2", "4"], "rt": [2476, 95, 44], "actions": ["up", "up", "left"], "actionTimes": [4272, 4877, 5419], "queries": {"click": {"state": {"target": ["2", "4"], "time": [2577, 3347]}, "edge": {"target": [], "time": []}}, "mouseover": {"state": {"target": ["1", "2", "4", "1", "7"], "time": [2048, 2357, 2965, 3707, 3773]}, "edge": {"target": [], "time": []}}, "mouseout": {"state": {"target": ["7", "5", "5", "0", "1", "2", "4", "1", "7"], "time": [957, 1223, 1348, 1948, 2248, 2848, 3590, 3715, 3798]}, "edge": {"target": [], "time": []}}}, "displayed_time": "9.80", "trialTime": 10829, "trial_type": "mouselab-mdp", "trial_index": 90, "time_elapsed": 1600640, "internal_node_id": "0.0-4.0-5.0-13.0"}}, {"uniqueid": "w70893464:a50907987", "current_trial": 91, "dateTime": 1664369883886, "trialdata": {"revealed_states": [], "num_clicks_accrued": [0, 0, 0, 0, 0, 0, 0, 0, 0, 0, 0, 0, 0], "stateRewards": ["", 4, -4, 48, -48, 4, -4, 24, -24, 4, 8, -24, -48], "withholdReward": true, "trial_id": "mdp_433630527224", "block": "test3", "trialIndex": 78, "score": 52.5, "costs": -0.5, "simulationMode": [null, null, null], "rewards": [4, -4, 48], "path": ["0", "0", "1", "2", "3"], "rt": [1784, 36, 21], "actions": ["up", "up", "right"], "actionTimes": [2962, 3503, 4030], "queries": {"click": {"state": {"target": ["4", "3"], "time": [1588, 2103]}, "edge": {"target": [], "time": []}}, "mouseover": {"state": {"target": ["4", "2", "3", "2", "1"], "time": [1433, 1807, 1899, 2333, 2507]}, "edge": {"target": [], "time": []}}, "mouseout": {"state": {"target": ["6", "5", "0", "4", "2", "3", "2", "1", "7", "6", "8"], "time": [749, 815, 874, 1766, 1857, 2307, 2366, 2550, 11707, 11774, 11825]}, "edge": {"target": [], "time": []}}}, "displayed_time": "10.18", "trialTime": 12683, "trial_type": "mouselab-mdp", "trial_index": 91, "time_elapsed": 1613443, "internal_node_id": "0.0-4.0-5.0-14.0"}}, {"uniqueid": "w70893464:a50907987", "current_trial": 92, "dateTime": 1664369895344, "trialdata": {"revealed_states": [], "num_clicks_accrued": [0, 0, 0, 0, 0, 0, 0, 0, 0, 0, 0, 0, 0], "stateRewards": ["", 4, 8, -24, 48, -2, -4, 24, -24, -2, 4, 24, 24], "withholdReward": false, "trial_id": "mdp_948713805479", "block": "test3", "trialIndex": 79, "score": 64.5, "costs": -0.5, "simulationMode": [null, null, null], "rewards": [4, 8, 48], "path": ["0", "0", "1", "2", "4"], "rt": [1763, 470, 261], "actions": ["up", "up", "left"], "actionTimes": [2885, 3851, 4608], "queries": {"click": {"state": {"target": ["11", "4"], "time": [1648, 2119]}, "edge": {"target": [], "time": []}}, "mouseover": {"state": {"target": ["11", "4", "2"], "time": [1563, 1946, 2372]}, "edge": {"target": [], "time": []}}, "mouseout": {"state": {"target": ["0", "0", "11", "4", "2"], "time": [730, 1313, 1880, 2355, 2421]}, "edge": {"target": [], "time": []}}}, "displayed_time": "10.12", "trialTime": 11329, "trial_type": "mouselab-mdp", "trial_index": 92, "time_elapsed": 1624900, "internal_node_id": "0.0-4.0-5.0-15.0"}}, {"uniqueid": "w70893464:a50907987", "current_trial": 93, "dateTime": 1664369907071, "trialdata": {"revealed_states": [], "num_clicks_accrued": [0, 0, 0, 0, 0, 0, 0, 0, 0, 0, 0, 0, 0], "stateRewards": ["", -2, -8, 24, -48, -4, 8, -48, -24, 4, 8, -24, 24], "withholdReward": true, "trial_id": "mdp_940444641142", "block": "test3", "trialIndex": 80, "score": 18, "costs": -1, "simulationMode": [null, null, null], "rewards": [-2, -8, 24], "path": ["0", "0", "1", "2", "3"], "rt": [3650, 86, 38], "actions": ["up", "up", "right"], "actionTimes": [4779, 5366, 5909], "queries": {"click": {"state": {"target": ["11", "4", "3", "2"], "time": [1628, 2069, 2707, 3356]}, "edge": {"target": [], "time": []}}, "mouseover": {"state": {"target": ["9", "11", "4", "2", "3", "2", "2"], "time": [1354, 1454, 1887, 2379, 2479, 3062, 3195]}, "edge": {"target": [], "time": []}}, "mouseout": {"state": {"target": ["9", "9", "11", "4", "2", "3", "2", "2", "3"], "time": [841, 1379, 1805, 2346, 2