{"condition": 0, "counterbalance": 0, "assignmentId": "a90563344", "workerId": "w86099414", "hitId": "h26559277", "currenttrial": 971, "bonus": 0, "data": [{"uniqueid": "w86099414:a90563344", "current_trial": 0, "dateTime": 1664464067499, "trialdata": {"success": true, "trial_type": "fullscreen", "trial_index": 0, "time_elapsed": 6366, "internal_node_id": "0.0-0.0"}}, {"uniqueid": "w86099414:a90563344", "current_trial": 1, "dateTime": 1664464109832, "trialdata": {"view_history": [{"page_index": 0, "viewing_time": 42322}], "rt": 42323, "trial_id": "exp_instructions_distractor", "trial_type": "instructions", "trial_index": 1, "time_elapsed": 48700, "internal_node_id": "0.0-1.0"}}, {"uniqueid": "w86099414:a90563344", "current_trial": 2, "dateTime": 1664464165092, "trialdata": {"view_history": [{"page_index": 0, "viewing_time": 55257}], "rt": 55257, "trial_id": "color_game_instructions", "trial_type": "instructions", "trial_index": 2, "time_elapsed": 103960, "internal_node_id": "0.0-2.0"}}, {"uniqueid": "w86099414:a90563344", "current_trial": 3, "dateTime": 1664464177395, "trialdata": {"rt": 12300, "stimulus": "<h1> Get ready to start the game! </h1>\n\nThank you for reading the instructions. Get ready start with the first of 5 block(s) of this game.\n<br><br>\nIn this first block, you will complete 90 rounds of this game before moving on.\n<br><br>\nRemember, the better you perform, the bigger your bonus will be!\n<br><br>\n<div style='text-align: center;'>Press <code>space</code> to begin.</div>", "response": " ", "trial_id": "stroop_1_ready_1", "trial_type": "html-keyboard-response", "trial_index": 3, "time_elapsed": 116263, "internal_node_id": "0.0-3.0"}}, {"uniqueid": "w86099414:a90563344", "current_trial": 4, "dateTime": 1664464178692, "trialdata": {"rt": 1276, "stimulus": "<p id='stroop-text' class='stroop-yellow'>CHAIR</p>", "response": "y", "stimulus-type": "unrelated", "word": "CHAIR", "color": "yellow", "correct_response": "y", "trial_id": "stroop-trial-1-unrelated-29", "trial_type": "html-keyboard-response", "trial_index": 4, "time_elapsed": 117559, "internal_node_id": "0.0-4.0-0.0"}}, {"uniqueid": "w86099414:a90563344", "current_trial": 5, "dateTime": 1664464180303, "trialdata": {"rt": 1108, "stimulus": "<p id='stroop-text' class='stroop-red'>CHAIR</p>", "response": "r", "stimulus-type": "unrelated", "word": "CHAIR", "color": "red", "correct_response": "r", "trial_id": "stroop-trial-1-unrelated-3", "trial_type": "html-keyboard-response", "trial_index": 5, "time_elapsed": 119171, "internal_node_id": "0.0-4.0-1.0"}}, {"uniqueid": "w86099414:a90563344", "current_trial": 6, "dateTime": 1664464181645, "trialdata": {"rt": 839, "stimulus": "<p id='stroop-text' class='stroop-red'>SHIP</p>", "response": "r", "stimulus-type": "unrelated", "word": "SHIP", "color": "red", "correct_response": "r", "trial_id": "stroop-trial-1-unrelated-20", "trial_type": "html-keyboard-response", "trial_index": 6, "time_elapsed": 120513, "internal_node_id": "0.0-4.0-2.0"}}, {"uniqueid": "w86099414:a90563344", "current_trial": 7, "dateTime": 1664464182987, "trialdata": {"rt": 839, "stimulus": "<p id='stroop-text' class='stroop-blue'>BRIDGE</p>", "response": "b", "stimulus-type": "unrelated", "word": "BRIDGE", "color": "blue", "correct_response": "b", "trial_id": "stroop-trial-1-unrelated-15", "trial_type": "html-keyboard-response", "trial_index": 7, "time_elapsed": 121855, "internal_node_id": "0.0-4.0-3.0"}}, {"uniqueid": "w86099414:a90563344", "current_trial": 8, "dateTime": 1664464184254, "trialdata": {"rt": 747, "stimulus": "<p id='stroop-text' class='stroop-yellow'>MONKEY</p>", "response": "y", "stimulus-type": "unrelated", "word": "MONKEY", "color": "yellow", "correct_response": "y", "trial_id": "stroop-trial-1-unrelated-4", "trial_type": "html-keyboard-response", "trial_index": 8, "time_elapsed": 123121, "internal_node_id": "0.0-4.0-4.0"}}, {"uniqueid": "w86099414:a90563344", "current_trial": 9, "dateTime": 1664464185581, "trialdata": {"rt": 824, "stimulus": "<p id='stroop-text' class='stroop-red'>RED</p>", "response": "r", "stimulus-type": "congruent", "word": "red", "color": "red", "correct_response": "r", "trial_id": "stroop-trial-1-congruent-10", "trial_type": "html-keyboard-response", "trial_index": 9, "time_elapsed": 124448, "internal_node_id": "0.0-4.0-5.0"}}, {"uniqueid": "w86099414:a90563344", "current_trial": 10, "dateTime": 1664464187078, "trialdata": {"rt": 994, "stimulus": "<p id='stroop-text' class='stroop-blue'>RED</p>", "response": "b", "stimulus-type": "incongruent", "word": "red", "color": "blue", "correct_response": "b", "trial_id": "stroop-trial-1-incongruent-24", "trial_type": "html-keyboard-response", "trial_index": 10, "time_elapsed": 125946, "internal_node_id": "0.0-4.0-6.0"}}, {"uniqueid": "w86099414:a90563344", "current_trial": 11, "dateTime": 1664464188341, "trialdata": {"rt": 760, "stimulus": "<p id='stroop-text' class='stroop-green'>GREEN</p>", "response": "g", "stimulus-type": "congruent", "word": "green", "color": "green", "correct_response": "g", "trial_id": "stroop-trial-1-congruent-26", "trial_type": "html-keyboard-response", "trial_index": 11, "time_elapsed": 127208, "internal_node_id": "0.0-4.0-7.0"}}, {"uniqueid": "w86099414:a90563344", "current_trial": 12, "dateTime": 1664464189626, "trialdata": {"rt": 783, "stimulus": "<p id='stroop-text' class='stroop-yellow'>BLUE</p>", "response": "y", "stimulus-type": "incongruent", "word": "blue", "color": "yellow", "correct_response": "y", "trial_id": "stroop-trial-1-incongruent-3", "trial_type": "html-keyboard-response", "trial_index": 12, "time_elapsed": 128494, "internal_node_id": "0.0-4.0-8.0"}}, {"uniqueid": "w86099414:a90563344", "current_trial": 13, "dateTime": 1664464191519, "trialdata": {"rt": 1390, "stimulus": "<p id='stroop-text' class='stroop-blue'>BLUE</p>", "response": "b", "stimulus-type": "congruent", "word": "blue", "color": "blue", "correct_response": "b", "trial_id": "stroop-trial-1-congruent-25", "trial_type": "html-keyboard-response", "trial_index": 13, "time_elapsed": 130387, "internal_node_id": "0.0-4.0-9.0"}}, {"uniqueid": "w86099414:a90563344", "current_trial": 14, "dateTime": 1664464193051, "trialdata": {"rt": 1029, "stimulus": "<p id='stroop-text' class='stroop-green'>RED</p>", "response": "g", "stimulus-type": "incongruent", "word": "red", "color": "green", "correct_response": "g", "trial_id": "stroop-trial-1-incongruent-6", "trial_type": "html-keyboard-response", "trial_index": 14, "time_elapsed": 131919, "internal_node_id": "0.0-4.0-10.0"}}, {"uniqueid": "w86099414:a90563344", "current_trial": 15, "dateTime": 1664464194398, "trialdata": {"rt": 843, "stimulus": "<p id='stroop-text' class='stroop-green'>GREEN</p>", "response": "g", "stimulus-type": "congruent", "word": "green", "color": "green", "correct_response": "g", "trial_id": "stroop-trial-1-congruent-5", "trial_type": "html-keyboard-response", "trial_index": 15, "time_elapsed": 133266, "internal_node_id": "0.0-4.0-11.0"}}, {"uniqueid": "w86099414:a90563344", "current_trial": 16, "dateTime": 1664464195777, "trialdata": {"rt": 874, "stimulus": "<p id='stroop-text' class='stroop-red'>YELLOW</p>", "response": "r", "stimulus-type": "incongruent", "word": "yellow", "color": "red", "correct_response": "r", "trial_id": "stroop-trial-1-incongruent-2", "trial_type": "html-keyboard-response", "trial_index": 16, "time_elapsed": 134643, "internal_node_id": "0.0-4.0-12.0"}}, {"uniqueid": "w86099414:a90563344", "current_trial": 17, "dateTime": 1664464197115, "trialdata": {"rt": 835, "stimulus": "<p id='stroop-text' class='stroop-red'>RED</p>", "response": "r", "stimulus-type": "congruent", "word": "red", "color": "red", "correct_response": "r", "trial_id": "stroop-trial-1-congruent-8", "trial_type": "html-keyboard-response", "trial_index": 17, "time_elapsed": 135982, "internal_node_id": "0.0-4.0-13.0"}}, {"uniqueid": "w86099414:a90563344", "current_trial": 18, "dateTime": 1664464198269, "trialdata": {"rt": 651, "stimulus": "<p id='stroop-text' class='stroop-red'>GREEN</p>", "response": "r", "stimulus-type": "incongruent", "word": "green", "color": "red", "correct_response": "r", "trial_id": "stroop-trial-1-incongruent-4", "trial_type": "html-keyboard-response", "trial_index": 18, "time_elapsed": 137136, "internal_node_id": "0.0-4.0-14.0"}}, {"uniqueid": "w86099414:a90563344", "current_trial": 19, "dateTime": 1664464199287, "trialdata": {"rt": 514, "stimulus": "<p id='stroop-text' class='stroop-red'>GREEN</p>", "response": "r", "stimulus-type": "incongruent", "word": "green", "color": "red", "correct_response": "r", "trial_id": "stroop-trial-1-incongruent-16", "trial_type": "html-keyboard-response", "trial_index": 19, "time_elapsed": 138155, "internal_node_id": "0.0-4.0-15.0"}}, {"uniqueid": "w86099414:a90563344", "current_trial": 20, "dateTime": 1664464200241, "trialdata": {"rt": 452, "stimulus": "<p id='stroop-text' class='stroop-red'>BRAIN</p>", "response": "r", "stimulus-type": "unrelated", "word": "BRAIN", "color": "red", "correct_response": "r", "trial_id": "stroop-trial-1-unrelated-16", "trial_type": "html-keyboard-response", "trial_index": 20, "time_elapsed": 139109, "internal_node_id": "0.0-4.0-16.0"}}, {"uniqueid": "w86099414:a90563344", "current_trial": 21, "dateTime": 1664464201649, "trialdata": {"rt": 904, "stimulus": "<p id='stroop-text' class='stroop-green'>GREEN</p>", "response": "g", "stimulus-type": "congruent", "word": "green", "color": "green", "correct_response": "g", "trial_id": "stroop-trial-1-congruent-30", "trial_type": "html-keyboard-response", "trial_index": 21, "time_elapsed": 140517, "internal_node_id": "0.0-4.0-17.0"}}, {"uniqueid": "w86099414:a90563344", "current_trial": 22, "dateTime": 1664464202954, "trialdata": {"rt": 803, "stimulus": "<p id='stroop-text' class='stroop-red'>MONKEY</p>", "response": "r", "stimulus-type": "unrelated", "word": "MONKEY", "color": "red", "correct_response": "r", "trial_id": "stroop-trial-1-unrelated-17", "trial_type": "html-keyboard-response", "trial_index": 22, "time_elapsed": 141822, "internal_node_id": "0.0-4.0-18.0"}}, {"uniqueid": "w86099414:a90563344", "current_trial": 23, "dateTime": 1664464204604, "trialdata": {"rt": 1148, "stimulus": "<p id='stroop-text' class='stroop-blue'>BOTTLE</p>", "response": "b", "stimulus-type": "unrelated", "word": "BOTTLE", "color": "blue", "correct_response": "b", "trial_id": "stroop-trial-1-unrelated-25", "trial_type": "html-keyboard-response", "trial_index": 23, "time_elapsed": 143471, "internal_node_id": "0.0-4.0-19.0"}}, {"uniqueid": "w86099414:a90563344", "current_trial": 24, "dateTime": 1664464205997, "trialdata": {"rt": 890, "stimulus": "<p id='stroop-text' class='stroop-yellow'>YELLOW</p>", "response": "y", "stimulus-type": "congruent", "word": "yellow", "color": "yellow", "correct_response": "y", "trial_id": "stroop-trial-1-congruent-16", "trial_type": "html-keyboard-response", "trial_index": 24, "time_elapsed": 144864, "internal_node_id": "0.0-4.0-20.0"}}, {"uniqueid": "w86099414:a90563344", "current_trial": 25, "dateTime": 1664464207313, "trialdata": {"rt": 804, "stimulus": "<p id='stroop-text' class='stroop-yellow'>RED</p>", "response": "y", "stimulus-type": "incongruent", "word": "red", "color": "yellow", "correct_response": "y", "trial_id": "stroop-trial-1-incongruent-15", "trial_type": "html-keyboard-response", "trial_index": 25, "time_elapsed": 146181, "internal_node_id": "0.0-4.0-21.0"}}, {"uniqueid": "w86099414:a90563344", "current_trial": 26, "dateTime": 1664464209038, "trialdata": {"rt": 1222, "stimulus": "<p id='stroop-text' class='stroop-green'>GREEN</p>", "response": "g", "stimulus-type": "congruent", "word": "green", "color": "green", "correct_response": "g", "trial_id": "stroop-trial-1-congruent-24", "trial_type": "html-keyboard-response", "trial_index": 26, "time_elapsed": 147906, "internal_node_id": "0.0-4.0-22.0"}}, {"uniqueid": "w86099414:a90563344", "current_trial": 27, "dateTime": 1664464210531, "trialdata": {"rt": 990, "stimulus": "<p id='stroop-text' class='stroop-blue'>YELLOW</p>", "response": "b", "stimulus-type": "incongruent", "word": "yellow", "color": "blue", "correct_response": "b", "trial_id": "stroop-trial-1-incongruent-23", "trial_type": "html-keyboard-response", "trial_index": 27, "time_elapsed": 149399, "internal_node_id": "0.0-4.0-23.0"}}, {"uniqueid": "w86099414:a90563344", "current_trial": 28, "dateTime": 1664464211838, "trialdata": {"rt": 804, "stimulus": "<p id='stroop-text' class='stroop-yellow'>YELLOW</p>", "response": "y", "stimulus-type": "congruent", "word": "yellow", "color": "yellow", "correct_response": "y", "trial_id": "stroop-trial-1-congruent-7", "trial_type": "html-keyboard-response", "trial_index": 28, "time_elapsed": 150706, "internal_node_id": "0.0-4.0-24.0"}}, {"uniqueid": "w86099414:a90563344", "current_trial": 29, "dateTime": 1664464213273, "trialdata": {"rt": 930, "stimulus": "<p id='stroop-text' class='stroop-green'>BOAT</p>", "response": "g", "stimulus-type": "unrelated", "word": "BOAT", "color": "green", "correct_response": "g", "trial_id": "stroop-trial-1-unrelated-23", "trial_type": "html-keyboard-response", "trial_index": 29, "time_elapsed": 152140, "internal_node_id": "0.0-4.0-25.0"}}, {"uniqueid": "w86099414:a90563344", "current_trial": 30, "dateTime": 1664464214543, "trialdata": {"rt": 767, "stimulus": "<p id='stroop-text' class='stroop-blue'>BLUE</p>", "response": "b", "stimulus-type": "congruent", "word": "blue", "color": "blue", "correct_response": "b", "trial_id": "stroop-trial-1-congruent-20", "trial_type": "html-keyboard-response", "trial_index": 30, "time_elapsed": 153410, "internal_node_id": "0.0-4.0-26.0"}}, {"uniqueid": "w86099414:a90563344", "current_trial": 31, "dateTime": 1664464216091, "trialdata": {"rt": 1046, "stimulus": "<p id='stroop-text' class='stroop-yellow'>YELLOW</p>", "response": "y", "stimulus-type": "congruent", "word": "yellow", "color": "yellow", "correct_response": "y", "trial_id": "stroop-trial-1-congruent-23", "trial_type": "html-keyboard-response", "trial_index": 31, "time_elapsed": 154959, "internal_node_id": "0.0-4.0-27.0"}}, {"uniqueid": "w86099414:a90563344", "current_trial": 32, "dateTime": 1664464218054, "trialdata": {"rt": 1460, "stimulus": "<p id='stroop-text' class='stroop-yellow'>BLUE</p>", "response": "y", "stimulus-type": "incongruent", "word": "blue", "color": "yellow", "correct_response": "y", "trial_id": "stroop-trial-1-incongruent-12", "trial_type": "html-keyboard-response", "trial_index": 32, "time_elapsed": 156922, "internal_node_id": "0.0-4.0-28.0"}}, {"uniqueid": "w86099414:a90563344", "current_trial": 33, "dateTime": 1664464219751, "trialdata": {"rt": 1194, "stimulus": "<p id='stroop-text' class='stroop-green'>RED</p>", "response": "g", "stimulus-type": "incongruent", "word": "red", "color": "green", "correct_response": "g", "trial_id": "stroop-trial-1-incongruent-8", "trial_type": "html-keyboard-response", "trial_index": 33, "time_elapsed": 158619, "internal_node_id": "0.0-4.0-29.0"}}, {"uniqueid": "w86099414:a90563344", "current_trial": 34, "dateTime": 1664464221359, "trialdata": {"rt": 1105, "stimulus": "<p id='stroop-text' class='stroop-blue'>YELLOW</p>", "response": "b", "stimulus-type": "incongruent", "word": "yellow", "color": "blue", "correct_response": "b", "trial_id": "stroop-trial-1-incongruent-30", "trial_type": "html-keyboard-response", "trial_index": 34, "time_elapsed": 160227, "internal_node_id": "0.0-4.0-30.0"}}, {"uniqueid": "w86099414:a90563344", "current_trial": 35, "dateTime": 1664464223362, "trialdata": {"rt": 1500, "stimulus": "<p id='stroop-text' class='stroop-blue'>BLUE</p>", "response": "b", "stimulus-type": "congruent", "word": "blue", "color": "blue", "correct_response": "b", "trial_id": "stroop-trial-1-congruent-11", "trial_type": "html-keyboard-response", "trial_index": 35, "time_elapsed": 162230, "internal_node_id": "0.0-4.0-31.0"}}, {"uniqueid": "w86099414:a90563344", "current_trial": 36, "dateTime": 1664464224566, "trialdata": {"rt": 701, "stimulus": "<p id='stroop-text' class='stroop-blue'>BLUE</p>", "response": "b", "stimulus-type": "congruent", "word": "blue", "color": "blue", "correct_response": "b", "trial_id": "stroop-trial-1-congruent-21", "trial_type": "html-keyboard-response", "trial_index": 36, "time_elapsed": 163433, "internal_node_id": "0.0-4.0-32.0"}}, {"uniqueid": "w86099414:a90563344", "current_trial": 37, "dateTime": 1664464226519, "trialdata": {"rt": 1451, "stimulus": "<p id='stroop-text' class='stroop-green'>RED</p>", "response": "g", "stimulus-type": "incongruent", "word": "red", "color": "green", "correct_response": "g", "trial_id": "stroop-trial-1-incongruent-7", "trial_type": "html-keyboard-response", "trial_index": 37, "time_elapsed": 165387, "internal_node_id": "0.0-4.0-33.0"}}, {"uniqueid": "w86099414:a90563344", "current_trial": 38, "dateTime": 1664464228224, "trialdata": {"rt": 1202, "stimulus": "<p id='stroop-text' class='stroop-green'>GREEN</p>", "response": "g", "stimulus-type": "congruent", "word": "green", "color": "green", "correct_response": "g", "trial_id": "stroop-trial-1-congruent-2", "trial_type": "html-keyboard-response", "trial_index": 38, "time_elapsed": 167092, "internal_node_id": "0.0-4.0-34.0"}}, {"uniqueid": "w86099414:a90563344", "current_trial": 39, "dateTime": 1664464229621, "trialdata": {"rt": 894, "stimulus": "<p id='stroop-text' class='stroop-blue'>GREEN</p>", "response": "b", "stimulus-type": "incongruent", "word": "green", "color": "blue", "correct_response": "b", "trial_id": "stroop-trial-1-incongruent-20", "trial_type": "html-keyboard-response", "trial_index": 39, "time_elapsed": 168489, "internal_node_id": "0.0-4.0-35.0"}}, {"uniqueid": "w86099414:a90563344", "current_trial": 40, "dateTime": 1664464231023, "trialdata": {"rt": 898, "stimulus": "<p id='stroop-text' class='stroop-blue'>BLUE</p>", "response": "b", "stimulus-type": "congruent", "word": "blue", "color": "blue", "correct_response": "b", "trial_id": "stroop-trial-1-congruent-6", "trial_type": "html-keyboard-response", "trial_index": 40, "time_elapsed": 169890, "internal_node_id": "0.0-4.0-36.0"}}, {"uniqueid": "w86099414:a90563344", "current_trial": 41, "dateTime": 1664464232252, "trialdata": {"rt": 726, "stimulus": "<p id='stroop-text' class='stroop-blue'>BRAIN</p>", "response": "b", "stimulus-type": "unrelated", "word": "BRAIN", "color": "blue", "correct_response": "b", "trial_id": "stroop-trial-1-unrelated-24", "trial_type": "html-keyboard-response", "trial_index": 41, "time_elapsed": 171119, "internal_node_id": "0.0-4.0-37.0"}}, {"uniqueid": "w86099414:a90563344", "current_trial": 42, "dateTime": 1664464233587, "trialdata": {"rt": 833, "stimulus": "<p id='stroop-text' class='stroop-blue'>BOAT</p>", "response": "b", "stimulus-type": "unrelated", "word": "BOAT", "color": "blue", "correct_response": "b", "trial_id": "stroop-trial-1-unrelated-30", "trial_type": "html-keyboard-response", "trial_index": 42, "time_elapsed": 172455, "internal_node_id": "0.0-4.0-38.0"}}, {"uniqueid": "w86099414:a90563344", "current_trial": 43, "dateTime": 1664464234971, "trialdata": {"rt": 880, "stimulus": "<p id='stroop-text' class='stroop-green'>FORK</p>", "response": "g", "stimulus-type": "unrelated", "word": "FORK", "color": "green", "correct_response": "g", "trial_id": "stroop-trial-1-unrelated-27", "trial_type": "html-keyboard-response", "trial_index": 43, "time_elapsed": 173838, "internal_node_id": "0.0-4.0-39.0"}}, {"uniqueid": "w86099414:a90563344", "current_trial": 44, "dateTime": 1664464236402, "trialdata": {"rt": 928, "stimulus": "<p id='stroop-text' class='stroop-green'>BRAIN</p>", "response": "g", "stimulus-type": "unrelated", "word": "BRAIN", "color": "green", "correct_response": "g", "trial_id": "stroop-trial-1-unrelated-22", "trial_type": "html-keyboard-response", "trial_index": 44, "time_elapsed": 175269, "internal_node_id": "0.0-4.0-40.0"}}, {"uniqueid": "w86099414:a90563344", "current_trial": 45, "dateTime": 1664464237723, "trialdata": {"rt": 818, "stimulus": "<p id='stroop-text' class='stroop-yellow'>YELLOW</p>", "response": "y", "stimulus-type": "congruent", "word": "yellow", "color": "yellow", "correct_response": "y", "trial_id": "stroop-trial-1-congruent-15", "trial_type": "html-keyboard-response", "trial_index": 45, "time_elapsed": 176590, "internal_node_id": "0.0-4.0-41.0"}}, {"uniqueid": "w86099414:a90563344", "current_trial": 46, "dateTime": 1664464238949, "trialdata": {"rt": 723, "stimulus": "<p id='stroop-text' class='stroop-red'>GREEN</p>", "response": "r", "stimulus-type": "incongruent", "word": "green", "color": "red", "correct_response": "r", "trial_id": "stroop-trial-1-incongruent-25", "trial_type": "html-keyboard-response", "trial_index": 46, "time_elapsed": 177817, "internal_node_id": "0.0-4.0-42.0"}}, {"uniqueid": "w86099414:a90563344", "current_trial": 47, "dateTime": 1664464240371, "trialdata": {"rt": 919, "stimulus": "<p id='stroop-text' class='stroop-green'>GREEN</p>", "response": "g", "stimulus-type": "congruent", "word": "green", "color": "green", "correct_response": "g", "trial_id": "stroop-trial-1-congruent-17", "trial_type": "html-keyboard-response", "trial_index": 47, "time_elapsed": 179239, "internal_node_id": "0.0-4.0-43.0"}}, {"uniqueid": "w86099414:a90563344", "current_trial": 48, "dateTime": 1664464242032, "trialdata": {"rt": 1158, "stimulus": "<p id='stroop-text' class='stroop-blue'>CHAIR</p>", "response": "b", "stimulus-type": "unrelated", "word": "CHAIR", "color": "blue", "correct_response": "b", "trial_id": "stroop-trial-1-unrelated-2", "trial_type": "html-keyboard-response", "trial_index": 48, "time_elapsed": 180898, "internal_node_id": "0.0-4.0-44.0"}}, {"uniqueid": "w86099414:a90563344", "current_trial": 49, "dateTime": 1664464243440, "trialdata": {"rt": 905, "stimulus": "<p id='stroop-text' class='stroop-green'>CHAIR</p>", "response": "g", "stimulus-type": "unrelated", "word": "CHAIR", "color": "green", "correct_response": "g", "trial_id": "stroop-trial-1-unrelated-28", "trial_type": "html-keyboard-response", "trial_index": 49, "time_elapsed": 182307, "internal_node_id": "0.0-4.0-45.0"}}, {"uniqueid": "w86099414:a90563344", "current_trial": 50, "dateTime": 1664464244901, "trialdata": {"rt": 959, "stimulus": "<p id='stroop-text' class='stroop-yellow'>STONE</p>", "response": "y", "stimulus-type": "unrelated", "word": "STONE", "color": "yellow", "correct_response": "y", "trial_id": "stroop-trial-1-unrelated-10", "trial_type": "html-keyboard-response", "trial_index": 50, "time_elapsed": 183769, "internal_node_id": "0.0-4.0-46.0"}}, {"uniqueid": "w86099414:a90563344", "current_trial": 51, "dateTime": 1664464246107, "trialdata": {"rt": 702, "stimulus": "<p id='stroop-text' class='stroop-yellow'>BLUE</p>", "response": "y", "stimulus-type": "incongruent", "word": "blue", "color": "yellow", "correct_response": "y", "trial_id": "stroop-trial-1-incongruent-13", "trial_type": "html-keyboard-response", "trial_index": 51, "time_elapsed": 184975, "internal_node_id": "0.0-4.0-47.0"}}, {"uniqueid": "w86099414:a90563344", "current_trial": 52, "dateTime": 1664464247560, "trialdata": {"rt": 949, "stimulus": "<p id='stroop-text' class='stroop-green'>BLUE</p>", "response": "g", "stimulus-type": "incongruent", "word": "blue", "color": "green", "correct_response": "g", "trial_id": "stroop-trial-1-incongruent-22", "trial_type": "html-keyboard-response", "trial_index": 52, "time_elapsed": 186427, "internal_node_id": "0.0-4.0-48.0"}}, {"uniqueid": "w86099414:a90563344", "current_trial": 53, "dateTime": 1664464249074, "trialdata": {"rt": 1011, "stimulus": "<p id='stroop-text' class='stroop-yellow'>YELLOW</p>", "response": "y", "stimulus-type": "congruent", "word": "yellow", "color": "yellow", "correct_response": "y", "trial_id": "stroop-trial-1-congruent-29", "trial_type": "html-keyboard-response", "trial_index": 53, "time_elapsed": 187941, "internal_node_id": "0.0-4.0-49.0"}}, {"uniqueid": "w86099414:a90563344", "current_trial": 54, "dateTime": 1664464250134, "trialdata": {"rt": 558, "stimulus": "<p id='stroop-text' class='stroop-yellow'>BLUE</p>", "response": "y", "stimulus-type": "incongruent", "word": "blue", "color": "yellow", "correct_response": "y", "trial_id": "stroop-trial-1-incongruent-27", "trial_type": "html-keyboard-response", "trial_index": 54, "time_elapsed": 189002, "internal_node_id": "0.0-4.0-50.0"}}, {"uniqueid": "w86099414:a90563344", "current_trial": 55, "dateTime": 1664464251494, "trialdata": {"rt": 857, "stimulus": "<p id='stroop-text' class='stroop-red'>BRIDGE</p>", "response": "r", "stimulus-type": "unrelated", "word": "BRIDGE", "color": "red", "correct_response": "r", "trial_id": "stroop-trial-1-unrelated-13", "trial_type": "html-keyboard-response", "trial_index": 55, "time_elapsed": 190362, "internal_node_id": "0.0-4.0-51.0"}}, {"uniqueid": "w86099414:a90563344", "current_trial": 56, "dateTime": 1664464252843, "trialdata": {"rt": 845, "stimulus": "<p id='stroop-text' class='stroop-yellow'>BLUE</p>", "response": "y", "stimulus-type": "incongruent", "word": "blue", "color": "yellow", "correct_response": "y", "trial_id": "stroop-trial-1-incongruent-11", "trial_type": "html-keyboard-response", "trial_index": 56, "time_elapsed": 191711, "internal_node_id": "0.0-4.0-52.0"}}, {"uniqueid": "w86099414:a90563344", "current_trial": 57, "dateTime": 1664464254134, "trialdata": {"rt": 787, "stimulus": "<p id='stroop-text' class='stroop-green'>RED</p>", "response": "g", "stimulus-type": "incongruent", "word": "red", "color": "green", "correct_response": "g", "trial_id": "stroop-trial-1-incongruent-28", "trial_type": "html-keyboard-response", "trial_index": 57, "time_elapsed": 193001, "internal_node_id": "0.0-4.0-53.0"}}, {"uniqueid": "w86099414:a90563344", "current_trial": 58, "dateTime": 1664464255556, "trialdata": {"rt": 919, "stimulus": "<p id='stroop-text' class='stroop-green'>BRIDGE</p>", "response": "g", "stimulus-type": "unrelated", "word": "BRIDGE", "color": "green", "correct_response": "g", "trial_id": "stroop-trial-1-unrelated-8", "trial_type": "html-keyboard-response", "trial_index": 58, "time_elapsed": 194424, "internal_node_id": "0.0-4.0-54.0"}}, {"uniqueid": "w86099414:a90563344", "current_trial": 59, "dateTime": 1664464257120, "trialdata": {"rt": 1060, "stimulus": "<p id='stroop-text' class='stroop-red'>BLUE</p>", "response": "r", "stimulus-type": "incongruent", "word": "blue", "color": "red", "correct_response": "r", "trial_id": "stroop-trial-1-incongruent-10", "trial_type": "html-keyboard-response", "trial_index": 59, "time_elapsed": 195988, "internal_node_id": "0.0-4.0-55.0"}}, {"uniqueid": "w86099414:a90563344", "current_trial": 60, "dateTime": 1664464258589, "trialdata": {"rt": 966, "stimulus": "<p id='stroop-text' class='stroop-blue'>BLUE</p>", "response": "b", "stimulus-type": "congruent", "word": "blue", "color": "blue", "correct_response": "b", "trial_id": "stroop-trial-1-congruent-1", "trial_type": "html-keyboard-response", "trial_index": 60, "time_elapsed": 197457, "internal_node_id": "0.0-4.0-56.0"}}, {"uniqueid": "w86099414:a90563344", "current_trial": 61, "dateTime": 1664464260184, "trialdata": {"rt": 1091, "stimulus": "<p id='stroop-text' class='stroop-blue'>BRIDGE</p>", "response": "b", "stimulus-type": "unrelated", "word": "BRIDGE", "color": "blue", "correct_response": "b", "trial_id": "stroop-trial-1-unrelated-5", "trial_type": "html-keyboard-response", "trial_index": 61, "time_elapsed": 199051, "internal_node_id": "0.0-4.0-57.0"}}, {"uniqueid": "w86099414:a90563344", "current_trial": 62, "dateTime": 1664464261610, "trialdata": {"rt": 922, "stimulus": "<p id='stroop-text' class='stroop-green'>BLUE</p>", "response": "g", "stimulus-type": "incongruent", "word": "blue", "color": "green", "correct_response": "g", "trial_id": "stroop-trial-1-incongruent-17", "trial_type": "html-keyboard-response", "trial_index": 62, "time_elapsed": 200478, "internal_node_id": "0.0-4.0-58.0"}}, {"uniqueid": "w86099414:a90563344", "current_trial": 63, "dateTime": 1664464262901, "trialdata": {"rt": 787, "stimulus": "<p id='stroop-text' class='stroop-red'>BOAT</p>", "response": "r", "stimulus-type": "unrelated", "word": "BOAT", "color": "red", "correct_response": "r", "trial_id": "stroop-trial-1-unrelated-21", "trial_type": "html-keyboard-response", "trial_index": 63, "time_elapsed": 201768, "internal_node_id": "0.0-4.0-59.0"}}, {"uniqueid": "w86099414:a90563344", "current_trial": 64, "dateTime": 1664464264188, "trialdata": {"rt": 784, "stimulus": "<p id='stroop-text' class='stroop-yellow'>DOG</p>", "response": "y", "stimulus-type": "unrelated", "word": "DOG", "color": "yellow", "correct_response": "y", "trial_id": "stroop-trial-1-unrelated-1", "trial_type": "html-keyboard-response", "trial_index": 64, "time_elapsed": 203056, "internal_node_id": "0.0-4.0-60.0"}}, {"uniqueid": "w86099414:a90563344", "current_trial": 65, "dateTime": 1664464265400, "trialdata": {"rt": 708, "stimulus": "<p id='stroop-text' class='stroop-red'>BOAT</p>", "response": "r", "stimulus-type": "unrelated", "word": "BOAT", "color": "red", "correct_response": "r", "trial_id": "stroop-trial-1-unrelated-12", "trial_type": "html-keyboard-response", "trial_index": 65, "time_elapsed": 204267, "internal_node_id": "0.0-4.0-61.0"}}, {"uniqueid": "w86099414:a90563344", "current_trial": 66, "dateTime": 1664464266556, "trialdata": {"rt": 652, "stimulus": "<p id='stroop-text' class='stroop-red'>RED</p>", "response": "r", "stimulus-type": "congruent", "word": "red", "color": "red", "correct_response": "r", "trial_id": "stroop-trial-1-congruent-12", "trial_type": "html-keyboard-response", "trial_index": 66, "time_elapsed": 205423, "internal_node_id": "0.0-4.0-62.0"}}, {"uniqueid": "w86099414:a90563344", "current_trial": 67, "dateTime": 1664464268109, "trialdata": {"rt": 1049, "stimulus": "<p id='stroop-text' class='stroop-yellow'>BLUE</p>", "response": "y", "stimulus-type": "incongruent", "word": "blue", "color": "yellow", "correct_response": "y", "trial_id": "stroop-trial-1-incongruent-9", "trial_type": "html-keyboard-response", "trial_index": 67, "time_elapsed": 206976, "internal_node_id": "0.0-4.0-63.0"}}, {"uniqueid": "w86099414:a90563344", "current_trial": 68, "dateTime": 1664464269918, "trialdata": {"rt": 1304, "stimulus": "<p id='stroop-text' class='stroop-blue'>BLUE</p>", "response": "b", "stimulus-type": "congruent", "word": "blue", "color": "blue", "correct_response": "b", "trial_id": "stroop-trial-1-congruent-14", "trial_type": "html-keyboard-response", "trial_index": 68, "time_elapsed": 208786, "internal_node_id": "0.0-4.0-64.0"}}, {"uniqueid": "w86099414:a90563344", "current_trial": 69, "dateTime": 1664464271159, "trialdata": {"rt": 739, "stimulus": "<p id='stroop-text' class='stroop-blue'>BLUE</p>", "response": "b", "stimulus-type": "congruent", "word": "blue", "color": "blue", "correct_response": "b", "trial_id": "stroop-trial-1-congruent-19", "trial_type": "html-keyboard-response", "trial_index": 69, "time_elapsed": 210027, "internal_node_id": "0.0-4.0-65.0"}}, {"uniqueid": "w86099414:a90563344", "current_trial": 70, "dateTime": 1664464272647, "trialdata": {"rt": 985, "stimulus": "<p id='stroop-text' class='stroop-green'>BOTTLE</p>", "response": "g", "stimulus-type": "unrelated", "word": "BOTTLE", "color": "green", "correct_response": "g", "trial_id": "stroop-trial-1-unrelated-18", "trial_type": "html-keyboard-response", "trial_index": 70, "time_elapsed": 211515, "internal_node_id": "0.0-4.0-66.0"}}, {"uniqueid": "w86099414:a90563344", "current_trial": 71, "dateTime": 1664464274070, "trialdata": {"rt": 920, "stimulus": "<p id='stroop-text' class='stroop-yellow'>YELLOW</p>", "response": "y", "stimulus-type": "congruent", "word": "yellow", "color": "yellow", "correct_response": "y", "trial_id": "stroop-trial-1-congruent-18", "trial_type": "html-keyboard-response", "trial_index": 71, "time_elapsed": 212938, "internal_node_id": "0.0-4.0-67.0"}}, {"uniqueid": "w86099414:a90563344", "current_trial": 72, "dateTime": 1664464275279, "trialdata": {"rt": 705, "stimulus": "<p id='stroop-text' class='stroop-yellow'>STONE</p>", "response": "y", "stimulus-type": "unrelated", "word": "STONE", "color": "yellow", "correct_response": "y", "trial_id": "stroop-trial-1-unrelated-14", "trial_type": "html-keyboard-response", "trial_index": 72, "time_elapsed": 214146, "internal_node_id": "0.0-4.0-68.0"}}, {"uniqueid": "w86099414:a90563344", "current_trial": 73, "dateTime": 1664464276644, "trialdata": {"rt": 863, "stimulus": "<p id='stroop-text' class='stroop-red'>YELLOW</p>", "response": "r", "stimulus-type": "incongruent", "word": "yellow", "color": "red", "correct_response": "r", "trial_id": "stroop-trial-1-incongruent-19", "trial_type": "html-keyboard-response", "trial_index": 73, "time_elapsed": 215512, "internal_node_id": "0.0-4.0-69.0"}}, {"uniqueid": "w86099414:a90563344", "current_trial": 74, "dateTime": 1664464277933, "trialdata": {"rt": 785, "stimulus": "<p id='stroop-text' class='stroop-red'>FORK</p>", "response": "r", "stimulus-type": "unrelated", "word": "FORK", "color": "red", "correct_response": "r", "trial_id": "stroop-trial-1-unrelated-6", "trial_type": "html-keyboard-response", "trial_index": 74, "time_elapsed": 216801, "internal_node_id": "0.0-4.0-70.0"}}, {"uniqueid": "w86099414:a90563344", "current_trial": 75, "dateTime": 1664464279336, "trialdata": {"rt": 900, "stimulus": "<p id='stroop-text' class='stroop-green'>GREEN</p>", "response": "g", "stimulus-type": "congruent", "word": "green", "color": "green", "correct_response": "g", "trial_id": "stroop-trial-1-congruent-22", "trial_type": "html-keyboard-response", "trial_index": 75, "time_elapsed": 218204, "internal_node_id": "0.0-4.0-71.0"}}, {"uniqueid": "w86099414:a90563344", "current_trial": 76, "dateTime": 1664464280557, "trialdata": {"rt": 707, "stimulus": "<p id='stroop-text' class='stroop-green'>BLUE</p>", "response": "g", "stimulus-type": "incongruent", "word": "blue", "color": "green", "correct_response": "g", "trial_id": "stroop-trial-1-incongruent-21", "trial_type": "html-keyboard-response", "trial_index": 76, "time_elapsed": 219425, "internal_node_id": "0.0-4.0-72.0"}}, {"uniqueid": "w86099414:a90563344", "current_trial": 77, "dateTime": 1664464281814, "trialdata": {"rt": 754, "stimulus": "<p id='stroop-text' class='stroop-red'>FORK</p>", "response": "r", "stimulus-type": "unrelated", "word": "FORK", "color": "red", "correct_response": "r", "trial_id": "stroop-trial-1-unrelated-26", "trial_type": "html-keyboard-response", "trial_index": 77, "time_elapsed": 220682, "internal_node_id": "0.0-4.0-73.0"}}, {"uniqueid": "w86099414:a90563344", "current_trial": 78, "dateTime": 1664464283065, "trialdata": {"rt": 748, "stimulus": "<p id='stroop-text' class='stroop-red'>RED</p>", "response": "r", "stimulus-type": "congruent", "word": "red", "color": "red", "correct_response": "r", "trial_id": "stroop-trial-1-congruent-9", "trial_type": "html-keyboard-response", "trial_index": 78, "time_elapsed": 221932, "internal_node_id": "0.0-4.0-74.0"}}, {"uniqueid": "w86099414:a90563344", "current_trial": 79, "dateTime": 1664464284488, "trialdata": {"rt": 920, "stimulus": "<p id='stroop-text' class='stroop-blue'>RED</p>", "response": "b", "stimulus-type": "incongruent", "word": "red", "color": "blue", "correct_response": "b", "trial_id": "stroop-trial-1-incongruent-29", "trial_type": "html-keyboard-response", "trial_index": 79, "time_elapsed": 223356, "internal_node_id": "0.0-4.0-75.0"}}, {"uniqueid": "w86099414:a90563344", "current_trial": 80, "dateTime": 1664464286244, "trialdata": {"rt": 1252, "stimulus": "<p id='stroop-text' class='stroop-red'>YELLOW</p>", "response": "r", "stimulus-type": "incongruent", "word": "yellow", "color": "red", "correct_response": "r", "trial_id": "stroop-trial-1-incongruent-5", "trial_type": "html-keyboard-response", "trial_index": 80, "time_elapsed": 225112, "internal_node_id": "0.0-4.0-76.0"}}, {"uniqueid": "w86099414:a90563344", "current_trial": 81, "dateTime": 1664464287423, "trialdata": {"rt": 675, "stimulus": "<p id='stroop-text' class='stroop-red'>WINDOW</p>", "response": "r", "stimulus-type": "unrelated", "word": "WINDOW", "color": "red", "correct_response": "r", "trial_id": "stroop-trial-1-unrelated-11", "trial_type": "html-keyboard-response", "trial_index": 81, "time_elapsed": 226290, "internal_node_id": "0.0-4.0-77.0"}}, {"uniqueid": "w86099414:a90563344", "current_trial": 82, "dateTime": 1664464288832, "trialdata": {"rt": 906, "stimulus": "<p id='stroop-text' class='stroop-green'>SHIP</p>", "response": "g", "stimulus-type": "unrelated", "word": "SHIP", "color": "green", "correct_response": "g", "trial_id": "stroop-trial-1-unrelated-19", "trial_type": "html-keyboard-response", "trial_index": 82, "time_elapsed": 227700, "internal_node_id": "0.0-4.0-78.0"}}, {"uniqueid": "w86099414:a90563344", "current_trial": 83, "dateTime": 1664464290204, "trialdata": {"rt": 868, "stimulus": "<p id='stroop-text' class='stroop-green'>GREEN</p>", "response": "g", "stimulus-type": "congruent", "word": "green", "color": "green", "correct_response": "g", "trial_id": "stroop-trial-1-congruent-13", "trial_type": "html-keyboard-response", "trial_index": 83, "time_elapsed": 229071, "internal_node_id": "0.0-4.0-79.0"}}, {"uniqueid": "w86099414:a90563344", "current_trial": 84, "dateTime": 1664464291546, "trialdata": {"rt": 837, "stimulus": "<p id='stroop-text' class='stroop-blue'>BLUE</p>", "response": "b", "stimulus-type": "congruent", "word": "blue", "color": "blue", "correct_response": "b", "trial_id": "stroop-trial-1-congruent-3", "trial_type": "html-keyboard-response", "trial_index": 84, "time_elapsed": 230413, "internal_node_id": "0.0-4.0-80.0"}}, {"uniqueid": "w86099414:a90563344", "current_trial": 85, "dateTime": 1664464292694, "trialdata": {"rt": 645, "stimulus": "<p id='stroop-text' class='stroop-blue'>GREEN</p>", "response": "b", "stimulus-type": "incongruent", "word": "green", "color": "blue", "correct_response": "b", "trial_id": "stroop-trial-1-incongruent-18", "trial_type": "html-keyboard-response", "trial_index": 85, "time_elapsed": 231562, "internal_node_id": "0.0-4.0-81.0"}}, {"uniqueid": "w86099414:a90563344", "current_trial": 86, "dateTime": 1664464294124, "trialdata": {"rt": 927, "stimulus": "<p id='stroop-text' class='stroop-yellow'>BRIDGE</p>", "response": "y", "stimulus-type": "unrelated", "word": "BRIDGE", "color": "yellow", "correct_response": "y", "trial_id": "stroop-trial-1-unrelated-9", "trial_type": "html-keyboard-response", "trial_index": 86, "time_elapsed": 232992, "internal_node_id": "0.0-4.0-82.0"}}, {"uniqueid": "w86099414:a90563344", "current_trial": 87, "dateTime": 1664464295524, "trialdata": {"rt": 898, "stimulus": "<p id='stroop-text' class='stroop-green'>GREEN</p>", "response": "g", "stimulus-type": "congruent", "word": "green", "color": "green", "correct_response": "g", "trial_id": "stroop-trial-1-congruent-4", "trial_type": "html-keyboard-response", "trial_index": 87, "time_elapsed": 234392, "internal_node_id": "0.0-4.0-83.0"}}, {"uniqueid": "w86099414:a90563344", "current_trial": 88, "dateTime": 1664464296898, "trialdata": {"rt": 870, "stimulus": "<p id='stroop-text' class='stroop-yellow'>RED</p>", "response": "y", "stimulus-type": "incongruent", "word": "red", "color": "yellow", "correct_response": "y", "trial_id": "stroop-trial-1-incongruent-26", "trial_type": "html-keyboard-response", "trial_index": 88, "time_elapsed": 235766, "internal_node_id": "0.0-4.0-84.0"}}, {"uniqueid": "w86099414:a90563344", "current_trial": 89, "dateTime": 1664464298410, "trialdata": {"rt": 1009, "stimulus": "<p id='stroop-text' class='stroop-blue'>RED</p>", "response": "b", "stimulus-type": "incongruent", "word": "red", "color": "blue", "correct_response": "b", "trial_id": "stroop-trial-1-incongruent-1", "trial_type": "html-keyboard-response", "trial_index": 89, "time_elapsed": 237277, "internal_node_id": "0.0-4.0-85.0"}}, {"uniqueid": "w86099414:a90563344", "current_trial": 90, "dateTime": 1664464299662, "trialdata": {"rt": 747, "stimulus": "<p id='stroop-text' class='stroop-yellow'>YELLOW</p>", "response": "y", "stimulus-type": "congruent", "word": "yellow", "color": "yellow", "correct_response": "y", "trial_id": "stroop-trial-1-congruent-27", "trial_type": "html-keyboard-response", "trial_index": 90, "time_elapsed": 238529, "internal_node_id": "0.0-4.0-86.0"}}, {"uniqueid": "w86099414:a90563344", "current_trial": 91, "dateTime": 1664464301044, "trialdata": {"rt": 880, "stimulus": "<p id='stroop-text' class='stroop-green'>BRAIN</p>", "response": "g", "stimulus-type": "unrelated", "word": "BRAIN", "color": "green", "correct_response": "g", "trial_id": "stroop-trial-1-unrelated-7", "trial_type": "html-keyboard-response", "trial_index": 91, "time_elapsed": 239912, "internal_node_id": "0.0-4.0-87.0"}}, {"uniqueid": "w86099414:a90563344", "current_trial": 92, "dateTime": 1664464302400, "trialdata": {"rt": 853, "stimulus": "<p id='stroop-text' class='stroop-blue'>GREEN</p>", "response": "b", "stimulus-type": "incongruent", "word": "green", "color": "blue", "correct_response": "b", "trial_id": "stroop-trial-1-incongruent-14", "trial_type": "html-keyboard-response", "trial_index": 92, "time_elapsed": 241268, "internal_node_id": "0.0-4.0-88.0"}}, {"uniqueid": "w86099414:a90563344", "current_trial": 93, "dateTime": 1664464303959, "trialdata": {"rt": 1055, "stimulus": "<p id='stroop-text' class='stroop-green'>GREEN</p>", "response": "g", "stimulus-type": "congruent", "word": "green", "color": "green", "correct_response": "g", "trial_id": "stroop-trial-1-congruent-28", "trial_type": "html-keyboard-response", "trial_index": 93, "time_elapsed": 242827, "internal_node_id": "0.0-4.0-89.0"}}, {"uniqueid": "w86099414:a90563344", "current_trial": 94, "dateTime": 1664464354659, "trialdata": {"rt": 50194, "stimulus": "  <h1> End of block! </h1>\n\n  You have reached the end of the block 1/5. If you need a short break, feel free to take one now before moving on.\n\n  <br><br>\n  In the next block, you will complete another 90 rounds of this game.\n\n  <br><br>\n  <div style='text-align: center;'>Press <code>space</code> to begin.</div>\n  <br><br>\n<div style='text-align: center;'>(If the experiment doesn't continue, try clicking on the text and then pressing <code>space</code>.)</div>", "response": " ", "trial_id": "stroop_1_ready_2", "trial_type": "html-keyboard-response", "trial_index": 94, "time_elapsed": 293526, "internal_node_id": "0.0-5.0"}}, {"uniqueid": "w86099414:a90563344", "current_trial": 95, "dateTime": 1664464355743, "trialdata": {"rt": 1081, "stimulus": "<p id='stroop-text' class='stroop-blue'>RED</p>", "response": "b", "stimulus-type": "incongruent", "word": "red", "color": "blue", "correct_response": "b", "trial_id": "stroop-trial-1-incongruent-29", "trial_type": "html-keyboard-response", "trial_index": 95, "time_elapsed": 294611, "internal_node_id": "0.0-6.0-0.0"}}, {"uniqueid": "w86099414:a90563344", "current_trial": 96, "dateTime": 1664464357083, "trialdata": {"rt": 836, "stimulus": "<p id='stroop-text' class='stroop-yellow'>RED</p>", "response": "y", "stimulus-type": "incongruent", "word": "red", "color": "yellow", "correct_response": "y", "trial_id": "stroop-trial-1-incongruent-16", "trial_type": "html-keyboard-response", "trial_index": 96, "time_elapsed": 295951, "internal_node_id": "0.0-6.0-1.0"}}, {"uniqueid": "w86099414:a90563344", "current_trial": 97, "dateTime": 1664464358348, "trialdata": {"rt": 762, "stimulus": "<p id='stroop-text' class='stroop-green'>RED</p>", "response": "g", "stimulus-type": "incongruent", "word": "red", "color": "green", "correct_response": "g", "trial_id": "stroop-trial-1-incongruent-21", "trial_type": "html-keyboard-response", "trial_index": 97, "time_elapsed": 297216, "internal_node_id": "0.0-6.0-2.0"}}, {"uniqueid": "w86099414:a90563344", "current_trial": 98, "dateTime": 1664464359635, "trialdata": {"rt": 777, "stimulus": "<p id='stroop-text' class='stroop-yellow'>RED</p>", "response": "y", "stimulus-type": "incongruent", "word": "red", "color": "yellow", "correct_response": "y", "trial_id": "stroop-trial-1-incongruent-7", "trial_type": "html-keyboard-response", "trial_index": 98, "time_elapsed": 298503, "internal_node_id": "0.0-6.0-3.0"}}, {"uniqueid": "w86099414:a90563344", "current_trial": 99, "dateTime": 1664464360991, "trialdata": {"rt": 852, "stimulus": "<p id='stroop-text' class='stroop-red'>YELLOW</p>", "response": "r", "stimulus-type": "incongruent", "word": "yellow", "color": "red", "correct_response": "r", "trial_id": "stroop-trial-1-incongruent-13", "trial_type": "html-keyboard-response", "trial_index": 99, "time_elapsed": 299859, "internal_node_id": "0.0-6.0-4.0"}}, {"uniqueid": "w86099414:a90563344", "current_trial": 100, "dateTime": 1664464362487, "trialdata": {"rt": 994, "stimulus": "<p id='stroop-text' class='stroop-red'>MONKEY</p>", "response": "r", "stimulus-type": "unrelated", "word": "MONKEY", "color": "red", "correct_response": "r", "trial_id": "stroop-trial-1-unrelated-18", "trial_type": "html-keyboard-response", "trial_index": 100, "time_elapsed": 301354, "internal_node_id": "0.0-6.0-5.0"}}, {"uniqueid": "w86099414:a90563344", "current_trial": 101, "dateTime": 1664464363656, "trialdata": {"rt": 666, "stimulus": "<p id='stroop-text' class='stroop-yellow'>YELLOW</p>", "response": "y", "stimulus-type": "congruent", "word": "yellow", "color": "yellow", "correct_response": "y", "trial_id": "stroop-trial-1-congruent-9", "trial_type": "html-keyboard-response", "trial_index": 101, "time_elapsed": 302524, "internal_node_id": "0.0-6.0-6.0"}}, {"uniqueid": "w86099414:a90563344", "current_trial": 102, "dateTime": 1664464365110, "trialdata": {"rt": 950, "stimulus": "<p id='stroop-text' class='stroop-blue'>FORK</p>", "response": "b", "stimulus-type": "unrelated", "word": "FORK", "color": "blue", "correct_response": "b", "trial_id": "stroop-trial-1-unrelated-11", "trial_type": "html-keyboard-response", "trial_index": 102, "time_elapsed": 303978, "internal_node_id": "0.0-6.0-7.0"}}, {"uniqueid": "w86099414:a90563344", "current_trial": 103, "dateTime": 1664464366883, "trialdata": {"rt": 1270, "stimulus": "<p id='stroop-text' class='stroop-green'>YELLOW</p>", "response": "g", "stimulus-type": "incongruent", "word": "yellow", "color": "green", "correct_response": "g", "trial_id": "stroop-trial-1-incongruent-19", "trial_type": "html-keyboard-response", "trial_index": 103, "time_elapsed": 305751, "internal_node_id": "0.0-6.0-8.0"}}, {"uniqueid": "w86099414:a90563344", "current_trial": 104, "dateTime": 1664464368116, "trialdata": {"rt": 731, "stimulus": "<p id='stroop-text' class='stroop-red'>BOAT</p>", "response": "r", "stimulus-type": "unrelated", "word": "BOAT", "color": "red", "correct_response": "r", "trial_id": "stroop-trial-1-unrelated-5", "trial_type": "html-keyboard-response", "trial_index": 104, "time_elapsed": 306984, "internal_node_id": "0.0-6.0-9.0"}}, {"uniqueid": "w86099414:a90563344", "current_trial": 105, "dateTime": 1664464369432, "trialdata": {"rt": 812, "stimulus": "<p id='stroop-text' class='stroop-green'>GREEN</p>", "response": "g", "stimulus-type": "congruent", "word": "green", "color": "green", "correct_response": "g", "trial_id": "stroop-trial-1-congruent-25", "trial_type": "html-keyboard-response", "trial_index": 105, "time_elapsed": 308299, "internal_node_id": "0.0-6.0-10.0"}}, {"uniqueid": "w86099414:a90563344", "current_trial": 106, "dateTime": 1664464370714, "trialdata": {"rt": 778, "stimulus": "<p id='stroop-text' class='stroop-yellow'>YELLOW</p>", "response": "y", "stimulus-type": "congruent", "word": "yellow", "color": "yellow", "correct_response": "y", "trial_id": "stroop-trial-1-congruent-20", "trial_type": "html-keyboard-response", "trial_index": 106, "time_elapsed": 309582, "internal_node_id": "0.0-6.0-11.0"}}, {"uniqueid": "w86099414:a90563344", "current_trial": 107, "dateTime": 1664464371681, "trialdata": {"rt": 463, "stimulus": "<p id='stroop-text' class='stroop-yellow'>GREEN</p>", "response": "y", "stimulus-type": "incongruent", "word": "green", "color": "yellow", "correct_response": "y", "trial_id": "stroop-trial-1-incongruent-18", "trial_type": "html-keyboard-response", "trial_index": 107, "time_elapsed": 310549, "internal_node_id": "0.0-6.0-12.0"}}, {"uniqueid": "w86099414:a90563344", "current_trial": 108, "dateTime": 1664464373088, "trialdata": {"rt": 903, "stimulus": "<p id='stroop-text' class='stroop-red'>BLUE</p>", "response": "r", "stimulus-type": "incongruent", "word": "blue", "color": "red", "correct_response": "r", "trial_id": "stroop-trial-1-incongruent-1", "trial_type": "html-keyboard-response", "trial_index": 108, "time_elapsed": 311955, "internal_node_id": "0.0-6.0-13.0"}}, {"uniqueid": "w86099414:a90563344", "current_trial": 109, "dateTime": 1664464374381, "trialdata": {"rt": 785, "stimulus": "<p id='stroop-text' class='stroop-blue'>BLUE</p>", "response": "b", "stimulus-type": "congruent", "word": "blue", "color": "blue", "correct_response": "b", "trial_id": "stroop-trial-1-congruent-15", "trial_type": "html-keyboard-response", "trial_index": 109, "time_elapsed": 313248, "internal_node_id": "0.0-6.0-14.0"}}, {"uniqueid": "w86099414:a90563344", "current_trial": 110, "dateTime": 1664464375860, "trialdata": {"rt": 975, "stimulus": "<p id='stroop-text' class='stroop-yellow'>YELLOW</p>", "response": "y", "stimulus-type": "congruent", "word": "yellow", "color": "yellow", "correct_response": "y", "trial_id": "stroop-trial-1-congruent-10", "trial_type": "html-keyboard-response", "trial_index": 110, "time_elapsed": 314728, "internal_node_id": "0.0-6.0-15.0"}}, {"uniqueid": "w86099414:a90563344", "current_trial": 111, "dateTime": 1664464377228, "trialdata": {"rt": 864, "stimulus": "<p id='stroop-text' class='stroop-yellow'>YELLOW</p>", "response": "y", "stimulus-type": "congruent", "word": "yellow", "color": "yellow", "correct_response": "y", "trial_id": "stroop-trial-1-congruent-17", "trial_type": "html-keyboard-response", "trial_index": 111, "time_elapsed": 316096, "internal_node_id": "0.0-6.0-16.0"}}, {"uniqueid": "w86099414:a90563344", "current_trial": 112, "dateTime": 1664464379059, "trialdata": {"rt": 1327, "stimulus": "<p id='stroop-text' class='stroop-red'>FORK</p>", "response": "r", "stimulus-type": "unrelated", "word": "FORK", "color": "red", "correct_response": "r", "trial_id": "stroop-trial-1-unrelated-27", "trial_type": "html-keyboard-response", "trial_index": 112, "time_elapsed": 317926, "internal_node_id": "0.0-6.0-17.0"}}, {"uniqueid": "w86099414:a90563344", "current_trial": 113, "dateTime": 1664464380938, "trialdata": {"rt": 1376, "stimulus": "<p id='stroop-text' class='stroop-blue'>BLUE</p>", "response": "b", "stimulus-type": "congruent", "word": "blue", "color": "blue", "correct_response": "b", "trial_id": "stroop-trial-1-congruent-29", "trial_type": "html-keyboard-response", "trial_index": 113, "time_elapsed": 319806, "internal_node_id": "0.0-6.0-18.0"}}, {"uniqueid": "w86099414:a90563344", "current_trial": 114, "dateTime": 1664464382174, "trialdata": {"rt": 732, "stimulus": "<p id='stroop-text' class='stroop-blue'>RED</p>", "response": "b", "stimulus-type": "incongruent", "word": "red", "color": "blue", "correct_response": "b", "trial_id": "stroop-trial-1-incongruent-30", "trial_type": "html-keyboard-response", "trial_index": 114, "time_elapsed": 321041, "internal_node_id": "0.0-6.0-19.0"}}, {"uniqueid": "w86099414:a90563344", "current_trial": 115, "dateTime": 1664464383451, "trialdata": {"rt": 773, "stimulus": "<p id='stroop-text' class='stroop-red'>BOTTLE</p>", "response": "r", "stimulus-type": "unrelated", "word": "BOTTLE", "color": "red", "correct_response": "r", "trial_id": "stroop-trial-1-unrelated-23", "trial_type": "html-keyboard-response", "trial_index": 115, "time_elapsed": 322318, "internal_node_id": "0.0-6.0-20.0"}}, {"uniqueid": "w86099414:a90563344", "current_trial": 116, "dateTime": 1664464384791, "trialdata": {"rt": 837, "stimulus": "<p id='stroop-text' class='stroop-red'>RED</p>", "response": "r", "stimulus-type": "congruent", "word": "red", "color": "red", "correct_response": "r", "trial_id": "stroop-trial-1-congruent-2", "trial_type": "html-keyboard-response", "trial_index": 116, "time_elapsed": 323659, "internal_node_id": "0.0-6.0-21.0"}}, {"uniqueid": "w86099414:a90563344", "current_trial": 117, "dateTime": 1664464386356, "trialdata": {"rt": 1061, "stimulus": "<p id='stroop-text' class='stroop-blue'>BRAIN</p>", "response": "b", "stimulus-type": "unrelated", "word": "BRAIN", "color": "blue", "correct_response": "b", "trial_id": "stroop-trial-1-unrelated-7", "trial_type": "html-keyboard-response", "trial_index": 117, "time_elapsed": 325224, "internal_node_id": "0.0-6.0-22.0"}}, {"uniqueid": "w86099414:a90563344", "current_trial": 118, "dateTime": 1664464387607, "trialdata": {"rt": 748, "stimulus": "<p id='stroop-text' class='stroop-red'>BLUE</p>", "response": "r", "stimulus-type": "incongruent", "word": "blue", "color": "red", "correct_response": "r", "trial_id": "stroop-trial-1-incongruent-14", "trial_type": "html-keyboard-response", "trial_index": 118, "time_elapsed": 326475, "internal_node_id": "0.0-6.0-23.0"}}, {"uniqueid": "w86099414:a90563344", "current_trial": 119, "dateTime": 1664464388924, "trialdata": {"rt": 813, "stimulus": "<p id='stroop-text' class='stroop-green'>BRIDGE</p>", "response": "g", "stimulus-type": "unrelated", "word": "BRIDGE", "color": "green", "correct_response": "g", "trial_id": "stroop-trial-1-unrelated-26", "trial_type": "html-keyboard-response", "trial_index": 119, "time_elapsed": 327791, "internal_node_id": "0.0-6.0-24.0"}}, {"uniqueid": "w86099414:a90563344", "current_trial": 120, "dateTime": 1664464390199, "trialdata": {"rt": 772, "stimulus": "<p id='stroop-text' class='stroop-red'>RED</p>", "response": "r", "stimulus-type": "congruent", "word": "red", "color": "red", "correct_response": "r", "trial_id": "stroop-trial-1-congruent-28", "trial_type": "html-keyboard-response", "trial_index": 120, "time_elapsed": 329067, "internal_node_id": "0.0-6.0-25.0"}}, {"uniqueid": "w86099414:a90563344", "current_trial": 121, "dateTime": 1664464391516, "trialdata": {"rt": 812, "stimulus": "<p id='stroop-text' class='stroop-green'>YELLOW</p>", "response": "g", "stimulus-type": "incongruent", "word": "yellow", "color": "green", "correct_response": "g", "trial_id": "stroop-trial-1-incongruent-6", "trial_type": "html-keyboard-response", "trial_index": 121, "time_elapsed": 330384, "internal_node_id": "0.0-6.0-26.0"}}, {"uniqueid": "w86099414:a90563344", "current_trial": 122, "dateTime": 1664464393073, "trialdata": {"rt": 1054, "stimulus": "<p id='stroop-text' class='stroop-blue'>BOAT</p>", "response": "b", "stimulus-type": "unrelated", "word": "BOAT", "color": "blue", "correct_response": "b", "trial_id": "stroop-trial-1-unrelated-20", "trial_type": "html-keyboard-response", "trial_index": 122, "time_elapsed": 331940, "internal_node_id": "0.0-6.0-27.0"}}, {"uniqueid": "w86099414:a90563344", "current_trial": 123, "dateTime": 1664464394370, "trialdata": {"rt": 795, "stimulus": "<p id='stroop-text' class='stroop-yellow'>BRIDGE</p>", "response": "y", "stimulus-type": "unrelated", "word": "BRIDGE", "color": "yellow", "correct_response": "y", "trial_id": "stroop-trial-1-unrelated-21", "trial_type": "html-keyboard-response", "trial_index": 123, "time_elapsed": 333238, "internal_node_id": "0.0-6.0-28.0"}}, {"uniqueid": "w86099414:a90563344", "current_trial": 124, "dateTime": 1664464395603, "trialdata": {"rt": 728, "stimulus": "<p id='stroop-text' class='stroop-red'>BLUE</p>", "response": "r", "stimulus-type": "incongruent", "word": "blue", "color": "red", "correct_response": "r", "trial_id": "stroop-trial-1-incongruent-17", "trial_type": "html-keyboard-response", "trial_index": 124, "time_elapsed": 334471, "internal_node_id": "0.0-6.0-29.0"}}, {"uniqueid": "w86099414:a90563344", "current_trial": 125, "dateTime": 1664464396955, "trialdata": {"rt": 848, "stimulus": "<p id='stroop-text' class='stroop-blue'>BLUE</p>", "response": "b", "stimulus-type": "congruent", "word": "blue", "color": "blue", "correct_response": "b", "trial_id": "stroop-trial-1-congruent-23", "trial_type": "html-keyboard-response", "trial_index": 125, "time_elapsed": 335822, "internal_node_id": "0.0-6.0-30.0"}}, {"uniqueid": "w86099414:a90563344", "current_trial": 126, "dateTime": 1664464398149, "trialdata": {"rt": 692, "stimulus": "<p id='stroop-text' class='stroop-red'>RED</p>", "response": "r", "stimulus-type": "congruent", "word": "red", "color": "red", "correct_response": "r", "trial_id": "stroop-trial-1-congruent-30", "trial_type": "html-keyboard-response", "trial_index": 126, "time_elapsed": 337017, "internal_node_id": "0.0-6.0-31.0"}}, {"uniqueid": "w86099414:a90563344", "current_trial": 127, "dateTime": 1664464399409, "trialdata": {"rt": 757, "stimulus": "<p id='stroop-text' class='stroop-blue'>BLUE</p>", "response": "b", "stimulus-type": "congruent", "word": "blue", "color": "blue", "correct_response": "b", "trial_id": "stroop-trial-1-congruent-5", "trial_type": "html-keyboard-response", "trial_index": 127, "time_elapsed": 338277, "internal_node_id": "0.0-6.0-32.0"}}, {"uniqueid": "w86099414:a90563344", "current_trial": 128, "dateTime": 1664464400624, "trialdata": {"rt": 710, "stimulus": "<p id='stroop-text' class='stroop-yellow'>RED</p>", "response": "y", "stimulus-type": "incongruent", "word": "red", "color": "yellow", "correct_response": "y", "trial_id": "stroop-trial-1-incongruent-15", "trial_type": "html-keyboard-response", "trial_index": 128, "time_elapsed": 339492, "internal_node_id": "0.0-6.0-33.0"}}, {"uniqueid": "w86099414:a90563344", "current_trial": 129, "dateTime": 1664464402185, "trialdata": {"rt": 1057, "stimulus": "<p id='stroop-text' class='stroop-yellow'>FORK</p>", "response": "y", "stimulus-type": "unrelated", "word": "FORK", "color": "yellow", "correct_response": "y", "trial_id": "stroop-trial-1-unrelated-9", "trial_type": "html-keyboard-response", "trial_index": 129, "time_elapsed": 341053, "internal_node_id": "0.0-6.0-34.0"}}, {"uniqueid": "w86099414:a90563344", "current_trial": 130, "dateTime": 1664464403327, "trialdata": {"rt": 637, "stimulus": "<p id='stroop-text' class='stroop-red'>BOTTLE</p>", "response": "r", "stimulus-type": "unrelated", "word": "BOTTLE", "color": "red", "correct_response": "r", "trial_id": "stroop-trial-1-unrelated-2", "trial_type": "html-keyboard-response", "trial_index": 130, "time_elapsed": 342194, "internal_node_id": "0.0-6.0-35.0"}}, {"uniqueid": "w86099414:a90563344", "current_trial": 131, "dateTime": 1664464404511, "trialdata": {"rt": 678, "stimulus": "<p id='stroop-text' class='stroop-red'>BLUE</p>", "response": "r", "stimulus-type": "incongruent", "word": "blue", "color": "red", "correct_response": "r", "trial_id": "stroop-trial-1-incongruent-5", "trial_type": "html-keyboard-response", "trial_index": 131, "time_elapsed": 343378, "internal_node_id": "0.0-6.0-36.0"}}, {"uniqueid": "w86099414:a90563344", "current_trial": 132, "dateTime": 1664464405464, "trialdata": {"rt": 450, "stimulus": "<p id='stroop-text' class='stroop-red'>GREEN</p>", "response": "r", "stimulus-type": "incongruent", "word": "green", "color": "red", "correct_response": "r", "trial_id": "stroop-trial-1-incongruent-25", "trial_type": "html-keyboard-response", "trial_index": 132, "time_elapsed": 344332, "internal_node_id": "0.0-6.0-37.0"}}, {"uniqueid": "w86099414:a90563344", "current_trial": 133, "dateTime": 1664464406624, "trialdata": {"rt": 657, "stimulus": "<p id='stroop-text' class='stroop-green'>RED</p>", "response": "g", "stimulus-type": "incongruent", "word": "red", "color": "green", "correct_response": "g", "trial_id": "stroop-trial-1-incongruent-9", "trial_type": "html-keyboard-response", "trial_index": 133, "time_elapsed": 345492, "internal_node_id": "0.0-6.0-38.0"}}, {"uniqueid": "w86099414:a90563344", "current_trial": 134, "dateTime": 1664464407710, "trialdata": {"rt": 580, "stimulus": "<p id='stroop-text' class='stroop-green'>GREEN</p>", "response": "g", "stimulus-type": "congruent", "word": "green", "color": "green", "correct_response": "g", "trial_id": "stroop-trial-1-congruent-16", "trial_type": "html-keyboard-response", "trial_index": 134, "time_elapsed": 346577, "internal_node_id": "0.0-6.0-39.0"}}, {"uniqueid": "w86099414:a90563344", "current_trial": 135, "dateTime": 1664464408855, "trialdata": {"rt": 640, "stimulus": "<p id='stroop-text' class='stroop-yellow'>YELLOW</p>", "response": "y", "stimulus-type": "congruent", "word": "yellow", "color": "yellow", "correct_response": "y", "trial_id": "stroop-trial-1-congruent-8", "trial_type": "html-keyboard-response", "trial_index": 135, "time_elapsed": 347723, "internal_node_id": "0.0-6.0-40.0"}}, {"uniqueid": "w86099414:a90563344", "current_trial": 136, "dateTime": 1664464410653, "trialdata": {"rt": 1294, "stimulus": "<p id='stroop-text' class='stroop-green'>BLUE</p>", "response": "g", "stimulus-type": "incongruent", "word": "blue", "color": "green", "correct_response": "g", "trial_id": "stroop-trial-1-incongruent-24", "trial_type": "html-keyboard-response", "trial_index": 136, "time_elapsed": 349521, "internal_node_id": "0.0-6.0-41.0"}}, {"uniqueid": "w86099414:a90563344", "current_trial": 137, "dateTime": 1664464412408, "trialdata": {"rt": 1251, "stimulus": "<p id='stroop-text' class='stroop-blue'>GREEN</p>", "response": "b", "stimulus-type": "incongruent", "word": "green", "color": "blue", "correct_response": "b", "trial_id": "stroop-trial-1-incongruent-23", "trial_type": "html-keyboard-response", "trial_index": 137, "time_elapsed": 351276, "internal_node_id": "0.0-6.0-42.0"}}, {"uniqueid": "w86099414:a90563344", "current_trial": 138, "dateTime": 1664464413728, "trialdata": {"rt": 815, "stimulus": "<p id='stroop-text' class='stroop-yellow'>MONKEY</p>", "response": "y", "stimulus-type": "unrelated", "word": "MONKEY", "color": "yellow", "correct_response": "y", "trial_id": "stroop-trial-1-unrelated-4", "trial_type": "html-keyboard-response", "trial_index": 138, "time_elapsed": 352596, "internal_node_id": "0.0-6.0-43.0"}}, {"uniqueid": "w86099414:a90563344", "current_trial": 139, "dateTime": 1664464415179, "trialdata": {"rt": 947, "stimulus": "<p id='stroop-text' class='stroop-green'>SHIP</p>", "response": "g", "stimulus-type": "unrelated", "word": "SHIP", "color": "green", "correct_response": "g", "trial_id": "stroop-trial-1-unrelated-16", "trial_type": "html-keyboard-response", "trial_index": 139, "time_elapsed": 354047, "internal_node_id": "0.0-6.0-44.0"}}, {"uniqueid": "w86099414:a90563344", "current_trial": 140, "dateTime": 1664464416446, "trialdata": {"rt": 763, "stimulus": "<p id='stroop-text' class='stroop-yellow'>BOAT</p>", "response": "y", "stimulus-type": "unrelated", "word": "BOAT", "color": "yellow", "correct_response": "y", "trial_id": "stroop-trial-1-unrelated-13", "trial_type": "html-keyboard-response", "trial_index": 140, "time_elapsed": 355314, "internal_node_id": "0.0-6.0-45.0"}}, {"uniqueid": "w86099414:a90563344", "current_trial": 141, "dateTime": 1664464417707, "trialdata": {"rt": 757, "stimulus": "<p id='stroop-text' class='stroop-blue'>MONKEY</p>", "response": "b", "stimulus-type": "unrelated", "word": "MONKEY", "color": "blue", "correct_response": "b", "trial_id": "stroop-trial-1-unrelated-17", "trial_type": "html-keyboard-response", "trial_index": 141, "time_elapsed": 356574, "internal_node_id": "0.0-6.0-46.0"}}, {"uniqueid": "w86099414:a90563344", "current_trial": 142, "dateTime": 1664464418944, "trialdata": {"rt": 719, "stimulus": "<p id='stroop-text' class='stroop-green'>GREEN</p>", "response": "g", "stimulus-type": "congruent", "word": "green", "color": "green", "correct_response": "g", "trial_id": "stroop-trial-1-congruent-26", "trial_type": "html-keyboard-response", "trial_index": 142, "time_elapsed": 357812, "internal_node_id": "0.0-6.0-47.0"}}, {"uniqueid": "w86099414:a90563344", "current_trial": 143, "dateTime": 1664464420445, "trialdata": {"rt": 997, "stimulus": "<p id='stroop-text' class='stroop-blue'>YELLOW</p>", "response": "b", "stimulus-type": "incongruent", "word": "yellow", "color": "blue", "correct_response": "b", "trial_id": "stroop-trial-1-incongruent-26", "trial_type": "html-keyboard-response", "trial_index": 143, "time_elapsed": 359313, "internal_node_id": "0.0-6.0-48.0"}}, {"uniqueid": "w86099414:a90563344", "current_trial": 144, "dateTime": 1664464421704, "trialdata": {"rt": 755, "stimulus": "<p id='stroop-text' class='stroop-yellow'>YELLOW</p>", "response": "y", "stimulus-type": "congruent", "word": "yellow", "color": "yellow", "correct_response": "y", "trial_id": "stroop-trial-1-congruent-19", "trial_type": "html-keyboard-response", "trial_index": 144, "time_elapsed": 360571, "internal_node_id": "0.0-6.0-49.0"}}, {"uniqueid": "w86099414:a90563344", "current_trial": 145, "dateTime": 1664464423150, "trialdata": {"rt": 930, "stimulus": "<p id='stroop-text' class='stroop-blue'>MONKEY</p>", "response": "b", "stimulus-type": "unrelated", "word": "MONKEY", "color": "blue", "correct_response": "b", "trial_id": "stroop-trial-1-unrelated-8", "trial_type": "html-keyboard-response", "trial_index": 145, "time_elapsed": 362018, "internal_node_id": "0.0-6.0-50.0"}}, {"uniqueid": "w86099414:a90563344", "current_trial": 146, "dateTime": 1664464424452, "trialdata": {"rt": 797, "stimulus": "<p id='stroop-text' class='stroop-green'>DOG</p>", "response": "g", "stimulus-type": "unrelated", "word": "DOG", "color": "green", "correct_response": "g", "trial_id": "stroop-trial-1-unrelated-29", "trial_type": "html-keyboard-response", "trial_index": 146, "time_elapsed": 363319, "internal_node_id": "0.0-6.0-51.0"}}, {"uniqueid": "w86099414:a90563344", "current_trial": 147, "dateTime": 1664464425743, "trialdata": {"rt": 787, "stimulus": "<p id='stroop-text' class='stroop-green'>GREEN</p>", "response": "g", "stimulus-type": "congruent", "word": "green", "color": "green", "correct_response": "g", "trial_id": "stroop-trial-1-congruent-1", "trial_type": "html-keyboard-response", "trial_index": 147, "time_elapsed": 364610, "internal_node_id": "0.0-6.0-52.0"}}, {"uniqueid": "w86099414:a90563344", "current_trial": 148, "dateTime": 1664464427263, "trialdata": {"rt": 1016, "stimulus": "<p id='stroop-text' class='stroop-yellow'>RED</p>", "response": "y", "stimulus-type": "incongruent", "word": "red", "color": "yellow", "correct_response": "y", "trial_id": "stroop-trial-1-incongruent-3", "trial_type": "html-keyboard-response", "trial_index": 148, "time_elapsed": 366131, "internal_node_id": "0.0-6.0-53.0"}}, {"uniqueid": "w86099414:a90563344", "current_trial": 149, "dateTime": 1664464428539, "trialdata": {"rt": 771, "stimulus": "<p id='stroop-text' class='stroop-green'>GREEN</p>", "response": "g", "stimulus-type": "congruent", "word": "green", "color": "green", "correct_response": "g", "trial_id": "stroop-trial-1-congruent-22", "trial_type": "html-keyboard-response", "trial_index": 149, "time_elapsed": 367406, "internal_node_id": "0.0-6.0-54.0"}}, {"uniqueid": "w86099414:a90563344", "current_trial": 150, "dateTime": 1664464430187, "trialdata": {"rt": 1145, "stimulus": "<p id='stroop-text' class='stroop-green'>BLUE</p>", "response": "g", "stimulus-type": "incongruent", "word": "blue", "color": "green", "correct_response": "g", "trial_id": "stroop-trial-1-incongruent-28", "trial_type": "html-keyboard-response", "trial_index": 150, "time_elapsed": 369054, "internal_node_id": "0.0-6.0-55.0"}}, {"uniqueid": "w86099414:a90563344", "current_trial": 151, "dateTime": 1664464431519, "trialdata": {"rt": 819, "stimulus": "<p id='stroop-text' class='stroop-yellow'>BRAIN</p>", "response": "y", "stimulus-type": "unrelated", "word": "BRAIN", "color": "yellow", "correct_response": "y", "trial_id": "stroop-trial-1-unrelated-28", "trial_type": "html-keyboard-response", "trial_index": 151, "time_elapsed": 370387, "internal_node_id": "0.0-6.0-56.0"}}, {"uniqueid": "w86099414:a90563344", "current_trial": 152, "dateTime": 1664464432775, "trialdata": {"rt": 751, "stimulus": "<p id='stroop-text' class='stroop-yellow'>BLUE</p>", "response": "y", "stimulus-type": "incongruent", "word": "blue", "color": "yellow", "correct_response": "y", "trial_id": "stroop-trial-1-incongruent-2", "trial_type": "html-keyboard-response", "trial_index": 152, "time_elapsed": 371642, "internal_node_id": "0.0-6.0-57.0"}}, {"uniqueid": "w86099414:a90563344", "current_trial": 153, "dateTime": 1664464434275, "trialdata": {"rt": 996, "stimulus": "<p id='stroop-text' class='stroop-green'>YELLOW</p>", "response": "g", "stimulus-type": "incongruent", "word": "yellow", "color": "green", "correct_response": "g", "trial_id": "stroop-trial-1-incongruent-8", "trial_type": "html-keyboard-response", "trial_index": 153, "time_elapsed": 373142, "internal_node_id": "0.0-6.0-58.0"}}, {"uniqueid": "w86099414:a90563344", "current_trial": 154, "dateTime": 1664464435557, "trialdata": {"rt": 777, "stimulus": "<p id='stroop-text' class='stroop-yellow'>BRIDGE</p>", "response": "y", "stimulus-type": "unrelated", "word": "BRIDGE", "color": "yellow", "correct_response": "y", "trial_id": "stroop-trial-1-unrelated-15", "trial_type": "html-keyboard-response", "trial_index": 154, "time_elapsed": 374424, "internal_node_id": "0.0-6.0-59.0"}}, {"uniqueid": "w86099414:a90563344", "current_trial": 155, "dateTime": 1664464437275, "trialdata": {"rt": 1216, "stimulus": "<p id='stroop-text' class='stroop-red'>CHAIR</p>", "response": "r", "stimulus-type": "unrelated", "word": "CHAIR", "color": "red", "correct_response": "r", "trial_id": "stroop-trial-1-unrelated-24", "trial_type": "html-keyboard-response", "trial_index": 155, "time_elapsed": 376143, "internal_node_id": "0.0-6.0-60.0"}}, {"uniqueid": "w86099414:a90563344", "current_trial": 156, "dateTime": 1664464438628, "trialdata": {"rt": 841, "stimulus": "<p id='stroop-text' class='stroop-green'>BOTTLE</p>", "response": "g", "stimulus-type": "unrelated", "word": "BOTTLE", "color": "green", "correct_response": "g", "trial_id": "stroop-trial-1-unrelated-6", "trial_type": "html-keyboard-response", "trial_index": 156, "time_elapsed": 377496, "internal_node_id": "0.0-6.0-61.0"}}, {"uniqueid": "w86099414:a90563344", "current_trial": 157, "dateTime": 1664464439635, "trialdata": {"rt": 495, "stimulus": "<p id='stroop-text' class='stroop-green'>GREEN</p>", "response": "g", "stimulus-type": "congruent", "word": "green", "color": "green", "correct_response": "g", "trial_id": "stroop-trial-1-congruent-27", "trial_type": "html-keyboard-response", "trial_index": 157, "time_elapsed": 378503, "internal_node_id": "0.0-6.0-62.0"}}, {"uniqueid": "w86099414:a90563344", "current_trial": 158, "dateTime": 1664464440795, "trialdata": {"rt": 656, "stimulus": "<p id='stroop-text' class='stroop-yellow'>YELLOW</p>", "response": "y", "stimulus-type": "congruent", "word": "yellow", "color": "yellow", "correct_response": "y", "trial_id": "stroop-trial-1-congruent-21", "trial_type": "html-keyboard-response", "trial_index": 158, "time_elapsed": 379663, "internal_node_id": "0.0-6.0-63.0"}}, {"uniqueid": "w86099414:a90563344", "current_trial": 159, "dateTime": 1664464442052, "trialdata": {"rt": 752, "stimulus": "<p id='stroop-text' class='stroop-green'>STONE</p>", "response": "g", "stimulus-type": "unrelated", "word": "STONE", "color": "green", "correct_response": "g", "trial_id": "stroop-trial-1-unrelated-10", "trial_type": "html-keyboard-response", "trial_index": 159, "time_elapsed": 380919, "internal_node_id": "0.0-6.0-64.0"}}, {"uniqueid": "w86099414:a90563344", "current_trial": 160, "dateTime": 1664464443314, "trialdata": {"rt": 758, "stimulus": "<p id='stroop-text' class='stroop-blue'>MONKEY</p>", "response": "b", "stimulus-type": "unrelated", "word": "MONKEY", "color": "blue", "correct_response": "b", "trial_id": "stroop-trial-1-unrelated-19", "trial_type": "html-keyboard-response", "trial_index": 160, "time_elapsed": 382182, "internal_node_id": "0.0-6.0-65.0"}}, {"uniqueid": "w86099414:a90563344", "current_trial": 161, "dateTime": 1664464444503, "trialdata": {"rt": 684, "stimulus": "<p id='stroop-text' class='stroop-red'>RED</p>", "response": "r", "stimulus-type": "congruent", "word": "red", "color": "red", "correct_response": "r", "trial_id": "stroop-trial-1-congruent-12", "trial_type": "html-keyboard-response", "trial_index": 161, "time_elapsed": 383371, "internal_node_id": "0.0-6.0-66.0"}}, {"uniqueid": "w86099414:a90563344", "current_trial": 162, "dateTime": 1664464446293, "trialdata": {"rt": 1286, "stimulus": "<p id='stroop-text' class='stroop-blue'>YELLOW</p>", "response": "b", "stimulus-type": "incongruent", "word": "yellow", "color": "blue", "correct_response": "b", "trial_id": "stroop-trial-1-incongruent-10", "trial_type": "html-keyboard-response", "trial_index": 162, "time_elapsed": 385161, "internal_node_id": "0.0-6.0-67.0"}}, {"uniqueid": "w86099414:a90563344", "current_trial": 163, "dateTime": 1664464447550, "trialdata": {"rt": 751, "stimulus": "<p id='stroop-text' class='stroop-red'>BRAIN</p>", "response": "r", "stimulus-type": "unrelated", "word": "BRAIN", "color": "red", "correct_response": "r", "trial_id": "stroop-trial-1-unrelated-14", "trial_type": "html-keyboard-response", "trial_index": 163, "time_elapsed": 386418, "internal_node_id": "0.0-6.0-68.0"}}, {"uniqueid": "w86099414:a90563344", "current_trial": 164, "dateTime": 1664464448581, "trialdata": {"rt": 528, "stimulus": "<p id='stroop-text' class='stroop-red'>SHIP</p>", "response": "r", "stimulus-type": "unrelated", "word": "SHIP", "color": "red", "correct_response": "r", "trial_id": "stroop-trial-1-unrelated-25", "trial_type": "html-keyboard-response", "trial_index": 164, "time_elapsed": 387448, "internal_node_id": "0.0-6.0-69.0"}}, {"uniqueid": "w86099414:a90563344", "current_trial": 165, "dateTime": 1664464449769, "trialdata": {"rt": 685, "stimulus": "<p id='stroop-text' class='stroop-yellow'>YELLOW</p>", "response": "y", "stimulus-type": "congruent", "word": "yellow", "color": "yellow", "correct_response": "y", "trial_id": "stroop-trial-1-congruent-24", "trial_type": "html-keyboard-response", "trial_index": 165, "time_elapsed": 388637, "internal_node_id": "0.0-6.0-70.0"}}, {"uniqueid": "w86099414:a90563344", "current_trial": 166, "dateTime": 1664464451370, "trialdata": {"rt": 1096, "stimulus": "<p id='stroop-text' class='stroop-red'>YELLOW</p>", "response": "r", "stimulus-type": "incongruent", "word": "yellow", "color": "red", "correct_response": "r", "trial_id": "stroop-trial-1-incongruent-22", "trial_type": "html-keyboard-response", "trial_index": 166, "time_elapsed": 390238, "internal_node_id": "0.0-6.0-71.0"}}, {"uniqueid": "w86099414:a90563344", "current_trial": 167, "dateTime": 1664464452616, "trialdata": {"rt": 742, "stimulus": "<p id='stroop-text' class='stroop-yellow'>YELLOW</p>", "response": "y", "stimulus-type": "congruent", "word": "yellow", "color": "yellow", "correct_response": "y", "trial_id": "stroop-trial-1-congruent-6", "trial_type": "html-keyboard-response", "trial_index": 167, "time_elapsed": 391483, "internal_node_id": "0.0-6.0-72.0"}}, {"uniqueid": "w86099414:a90563344", "current_trial": 168, "dateTime": 1664464453916, "trialdata": {"rt": 785, "stimulus": "<p id='stroop-text' class='stroop-green'>RED</p>", "response": "g", "stimulus-type": "incongruent", "word": "red", "color": "green", "correct_response": "g", "trial_id": "stroop-trial-1-incongruent-11", "trial_type": "html-keyboard-response", "trial_index": 168, "time_elapsed": 392784, "internal_node_id": "0.0-6.0-73.0"}}, {"uniqueid": "w86099414:a90563344", "current_trial": 169, "dateTime": 1664464455164, "trialdata": {"rt": 744, "stimulus": "<p id='stroop-text' class='stroop-yellow'>YELLOW</p>", "response": "y", "stimulus-type": "congruent", "word": "yellow", "color": "yellow", "correct_response": "y", "trial_id": "stroop-trial-1-congruent-4", "trial_type": "html-keyboard-response", "trial_index": 169, "time_elapsed": 394031, "internal_node_id": "0.0-6.0-74.0"}}, {"uniqueid": "w86099414:a90563344", "current_trial": 170, "dateTime": 1664464456439, "trialdata": {"rt": 771, "stimulus": "<p id='stroop-text' class='stroop-yellow'>YELLOW</p>", "response": "y", "stimulus-type": "congruent", "word": "yellow", "color": "yellow", "correct_response": "y", "trial_id": "stroop-trial-1-congruent-7", "trial_type": "html-keyboard-response", "trial_index": 170, "time_elapsed": 395306, "internal_node_id": "0.0-6.0-75.0"}}, {"uniqueid": "w86099414:a90563344", "current_trial": 171, "dateTime": 1664464458325, "trialdata": {"rt": 1381, "stimulus": "<p id='stroop-text' class='stroop-green'>GREEN</p>", "response": "g", "stimulus-type": "congruent", "word": "green", "color": "green", "correct_response": "g", "trial_id": "stroop-trial-1-congruent-18", "trial_type": "html-keyboard-response", "trial_index": 171, "time_elapsed": 397193, "internal_node_id": "0.0-6.0-76.0"}}, {"uniqueid": "w86099414:a90563344", "current_trial": 172, "dateTime": 1664464459646, "trialdata": {"rt": 817, "stimulus": "<p id='stroop-text' class='stroop-green'>MONKEY</p>", "response": "g", "stimulus-type": "unrelated", "word": "MONKEY", "color": "green", "correct_response": "g", "trial_id": "stroop-trial-1-unrelated-22", "trial_type": "html-keyboard-response", "trial_index": 172, "time_elapsed": 398514, "internal_node_id": "0.0-6.0-77.0"}}, {"uniqueid": "w86099414:a90563344", "current_trial": 173, "dateTime": 1664464460852, "trialdata": {"rt": 701, "stimulus": "<p id='stroop-text' class='stroop-yellow'>SHIP</p>", "response": "y", "stimulus-type": "unrelated", "word": "SHIP", "color": "yellow", "correct_response": "y", "trial_id": "stroop-trial-1-unrelated-3", "trial_type": "html-keyboard-response", "trial_index": 173, "time_elapsed": 399720, "internal_node_id": "0.0-6.0-78.0"}}, {"uniqueid": "w86099414:a90563344", "current_trial": 174, "dateTime": 1664464462058, "trialdata": {"rt": 702, "stimulus": "<p id='stroop-text' class='stroop-green'>BOTTLE</p>", "response": "g", "stimulus-type": "unrelated", "word": "BOTTLE", "color": "green", "correct_response": "g", "trial_id": "stroop-trial-1-unrelated-1", "trial_type": "html-keyboard-response", "trial_index": 174, "time_elapsed": 400926, "internal_node_id": "0.0-6.0-79.0"}}, {"uniqueid": "w86099414:a90563344", "current_trial": 175, "dateTime": 1664464463300, "trialdata": {"rt": 736, "stimulus": "<p id='stroop-text' class='stroop-blue'>GREEN</p>", "response": "b", "stimulus-type": "incongruent", "word": "green", "color": "blue", "correct_response": "b", "trial_id": "stroop-trial-1-incongruent-12", "trial_type": "html-keyboard-response", "trial_index": 175, "time_elapsed": 402168, "internal_node_id": "0.0-6.0-80.0"}}, {"uniqueid": "w86099414:a90563344", "current_trial": 176, "dateTime": 1664464464524, "trialdata": {"rt": 719, "stimulus": "<p id='stroop-text' class='stroop-red'>RED</p>", "response": "r", "stimulus-type": "congruent", "word": "red", "color": "red", "correct_response": "r", "trial_id": "stroop-trial-1-congruent-11", "trial_type": "html-keyboard-response", "trial_index": 176, "time_elapsed": 403392, "internal_node_id": "0.0-6.0-81.0"}}, {"uniqueid": "w86099414:a90563344", "current_trial": 177, "dateTime": 1664464465948, "trialdata": {"rt": 919, "stimulus": "<p id='stroop-text' class='stroop-green'>GREEN</p>", "response": "g", "stimulus-type": "congruent", "word": "green", "color": "green", "correct_response": "g", "trial_id": "stroop-trial-1-congruent-3", "trial_type": "html-keyboard-response", "trial_index": 177, "time_elapsed": 404815, "internal_node_id": "0.0-6.0-82.0"}}, {"uniqueid": "w86099414:a90563344", "current_trial": 178, "dateTime": 1664464466991, "trialdata": {"rt": 535, "stimulus": "<p id='stroop-text' class='stroop-green'>GREEN</p>", "response": "g", "stimulus-type": "congruent", "word": "green", "color": "green", "correct_response": "g", "trial_id": "stroop-trial-1-congruent-13", "trial_type": "html-keyboard-response", "trial_index": 178, "time_elapsed": 405859, "internal_node_id": "0.0-6.0-83.0"}}, {"uniqueid": "w86099414:a90563344", "current_trial": 179, "dateTime": 1664464468331, "trialdata": {"rt": 835, "stimulus": "<p id='stroop-text' class='stroop-red'>BLUE</p>", "response": "r", "stimulus-type": "incongruent", "word": "blue", "color": "red", "correct_response": "r", "trial_id": "stroop-trial-1-incongruent-20", "trial_type": "html-keyboard-response", "trial_index": 179, "time_elapsed": 407199, "internal_node_id": "0.0-6.0-84.0"}}, {"uniqueid": "w86099414:a90563344", "current_trial": 180, "dateTime": 1664464469645, "trialdata": {"rt": 811, "stimulus": "<p id='stroop-text' class='stroop-red'>YELLOW</p>", "response": "y", "stimulus-type": "incongruent", "word": "yellow", "color": "red", "correct_response": "r", "trial_id": "stroop-trial-1-incongruent-27", "trial_type": "html-keyboard-response", "trial_index": 180, "time_elapsed": 408513, "internal_node_id": "0.0-6.0-85.0"}}, {"uniqueid": "w86099414:a90563344", "current_trial": 181, "dateTime": 1664464471879, "trialdata": {"rt": 1727, "stimulus": "<p id='stroop-text' class='stroop-red'>SHIP</p>", "response": "r", "stimulus-type": "unrelated", "word": "SHIP", "color": "red", "correct_response": "r", "trial_id": "stroop-trial-1-unrelated-12", "trial_type": "html-keyboard-response", "trial_index": 181, "time_elapsed": 410747, "internal_node_id": "0.0-6.0-86.0"}}, {"uniqueid": "w86099414:a90563344", "current_trial": 182, "dateTime": 1664464474236, "trialdata": {"rt": 1852, "stimulus": "<p id='stroop-text' class='stroop-green'>CHAIR</p>", "response": "g", "stimulus-type": "unrelated", "word": "CHAIR", "color": "green", "correct_response": "g", "trial_id": "stroop-trial-1-unrelated-30", "trial_type": "html-keyboard-response", "trial_index": 182, "time_elapsed": 413104, "internal_node_id": "0.0-6.0-87.0"}}, {"uniqueid": "w86099414:a90563344", "current_trial": 183, "dateTime": 1664464475451, "trialdata": {"rt": 710, "stimulus": "<p id='stroop-text' class='stroop-red'>RED</p>", "response": "r", "stimulus-type": "congruent", "word": "red", "color": "red", "correct_response": "r", "trial_id": "stroop-trial-1-congruent-14", "trial_type": "html-keyboard-response", "trial_index": 183, "time_elapsed": 414318, "internal_node_id": "0.0-6.0-88.0"}}, {"uniqueid": "w86099414:a90563344", "current_trial": 184, "dateTime": 1664464476849, "trialdata": {"rt": 893, "stimulus": "<p id='stroop-text' class='stroop-blue'>GREEN</p>", "response": "b", "stimulus-type": "incongruent", "word": "green", "color": "blue", "correct_response": "b", "trial_id": "stroop-trial-1-incongruent-4", "trial_type": "html-keyboard-response", "trial_index": 184, "time_elapsed": 415717, "internal_node_id": "0.0-6.0-89.0"}}, {"uniqueid": "w86099414:a90563344", "current_trial": 185, "dateTime": 1664464488689, "trialdata": {"rt": 11335, "stimulus": "  <h1> End of block! </h1>\n\n  You have reached the end of the block 2/5. If you need a short break, feel free to take one now before moving on.\n\n  <br><br>\n  In the next block, you will complete another 90 rounds of this game.\n\n  <br><br>\n  <div style='text-align: center;'>Press <code>space</code> to begin.</div>\n  <br><br>\n<div style='text-align: center;'>(If the experiment doesn't continue, try clicking on the text and then pressing <code>space</code>.)</div>", "response": " ", "trial_id": "stroop_1_ready_3", "trial_type": "html-keyboard-response", "trial_index": 185, "time_elapsed": 427557, "internal_node_id": "0.0-7.0"}}, {"uniqueid": "w86099414:a90563344", "current_trial": 186, "dateTime": 1664464489701, "trialdata": {"rt": 1006, "stimulus": "<p id='stroop-text' class='stroop-red'>RED</p>", "response": "r", "stimulus-type": "congruent", "word": "red", "color": "red", "correct_response": "r", "trial_id": "stroop-trial-1-congruent-2", "trial_type": "html-keyboard-response", "trial_index": 186, "time_elapsed": 428568, "internal_node_id": "0.0-8.0-0.0"}}, {"uniqueid": "w86099414:a90563344", "current_trial": 187, "dateTime": 1664464491154, "trialdata": {"rt": 950, "stimulus": "<p id='stroop-text' class='stroop-blue'>MONKEY</p>", "response": "b", "stimulus-type": "unrelated", "word": "MONKEY", "color": "blue", "correct_response": "b", "trial_id": "stroop-trial-1-unrelated-13", "trial_type": "html-keyboard-response", "trial_index": 187, "time_elapsed": 430022, "internal_node_id": "0.0-8.0-1.0"}}, {"uniqueid": "w86099414:a90563344", "current_trial": 188, "dateTime": 1664464492167, "trialdata": {"rt": 508, "stimulus": "<p id='stroop-text' class='stroop-blue'>GREEN</p>", "response": "b", "stimulus-type": "incongruent", "word": "green", "color": "blue", "correct_response": "b", "trial_id": "stroop-trial-1-incongruent-14", "trial_type": "html-keyboard-response", "trial_index": 188, "time_elapsed": 431035, "internal_node_id": "0.0-8.0-2.0"}}, {"uniqueid": "w86099414:a90563344", "current_trial": 189, "dateTime": 1664464493375, "trialdata": {"rt": 700, "stimulus": "<p id='stroop-text' class='stroop-blue'>BLUE</p>", "response": "b", "stimulus-type": "congruent", "word": "blue", "color": "blue", "correct_response": "b", "trial_id": "stroop-trial-1-congruent-21", "trial_type": "html-keyboard-response", "trial_index": 189, "time_elapsed": 432242, "internal_node_id": "0.0-8.0-3.0"}}, {"uniqueid": "w86099414:a90563344", "current_trial": 190, "dateTime": 1664464495194, "trialdata": {"rt": 1315, "stimulus": "<p id='stroop-text' class='stroop-red'>GREEN</p>", "response": "r", "stimulus-type": "incongruent", "word": "green", "color": "red", "correct_response": "r", "trial_id": "stroop-trial-1-incongruent-15", "trial_type": "html-keyboard-response", "trial_index": 190, "time_elapsed": 434061, "internal_node_id": "0.0-8.0-4.0"}}, {"uniqueid": "w86099414:a90563344", "current_trial": 191, "dateTime": 1664464496246, "trialdata": {"rt": 547, "stimulus": "<p id='stroop-text' class='stroop-red'>RED</p>", "response": "r", "stimulus-type": "congruent", "word": "red", "color": "red", "correct_response": "r", "trial_id": "stroop-trial-1-congruent-8", "trial_type": "html-keyboard-response", "trial_index": 191, "time_elapsed": 435113, "internal_node_id": "0.0-8.0-5.0"}}, {"uniqueid": "w86099414:a90563344", "current_trial": 192, "dateTime": 1664464497939, "trialdata": {"rt": 1189, "stimulus": "<p id='stroop-text' class='stroop-green'>GREEN</p>", "response": "g", "stimulus-type": "congruent", "word": "green", "color": "green", "correct_response": "g", "trial_id": "stroop-trial-1-congruent-19", "trial_type": "html-keyboard-response", "trial_index": 192, "time_elapsed": 436806, "internal_node_id": "0.0-8.0-6.0"}}, {"uniqueid": "w86099414:a90563344", "current_trial": 193, "dateTime": 1664464499437, "trialdata": {"rt": 995, "stimulus": "<p id='stroop-text' class='stroop-yellow'>YELLOW</p>", "response": "y", "stimulus-type": "congruent", "word": "yellow", "color": "yellow", "correct_response": "y", "trial_id": "stroop-trial-1-congruent-16", "trial_type": "html-keyboard-response", "trial_index": 193, "time_elapsed": 438305, "internal_node_id": "0.0-8.0-7.0"}}, {"uniqueid": "w86099414:a90563344", "current_trial": 194, "dateTime": 1664464500722, "trialdata": {"rt": 780, "stimulus": "<p id='stroop-text' class='stroop-yellow'>DOG</p>", "response": "y", "stimulus-type": "unrelated", "word": "DOG", "color": "yellow", "correct_response": "y", "trial_id": "stroop-trial-1-unrelated-18", "trial_type": "html-keyboard-response", "trial_index": 194, "time_elapsed": 439590, "internal_node_id": "0.0-8.0-8.0"}}, {"uniqueid": "w86099414:a90563344", "current_trial": 195, "dateTime": 1664464501920, "trialdata": {"rt": 693, "stimulus": "<p id='stroop-text' class='stroop-red'>RED</p>", "response": "r", "stimulus-type": "congruent", "word": "red", "color": "red", "correct_response": "r", "trial_id": "stroop-trial-1-congruent-20", "trial_type": "html-keyboard-response", "trial_index": 195, "time_elapsed": 440787, "internal_node_id": "0.0-8.0-9.0"}}, {"uniqueid": "w86099414:a90563344", "current_trial": 196, "dateTime": 1664464503204, "trialdata": {"rt": 779, "stimulus": "<p id='stroop-text' class='stroop-yellow'>STONE</p>", "response": "y", "stimulus-type": "unrelated", "word": "STONE", "color": "yellow", "correct_response": "y", "trial_id": "stroop-trial-1-unrelated-21", "trial_type": "html-keyboard-response", "trial_index": 196, "time_elapsed": 442072, "internal_node_id": "0.0-8.0-10.0"}}, {"uniqueid": "w86099414:a90563344", "current_trial": 197, "dateTime": 1664464504457, "trialdata": {"rt": 748, "stimulus": "<p id='stroop-text' class='stroop-red'>BLUE</p>", "response": "r", "stimulus-type": "incongruent", "word": "blue", "color": "red", "correct_response": "r", "trial_id": "stroop-trial-1-incongruent-2", "trial_type": "html-keyboard-response", "trial_index": 197, "time_elapsed": 443324, "internal_node_id": "0.0-8.0-11.0"}}, {"uniqueid": "w86099414:a90563344", "current_trial": 198, "dateTime": 1664464505786, "trialdata": {"rt": 825, "stimulus": "<p id='stroop-text' class='stroop-blue'>DOG</p>", "response": "b", "stimulus-type": "unrelated", "word": "DOG", "color": "blue", "correct_response": "b", "trial_id": "stroop-trial-1-unrelated-26", "trial_type": "html-keyboard-response", "trial_index": 198, "time_elapsed": 444654, "internal_node_id": "0.0-8.0-12.0"}}, {"uniqueid": "w86099414:a90563344", "current_trial": 199, "dateTime": 1664464506944, "trialdata": {"rt": 652, "stimulus": "<p id='stroop-text' class='stroop-blue'>BLUE</p>", "response": "b", "stimulus-type": "congruent", "word": "blue", "color": "blue", "correct_response": "b", "trial_id": "stroop-trial-1-congruent-15", "trial_type": "html-keyboard-response", "trial_index": 199, "time_elapsed": 445811, "internal_node_id": "0.0-8.0-13.0"}}, {"uniqueid": "w86099414:a90563344", "current_trial": 200, "dateTime": 1664464508123, "trialdata": {"rt": 675, "stimulus": "<p id='stroop-text' class='stroop-yellow'>YELLOW</p>", "response": "y", "stimulus-type": "congruent", "word": "yellow", "color": "yellow", "correct_response": "y", "trial_id": "stroop-trial-1-congruent-3", "trial_type": "html-keyboard-response", "trial_index": 200, "time_elapsed": 446990, "internal_node_id": "0.0-8.0-14.0"}}, {"uniqueid": "w86099414:a90563344", "current_trial": 201, "dateTime": 1664464509466, "trialdata": {"rt": 837, "stimulus": "<p id='stroop-text' class='stroop-red'>BOTTLE</p>", "response": "r", "stimulus-type": "unrelated", "word": "BOTTLE", "color": "red", "correct_response": "r", "trial_id": "stroop-trial-1-unrelated-20", "trial_type": "html-keyboard-response", "trial_index": 201, "time_elapsed": 448333, "internal_node_id": "0.0-8.0-15.0"}}, {"uniqueid": "w86099414:a90563344", "current_trial": 202, "dateTime": 1664464510665, "trialdata": {"rt": 695, "stimulus": "<p id='stroop-text' class='stroop-yellow'>YELLOW</p>", "response": "y", "stimulus-type": "congruent", "word": "yellow", "color": "yellow", "correct_response": "y", "trial_id": "stroop-trial-1-congruent-27", "trial_type": "html-keyboard-response", "trial_index": 202, "time_elapsed": 449532, "internal_node_id": "0.0-8.0-16.0"}}, {"uniqueid": "w86099414:a90563344", "current_trial": 203, "dateTime": 1664464511971, "trialdata": {"rt": 801, "stimulus": "<p id='stroop-text' class='stroop-blue'>BLUE</p>", "response": "b", "stimulus-type": "congruent", "word": "blue", "color": "blue", "correct_response": "b", "trial_id": "stroop-trial-1-congruent-6", "trial_type": "html-keyboard-response", "trial_index": 203, "time_elapsed": 450838, "internal_node_id": "0.0-8.0-17.0"}}, {"uniqueid": "w86099414:a90563344", "current_trial": 204, "dateTime": 1664464513212, "trialdata": {"rt": 736, "stimulus": "<p id='stroop-text' class='stroop-yellow'>YELLOW</p>", "response": "y", "stimulus-type": "congruent", "word": "yellow", "color": "yellow", "correct_response": "y", "trial_id": "stroop-trial-1-congruent-9", "trial_type": "html-keyboard-response", "trial_index": 204, "time_elapsed": 452080, "internal_node_id": "0.0-8.0-18.0"}}, {"uniqueid": "w86099414:a90563344", "current_trial": 205, "dateTime": 1664464514529, "trialdata": {"rt": 813, "stimulus": "<p id='stroop-text' class='stroop-red'>RED</p>", "response": "r", "stimulus-type": "congruent", "word": "red", "color": "red", "correct_response": "r", "trial_id": "stroop-trial-1-congruent-24", "trial_type": "html-keyboard-response", "trial_index": 205, "time_elapsed": 453397, "internal_node_id": "0.0-8.0-19.0"}}, {"uniqueid": "w86099414:a90563344", "current_trial": 206, "dateTime": 1664464516256, "trialdata": {"rt": 1223, "stimulus": "<p id='stroop-text' class='stroop-yellow'>GREEN</p>", "response": "y", "stimulus-type": "incongruent", "word": "green", "color": "yellow", "correct_response": "y", "trial_id": "stroop-trial-1-incongruent-24", "trial_type": "html-keyboard-response", "trial_index": 206, "time_elapsed": 455124, "internal_node_id": "0.0-8.0-20.0"}}, {"uniqueid": "w86099414:a90563344", "current_trial": 207, "dateTime": 1664464517944, "trialdata": {"rt": 1183, "stimulus": "<p id='stroop-text' class='stroop-green'>YELLOW</p>", "response": "g", "stimulus-type": "incongruent", "word": "yellow", "color": "green", "correct_response": "g", "trial_id": "stroop-trial-1-incongruent-18", "trial_type": "html-keyboard-response", "trial_index": 207, "time_elapsed": 456812, "internal_node_id": "0.0-8.0-21.0"}}, {"uniqueid": "w86099414:a90563344", "current_trial": 208, "dateTime": 1664464519195, "trialdata": {"rt": 748, "stimulus": "<p id='stroop-text' class='stroop-green'>SHIP</p>", "response": "g", "stimulus-type": "unrelated", "word": "SHIP", "color": "green", "correct_response": "g", "trial_id": "stroop-trial-1-unrelated-24", "trial_type": "html-keyboard-response", "trial_index": 208, "time_elapsed": 458062, "internal_node_id": "0.0-8.0-22.0"}}, {"uniqueid": "w86099414:a90563344", "current_trial": 209, "dateTime": 1664464520790, "trialdata": {"rt": 1090, "stimulus": "<p id='stroop-text' class='stroop-blue'>BOAT</p>", "response": "b", "stimulus-type": "unrelated", "word": "BOAT", "color": "blue", "correct_response": "b", "trial_id": "stroop-trial-1-unrelated-8", "trial_type": "html-keyboard-response", "trial_index": 209, "time_elapsed": 459657, "internal_node_id": "0.0-8.0-23.0"}}, {"uniqueid": "w86099414:a90563344", "current_trial": 210, "dateTime": 1664464521903, "trialdata": {"rt": 609, "stimulus": "<p id='stroop-text' class='stroop-blue'>FORK</p>", "response": "b", "stimulus-type": "unrelated", "word": "FORK", "color": "blue", "correct_response": "b", "trial_id": "stroop-trial-1-unrelated-29", "trial_type": "html-keyboard-response", "trial_index": 210, "time_elapsed": 460771, "internal_node_id": "0.0-8.0-24.0"}}, {"uniqueid": "w86099414:a90563344", "current_trial": 211, "dateTime": 1664464523115, "trialdata": {"rt": 706, "stimulus": "<p id='stroop-text' class='stroop-red'>RED</p>", "response": "r", "stimulus-type": "congruent", "word": "red", "color": "red", "correct_response": "r", "trial_id": "stroop-trial-1-congruent-25", "trial_type": "html-keyboard-response", "trial_index": 211, "time_elapsed": 461982, "internal_node_id": "0.0-8.0-25.0"}}, {"uniqueid": "w86099414:a90563344", "current_trial": 212, "dateTime": 1664464524057, "trialdata": {"rt": 428, "stimulus": "<p id='stroop-text' class='stroop-red'>GREEN</p>", "response": "r", "stimulus-type": "incongruent", "word": "green", "color": "red", "correct_response": "r", "trial_id": "stroop-trial-1-incongruent-20", "trial_type": "html-keyboard-response", "trial_index": 212, "time_elapsed": 462925, "internal_node_id": "0.0-8.0-26.0"}}, {"uniqueid": "w86099414:a90563344", "current_trial": 213, "dateTime": 1664464525303, "trialdata": {"rt": 741, "stimulus": "<p id='stroop-text' class='stroop-yellow'>WINDOW</p>", "response": "y", "stimulus-type": "unrelated", "word": "WINDOW", "color": "yellow", "correct_response": "y", "trial_id": "stroop-trial-1-unrelated-1", "trial_type": "html-keyboard-response", "trial_index": 213, "time_elapsed": 464171, "internal_node_id": "0.0-8.0-27.0"}}, {"uniqueid": "w86099414:a90563344", "current_trial": 214, "dateTime": 1664464527110, "trialdata": {"rt": 1301, "stimulus": "<p id='stroop-text' class='stroop-blue'>DOG</p>", "response": "b", "stimulus-type": "unrelated", "word": "DOG", "color": "blue", "correct_response": "b", "trial_id": "stroop-trial-1-unrelated-6", "trial_type": "html-keyboard-response", "trial_index": 214, "time_elapsed": 465977, "internal_node_id": "0.0-8.0-28.0"}}, {"uniqueid": "w86099414:a90563344", "current_trial": 215, "dateTime": 1664464528406, "trialdata": {"rt": 791, "stimulus": "<p id='stroop-text' class='stroop-green'>RED</p>", "response": "g", "stimulus-type": "incongruent", "word": "red", "color": "green", "correct_response": "g", "trial_id": "stroop-trial-1-incongruent-12", "trial_type": "html-keyboard-response", "trial_index": 215, "time_elapsed": 467273, "internal_node_id": "0.0-8.0-29.0"}}, {"uniqueid": "w86099414:a90563344", "current_trial": 216, "dateTime": 1664464530418, "trialdata": {"rt": 1506, "stimulus": "<p id='stroop-text' class='stroop-yellow'>GREEN</p>", "response": "y", "stimulus-type": "incongruent", "word": "green", "color": "yellow", "correct_response": "y", "trial_id": "stroop-trial-1-incongruent-7", "trial_type": "html-keyboard-response", "trial_index": 216, "time_elapsed": 469285, "internal_node_id": "0.0-8.0-30.0"}}, {"uniqueid": "w86099414:a90563344", "current_trial": 217, "dateTime": 1664464532265, "trialdata": {"rt": 1343, "stimulus": "<p id='stroop-text' class='stroop-blue'>WINDOW</p>", "response": "b", "stimulus-type": "unrelated", "word": "WINDOW", "color": "blue", "correct_response": "b", "trial_id": "stroop-trial-1-unrelated-25", "trial_type": "html-keyboard-response", "trial_index": 217, "time_elapsed": 471133, "internal_node_id": "0.0-8.0-31.0"}}, {"uniqueid": "w86099414:a90563344", "current_trial": 218, "dateTime": 1664464533687, "trialdata": {"rt": 916, "stimulus": "<p id='stroop-text' class='stroop-green'>YELLOW</p>", "response": "g", "stimulus-type": "incongruent", "word": "yellow", "color": "green", "correct_response": "g", "trial_id": "stroop-trial-1-incongruent-21", "trial_type": "html-keyboard-response", "trial_index": 218, "time_elapsed": 472555, "internal_node_id": "0.0-8.0-32.0"}}, {"uniqueid": "w86099414:a90563344", "current_trial": 219, "dateTime": 1664464534717, "trialdata": {"rt": 525, "stimulus": "<p id='stroop-text' class='stroop-green'>RED</p>", "response": "g", "stimulus-type": "incongruent", "word": "red", "color": "green", "correct_response": "g", "trial_id": "stroop-trial-1-incongruent-4", "trial_type": "html-keyboard-response", "trial_index": 219, "time_elapsed": 473585, "internal_node_id": "0.0-8.0-33.0"}}, {"uniqueid": "w86099414:a90563344", "current_trial": 220, "dateTime": 1664464536002, "trialdata": {"rt": 780, "stimulus": "<p id='stroop-text' class='stroop-red'>MONKEY</p>", "response": "r", "stimulus-type": "unrelated", "word": "MONKEY", "color": "red", "correct_response": "r", "trial_id": "stroop-trial-1-unrelated-23", "trial_type": "html-keyboard-response", "trial_index": 220, "time_elapsed": 474870, "internal_node_id": "0.0-8.0-34.0"}}, {"uniqueid": "w86099414:a90563344", "current_trial": 221, "dateTime": 1664464537333, "trialdata": {"rt": 827, "stimulus": "<p id='stroop-text' class='stroop-yellow'>DOG</p>", "response": "y", "stimulus-type": "unrelated", "word": "DOG", "color": "yellow", "correct_response": "y", "trial_id": "stroop-trial-1-unrelated-15", "trial_type": "html-keyboard-response", "trial_index": 221, "time_elapsed": 476200, "internal_node_id": "0.0-8.0-35.0"}}, {"uniqueid": "w86099414:a90563344", "current_trial": 222, "dateTime": 1664464538435, "trialdata": {"rt": 597, "stimulus": "<p id='stroop-text' class='stroop-blue'>BLUE</p>", "response": "b", "stimulus-type": "congruent", "word": "blue", "color": "blue", "correct_response": "b", "trial_id": "stroop-trial-1-congruent-10", "trial_type": "h