{"condition": 1, "counterbalance": 0, "assignmentId": "a22748486", "workerId": "w70280885", "hitId": "h63061914", "currenttrial": 155, "bonus": 0, "data": [{"uniqueid": "w70280885:a22748486", "current_trial": 0, "dateTime": 1664464016281, "trialdata": {"success": true, "trial_type": "fullscreen", "trial_index": 0, "time_elapsed": 6714, "internal_node_id": "0.0-0.0"}}, {"uniqueid": "w70280885:a22748486", "current_trial": 1, "dateTime": 1664464056378, "trialdata": {"view_history": [{"page_index": 0, "viewing_time": 40083}], "rt": 40084, "trial_id": "exp_instructions_no_distractor", "trial_type": "instructions", "trial_index": 1, "time_elapsed": 46811, "internal_node_id": "0.0-1.0"}}, {"uniqueid": "w70280885:a22748486", "current_trial": 2, "dateTime": 1664464065287, "trialdata": {"success": true, "trial_type": "fullscreen", "trial_index": 2, "time_elapsed": 55721, "internal_node_id": "0.0-2.0-0.0"}}, {"uniqueid": "w70280885:a22748486", "current_trial": 3, "dateTime": 1664464390605, "trialdata": {"view_history": [{"page_index": 0, "viewing_time": 142793}, {"page_index": 1, "viewing_time": 78086}, {"page_index": 2, "viewing_time": 24299}, {"page_index": 3, "viewing_time": 37942}, {"page_index": 4, "viewing_time": 42196}], "rt": 325315, "trial_id": "mouselab_instructions_1", "trial_type": "instructions", "trial_index": 3, "time_elapsed": 381039, "internal_node_id": "0.0-2.0-1.0"}}, {"uniqueid": "w70280885:a22748486", "current_trial": 4, "dateTime": 1664464418622, "trialdata": {"revealed_states": [], "num_clicks_accrued": [0, 0, 0, 0, 0, 0, 0, 0, 0, 0, 0, 0, 0], "stateRewards": ["", 10, -10, 10, 10, -10, -10, 10, -10, 10, 10, 10, -10], "withholdReward": false, "trial_id": "practice_1", "block": "test", "trialIndex": 0, "score": 12, "costs": 0, "simulationMode": [null, null, null], "rewards": [10, -10, 10], "path": ["0", "0", "1", "2", "4"], "rt": [8269, 5015, 672], "actions": ["up", "up", "left"], "actionTimes": [11016, 16547, 17734], "queries": {"click": {"state": {"target": [], "time": []}, "edge": {"target": [], "time": []}}, "mouseover": {"state": {"target": ["0"], "time": [3431]}, "edge": {"target": [], "time": []}}, "mouseout": {"state": {"target": ["1", "1", "0", "0", "0", "0"], "time": [null, null, 11, 980, 1848, 3495]}, "edge": {"target": [], "time": []}}}, "displayed_time": "18.25", "trialTime": 24647, "trial_type": "mouselab-mdp", "trial_index": 4, "time_elapsed": 409055, "internal_node_id": "0.0-2.0-2.0-0.0"}}, {"uniqueid": "w70280885:a22748486", "current_trial": 5, "dateTime": 1664464433364, "trialdata": {"revealed_states": [], "num_clicks_accrued": [0, 0, 0, 0, 0, 0, 0, 0, 0, 0, 0, 0, 0], "stateRewards": ["", -10, -10, -10, -10, -10, -10, 10, 10, -10, 10, -10, -10], "withholdReward": false, "trial_id": "practice_2", "block": "test", "trialIndex": 1, "score": -8, "costs": 0, "simulationMode": [null, null, null], "rewards": [-10, 10, -10], "path": ["0", "0", "9", "10", "11"], "rt": [2046, 1565, 535], "actions": ["left", "left", "up"], "actionTimes": [4179, 6255, 7311], "queries": {"click": {"state": {"target": [], "time": []}, "edge": {"target": [], "time": []}}, "mouseover": {"state": {"target": ["0"], "time": [2519]}, "edge": {"target": [], "time": []}}, "mouseout": {"state": {"target": ["12", "0", "0"], "time": [1004, 1714, 2621]}, "edge": {"target": [], "time": []}}}, "displayed_time": "7.82", "trialTime": 14622, "trial_type": "mouselab-mdp", "trial_index": 5, "time_elapsed": 423798, "internal_node_id": "0.0-2.0-2.0-1.0"}}, {"uniqueid": "w70280885:a22748486", "current_trial": 6, "dateTime": 1664464565823, "trialdata": {"view_history": [{"page_index": 0, "viewing_time": 55537}, {"page_index": 1, "viewing_time": 13152}, {"page_index": 0, "viewing_time": 11010}, {"page_index": 1, "viewing_time": 33937}, {"page_index": 2, "viewing_time": 18812}], "rt": 132449, "trial_id": "mouselab_instructions_2_scarce", "trial_type": "instructions", "trial_index": 6, "time_elapsed": 556257, "internal_node_id": "0.0-2.0-3.0"}}, {"uniqueid": "w70280885:a22748486", "current_trial": 7, "dateTime": 1664464643131, "trialdata": {"rt": 77297, "response": {"Q0": "$-10 to $10", "Q1": "The cost is always $0.25.", "Q2": "The better I perform the higher my bonus will be.", "Q3": "No, the amount of cash at each node of the web may be different each time.", "Q4": "The values of the nodes walked through from start to finish.", "Q5": "No, the spider might forget to count the money on some rounds."}, "question_order": [0, 1, 2, 3, 4, 5], "correct": {"Q0": "$-48 to $48", "Q1": "The cost is always $0.25.", "Q2": "The better I perform the higher my bonus will be.", "Q3": "No, the amount of cash at each node of the web may be different each time.", "Q4": "The values of the nodes walked through from start to finish.", "Q5": "No, the spider might forget to count the money on some rounds."}, "trial_id": "mouselab_quiz_scarce", "trial_type": "survey-multi-choice", "trial_index": 7, "time_elapsed": 633564, "internal_node_id": "0.0-2.0-4.0"}}, {"uniqueid": "w70280885:a22748486", "current_trial": 8, "dateTime": 1664464657320, "trialdata": {"success": true, "trial_type": "fullscreen", "trial_index": 8, "time_elapsed": 647754, "internal_node_id": "0.0-2.1-0.1"}}, {"uniqueid": "w70280885:a22748486", "current_trial": 9, "dateTime": 1664464760172, "trialdata": {"view_history": [{"page_index": 0, "viewing_time": 27299}, {"page_index": 1, "viewing_time": 19931}, {"page_index": 2, "viewing_time": 30256}, {"page_index": 3, "viewing_time": 9043}, {"page_index": 4, "viewing_time": 16320}], "rt": 102849, "trial_id": "mouselab_instructions_1", "trial_type": "instructions", "trial_index": 9, "time_elapsed": 750606, "internal_node_id": "0.0-2.1-1.1"}}, {"uniqueid": "w70280885:a22748486", "current_trial": 10, "dateTime": 1664464770433, "trialdata": {"revealed_states": [], "num_clicks_accrued": [0, 0, 0, 0, 0, 0, 0, 0, 0, 0, 0, 0, 0], "stateRewards": ["", 10, -10, 10, 10, -10, -10, 10, -10, 10, 10, 10, -10], "withholdReward": false, "trial_id": "practice_1", "block": "test", "trialIndex": 2, "score": -28, "costs": 0, "simulationMode": [null, null, null], "rewards": [-10, -10, -10], "path": ["0", "0", "5", "6", "8"], "rt": [1393, 186, 154], "actions": ["right", "right", "down"], "actionTimes": [5234, 5927, 6581], "queries": {"click": {"state": {"target": [], "time": []}, "edge": {"target": [], "time": []}}, "mouseover": {"state": {"target": [], "time": []}, "edge": {"target": [], "time": []}}, "mouseout": {"state": {"target": ["5", "0", "0"], "time": [1454, 1605, 3387]}, "edge": {"target": [], "time": []}}}, "displayed_time": "7.09", "trialTime": 10126, "trial_type": "mouselab-mdp", "trial_index": 10, "time_elapsed": 760867, "internal_node_id": "0.0-2.1-2.1-0.1"}}, {"uniqueid": "w70280885:a22748486", "current_trial": 11, "dateTime": 1664464775504, "trialdata": {"revealed_states": [], "num_clicks_accrued": [0, 0, 0, 0, 0, 0, 0, 0, 0, 0, 0, 0, 0], "stateRewards": ["", -10, -10, -10, -10, -10, -10, 10, 10, -10, 10, -10, -10], "withholdReward": false, "trial_id": "practice_2", "block": "test", "trialIndex": 3, "score": -28, "costs": 0, "simulationMode": [null, null, null], "rewards": [-10, -10, -10], "path": ["0", "0", "1", "2", "4"], "rt": [662, 1, 1], "actions": ["up", "up", "left"], "actionTimes": [1654, 2161, 2694], "queries": {"click": {"state": {"target": [], "time": []}, "edge": {"target": [], "time": []}}, "mouseover": {"state": {"target": [], "time": []}, "edge": {"target": [], "time": []}}, "mouseout": {"state": {"target": ["0"], "time": [895]}, "edge": {"target": [], "time": []}}}, "displayed_time": "3.22", "trialTime": 4965, "trial_type": "mouselab-mdp", "trial_index": 11, "time_elapsed": 765938, "internal_node_id": "0.0-2.1-2.1-1.1"}}, {"uniqueid": "w70280885:a22748486", "current_trial": 12, "dateTime": 1664464882302, "trialdata": {"view_history": [{"page_index": 0, "viewing_time": 97773}, {"page_index": 1, "viewing_time": 6112}, {"page_index": 2, "viewing_time": 2904}], "rt": 106790, "trial_id": "mouselab_instructions_2_scarce", "trial_type": "instructions", "trial_index": 12, "time_elapsed": 872736, "internal_node_id": "0.0-2.1-3.1"}}, {"uniqueid": "w70280885:a22748486", "current_trial": 13, "dateTime": 1664465006999, "trialdata": {"rt": 124690, "response": {"Q0": "$-48 to $48", "Q1": "There is no cost for clicking on nodes.", "Q2": "The better I perform the higher my bonus will be.", "Q3": "Yes.", "Q4": "The values of the nodes walked through from start to finish.", "Q5": "Yes."}, "question_order": [0, 1, 2, 3, 4, 5], "correct": {"Q0": "$-48 to $48", "Q1": "The cost is always $0.25.", "Q2": "The better I perform the higher my bonus will be.", "Q3": "No, the amount of cash at each node of the web may be different each time.", "Q4": "The values of the nodes walked through from start to finish.", "Q5": "No, the spider might forget to count the money on some rounds."}, "trial_id": "mouselab_quiz_scarce", "trial_type": "survey-multi-choice", "trial_index": 13, "time_elapsed": 997433, "internal_node_id": "0.0-2.1-4.1"}}, {"uniqueid": "w70280885:a22748486", "current_trial": 14, "dateTime": 1664465046776, "trialdata": {"success": true, "trial_type": "fullscreen", "trial_index": 14, "time_elapsed": 1037210, "internal_node_id": "0.0-2.2-0.2"}}, {"uniqueid": "w70280885:a22748486", "current_trial": 15, "dateTime": 1664465315803, "trialdata": {"view_history": [{"page_index": 0, "viewing_time": 61254}, {"page_index": 1, "viewing_time": 95795}, {"page_index": 2, "viewing_time": 54171}, {"page_index": 3, "viewing_time": 9777}, {"page_index": 4, "viewing_time": 48025}], "rt": 269022, "trial_id": "mouselab_instructions_1", "trial_type": "instructions", "trial_index": 15, "time_elapsed": 1306237, "internal_node_id": "0.0-2.2-1.2"}}, {"uniqueid": "w70280885:a22748486", "current_trial": 16, "dateTime": 1664465324192, "trialdata": {"revealed_states": [], "num_clicks_accrued": [0, 0, 0, 0, 0, 0, 0, 0, 0, 0, 0, 0, 0], "stateRewards": ["", 10, -10, 10, 10, -10, -10, 10, -10, 10, 10, 10, -10], "withholdReward": false, "trial_id": "practice_1", "block": "test", "trialIndex": 4, "score": -8, "costs": 0, "simulationMode": [null, null, null], "rewards": [-10, -10, 10], "path": ["0", "0", "5", "6", "7"], "rt": [1703, 512, 605], "actions": ["right", "right", "up"], "actionTimes": [3925, 4950, 6071], "queries": {"click": {"state": {"target": [], "time": []}, "edge": {"target": [], "time": []}}, "mouseover": {"state": {"target": [], "time": []}, "edge": {"target": [], "time": []}}, "mouseout": {"state": {"target": [], "time": []}, "edge": {"target": [], "time": []}}}, "displayed_time": "6.58", "trialTime": 8258, "trial_type": "mouselab-mdp", "trial_index": 16, "time_elapsed": 1314626, "internal_node_id": "0.0-2.2-2.2-0.2"}}, {"uniqueid": "w70280885:a22748486", "current_trial": 17, "dateTime": 1664465332748, "trialdata": {"revealed_states": [], "num_clicks_accrued": [0, 0, 0, 0, 0, 0, 0, 0, 0, 0, 0, 0, 0], "stateRewards": ["", -10, -10, -10, -10, -10, -10, 10, 10, -10, 10, -10, -10], "withholdReward": false, "trial_id": "practice_2", "block": "test", "trialIndex": 5, "score": -8, "costs": 0, "simulationMode": [null, null, null], "rewards": [-10, -10, 10], "path": ["0", "0", "5", "6", "8"], "rt": [561, 2437, 380], "actions": ["right", "right", "down"], "actionTimes": [2452, 5398, 6295], "queries": {"click": {"state": {"target": [], "time": []}, "edge": {"target": [], "time": []}}, "mouseover": {"state": {"target": [], "time": []}, "edge": {"target": [], "time": []}}, "mouseout": {"state": {"target": [], "time": []}, "edge": {"target": [], "time": []}}}, "displayed_time": "6.81", "trialTime": 8445, "trial_type": "mouselab-mdp", "trial_index": 17, "time_elapsed": 1323182, "internal_node_id": "0.0-2.2-2.2-1.2"}}, {"uniqueid": "w70280885:a22748486", "current_trial": 18, "dateTime": 1664465347660, "trialdata": {"view_history": [{"page_index": 0, "viewing_time": 8778}, {"page_index": 1, "viewing_time": 3947}, {"page_index": 2, "viewing_time": 2179}], "rt": 14905, "trial_id": "mouselab_instructions_2_scarce", "trial_type": "instructions", "trial_index": 18, "time_elapsed": 1338093, "internal_node_id": "0.0-2.2-3.2"}}, {"uniqueid": "w70280885:a22748486", "current_trial": 19, "dateTime": 1664465566475, "trialdata": {"rt": 218807, "response": {"Q0": "$-48 to $48", "Q1": "The cost for clicking on nodes varies between nodes.", "Q2": "The better I perform the higher my bonus will be.", "Q3": "No, the amount of cash at each node of the web may be different each time.", "Q4": "The values of the nodes walked through from start to finish.", "Q5": "No, the spider might forget to count the money on some rounds."}, "question_order": [0, 1, 2, 3, 4, 5], "correct": {"Q0": "$-48 to $48", "Q1": "The cost is always $0.25.", "Q2": "The better I perform the higher my bonus will be.", "Q3": "No, the amount of cash at each node of the web may be different each time.", "Q4": "The values of the nodes walked through from start to finish.", "Q5": "No, the spider might forget to count the money on some rounds."}, "trial_id": "mouselab_quiz_scarce", "trial_type": "survey-multi-choice", "trial_index": 19, "time_elapsed": 1556909, "internal_node_id": "0.0-2.2-4.2"}}, {"uniqueid": "w70280885:a22748486", "current_trial": 20, "dateTime": 1664465577584, "trialdata": {"success": true, "trial_type": "fullscreen", "trial_index": 20, "time_elapsed": 1568018, "internal_node_id": "0.0-2.3-0.3"}}, {"uniqueid": "w70280885:a22748486", "current_trial": 21, "dateTime": 1664465815800, "trialdata": {"view_history": [{"page_index": 0, "viewing_time": 83224}, {"page_index": 1, "viewing_time": 56197}, {"page_index": 2, "viewing_time": 35616}, {"page_index": 1, "viewing_time": 11568}, {"page_index": 2, "viewing_time": 4168}, {"page_index": 3, "viewing_time": 16763}, {"page_index": 4, "viewing_time": 30676}], "rt": 238212, "trial_id": "mouselab_instructions_1", "trial_type": "instructions", "trial_index": 21, "time_elapsed": 1806234, "internal_node_id": "0.0-2.3-1.3"}}, {"uniqueid": "w70280885:a22748486", "current_trial": 22, "dateTime": 1664465822202, "trialdata": {"revealed_states": [], "num_clicks_accrued": [0, 0, 0, 0, 0, 0, 0, 0, 0, 0, 0, 0, 0], "stateRewards": ["", 10, -10, 10, 10, -10, -10, 10, -10, 10, 10, 10, -10], "withholdReward": false, "trial_id": "practice_1", "block": "test", "trialIndex": 6, "score": 12, "costs": 0, "simulationMode": [null, null, null], "rewards": [10, 10, -10], "path": ["0", "0", "9", "10", "12"], "rt": [1098, 470, 171], "actions": ["left", "left", "down"], "actionTimes": [2560, 3549, 4236], "queries": {"click": {"state": {"target": [], "time": []}, "edge": {"target": [], "time": []}}, "mouseover": {"state": {"target": [], "time": []}, "edge": {"target": [], "time": []}}, "mouseout": {"state": {"target": [], "time": []}, "edge": {"target": [], "time": []}}}, "displayed_time": "4.75", "trialTime": 6266, "trial_type": "mouselab-mdp", "trial_index": 22, "time_elapsed": 1812635, "internal_node_id": "0.0-2.3-2.3-0.3"}}, {"uniqueid": "w70280885:a22748486", "current_trial": 23, "dateTime": 1664465828650, "trialdata": {"revealed_states": [], "num_clicks_accrued": [0, 0, 0, 0, 0, 0, 0, 0, 0, 0, 0, 0, 0], "stateRewards": ["", -10, -10, -10, -10, -10, -10, 10, 10, -10, 10, -10, -10], "withholdReward": false, "trial_id": "practice_2", "block": "test", "trialIndex": 7, "score": -8, "costs": 0, "simulationMode": [null, null, null], "rewards": [-10, 10, -10], "path": ["0", "0", "9", "10", "11"], "rt": [744, 46, 162], "actions": ["left", "left", "up"], "actionTimes": [2586, 3148, 3818], "queries": {"click": {"state": {"target": [], "time": []}, "edge": {"target": [], "time": []}}, "mouseover": {"state": {"target": [], "time": []}, "edge": {"target": [], "time": []}}, "mouseout": {"state": {"target": ["0"], "time": [1756]}, "edge": {"target": [], "time": []}}}, "displayed_time": "4.34", "trialTime": 6322, "trial_type": "mouselab-mdp", "trial_index": 23, "time_elapsed": 1819084, "internal_node_id": "0.0-2.3-2.3-1.3"}}, {"uniqueid": "w70280885:a22748486", "current_trial": 24, "dateTime": 1664466016812, "trialdata": {"view_history": [{"page_index": 0, "viewing_time": 139598}, {"page_index": 1, "viewing_time": 41903}, {"page_index": 2, "viewing_time": 6652}], "rt": 188154, "trial_id": "mouselab_instructions_2_scarce", "trial_type": "instructions", "trial_index": 24, "time_elapsed": 2007246, "internal_node_id": "0.0-2.3-3.3"}}, {"uniqueid": "w70280885:a22748486", "current_trial": 25, "dateTime": 1664466064100, "trialdata": {"rt": 47280, "response": {"Q0": "$-48 to $48", "Q1": "The cost is always $0.25.", "Q2": "The better I perform the higher my bonus will be.", "Q3": "No, the amount of cash at each node of the web may be different each time.", "Q4": "The values of the nodes walked through from start to finish.", "Q5": "No, the spider might forget to count the money on some rounds."}, "question_order": [0, 1, 2, 3, 4, 5], "correct": {"Q0": "$-48 to $48", "Q1": "The cost is always $0.25.", "Q2": "The better I perform the higher my bonus will be.", "Q3": "No, the amount of cash at each node of the web may be different each time.", "Q4": "The values of the nodes walked through from start to finish.", "Q5": "No, the spider might forget to count the money on some rounds."}, "trial_id": "mouselab_quiz_scarce", "trial_type": "survey-multi-choice", "trial_index": 25, "time_elapsed": 2054534, "internal_node_id": "0.0-2.3-4.3"}}, {"uniqueid": "w70280885:a22748486", "current_trial": 26, "dateTime": 1664466127062, "trialdata": {"rt": 62942, "stimulus": "\n<h1> Get ready to start the game! </h1>\n\nThank you for reading the instructions. Get ready start with the first of 4 block(s) of this game.\n<br><br>\nIn this first block, you will complete 30 rounds of this game before moving on.\n<br><br>\nRemember, the more money the spider gets, the bigger your bonus will be!\n<br><br>\n<div style='text-align: center;'>Press <code>space</code> to begin.</div>\n\n<br><br>\n(If, at any point, the <code>space</code> key does not take you to the next page, click once on the text and try again.)", "response": " ", "trial_id": "mdp_ready_1", "trial_type": "html-keyboard-response", "trial_index": 26, "time_elapsed": 2117496, "internal_node_id": "0.0-4.0-0.0"}}, {"uniqueid": "w70280885:a22748486", "current_trial": 27, "dateTime": 1664466144549, "trialdata": {"revealed_states": [], "num_clicks_accrued": [0, 0, 0, 0, 0, 0, 0, 0, 0, 0, 0, 0, 0], "stateRewards": ["", -2, -8, 48, 24, -2, 8, -48, -24, -2, 4, -48, 48], "withholdReward": true, "trial_id": "mdp_295220852217", "block": "test1", "trialIndex": 8, "score": 54.75, "costs": -0.25, "simulationMode": [null, null, null], "rewards": [-2, 4, 48], "path": ["0", "0", "9", "10", "12"], "rt": [7787, 941, 363], "actions": ["left", "left", "down"], "actionTimes": [12094, 13550, 14424], "queries": {"click": {"state": {"target": ["10"], "time": [9956]}, "edge": {"target": [], "time": []}}, "mouseover": {"state": {"target": ["10"], "time": [9257]}, "edge": {"target": [], "time": []}}, "mouseout": {"state": {"target": ["0"], "time": [4774]}, "edge": {"target": [], "time": []}}}, "displayed_time": "14.94", "trialTime": 17357, "trial_type": "mouselab-mdp", "trial_index": 27, "time_elapsed": 2134982, "internal_node_id": "0.0-4.0-1.0-0.0"}}, {"uniqueid": "w70280885:a22748486", "current_trial": 28, "dateTime": 1664466162002, "trialdata": {"revealed_states": [], "num_clicks_accrued": [0, 0, 0, 0, 0, 0, 0, 0, 0, 0, 0, 0, 0], "stateRewards": ["", -2, 8, 48, 24, 2, -8, -24, -48, -4, 8, -48, 24], "withholdReward": false, "trial_id": "mdp_224053025943", "block": "test1", "trialIndex": 9, "score": 59, "costs": 0, "simulationMode": [null, null, null], "rewards": [-2, 8, 48], "path": ["0", "0", "1", "2", "3"], "rt": [2878, 426, 205], "actions": ["up", "up", "right"], "actionTimes": [6382, 7319, 8032], "queries": {"click": {"state": {"target": [], "time": []}, "edge": {"target": [], "time": []}}, "mouseover": {"state": {"target": [], "time": []}, "edge": {"target": [], "time": []}}, "mouseout": {"state": {"target": ["10", "9"], "time": [2542, 2657]}, "edge": {"target": [], "time": []}}}, "displayed_time": "13.51", "trialTime": 17345, "trial_type": "mouselab-mdp", "trial_index": 28, "time_elapsed": 2152435, "internal_node_id": "0.0-4.0-1.0-1.0"}}, {"uniqueid": "w70280885:a22748486", "current_trial": 29, "dateTime": 1664466172917, "trialdata": {"revealed_states": [], "num_clicks_accrued": [0, 0, 0, 0, 0, 0, 0, 0, 0, 0, 0, 0, 0], "stateRewards": ["", 2, 4, -48, -48, 4, 4, -48, -48, -2, -8, 48, -24], "withholdReward": false, "trial_id": "mdp_175327338412", "block": "test1", "trialIndex": 10, "score": -35, "costs": 0, "simulationMode": [null, null, null], "rewards": [4, 4, -48], "path": ["0", "0", "5", "6", "7"], "rt": [2459, 1347, 225], "actions": ["right", "right", "up"], "actionTimes": [3418, 5284, 6030], "queries": {"click": {"state": {"target": [], "time": []}, "edge": {"target": [], "time": []}}, "mouseover": {"state": {"target": [], "time": []}, "edge": {"target": [], "time": []}}, "mouseout": {"state": {"target": [], "time": []}, "edge": {"target": [], "time": []}}}, "displayed_time": "7.96", "trialTime": 10792, "trial_type": "mouselab-mdp", "trial_index": 29, "time_elapsed": 2163350, "internal_node_id": "0.0-4.0-1.0-2.0"}}, {"uniqueid": "w70280885:a22748486", "current_trial": 30, "dateTime": 1664466188795, "trialdata": {"revealed_states": [], "num_clicks_accrued": [0, 0, 0, 0, 0, 0, 0, 0, 0, 0, 0, 0, 0], "stateRewards": ["", -2, 8, 48, 48, 4, -8, -48, 48, 2, -4, -48, 48], "withholdReward": true, "trial_id": "mdp_132958048709", "block": "test1", "trialIndex": 11, "score": 51, "costs": 0, "simulationMode": [null, null, null], "rewards": [2, -4, 48], "path": ["0", "0", "9", "10", "12"], "rt": [4528, 1673, 470], "actions": ["left", "left", "down"], "actionTimes": [6441, 8634, 9617], "queries": {"click": {"state": {"target": [], "time": []}, "edge": {"target": [], "time": []}}, "mouseover": {"state": {"target": [], "time": []}, "edge": {"target": [], "time": []}}, "mouseout": {"state": {"target": [], "time": []}, "edge": {"target": [], "time": []}}}, "displayed_time": "11.91", "trialTime": 15746, "trial_type": "mouselab-mdp", "trial_index": 30, "time_elapsed": 2179229, "internal_node_id": "0.0-4.0-1.0-3.0"}}, {"uniqueid": "w70280885:a22748486", "current_trial": 31, "dateTime": 1664466202617, "trialdata": {"revealed_states": [], "num_clicks_accrued": [0, 0, 0, 0, 0, 0, 0, 0, 0, 0, 0, 0, 0], "stateRewards": ["", -2, 8, 48, -24, 2, 4, -48, -24, -4, 8, -48, -48], "withholdReward": true, "trial_id": "mdp_539167561933", "block": "test1", "trialIndex": 12, "score": 59, "costs": 0, "simulationMode": [null, null, null], "rewards": [-2, 8, 48], "path": ["0", "0", "1", "2", "3"], "rt": [1918, 623, 681], "actions": ["up", "up", "right"], "actionTimes": [4017, 5153, 6345], "queries": {"click": {"state": {"target": [], "time": []}, "edge": {"target": [], "time": []}}, "mouseover": {"state": {"target": [], "time": []}, "edge": {"target": [], "time": []}}, "mouseout": {"state": {"target": [], "time": []}, "edge": {"target": [], "time": []}}}, "displayed_time": "10.10", "trialTime": 13673, "trial_type": "mouselab-mdp", "trial_index": 31, "time_elapsed": 2193050, "internal_node_id": "0.0-4.0-1.0-4.0"}}, {"uniqueid": "w70280885:a22748486", "current_trial": 32, "dateTime": 1664466215416, "trialdata": {"revealed_states": [], "num_clicks_accrued": [0, 0, 0, 0, 0, 0, 0, 0, 0, 0, 0, 0, 0], "stateRewards": ["", -4, 8, 24, -24, -2, 4, -24, 48, -2, 8, -48, -24], "withholdReward": true, "trial_id": "mdp_799359103169", "block": "test1", "trialIndex": 13, "score": -37, "costs": 0, "simulationMode": [null, null, null], "rewards": [-2, 8, -48], "path": ["0", "0", "9", "10", "11"], "rt": [1780, 290, 81], "actions": ["left", "left", "up"], "actionTimes": [2972, 3770, 4364], "queries": {"click": {"state": {"target": [], "time": []}, "edge": {"target": [], "time": []}}, "mouseover": {"state": {"target": [], "time": []}, "edge": {"target": [], "time": []}}, "mouseout": {"state": {"target": [], "time": []}, "edge": {"target": [], "time": []}}}, "displayed_time": "10.19", "trialTime": 12674, "trial_type": "mouselab-mdp", "trial_index": 32, "time_elapsed": 2205850, "internal_node_id": "0.0-4.0-1.0-5.0"}}, {"uniqueid": "w70280885:a22748486", "current_trial": 33, "dateTime": 1664466226675, "trialdata": {"revealed_states": [], "num_clicks_accrued": [0, 0, 0, 0, 0, 0, 0, 0, 0, 0, 0, 0, 0], "stateRewards": ["", -2, 8, -48, 48, 4, -8, -48, 48, 4, -4, -24, 48], "withholdReward": false, "trial_id": "mdp_144739116828", "block": "test1", "trialIndex": 14, "score": -47, "costs": 0, "simulationMode": [null, null, null], "rewards": [4, -8, -48], "path": ["0", "0", "5", "6", "7"], "rt": [662, 238, 94], "actions": ["right", "right", "up"], "actionTimes": [1561, 2310, 2907], "queries": {"click": {"state": {"target": [], "time": []}, "edge": {"target": [], "time": []}}, "mouseover": {"state": {"target": [], "time": []}, "edge": {"target": [], "time": []}}, "mouseout": {"state": {"target": [], "time": []}, "edge": {"target": [], "time": []}}}, "displayed_time": "8.90", "trialTime": 11114, "trial_type": "mouselab-mdp", "trial_index": 33, "time_elapsed": 2217109, "internal_node_id": "0.0-4.0-1.0-6.0"}}, {"uniqueid": "w70280885:a22748486", "current_trial": 34, "dateTime": 1664466238421, "trialdata": {"revealed_states": [], "num_clicks_accrued": [0, 0, 0, 0, 0, 0, 0, 0, 0, 0, 0, 0, 0], "stateRewards": ["", -4, -8, -24, 24, 2, 8, 24, 48, 2, 4, 24, -48], "withholdReward": true, "trial_id": "mdp_122352383932", "block": "test1", "trialIndex": 15, "score": -31, "costs": 0, "simulationMode": [null, null, null], "rewards": [-4, -8, -24], "path": ["0", "0", "1", "2", "3"], "rt": [929, 933, 2060], "actions": ["up", "up", "right"], "actionTimes": [2178, 3630, 6209], "queries": {"click": {"state": {"target": [], "time": []}, "edge": {"target": [], "time": []}}, "mouseover": {"state": {"target": [], "time": []}, "edge": {"target": [], "time": []}}, "mouseout": {"state": {"target": [], "time": []}, "edge": {"target": [], "time": []}}}, "displayed_time": "10.25", "trialTime": 11620, "trial_type": "mouselab-mdp", "trial_index": 34, "time_elapsed": 2228855, "internal_node_id": "0.0-4.0-1.0-7.0"}}, {"uniqueid": "w70280885:a22748486", "current_trial": 35, "dateTime": 1664466251118, "trialdata": {"revealed_states": [], "num_clicks_accrued": [0, 0, 0, 0, 0, 0, 0, 0, 0, 0, 0, 0, 0], "stateRewards": ["", -4, -4, -24, 24, 4, 4, -24, -24, -4, 4, 24, 24], "withholdReward": true, "trial_id": "mdp_787781487383", "block": "test1", "trialIndex": 16, "score": -11.25, "costs": -0.25, "simulationMode": [null, null, null], "rewards": [4, 4, -24], "path": ["0", "0", "5", "6", "8"], "rt": [4402, 1295, 236], "actions": ["right", "right", "down"], "actionTimes": [6517, 8325, 9083], "queries": {"click": {"state": {"target": ["9"], "time": [4000]}, "edge": {"target": [], "time": []}}, "mouseover": {"state": {"target": ["9"], "time": [3244]}, "edge": {"target": [], "time": []}}, "mouseout": {"state": {"target": ["0"], "time": [3027]}, "edge": {"target": [], "time": []}}}, "displayed_time": "10.12", "trialTime": 12567, "trial_type": "mouselab-mdp", "trial_index": 35, "time_elapsed": 2241552, "internal_node_id": "0.0-4.0-1.0-8.0"}}, {"uniqueid": "w70280885:a22748486", "current_trial": 36, "dateTime": 1664466264818, "trialdata": {"revealed_states": [], "num_clicks_accrued": [0, 0, 0, 0, 0, 0, 0, 0, 0, 0, 0, 0, 0], "stateRewards": ["", 2, -8, 24, 24, 4, -4, -24, -48, 4, 8, 24, 24], "withholdReward": true, "trial_id": "mdp_249803813713", "block": "test1", "trialIndex": 17, "score": -43, "costs": 0, "simulationMode": [null, null, null], "rewards": [4, -4, -48], "path": ["0", "0", "5", "6", "8"], "rt": [3256, 127, 1166], "actions": ["right", "right", "down"], "actionTimes": [4886, 5528, 7210], "queries": {"click": {"state": {"target": [], "time": []}, "edge": {"target": [], "time": []}}, "mouseover": {"state": {"target": [], "time": []}, "edge": {"target": [], "time": []}}, "mouseout": {"state": {"target": ["9"], "time": [883]}, "edge": {"target": [], "time": []}}}, "displayed_time": "10.63", "trialTime": 13559, "trial_type": "mouselab-mdp", "trial_index": 36, "time_elapsed": 2255252, "internal_node_id": "0.0-4.0-1.0-9.0"}}, {"uniqueid": "w70280885:a22748486", "current_trial": 37, "dateTime": 1664466276641, "trialdata": {"revealed_states": [], "num_clicks_accrued": [0, 0, 0, 0, 0, 0, 0, 0, 0, 0, 0, 0, 0], "stateRewards": ["", -4, 8, -24, -48, 2, 8, -48, -24, -2, -4, 48, -48], "withholdReward": true, "trial_id": "mdp_599927291428", "block": "test1", "trialIndex": 18, "score": -15, "costs": 0, "simulationMode": [null, null, null], "rewards": [-4, 8, -24], "path": ["0", "0", "1", "2", "3"], "rt": [448, 12, 63], "actions": ["up", "up", "right"], "actionTimes": [1674, 2198, 2768], "queries": {"click": {"state": {"target": [], "time": []}, "edge": {"target": [], "time": []}}, "mouseover": {"state": {"target": [], "time": []}, "edge": {"target": [], "time": []}}, "mouseout": {"state": {"target": [], "time": []}, "edge": {"target": [], "time": []}}}, "displayed_time": "10.23", "trialTime": 11686, "trial_type": "mouselab-mdp", "trial_index": 37, "time_elapsed": 2267075, "internal_node_id": "0.0-4.0-1.0-10.0"}}, {"uniqueid": "w70280885:a22748486", "current_trial": 38, "dateTime": 1664466289028, "trialdata": {"revealed_states": [], "num_clicks_accrued": [0, 0, 0, 0, 0, 0, 0, 0, 0, 0, 0, 0, 0], "stateRewards": ["", -2, 4, -48, 24, -4, 8, 48, 24, -2, 4, -48, -24], "withholdReward": false, "trial_id": "mdp_740882974347", "block": "test1", "trialIndex": 19, "score": 31, "costs": 0, "simulationMode": [null, null, null], "rewards": [-2, 4, 24], "path": ["0", "0", "1", "2", "4"], "rt": [1251, 496, 23], "actions": ["up", "up", "left"], "actionTimes": [2238, 3250, 3788], "queries": {"click": {"state": {"target": [], "time": []}, "edge": {"target": [], "time": []}}, "mouseover": {"state": {"target": [], "time": []}, "edge": {"target": [], "time": []}}, "mouseout": {"state": {"target": [], "time": []}, "edge": {"target": [], "time": []}}}, "displayed_time": "8.99", "trialTime": 12251, "trial_type": "mouselab-mdp", "trial_index": 38, "time_elapsed": 2279462, "internal_node_id": "0.0-4.0-1.0-11.0"}}, {"uniqueid": "w70280885:a22748486", "current_trial": 39, "dateTime": 1664466299579, "trialdata": {"revealed_states": [], "num_clicks_accrued": [0, 0, 0, 0, 0, 0, 0, 0, 0, 0, 0, 0, 0], "stateRewards": ["", 2, 4, -24, -48, 4, -4, 24, 48, -4, -4, -24, 48], "withholdReward": true, "trial_id": "mdp_181958792175", "block": "test1", "trialIndex": 20, "score": -27, "costs": 0, "simulationMode": [null, null, null], "rewards": [-4, -4, -24], "path": ["0", "0", "9", "10", "11"], "rt": [1531, 301, 236], "actions": ["left", "left", "up"], "actionTimes": [2560, 3369, 4107], "queries": {"click": {"state": {"target": [], "time": []}, "edge": {"target": [], "time": []}}, "mouseover": {"state": {"target": [], "time": []}, "edge": {"target": [], "time": []}}, "mouseout": {"state": {"target": [], "time": []}, "edge": {"target": [], "time": []}}}, "displayed_time": "9.03", "trialTime": 10426, "trial_type": "mouselab-mdp", "trial_index": 39, "time_elapsed": 2290013, "internal_node_id": "0.0-4.0-1.0-12.0"}}, {"uniqueid": "w70280885:a22748486", "current_trial": 40, "dateTime": 1664466311840, "trialdata": {"revealed_states": [], "num_clicks_accrued": [0, 0, 0, 0, 0, 0, 0, 0, 0, 0, 0, 0, 0], "stateRewards": ["", -2, -8, -24, -24, 4, -4, -48, 48, 2, 8, 48, -48], "withholdReward": true, "trial_id": "mdp_498095124548", "block": "test1", "trialIndex": 21, "score": -29, "costs": 0, "simulationMode": [null, null, null], "rewards": [-2, -8, -24], "path": ["0", "0", "1", "2", "3"], "rt": [847, 248, 42], "actions": ["up", "up", "right"], "actionTimes": [2452, 3211, 3773], "queries": {"click": {"state": {"target": [], "time": []}, "edge": {"target": [], "time": []}}, "mouseover": {"state": {"target": [], "time": []}, "edge": {"target": [], "time": []}}, "mouseout": {"state": {"target": [], "time": []}, "edge": {"target": [], "time": []}}}, "displayed_time": "10.61", "trialTime": 12151, "trial_type": "mouselab-mdp", "trial_index": 40, "time_elapsed": 2302274, "internal_node_id": "0.0-4.0-1.0-13.0"}}, {"uniqueid": "w70280885:a22748486", "current_trial": 41, "dateTime": 1664466324308, "trialdata": {"revealed_states": [], "num_clicks_accrued": [0, 0, 0, 0, 0, 0, 0, 0, 0, 0, 0, 0, 0], "stateRewards": ["", 4, 8, 48, 48, 4, 4, -24, -48, 4, 8, -48, -48], "withholdReward": true, "trial_id": "mdp_984548726931", "block": "test1", "trialIndex": 22, "score": -35, "costs": 0, "simulationMode": [null, null, null], "rewards": [4, 4, -48], "path": ["0", "0", "5", "6", "8"], "rt": [413, 200, 92], "actions": ["right", "right", "down"], "actionTimes": [2326, 3027, 3633], "queries": {"click": {"state": {"target": [], "time": []}, "edge": {"target": [], "time": []}}, "mouseover": {"state": {"target": [], "time": []}, "edge": {"target": [], "time": []}}, "mouseout": {"state": {"target": [], "time": []}, "edge": {"target": [], "time": []}}}, "displayed_time": "9.91", "trialTime": 12333, "trial_type": "mouselab-mdp", "trial_index": 41, "time_elapsed": 2314742, "internal_node_id": "0.0-4.0-1.0-14.0"}}, {"uniqueid": "w70280885:a22748486", "current_trial": 42, "dateTime": 1664466335570, "trialdata": {"revealed_states": [], "num_clicks_accrued": [0, 0, 0, 0, 0, 0, 0, 0, 0, 0, 0, 0, 0], "stateRewards": ["", 4, -8, -48, 24, 4, 4, -24, -24, 2, 4, -48, 24], "withholdReward": true, "trial_id": "mdp_626971397185", "block": "test1", "trialIndex": 23, "score": -11, "costs": 0, "simulationMode": [null, null, null], "rewards": [4, 4, -24], "path": ["0", "0", "5", "6", "7"], "rt": [591, 199, 405], "actions": ["right", "right", "up"], "actionTimes": [2406, 3120, 4044], "queries": {"click": {"state": {"target": [], "time": []}, "edge": {"target": [], "time": []}}, "mouseover": {"state": {"target": [], "time": []}, "edge": {"target": [], "time": []}}, "mouseout": {"state": {"target": [], "time": []}, "edge": {"target": [], "time": []}}}, "displayed_time": "9.81", "trialTime": 11128, "trial_type": "mouselab-mdp", "trial_index": 42, "time_elapsed": 2326004, "internal_node_id": "0.0-4.0-1.0-15.0"}}, {"uniqueid": "w70280885:a22748486", "current_trial": 43, "dateTime": 1664466348202, "trialdata": {"revealed_states": [], "num_clicks_accrued": [0, 0, 0, 0, 0, 0, 0, 0, 0, 0, 0, 0, 0], "stateRewards": ["", -2, 4, 24, 48, 2, 4, -48, -48, 2, 8, 48, -48], "withholdReward": true, "trial_id": "mdp_409609775558", "block": "test1", "trialIndex": 24, "score": -33.25, "costs": -0.25, "simulationMode": [null, null, null], "rewards": [2, 8, -48], "path": ["0", "0", "9", "10", "12"], "rt": [2889, 316, 640], "actions": ["left", "left", "down"], "actionTimes": [3883, 4721, 5877], "queries": {"click": {"state": {"target": ["9"], "time": [2747]}, "edge": {"target": [], "time": []}}, "mouseover": {"state": {"target": ["9"], "time": [2267]}, "edge": {"target": [], "time": []}}, "mouseout": {"state": {"target": ["0"], "time": [2200]}, "edge": {"target": [], "time": []}}}, "displayed_time": "11.00", "trialTime": 12511, "trial_type": "mouselab-mdp", "trial_index": 43, "time_elapsed": 2338636, "internal_node_id": "0.0-4.0-1.0-16.0"}}, {"uniqueid": "w70280885:a22748486", "current_trial": 44, "dateTime": 1664466360211, "trialdata": {"revealed_states": [], "num_clicks_accrued": [0, 0, 0, 0, 0, 0, 0, 0, 0, 0, 0, 0, 0], "stateRewards": ["", -4, -8, 24, -48, 2, 4, -48, -48, 2, -8, 24, 48], "withholdReward": true, "trial_id": "mdp_111262146724", "block": "test1", "trialIndex": 25, "score": -37, "costs": 0, "simulationMode": [null, null, null], "rewards": [2, 4, -48], "path": ["0", "0", "5", "6", "7"], "rt": [650, 212, 45], "actions": ["right", "right", "up"], "actionTimes": [1991, 2706, 3275], "queries": {"click": {"state": {"target": [], "time": []}, "edge": {"target": [], "time": []}}, "mouseover": {"state": {"target": [], "time": []}, "edge": {"target": [], "time": []}}, "mouseout": {"state": {"target": ["9"], "time": [655]}, "edge": {"target": [], "time": []}}}, "displayed_time": "10.34", "trialTime": 11877, "trial_type": "mouselab-mdp", "trial_index": 44, "time_elapsed": 2350645, "internal_node_id": "0.0-4.0-1.0-17.0"}}, {"uniqueid": "w70280885:a22748486", "current_trial": 45, "dateTime": 1664466371293, "trialdata": {"revealed_states": [], "num_clicks_accrued": [0, 0, 0, 0, 0, 0, 0, 0, 0, 0, 0, 0, 0], "stateRewards": ["", 4, 4, 48, -24, 2, -4, 48, 24, -4, -4, -48, 24], "withholdReward": true, "trial_id": "mdp_496003763005", "block": "test1", "trialIndex": 26, "score": -11, "costs": 0, "simulationMode": [null, null, null], "rewards": [4, 4, -24], "path": ["0", "0", "1", "2", "4"], "rt": [1118, 55, 54], "actions": ["up", "up", "left"], "actionTimes": [1981, 2547, 3126], "queries": {"click": {"state": {"target": [], "time": []}, "edge": {"target": [], "time": []}}, "mouseover": {"state": {"target": [], "time": []}, "edge": {"target": [], "time": []}}, "mouseout": {"state": {"target": [], "time": []}, "edge": {"target": [], "time": []}}}, "displayed_time": "8.86", "trialTime": 10944, "trial_type": "mouselab-mdp", "trial_index": 45, "time_elapsed": 2361727, "internal_node_id": "0.0-4.0-1.0-18.0"}}, {"uniqueid": "w70280885:a22748486", "current_trial": 46, "dateTime": 1664466383011, "trialdata": {"revealed_states": [], "num_clicks_accrued": [0, 0, 0, 0, 0, 0, 0, 0, 0, 0, 0, 0, 0], "stateRewards": ["", 2, -4, 48, -24, 4, -8, -24, 48, -2, -4, 24, -48], "withholdReward": true, "trial_id": "mdp_357328205509", "block": "test1", "trialIndex": 27, "score": -23, "costs": 0, "simulationMode": [null, null, null], "rewards": [4, -8, -24], "path": ["0", "0", "5", "6", "7"], "rt": [767, 346, 157], "actions": ["right", "right", "up"], "actionTimes": [2361, 3246, 3926], "queries": {"click": {"state": {"target": [], "time": []}, "edge": {"target": [], "time": []}}, "mouseover": {"state": {"target": [], "time": []}, "edge": {"target": [], "time": []}}, "mouseout": {"state": {"target": [], "time": []}, "edge": {"target": [], "time": []}}}, "displayed_time": "10.60", "trialTime": 11590, "trial_type": "mouselab-mdp", "trial_index": 46, "time_elapsed": 2373444, "internal_node_id": "0.0-4.0-1.0-19.0"}}, {"uniqueid": "w70280885:a22748486", "current_trial": 47, "dateTime": 1664466393203, "trialdata": {"revealed_states": [], "num_clicks_accrued": [0, 0, 0, 0, 0, 0, 0, 0, 0, 0, 0, 0, 0], "stateRewards": ["", 4, 8, 48, -48, -4, 8, -24, -24, -4, 8, 48, 48], "withholdReward": true, "trial_id": "mdp_377640328420", "block": "test1", "trialIndex": 28, "score": 57, "costs": 0, "simulationMode": [null, null, null], "rewards": [-4, 8, 48], "path": ["0", "0", "9", "10", "11"], "rt": [745, 154, 341], "actions": ["left", "left", "up"], "actionTimes": [1787, 2461, 3317], "queries": {"click": {"state": {"target": [], "time": []}, "edge": {"target": [], "time": []}}, "mouseover": {"state": {"target": [], "time": []}, "edge": {"target": [], "time": []}}, "mouseout": {"state": {"target": [], "time": []}, "edge": {"target": [], "time": []}}}, "displayed_time": "9.04", "trialTime": 10059, "trial_type": "mouselab-mdp", "trial_index": 47, "time_elapsed": 2383637, "internal_node_id": "0.0-4.0-1.0-20.0"}}, {"uniqueid": "w70280885:a22748486", "current_trial": 48, "dateTime": 1664466404826, "trialdata": {"revealed_states": [], "num_clicks_accrued": [0, 0, 0, 0, 0, 0, 0, 0, 0, 0, 0, 0, 0], "stateRewards": ["", 4, -8, 24, 48, -2, -4, -48, 24, 2, 4, -48, -24], "withholdReward": true, "trial_id": "mdp_749974461966", "block": "test1", "trialIndex": 29, "score": -13, "costs": 0, "simulationMode": [null, null, null], "rewards": [2, 4, -24], "path": ["0", "0", "9", "10", "12"], "rt": [292, 104, 137], "actions": ["left", "left", "down"], "actionTimes": [1852, 2466, 3114], "queries": {"click": {"state": {"target": [], "time": []}, "edge": {"target": [], "time": []}}, "mouseover": {"state": {"target": [], "time": []}, "edge": {"target": [], "time": []}}, "mouseout": {"state": {"target": [], "time": []}, "edge": {"target": [], "time": []}}}, "displayed_time": "10.56", "trialTime": 11489, "trial_type": "mouselab-mdp", "trial_index": 48, "time_elapsed": 2395260, "internal_node_id": "0.0-4.0-1.0-21.0"}}, {"uniqueid": "w70280885:a22748486", "current_trial": 49, "dateTime": 1664466415298, "trialdata": {"revealed_states": [], "num_clicks_accrued": [0, 0, 0, 0, 0, 0, 0, 0, 0, 0, 0, 0, 0], "stateRewards": ["", 4, -8, -24, 24, 2, -4, 24, 24, 2, -4, 48, 48], "withholdReward": true, "trial_id": "mdp_457607480918", "block": "test1", "trialIndex": 30, "score": 27, "costs": 0, "simulationMode": [null, null, null], "rewards": [2, -4, 24], "path": ["0", "0", "5", "6", "7"], "rt": [1079, 510, 277], "actions": ["right", "right", "up"], "actionTimes": [2010, 3034, 3818], "queries": {"click": {"state": {"target": [], "time": []}, "edge": {"target": [], "time": []}}, "mouseover": {"state": {"target": [], "time": []}, "edge": {"target": [], "time": []}}, "mouseout": {"state": {"target": [], "time": []}, "edge": {"target": [], "time": []}}}, "displayed_time": "8.93", "trialTime": 10325, "trial_type": "mouselab-mdp", "trial_index": 49, "time_elapsed": 2405732, "internal_node_id": "0.0-4.0-1.0-22.0"}}, {"uniqueid": "w70280885:a22748486", "current_trial": 50, "dateTime": 1664466427079, "trialdata": {"revealed_states": [], "num_clicks_accrued": [0, 0, 0, 0, 0, 0, 0, 0, 0, 0, 0, 0, 0], "stateRewards": ["", -2, -4, 48, 48, 2, 4, -48, 24, 4, -8, 24, -24], "withholdReward": true, "trial_id": "mdp_628613319495", "block": "test1", "trialIndex": 31, "score": 47, "costs": 0, "simulationMode": [null, null, null], "rewards": [-2, -4, 48], "path": ["0", "0", "1", "2", "3"], "rt": [1022, 384, 1340], "actions": ["up", "up", "right"], "actionTimes": [2030, 2919, 4778], "queries": {"click": {"state": {"target": [], "time": []}, "edge": {"target": [], "time": []}}, "mouseover": {"state": {"target": [], "time": []}, "edge": {"target": [], "time": []}}, "mouseout": {"state": {"target": [], "time": []}, "edge": {"target": [], "time": []}}}, "displayed_time": "10.01", "trialTime": 11636, "trial_type": "mouselab-mdp", "trial_index": 50, "time_elapsed": 2417512, "internal_node_id": "0.0-4.0-1.0-23.0"}}, {"uniqueid": "w70280885:a22748486", "current_trial": 51, "dateTime": 1664466438047, "trialdata": {"revealed_states": [], "num_clicks_accrued": [0, 0, 0, 0, 0, 0, 0, 0, 0, 0, 0, 0, 0], "stateRewards": ["", 4, 4, -24, -48, -4, 4, -48, 24, 4, -8, -48, 48], "withholdReward": false, "trial_id": "mdp_566768794366", "block": "test1", "trialIndex": 32, "score": -43, "costs": 0, "simulationMode": [null, null, null], "rewards": [-4, 4, -48], "path": ["0", "0", "5", "6", "7"], "rt": [1127, 185, 33], "actions": ["right", "right", "up"], "actionTimes": [2544, 3249, 3803], "queries": {"click": {"state": {"target": [], "time": []}, "edge": {"target": [], "time": []}}, "mouseover": {"state": {"target": [], "time": []}, "edge": {"target": [], "time": []}}, "mouseout": {"state": {"target": [], "time": []}, "edge": {"target": [], "time": []}}}, "displayed_time": "9.42", "trialTime": 10837, "trial_type": "mouselab-mdp", "trial_index": 51, "time_elapsed": 2428481, "internal_node_id": "0.0-4.0-1.0-24.0"}}, {"uniqueid": "w70280885:a22748486", "current_trial": 52, "dateTime": 1664466448805, "trialdata": {"revealed_states": [], "num_clicks_accrued": [0, 0, 0, 0, 0, 0, 0, 0, 0, 0, 0, 0, 0], "stateRewards": ["", -4, -4, -24, 48, 2, 4, -24, -48, -2, 4, 24, 24], "withholdReward": false, "trial_id": "mdp_360934723192", "block": "test1", "trialIndex": 33, "score": -27, "costs": 0, "simulationMode": [null, null, null], "rewards": [-4, -4, -24], "path": ["0", "0", "1", "2", "3"], "rt": [415, 145, 654], "actions": ["up", "up", "right"], "actionTimes": [2224, 2883, 4058], "queries": {"click": {"state": {"target": [], "time": []}, "edge": {"target": [], "time": []}}, "mouseover": {"state": {"target": [], "time": []}, "edge": {"target": [], "time": []}}, "mouseout": {"state": {"target": [], "time": []}, "edge": {"target": [], "time": []}}}, "displayed_time": "8.81", "trialTime": 10617, "trial_type": "mouselab-mdp", "trial_index": 52, "time_elapsed": 2439239, "internal_node_id": "0.0-4.0-1.0-25.0"}}, {"uniqueid": "w70280885:a22748486", "current_trial": 53, "dateTime": 1664466459659, "trialdata": {"revealed_states": [], "num_clicks_accrued": [0, 0, 0, 0, 0, 0, 0, 0, 0, 0, 0, 0, 0], "stateRewards": ["", -2, -4, 48, -24, -4, -4, -24, -24, -2, 4, -48, -24], "withholdReward": true, "trial_id": "mdp_410467837196", "block": "test1", "trialIndex": 34, "score": -17, "costs": 0, "simulationMode": [null, null, null], "rewards": [-2, 4, -24], "path": ["0", "0", "9", "10", "12"], "rt": [1542, 266, 211], "actions": ["left", "left", "down"], "actionTimes": [3143, 3920, 4652], "queries": {"click": {"state": {"target": [], "time": []}, "edge": {"target": [], "time": []}}, "mouseover": {"state": {"target": [], "time": []}, "edge": {"target": [], "time": []}}, "mouseout": {"state": {"target": [], "time": []}, "edge": {"target": [], "time": []}}}, "displayed_time": "9.60", "trialTime": 10723, "trial_type": "mouselab-mdp", "trial_index": 53, "time_elapsed": 2450092, "internal_node_id": "0.0-4.0-1.0-26.0"}}, {"uniqueid": "w70280885:a22748486", "current_trial": 54, "dateTime": 1664466472706, "trialdata": {"revealed_states": [], "num_clicks_accrued": [0, 0, 0, 0, 0, 0, 0, 0, 0, 0, 0, 0, 0], "stateRewards": ["", -2, -8, 48, 24, 2, 8, -48, 24, -4, 8, 48, 48], "withholdReward": false, "trial_id": "mdp_875436109858", "block": "test1", "trialIndex": 35, "score": 19, "costs": 0, "simulationMode": [null, null, null], "rewards": [-2, -8, 24], "path": ["0", "0", "1", "2", "4"], "rt": [643, 114, 39], "actions": ["up", "up", "left"], "actionTimes": [2705, 3338, 3897], "queries": {"click": {"state": {"target": [], "time": []}, "edge": {"target": [], "time": []}}, "mouseover": {"state": {"target": [], "time": []}, "edge": {"target": [], "time": []}}, "mouseout": {"state": {"target": [], "time": []}, "edge": {"target": [], "time": []}}}, "displayed_time": "11.06", "trialTime": 12912, "trial_type": "mouselab-mdp", "trial_index": 54, "time_elapsed": 2463139, "internal_node_id": "0.0-4.0-1.0-27.0"}}, {"uniqueid": "w70280885:a22748486", "current_trial": 55, "dateTime": 1664466483107, "trialdata": {"revealed_states": [], "num_clicks_accrued": [0, 0, 0, 0, 0, 0, 0, 0, 0, 0, 0, 0, 0], "stateRewards": ["", -4, 4, -48, -48, -4, 8, -24, 24, 2, -4, 48, 48], "withholdReward": true, "trial_id": "mdp_821566905048", "block": "test1", "trialIndex": 36, "score": -15, "costs": 0, "simulationMode": [null, null, null], "rewards": [-4, 8, -24], "path": ["0", "0", "5", "6", "7"], "rt": [858, 73, 131], "actions": ["right", "right", "up"], "actionTimes": [2075, 2652, 3296], "queries": {"click": {"state": {"target": [], "time": []}, "edge": {"target": [], "time": []}}, "mouseover": {"state": {"target": [], "time": []}, "edge": {"target": [], "time": []}}, "mouseout": {"state": {"target": [], "time": []}, "edge": {"target": [], "time": []}}}, "displayed_time": "9.22", "trialTime": 10270, "trial_type": "mouselab-mdp", "trial_index": 55, "time_elapsed": 2473540, "internal_node_id": "0.0-4.0-1.0-28.0"}}, {"uniqueid": "w70280885:a22748486", "current_trial": 56, "dateTime": 1664466494846, "trialdata": {"revealed_states": [], "num_clicks_accrued": [0, 0, 0, 0, 0, 0, 0, 0, 0, 0, 0, 0, 0], "stateRewards": ["", -4, -8, -48, 24, -4, -4, -24, -48, 2, -8, -24, -48], "withholdReward": false, "trial_id": "mdp_628181832088", "block": "test1", "trialIndex": 37, "score": -27, "costs": 0, "simulationMode": [null, null, null], "rewards": [-4, -4, -24], "path": ["0", "0", "5", "6", "7"], "rt": [743, 101, 77], "actions": ["right", "right", "up"], "actionTimes": [2031, 2641, 3233], "queries": {"click": {"state": {"target": [], "time": []}, "edge": {"target": [], "time": []}}, "mouseover": {"state": {"target": [], "time": []}, "edge": {"target": [], "time": []}}, "mouseout": {"state": {"target": [], "time": []}, "edge": {"target": [], "time": []}}}, "displayed_time": "10.29", "trialTime": 11588, "trial_type": "mouselab-mdp", "trial_index": 56, "time_elapsed": 2485279, "internal_node_id": "0.0-4.0-1.0-29.0"}}, {"uniqueid": "w70280885:a22748486", "current_trial": 57, "dateTime": 1664466515234, "trialdata": {"rt": 20381, "stimulus": "<h1> End of block! </h1>\n\nYou have reached the end of the block 1/4. If you need a short break, feel free to take one now before moving on.\n\n<br><br>\nIn the next block, you will complete another 30 rounds of this game.\n\n<br><br>\n<div style='text-align: center;'>Press <code>space</code> to begin.</div>\n<br><br>\n<div style='text-align: center;'>(If the experiment doesn't continue, try clicking on the text and then pressing <code>space</code>.)</div>", "response": " ", "trial_id": "mdp_ready_2", "trial_type": "html-keyboard-response", "trial_index": 57, "time_elapsed": 2505668, "internal_node_id": "0.0-4.0-2.0"}}, {"uniqueid": "w70280885:a22748486", "current_trial": 58, "dateTime": 1664466528569, "trialdata": {"revealed_states": [], "num_clicks_accrued": [0, 0, 0, 0, 0, 0, 0, 0, 0, 0, 0, 0, 0], "stateRewards": ["", -4, -4, -48, 48, -4, -8, -24, -48, -2, 8, 48, 24], "withholdReward": true, "trial_id": "mdp_365393526663", "block": "test2", "trialIndex": 38, "score": 44.75, "costs": -0.25, "simulationMode": [null, null, null], "rewards": [-4, -4, 48], "path": ["0", "0", "1", "2", "4"], "rt": [3595, 380, 68], "actions": ["up", "up", "left"], "actionTimes": [6084, 6977, 7561], "queries": {"click": {"state": {"target": ["5"], "time": [4425]}, "edge": {"target": [], "time": []}}, "mouseover": {"state": {"target": ["5"], "time": [3976]}, "edge": {"target": [], "time": []}}, "mouseout": {"state": {"target": ["0"], "time": [3709]}, "edge": {"target": [], "time": []}}}, "displayed_time": "11.49", "trialTime": 13190, "trial_type": "mouselab-mdp", "trial_index": 58, "time_elapsed": 2519003, "internal_node_id": "0.0-4.0-3.0-0.0"}}, {"uniqueid": "w70280885:a22748486", "current_trial": 59, "dateTime": 1664466543004, "trialdata": {"revealed_states": [], "num_clicks_accrued": [0, 0, 0, 0, 0, 0, 0, 0, 0, 0, 0, 0, 0], "stateRewards": ["", 4, -4, 48, -48, -4, -4, 48, -48, 4, 4, -48, -24], "withholdReward": true, "trial_id": "mdp_490058671112", "block": "test2", "trialIndex": 39, "score": -11.25, "costs": -0.25, "simulationMode": [null, null, null], "rewards": [4, 4, -24], "path": ["0", "0", "9", "10", "12"], "rt": [1849, 458, 337], "actions": ["left", "left", "down"], "actionTimes": [3705, 4682, 5559], "queries": {"click": {"state": {"target": ["9"], "time": [2952]}, "edge": {"target": [], "time": []}}, "mouseover": {"state": {"target": ["0", "9"], "time": [2284, 2434]}, "edge": {"target": [], "time": []}}, "mouseout": {"state": {"target": ["5", "0", "9"], "time": [1067, 2318, 13083]}, "edge": {"target": [], "time": []}}}, "displayed_time": "11.86", "trialTime": 14287, "trial_type": "mouselab-mdp", "trial_index": 59, "time_elapsed": 2533438, "internal_node_id": "0.0-4.0-3.0-1.0"}}, {"uniqueid": "w70280885:a22748486", "current_trial": 60, "dateTime": 1664466555100, "trialdata": {"revealed_states": [], "num_clicks_accrued": [0, 0, 0, 0, 0, 0, 0, 0, 0, 0, 0, 0, 0], "stateRewards": ["", -2, 8, 48, 48, 2, 4, -48, 24, -4, -8, 48, 24], "withholdReward": true, "trial_id": "mdp_572910394648", "block": "test2", "trialIndex": 40, "score": -37.25, "costs": -0.25, "simulationMode": [null, null, null], "rewards": [2, 4, -48], "path": ["0", "0", "5", "6", "7"], "rt": [3771, 101, 500], "actions": ["right", "right", "up"], "actionTimes": [5797, 6415, 7430], "queries": {"click": {"state": {"target": ["1"], "time": [3288]}, "edge": {"target": [], "time": []}}, "mouseover": {"state": {"target": ["1"], "time": [2692]}, "edge": {"target": [], "time": []}}, "mouseout": {"state": {"target": ["0", "1"], "time": [2525, 11607]}, "edge": {"target": [], "time": []}}}, "displayed_time": "10.03", "trialTime": 11943, "trial_type": "mouselab-mdp", "trial_index": 60, "time_elapsed": 2545534, "internal_node_id": "0.0-4.0-3.0-2.0"}}, {"uniqueid": "w70280885:a22748486", "current_trial": 61, "dateTime": 1664466567095, "trialdata": {"revealed_states": [], "num_clicks_accrued": [0, 0, 0, 0, 0, 0, 0, 0, 0, 0, 0, 0, 0], "stateRewards": ["", 2, -4, -24, -48, -2, 8, -24, 48, -2, 8, 24, -48], "withholdReward": true, "trial_id": "mdp_566582551557", "block": "test2", "trialIndex": 41, "score": -45.25, "costs": -0.25, "simulationMode": [null, null, null], "rewards": [2, -4, -48], "path": ["0", "0", "1", "2", "4"], "rt": [3845, 362, 148], "actions": ["up", "up", "left"], "actionTimes": [5291, 6163, 6831], "queries": {"click": {"state": {"target": ["5"], "time": [2705]}, "edge": {"target": [], "time": []}}, "mouseover": {"state": {"target": ["5"], "time": [2181]}, "edge": {"target": [], "time": []}}, "mouseout": {"state": {"target": ["0"], "time": [2064]}, "edge": {"target": [], "time": []}}}, "displayed_time": "10.45", "trialTime": 11845, "trial_type": "mouselab-mdp", "trial_index": 61, "time_elapsed": 2557528, "internal_node_id": "0.0-4.0-3.0-3.0"}}, {"uniqueid": "w70280885:a22748486", "current_trial": 62, "dateTime": 1664466581049, "trialdata": {"revealed_states": [], "num_clicks_accrued": [0, 0, 0, 0, 0, 0, 0, 0, 0, 0, 0, 0, 0], "stateRewards": ["", -4, -4, -24, -48, -4, 8, -24, -48, 4, -8, 24, -24], "withholdReward": false, "trial_id": "mdp_924927483179", "block": "test2", "trialIndex": 42, "score": 24.75, "costs": -0.25, "simulationMode": [null, null, null], "rewards": [4, -8, 24], "path": ["0", "0", "9", "10", "11"], "rt": [2602, 614, 510], "actions": ["left", "left", "up"], "actionTimes": [4764, 5876, 6905], "queries": {"click": {"state": {"target": ["9"], "time": [3275]}, "edge": {"target": [], "time": []}}, "mouseover": {"state": {"target": ["9"], "time": [2691]}, "edge": {"target": [], "time": []}}, "mouseout": {"state": {"target": ["5", "0", "9"], "time": [1408, 2625, 3791]}, "edge": {"target": [], "time": []}}}, "displayed_time": "12.16", "trialTime": 13812, "trial_type": "mouselab-mdp", "trial_index": 62, "time_elapsed": 2571483, "internal_node_id": "0.0-4.0-3.0-4.0"}}, {"uniqueid": "w70280885:a22748486", "current_trial": 63, "dateTime": 1664466592978, "trialdata": {"revealed_states": [], "num_clicks_accrued": [0, 0, 0, 0, 0, 0, 0, 0, 0, 0, 0, 0, 0], "stateRewards": ["", 2, -8, 24, 24, 4, -4, -24, -48, 4, 8, 24, 24], "withholdReward": true, "trial_id": "mdp_249803813713", "block": "test2", "trialIndex": 43, "score": 22.75, "costs": -0.25, "simulationMode": [null, null, null], "rewards": [2, -8, 24], "path": ["0", "0", "1", "2", "4"], "rt": [2873, 209, 135], "actions": ["up", "up", "left"], "actionTimes": [4460, 5181, 5822], "queries": {"click": {"state": {"target": ["1"], "time": [3184]}, "edge": {"target": [], "time": []}}, "mouseover": {"state": {"target": ["1"], "time": [2487]}, "edge": {"target": [], "time": []}}, "mouseout": {"state": {"target": ["0"], "time": [2102]}, "edge": {"target": [], "time": []}}}, "displayed_time": "10.59", "trialTime": 11771, "trial_type": "mouselab-mdp", "trial_index": 63, "time_elapsed": 2583412, "internal_node_id": "0.0-4.0-3.0-5.0"}}, {"uniqueid": "w70280885:a22748486", "current_trial": 64, "dateTime": 1664466605509, "trialdata": {"revealed_states": [], "num_clicks_accrued": [0, 0, 0, 0, 0, 0, 0, 0, 0, 0, 0, 0, 0], "stateRewards": ["", 2, 8, 48, -48, -2, -4, -24, 24, 4, -4, 48, -48], "withholdReward": true, "trial_id": "mdp_105734044587", "block": "test2", "trialIndex": 44, "score": 52.75, "costs": -0.25, "simulationMode": [null, null, null], "rewards": [4, -4, 48], "path": ["0", "0", "9", "10", "11"], "rt": [2157, 185, 369], "actions": ["left", "left", "up"], "actionTimes": [3540, 4247, 5126], "queries": {"click": {"state": {"target": ["5"], "time": [2401]}, "edge": {"target": [], "time": []}}, "mouseover": {"state": {"target": ["5"], "time": [1939]}, "edge": {"target": [], "time": []}}, "mouseout": {"state": {"target": ["1"], "time": [699]}, "edge": {"target": [], "time": []}}}, "displayed_time": "10.38", "trialTime": 12407, "trial_type": "mouselab-mdp", "trial_index": 64, "time_elapsed": 2595943, "internal_node_id": "0.0-4.0-3.0-6.0"}}, {"uniqueid": "w70280885:a22748486", "current_trial": 65, "dateTime": 1664466616495, "trialdata": {"revealed_states": [], "num_clicks_accrued": [0, 0, 0, 0, 0, 0, 0, 0, 0, 0, 0, 0, 0], "stateRewards": ["", -4, 8, 24, -24, -2, 4, -24, 48, -2, 8, -48, -24], "withholdReward": false, "trial_id": "mdp_799359103169", "block": "test2", "trialIndex": 45, "score": -13.25, "costs": -0.25, "simulationMode": [null, null, null], "rewards": [-2, 8, -24], "path": ["0", "0", "9", "10", "12"], "rt": [3013, 39, 24], "actions": ["left", "left", "down"], "actionTimes": [4463, 5019, 5554], "queries": {"click": {"state": {"target": ["1"], "time": [2753]}, "edge": {"target": [], "time": []}}, "mouseover": {"state": {"target": ["1"], "time": [2111]}, "edge": {"target": [], "time": []}}, "mouseout": {"state": {"target": ["5", "0"], "time": [694, 1793]}, "edge": {"target": [], "time": []}}}, "displayed_time": "9.45", "trialTime": 10851, "trial_type": "mouselab-mdp", "trial_index": 65, "time_elapsed": 2606928, "internal_node_id": "0.0-4.0-3.0-7.0"}}, {"uniqueid": "w70280885:a22748486", "current_trial": 66, "dateTime": 1664466628382, "trialdata": {"revealed_states": [], "num_clicks_accrued": [0, 0, 0, 0, 0, 0, 0, 0, 0, 0, 0, 0, 0], "stateRewards": ["", 4, -4, 48, 24, 2, -8, 24, -48, -2, -4, -48, -48], "withholdReward": false, "trial_id": "mdp_655302318695", "block": "test2", "trialIndex": 46, "score": 52.75, "costs": -0.25, "simulationMode": [null, null, null], "rewards": [4, -4, 48], "path": ["0", "0", "1", "2", "3"], "rt": [2781, 14, 4], "actions": ["up", "up", "right"], "actionTimes": [4296, 4802, 5339], "queries": {"click": {"state": {"target": ["9"], "time": [2455]}, "edge": {"target": [], "time": []}}, "mouseover": {"state": {"target": ["9", "5"], "time": [1984, 3134]}, "edge": {"target": [], "time": []}}, "mouseout": {"state": {"target": ["1", "9"], "time": [784, 2951]}, "edge": {"target": [], "time": []}}}, "displayed_time": "10.52", "trialTime": 11748, "trial_type": "mouselab-mdp", "trial_index": 66, "time_elapsed": 2618816, "internal_node_id": "0.0-4.0-3.0-8.0"}}, {"uniqueid": "w70280885:a22748486", "current_trial": 67, "dateTime": 1664466641233, "trialdata": {"revealed_states": [], "num_clicks_accrued": [0, 0, 0, 0, 0, 0, 0, 0, 0, 0, 0, 0, 0], "stateRewards": ["", -2, -4, -24, -48, -4, -8, -48, 24, -4, -8, -24, -48], "withholdReward": true, "trial_id": "mdp_475782454549", "block": "test2", "trialIndex": 47, "score": -49.25, "costs": -0.25, "simulationMode": [null, null, null], "rewards": [-2, -4, -48], "path": ["0", "0", "1", "2", "4"], "rt": [6039, 51, 335], "actions": ["up", "up", "left"], "actionTimes": [7779, 8351, 9222], "queries": {"click": {"state": {"target": ["6"], "time": [6484]}, "edge": {"target": [], "time": []}}, "mouseover": {"state": {"target": ["0", "5", "6", "6"], "time": [2499, 4349, 4831, 6067]}, "edge": {"target": [], "time": []}}, "mouseout": {"state": {"target": ["5", "0", "0", "5", "6"], "time": [699, 916, 4200, 4715, 5618]}, "edge": {"target": [], "time": []}}}, "displayed_time": "9.74", "trialTime": 12716, "trial_type": "mouselab-mdp", "trial_index": 67, "time_elapsed": 2631667, "internal_node_id": "0.0-4.0-3.0-9.0"}}, {"uniqueid": "w70280885:a22748486", "current_trial": 68, "dateTime": 1664466655225, "trialdata": {"revealed_states": [], "num_clicks_accrued": [0, 0, 0, 0, 0, 0, 0, 0, 0, 0, 0, 0, 0], "stateRewards": ["", -2, 8, -48, 48, 4, -8, -48, 48, 4, -4, -24, 48], "withholdReward": false, "trial_id": "mdp_144739116828", "block": "test2", "trialIndex": 48, "score": 48.75, "costs": -0.25, "simulationMode": [null, null, null], "rewards": [4, -8, 48], "path": ["0", "0", "5", "6", "8"], "rt": [2915, 51, 265], "actions": ["right", "right", "down"], "actionTimes": [5720, 6286, 7083], "queries": {"click": {"state": {"target": ["10"], "time": [4331]}, "edge": {"target": [], "time": []}}, "mouseover": {"state": {"target": ["0", "9", "10"], "time": [3315, 3349, 3515]}, "edge": {"target": [], "time": []}}, "mouseout": {"state": {"target": ["6", "5", "0", "0", "9", "10", "9"], "time": [1949, 2015, 2132, 3333, 3416, 11797, 12014]}, "edge": {"target": [], "time": []}}}, "displayed_time": "11.80", "trialTime": 13845, "trial_type": "mouselab-mdp", "trial_index": 68, "time_elapsed": 2645659, "internal_node_id": "0.0-4.0-3.0-10.0"}}, {"uniqueid": "w70280885:a22748486", "current_trial": 69, "dateTime": 1664466667330, "trialdata": {"revealed_states": [], "num_clicks_accrued": [0, 0, 0, 0, 0, 0, 0, 0, 0, 0, 0, 0, 0], "stateRewards": ["", 4, -8, -24, 48, -4, 8, -24, -48, -4, -4, 24, 48], "withholdReward": false, "trial_id": "mdp_282352776624", "block": "test2", "trialIndex": 49, "score": 48.75, "costs": -0.25, "simulationMode": [null, null, null], "rewards": [4, -8, 48], "path": ["0", "0", "1", "2", "4"], "rt": [2534, 203, 174], "actions": ["up", "up", "left"], "actionTimes": [3905, 4617, 5308], "queries": {"click": {"state": {"target": ["1"], "time": [2759]}, "edge": {"target": [], "time": []}}, "mouseover": {"state": {"target": ["1"], "time": [2096]}, "edge": {"target": [], "time": []}}, "mouseout": {"state": {"target": ["0"], "time": [812]}, "edge": {"target": [], "time": []}}}, "displayed_time": "10.37", "trialTime": 11948, "trial_type": "mouselab-mdp", "trial_index": 69, "time_elapsed": 2657764, "internal_node_id": "0.0-4.0-3.0-11.0"}}, {"uniqueid": "w70280885:a22748486", "current_trial": 70, "dateTime": 1664466684610, "trialdata": {"revealed_states": [], "num_clicks_accrued": [0, 0, 0, 0, 0, 0, 0, 0, 0, 0, 0, 0, 0], "stateRewards": ["", 2, -8, -24, 48, 4, -8, -24, -24, 2, 8, -24, 24], "withholdReward": true, "trial_id": "mdp_480787552818", "block": "test2", "trialIndex": 50, "score": 38.75, "costs": -0.25, "simulationMode": [null, null, null], "rewards": [2, 8, 24], "path": ["0", "0", "9", "10", "12"], "rt": [2958, 131, 254], "actions": ["left", "left", "down"], "actionTimes": [4516, 5154, 5925], "queries": {"click": {"state": {"target": ["9"], "time": [3464]}, "edge": {"target": [], "time": []}}, "mouseover": {"state": {"target": ["9", "9"], "time": [2254, 3058]}, "edge": {"target": [], "time": []}}, "mouseout": {"state": {"target": ["1", "9"], "time": [786, 2336]}, "edge": {"target": [], "time": []}}}, "displayed_time": "10.56", "trialTime": 17122, "trial_type": "mouselab-mdp", "trial_index": 70, "time_elapsed": 2675043, "internal_node_id": "0.0-4.0-3.0-12.0"}}, {"uniqueid": "w70280885:a22748486", "current_trial": 71, "dateTime": 1664466698762, "trialdata": {"revealed_states": [], "num_clicks_accrued": [0, 0, 0, 0, 0, 0, 0, 0, 0, 0, 0, 0, 0], "stateRewards": ["", 4, 4, 24, -48, 2, -8, -24, -48, 4, 8, 48, 48], "withholdReward": true, "trial_id": "mdp_592471239511", "block": "test2", "trialIndex": 51, "score": -25.25, "costs": -0.25, "simulationMode": [null, null, null], "rewards": [2, -8, -24], "path": ["0", "0", "5", "6", "7"], "rt": [2394, 433, 33], "actions": ["right", "right", "up"], "actionTimes": [4534, 5480, 6029], "queries": {"click": {"state": {"target": ["5"], "time": [3489]}, "edge": {"target": [], "time": []}}, "mouseover": {"state": {"target": ["5"], "time": [3077]}, "edge": {"target": [], "time": []}}, "mouseout": {"state": {"target": ["9", "0"], "time": [694, 2727]}, "edge": {"target": [], "time": []}}}, "displayed_time": "10.14", "trialTime": 13985, "trial_type": "mouselab-mdp", "trial_index": 71, "time_elapsed": 2689195, "internal_node_id": "0.0-4.0-3.0-13.0"}}, {"uniqueid": "w70280885:a22748486", "current_trial": 72, "dateTime": 1664466709283, "trialdata": {"revealed_states": [], "num_clicks_accrued": [0, 0, 0, 0, 0, 0, 0, 0, 0, 0, 0, 0, 0], "stateRewards": ["", -4, 4, 24, 24, 4, -8, 48, -48, -2, -8, 24, 24], "withholdReward": true, "trial_id": "mdp_395264223239", "block": "test2", "trialIndex": 52, "score": 18.75, "costs": -0.25, "simulationMode": [null, null, null], "rewards": [-2, -8, 24], "path": ["0", "0", "9", "10", "11"], "rt": [3643, 37, 413], "actions": ["left", "left", "up"], "actionTimes": [5135, 5681, 6607], "queries": {"click": {"state": {"target": ["1"], "time": [3408]}, "edge": {"target": [], "time": []}}, "mouseover": {"state": {"target": ["5", "1"], "time": [2424, 2907]}, "edge": {"target": [], "time": []}}, "mouseout": {"state": {"target": ["5", "5", "1"], "time": [624, 2774, 4056]}, "edge": {"target": [], "time": []}}}, "displayed_time": "9.51", "trialTime": 10372, "trial_type": "mouselab-mdp", "trial_index": 72, "time_elapsed": 2699717, "internal_node_id": "0.0-4.0-3.0-14.0"}}, {"uniqueid": "w70280885:a22748486", "current_trial": 73, "dateTime": 1664466720873, "trialdata": {"revealed_states": [], "num_clicks_accrued": [0, 0, 0, 0, 0, 0, 0, 0, 0, 0, 0, 0, 0], "stateRewards": ["", 4, 4, 48, -48, -2, 4, 48, -48, -4, 4, -24, -24], "withholdReward": true, "trial_id": "mdp_753324812898", "block": "test2", "trialIndex": 53, "score": -41.25, "costs": -0.25, "simulationMode": [null, null, null], "rewards": [-2, 4, -48], "path": ["0", "0", "5", "6", "8"], "rt": [3700, 424, 178], "actions": ["right", "right", "down"], "actionTimes": [5056, 5994, 6693], "queries": {"click": {"state": {"target": ["9"], "time": [2433]}, "edge": {"target": [], "time": []}}, "mouseover": {"state": {"target": ["0", "9"], "time": [1663, 1997]}, "edge": {"target": [], "time": []}}, "mouseout": {"state": {"target": ["9", "0"], "time": [647, 1730]}, "edge": {"target": [], "time": []}}}, "displayed_time": "10.37", "trialTime": 11437, "trial_type": "mouselab-mdp", "trial_index": 73, "time_elapsed": 2711307, "internal_node_id": "0.0-4.0-3.0-15.0"}}, {"uniqueid": "w70280885:a22748486", "current_trial": 74, "dateTime": 1664466732890, "trialdata": {"revealed_states": [], "num_clicks_accrued": [0, 0, 0, 0, 0, 0, 0, 0, 0, 0, 0, 0, 0], "stateRewards": ["", -2, -4, -48, -48, -2, -8, 48, -48, 4, -8, -48, 24], "withholdReward": true, "trial_id": "mdp_468495641521", "block": "test2", "trialIndex": 54, "score": -47.25, "costs": -0.25, "simulationMode": [null, null, null], "rewards": [4, -8, -48], "path": ["0", "0", "9", "10", "11"], "rt": [2767, 307, 152], "actions": ["left", "left", "up"], "actionTimes": [4449, 5267, 5930], "queries": {"click": {"state": {"target": ["9"], "time": [3797]}, "edge": {"target": [], "time": []}}, "mouseover": {"state": {"target": ["9"], "time": [2737]}, "edge": {"target": [], "time": []}}, "mouseout": {"state": {"target": ["9"], "time": [991]}, "edge": {"target": [], "time": []}}}, "displayed_time": "10.68", "trialTime": 11868, "trial_type": "mouselab-mdp", "trial_index": 74, "time_elapsed": 2723324, "internal_node_id": "0.0-4.0-3.0-16.0"}}, {"uniqueid": "w70280885:a22748486", "current_trial": 75, "dateTime": 1664466745407, "trialdata": {"revealed_states": [], "num_clicks_accrued": [0, 0, 0, 0, 0, 0, 0, 0, 0, 0, 0, 0, 0], "stateRewards": ["", 2, 8, 24, 24, 2, -8, -24, -48, 2, 8, -48, 48], "withholdReward": false, "trial_id": "mdp_745175888812", "block": "test2", "trialIndex": 55, "score": 38.75, "costs": -0.25, "simulationMode": [null, null, null], "rewards": [2, 8, 24], "path": ["0", "0", "1", "2", "3"], "rt": [2276, 200, 383], "actions": ["up", "up", "right"], "actionTimes": [3804, 4520, 5421], "queries": {"click": {"state": {"target": ["1"], "time": [3149]}, "edge": {"target": [], "time": []}}, "mouseover": {"state": {"target": ["1"], "time": [2584]}, "edge": {"target": [], "time": []}}, "mouseout": {"state": {"target": ["9", "0"], "time": [684, 2118]}, "edge": {"target": [], "time": []}}}, "displayed_time": "10.53", "trialTime": 12380, "trial_type": "mouselab-mdp", "trial_index": 75, "time_elapsed": 2735841, "internal_node_id": "0.0-4.0-3.0-17.0"}}, {"uniqueid": "w70280885:a22748486", "current_trial": 76, "dateTime": 1664466756008, "trialdata": {"revealed_states": [], "num_clicks_accrued": [0, 0, 0, 0, 0, 0, 0, 0, 0, 0, 0, 0, 0], "stateRewards": ["", 4, -8, 48, -24, 4, -4, -48, -48, 4, -4, 24, 24], "withholdReward": true, "trial_id": "mdp_221562928904", "block": "test2", "trialIndex": 56, "score": -43.25, "costs": -0.25, "simulationMode": [null, null, null], "rewards": [4, -4, -48], "path": ["0", "0", "5", "6", "8"], "rt": [2032, 138, 53], "actions": ["right", "right", "down"], "actionTimes": [3510, 4167, 4736], "queries": {"click": {"state": {"target": ["5"], "time": [2551]}, "edge": {"target": [], "time": []}}, "mouseover": {"state": {"target": ["5"], "time": [2108]}, "edge": {"target": [], "time": []}}, "mouseout": {"state": {"target": ["1"], "time": [826]}, "edge": {"target": [], "time": []}}}, "displayed_time": "9.48", "trialTime": 10441, "trial_type": "mouselab-mdp", "trial_index": 76, "time_elapsed": 2746442, "internal_node_id": "0.0-4.0-3.0-18.0"}}, {"uniqueid": "w70280885:a22748486", "current_trial": 77, "dateTime": 1664466766528, "trialdata": {"revealed_states": [], "num_clicks_accrued": [0, 0, 0, 0, 0, 0, 0, 0, 0, 0, 0, 0, 0], "stateRewards": ["", -4, 4, -24, 48, -2, 8, -48, 24, 2, 4, 48, -48], "withholdReward": true, "trial_id": "mdp_366632183904", "block": "test2", "trialIndex": 57, "score": 58.75, "costs": -0.25, "simulationMode": [null, null, null], "rewards": [2, 4, 48], "path": ["0", "0", "9", "10", "11"], "rt": [2624, 157, 306], "actions": ["left", "left", "up"], "actionTimes": [4057, 4729, 5549], "queries": {"click": {"state": {"target": ["1"], "time": [2750]}, "edge": {"target": [], "time": []}}, "mouseover": {"state": {"target": ["1", "9"], "time": [2006, 3505]}, "edge": {"target": [], "time": []}}, "mouseout": {"state": {"target": ["5", "1"], "time": [639, 3405]}, "edge": {"target": [], "time": []}}}, "displayed_time": "9.43", "trialTime": 10360, "trial_type": "mouselab-mdp", "trial_index": 77, "time_elapsed": 2756962, "internal_node_id": "0.0-4.0-3.0-19.0"}}, {"uniqueid": "w70280885:a22748486", "current_trial": 78, "dateTime": 1664466778467, "trialdata": {"revealed_states": [], "num_clicks_accrued": [0, 0, 0, 0, 0, 0, 0, 0, 0, 0, 0, 0, 0], "stateRewards": ["", 4, 8, -24, 48, 4, -8, -48, 48, -4, 8, -24, -48], "withholdReward": true, "trial_id": "mdp_376126356841", "block": "test2", "trialIndex": 58, "score": -39.25, "costs": -0.25, "simulationMode": [null, null, null], "rewards": [-4, 8, -48], "path": ["0", "0", "9", "10", "12"], "rt": [5181, 1220, 393], "actions": ["left", "left", "down"], "actionTimes": [6853, 8584, 9489], "queries": {"click": {"state": {"target": ["6"], "time": [3238]}, "edge": {"target": [], "time": []}}, "mouseover": {"state": {"target": ["5", "6", "6", "8"], "time": [2010, 2093, 2794, 4743]}, "edge": {"target": [], "time": []}}, "mouseout": {"state": {"target": ["9", "0", "5", "6", "6", "8"], "time": [876, 1978, 2044, 2244, 4726, 4794]}, "edge": {"target": [], "time": []}}}, "displayed_time": "10.67", "trialTime": 11789, "trial_type": "mouselab-mdp", "trial_index": 78, "time_elapsed": 2768900, "internal_node_id": "0.0-4.0-3.0-20.0"}}, {"uniqueid": "w70280885:a22748486", "current_trial": 79, "dateTime": 1664466789391, "trialdata": {"revealed_states": [], "num_clicks_accrued": [0, 0, 0, 0, 0, 0, 0, 0, 0, 0, 0, 0, 0], "stateRewards": ["", 2, -4, -48, 24, 4, 4, 48, -48, -2, -4, -24, -48], "withholdReward": true, "trial_id": "mdp_858916930936", "block": "test2", "trialIndex": 59, "score": -45.25, "costs": -0.25, "simulationMode": [null, null, null], "rewards": [2, -4, -48], "path": ["0", "0", "1", "2", "3"], "rt": [2595, 278, 413], "actions": ["up", "up", "right"], "actionTimes": [4439, 5228, 6131], "queries": {"click": {"state": {"target": ["1"], "time": [3360]}, "edge": {"target": [], "time": []}}, "mouseover": {"state": {"target": ["1"], "time": [2565]}, "edge": {"target": [], "time": []}}, "mouseout": {"state": {"target": ["0"], "time": [2331]}, "edge": {"target": [], "time": []}}}, "displayed_time": "9.85", "trialTime": 10770, "trial_type": "mouselab-mdp", "trial_index": 79, "time_elapsed": 2779825, "internal_node_id": "0.0-4.0-3.0-21.0"}}, {"uniqueid": "w70280885:a22748486", "current_trial": 80, "dateTime": 1664466802017, "trialdata": {"revealed_states": [], "num_clicks_accrued": [0, 0, 0, 0, 0, 0, 0, 0, 0, 0, 0, 0, 0], "stateRewards": ["", 2, 8, 48, 24, 2, 8, 48, 48, -2, -4, -24, -48], "withholdReward": false, "trial_id": "mdp_717636349175", "block": "test2", "trialIndex": 60, "score": 62.75, "costs": -0.25, "simulationMode": [null, null, null], "rewards": [2, 8, 48], "path": ["0", "0", "5", "6", "7"], "rt": [2325, 18, 377], "actions": ["right", "right", "up"], "actionTimes": [3796, 4352, 5247], "queries": {"click": {"state": {"target": ["9"], "time": [2233]}, "edge": {"target": [], "time": []}}, "mouseover": {"state": {"target": ["0", "9"], "time": [1700, 1766]}, "edge": {"target": [], "time": []}}, "mouseout": {"state": {"target": ["1", "0"], "time": [648, 1716]}, "edge": {"target": [], "time": []}}}, "displayed_time": "10.47", "trialTime": 12482, "trial_type": "mouselab-mdp", "trial_index": 80, "time_elapsed": 2792451, "internal_node_id": "0.0-4.0-3.0-22.0"}}, {"uniqueid": "w70280885:a22748486", "current_trial": 81, "dateTime": 1664466812568, "trialdata": {"revealed_states": [], "num_clicks_accrued": [0, 0, 0, 0, 0, 0, 0, 0, 0, 0, 0, 0, 0], "stateRewards": ["", 2, 4, -48, 24, -4, -4, -24, 24, 2, -4, 24, -24], "withholdReward": true, "trial_id": "mdp_163600331068", "block": "test2", "trialIndex": 61, "score": 34.75, "costs": -0.25, "simulationMode": [null, null, null], "rewards": [2, 4, 24], "path": ["0", "0", "1", "2", "4"], "rt": [2401, 275, 164], "actions": ["up", "up", "left"], "actionTimes": [3794, 4590, 5262], "queries": {"click": {"state": {"target": ["1"], "time": [2601]}, "edge": {"target": [], "time": []}}, "mouseover": {"state": {"target": ["1"], "time": [2112]}, "edge": {"target": [], "time": []}}, "mouseout": {"state": {"target": ["9", "0"], "time": [663, 1979]}, "edge": {"target": [], "time": []}}}, "displayed_time": "9.39", "trialTime": 10400, "trial_type": "mouselab-mdp", "trial_index": 81, "time_elapsed": 2803001, "internal_node_id": "0.0-4.0-3.0-23.0"}}, {"uniqueid": "w70280885:a22748486", "current_trial": 82, "dateTime": 1664466823363, "trialdata": {"revealed_states": [], "num_clicks_accrued": [0, 0, 0, 0, 0, 0, 0, 0, 0, 0, 0, 0, 0], "stateRewards": ["", -2, -8, 48, 24, 2, 8, -48, 24, -4, 8, 48, 48], "withholdReward": true, "trial_id": "mdp_875436109858", "block": "test2", "trialIndex": 62, "score": 38.75, "costs": -0.25, "simulationMode": [null, null, null], "rewards": [2, 8, 24], "path": ["0", "0", "5", "6", "8"], "rt": [2804, 105, 394], "actions": ["right", "right", "down"], "actionTimes": [4424, 5036, 5940], "queries": {"click": {"state": {"target": ["5"], "time": [3676]}, "edge": {"target": [], "time": []}}, "mouseover": {"state": {"target": ["5", "5", "6", "5"], "time": [2379, 2462, 2545, 3261]}, "edge": {"target": [], "time": []}}, "mouseout": {"state": {"target": ["1", "0", "5", "5", "6"], "time": [961, 1477, 2395, 2478, 3195]}, "edge": {"target": [], "time": []}}}, "displayed_time": "9.62", "trialTime": 10646, "trial_type": "mouselab-mdp", "trial_index": 82, "time_elapsed": 2813797, "internal_node_id": "0.0-4.0-3.0-24.0"}}, {"uniqueid": "w70280885:a22748486", "current_trial": 83, "dateTime": 1664466834298, "trialdata": {"revealed_states": [], "num_clicks_accrued": [0, 0, 0, 0, 0, 0, 0, 0, 0, 0, 0, 0, 0], "stateRewards": ["", 2, 4, -24, -24, 4, 8, -48, 48, 2, 4, -24, -48], "withholdReward": false, "trial_id": "mdp_565165082781", "block": "test2", "trialIndex": 63, "score": -13.25, "costs": -0.25, "simulationMode": [null, null, null], "rewards": [2, 4, -24], "path": ["0", "0", "1", "2", "4"], "rt": [2353, 145, 639], "actions": ["up", "up", "left"], "actionTimes": [3940, 4598, 5746], "queries": {"click": {"state": {"target": ["1"], "time": [2853]}, "edge": {"target": [], "time": []}}, "mouseover": {"state": {"target": ["1"], "time": [2270]}, "edge": {"target": [], "time": []}}, "mouseout": {"state": {"target": ["5"], "time": [718]}, "edge": {"target": [], "time": []}}}, "displayed_time": "8.59", "trialTime": 10773, "trial_type": "mouselab-mdp", "trial_index": 83, "time_elapsed": 2824731, "internal_node_id": "0.0-4.0-3.0-25.0"}}, {"uniqueid": "w70280885:a22748486", "current_trial": 84, "dateTime": 1664466845157, "trialdata": {"revealed_states": [], "num_clicks_accrued": [0, 0, 0, 0, 0, 0, 0, 0, 0, 0, 0, 0, 0], "stateRewards": ["", 4, 4, 48, -24, -4, -8, 24, -24, 2, -8, -24, 24], "withholdReward": true, "trial_id": "mdp_933201675789", "block": "test2", "trialIndex": 64, "score": -11.25, "costs": -0.25, "simulationMode": [null, null, null], "rewards": [4, 4, -24], "path": ["0", "0", "1", "2", "4"], "rt": [2573, 378, 24], "actions": ["up", "up", "left"], "actionTimes": [4092, 4990, 5519], "queries": {"click": {"state": {"target": ["1"], "time": [3141]}, "edge": {"target": [], "time": []}}, "mouseover": {"state": {"target": ["1"], "time": [2344]}, "edge": {"target": [], "time": []}}, "mouseout": {"state": {"target": ["1"], "time": [794]}, "edge": {"target": [], "time": []}}}, "displayed_time": "9.52", "trialTime": 10709, "trial_type": "mouselab-mdp", "trial_index": 84, "time_elapsed": 2835590, "internal_node_id": "0.0-4.0-3.0-26.0"}}, {"uniqueid": "w70280885:a22748486", "current_trial": 85, "dateTime": 1664466855658, "trialdata": {"revealed_states": [], "num_clicks_accrued": [0, 0, 0, 0, 0, 0, 0, 0, 0, 0, 0, 0, 0], "stateRewards": ["", 2, -8, -24, 48, -4, -8, 24, -48, 4, -8, -24, -24], "withholdReward": true, "trial_id": "mdp_928911266656", "block": "test2", "trialIndex": 65, "score": -23.25, "costs": -0.25, "simulationMode": [null, null, null], "rewards": [4, -8, -24], "path": ["0", "0", "9", "10", "11"], "rt": [2336, 227, 220], "actions": ["left", "left", "up"], "actionTimes": [3769, 4512, 5237], "queries": {"click": {"state": {"target": ["9"], "time": [2389]}, "edge": {"target": [], "time": []}}, "mouseover": {"state": {"target": ["9"], "time": [1915]}, "edge": {"target": [], "time": []}}, "mouseout": {"state": {"target": ["1"], "time": [764]}, "edge": {"target": [], "time": []}}}, "displayed_time": "9.44", "trialTime": 10367, "trial_type": "mouselab-mdp", "trial_index": 85, "time_elapsed": 2846092, "internal_node_id": "0.0-4.0-3.0-27.0"}}, {"uniqueid": "w70280885:a22748486", "current_trial": 86, "dateTime": 1664466867071, "trialdata": {"revealed_states": [], "num_clicks_accrued": [0, 0, 0, 0, 0, 0, 0, 0, 0, 0, 0, 0, 0], "stateRewards": ["", -2, -4, -24, 48, -4, 8, 48, 48, 2, 8, -48, -24], "withholdReward": true, "trial_id": "mdp_136376573354", "block": "test2", "trialIndex": 66, "score": -25.25, "costs": -0.25, "simulationMode": [null, null, null], "rewards": [-2, -4, -24], "path": ["0", "0", "1", "2", "3"], "rt": [1933, 262, 104], "actions": ["up", "up", "right"], "actionTimes": [3220, 3996, 4621], "queries": {"click": {"state": {"target": ["5"], "time": [2407]}, "edge": {"target": [], "time": []}}, "mouseover": {"state": {"target": ["5", "5"], "time": [1648, 2018]}, "edge": {"target": [], "time": []}}, "mouseout": {"state": {"target": ["9", "0", "5"], "time": [664, 1581, 1914]}, "edge": {"target": [], "time": []}}}, "displayed_time": "10.29", "trialTime": 11265, "trial_type": "mouselab-mdp", "trial_index": 86, "time_elapsed": 2857505, "internal_node_id": "0.0-4.0-3.0-28.0"}}, {"uniqueid": "w70280885:a22748486", "current_trial": 87, "dateTime": 1664466879898, "trialdata": {"revealed_states": [], "num_clicks_accrued": [0, 0, 0, 0, 0, 0, 0, 0, 0, 0, 0, 0, 0], "stateRewards": ["", -2, -4, -24, 24, -2, 4, -24, -24, -4, 4, 24, -24], "withholdReward": true, "trial_id": "mdp_999419261719", "block": "test2", "trialIndex": 67, "score": 22.75, "costs": -0.25, "simulationMode": [null, null, null], "rewards": [-2, -4, 24], "path": ["0", "0", "1", "2", "4"], "rt": [1927, 156, 474], "actions": ["up", "up", "left"], "actionTimes": [3264, 3925, 4907], "queries": {"click": {"state": {"target": ["9"], "time": [2194]}, "edge": {"target": [], "time": []}}, "mouseover": {"state": {"target": ["9"], "time": [1747]}, "edge": {"target": [], "time": []}}, "mouseout": {"state": {"target": ["5"], "time": [630]}, "edge": {"target": [], "time": []}}}, "displayed_time": "11.34", "trialTime": 12676, "trial_type": "mouselab-mdp", "trial_index": 87, "time_elapsed": 2870332, "internal_node_id": "0.0-4.0-3.0-29.0"}}, {"uniqueid": "w70280885:a22748486", "current_trial": 88, "dateTime": 1664466882008, "trialdata": {"rt": 2098, "stimulus": "<h1> End of block! </h1>\n\nYou have reached the end of the block 2/4. If you need a short break, feel free to take one now before moving on.\n\n<br><br>\nIn the next block, you will complete another 30 rounds of this game.\n\n<br><br>\n<div style='text-align: center;'>Press <code>space</code> to begin.</div>\n<br><br>\n<div style='text-align: center;'>(If the experiment doesn't continue, try clicking on the text and then pressing <code>space</code>.)</div>", "response": " ", "trial_id": "mdp_ready_3", "trial_type": "html-keyboard-response", "trial_index": 88, "time_elapsed": 2872442, "internal_node_id": "0.0-4.0-4.0"}}, {"uniqueid": "w70280885:a22748486", "current_trial": 89, "dateTime": 1664466892842, "trialdata": {"revealed_states": [], "num_clicks_accrued": [0, 0, 0, 0, 0, 0, 0, 0, 0, 0, 0, 0, 0], "stateRewards": ["", -4, -4, -24, 24, -4, 4, -24, 48, -2, 4, 48, -48], "withholdReward": true, "trial_id": "mdp_774757609669", "block": "test3", "trialIndex": 68, "score": -19, "costs": 0, "simulationMode": [null, null, null], "rewards": [-4, 4, -24], "path": ["0", "0", "5", "6", "7"], "rt": [1392, 322, 293], "actions": ["right", "right", "up"], "actionTimes": [3643, 4477, 5269], "queries": {"click": {"state": {"target": [], "time": []}, "edge": {"target": [], "time": []}}, "mouseover": {"state": {"target": [], "time": []}, "edge": {"target": [], "time": []}}, "mouseout": {"state": {"target": ["9"], "time": [1369]}, "edge": {"target": [], "time": []}}}, "displayed_time": "9.27", "trialTime": 10697, "trial_type": "mouselab-mdp", "trial_index": 89, "time_elapsed": 2883276, "internal_node_id": "0.0-4.0-5.0-0.0"}}, {"uniqueid": "w70280885:a22748486", "current_trial": 90, "dateTime": 1664466904523, "trialdata": {"revealed_states": [], "num_clicks_accrued": [0, 0, 0, 0, 0, 0, 0, 0, 0, 0, 0, 0, 0], "stateRewards": ["", 2, 8, -48, 24, -2, 4, 48, 48, -2, -8, 48, 24], "withholdReward": false, "trial_id": "mdp_157355418411", "block": "test3", "trialIndex": 69, "score": 38.75, "costs": -0.25, "simulationMode": [null, null, null], "rewards": [2, 8, 24], "path": ["0", "0", "1", "2", "4"], "rt": [1843, 260, 324], "actions": ["up", "up", "left"], "actionTimes": [2782, 3563, 4393], "queries": {"click": {"state": {"target": ["1"], "time": [2005]}, "edge": {"target": [], "time": []}}, "mouseover": {"state": {"target": ["1"], "time": [1435]}, "edge": {"target": [], "time": []}}, "mouseout": {"state": {"target": ["0"], "time": [1285]}, "edge": {"target": [], "time": []}}}, "displayed_time": "9.94", "trialTime": 11528, "trial_type": "mouselab-mdp", "trial_index": 90, "time_elapsed": 2894957, "internal_node_id": "0.0-4.0-5.0-1.0"}}, {"uniqueid": "w70280885:a22748486", "current_trial": 91, "dateTime": 1664466915034, "trialdata": {"revealed_states": [], "num_clicks_accrued": [0, 0, 0, 0, 0, 0, 0, 0, 0, 0, 0, 0, 0], "stateRewards": ["", -2, -4, -24, -48, 2, -8, -24, -24, 4, -8, 48, 48], "withholdReward": true, "trial_id": "mdp_950599994674", "block": "test3", "trialIndex": 70, "score": 48.75, "costs": -0.25, "simulationMode": [null, null, null], "rewards": [4, -8, 48], "path": ["0", "0", "9", "10", "11"], "rt": [1563, 281, 428], "actions": ["left", "left", "up"], "actionTimes": [2855, 3648, 4596], "queries": {"click": {"state": {"target": ["9"], "time": [2183]}, "edge": {"target": [], "time": []}}, "mouseover": {"state": {"target": ["9"], "time": [1699]}, "edge": {"target": [], "time": []}}, "mouseout": {"state": {"target": ["1", "0"], "time": [665, 1616]}, "edge": {"target": [], "time": []}}}, "displayed_time": "9.29", "trialTime": 10389, "trial_type": "mouselab-mdp", "trial_index": 91, "time_elapsed": 2905468, "internal_node_id": "0.0-4.0-5.0-2.0"}}, {"uniqueid": "w70280885:a22748486", "current_trial": 92, "dateTime": 1664466926725, "trialdata": {"revealed_states": [], "num_clicks_accrued": [0, 0, 0, 0, 0, 0, 0, 0, 0, 0, 0, 0, 0], "stateRewards": ["", 4, 4, 48, -48, 4, 4, -48, 24, 2, 8, 24, -48], "withholdReward": true, "trial_id": "mdp_291674656283", "block": "test3", "trialIndex": 71, "score": 36.75, "costs": -0.25, "simulationMode": [null, null, null], "rewards": [4, 4, 24], "path": ["0", "0", "5", "6", "8"], "rt": [2752, 103, 56], "actions": ["right", "right", "down"], "actionTimes": [4119, 4738, 5304], "queries": {"click": {"state": {"target": ["6"], "time": [2421]}, "edge": {"target": [], "time": []}}, "mouseover": {"state": {"target": ["5", "6"], "time": [1816, 1982]}, "edge": {"target": [], "time": []}}, "mouseout": {"state": {"target": ["9", "0", "5"], "time": [782, 1752, 1899]}, "edge": {"target": [], "time": []}}}, "displayed_time": "10.37", "trialTime": 11549, "trial_type": "mouselab-mdp", "trial_index": 92, "time_elapsed": 2917159, "internal_node_id": "0.0-4.0-5.0-3.0"}}, {"uniqueid": "w70280885:a22748486", "current_trial": 93, "dateTime": 1664466938430, "trialdata": {"revealed_states": [], "num_clicks_accrued": [0, 0, 0, 0, 0, 0, 0, 0, 0, 0, 0, 0, 0], "stateRewards": ["", -2, 4, -24, 48, 4, -8, 48, -48, 2, -8, 48, 24], "withholdReward": true, "trial_id": "mdp_501111216502", "block": "test3", "trialIndex": 72, "score": 46.75, "costs": -0.25, "simulationMode": [null, null, null], "rewards": [2, -8, 48], "path": ["0", "0", "9", "10", "11"], "rt": [1611, 155, 60], "actions": ["left", "left", "up"], "actionTimes": [3017, 3685, 4259], "queries": {"click": {"state": {"target": ["1"], "time": [2264]}, "edge": {"target": [], "time": []}}, "mouseover": {"state": {"target": ["1"], "time": [1880]}, "edge": {"target": [], "time": []}}, "mouseout": {"state": {"target": ["6", "5"], "time": [612, 861]}, "edge": {"target": [], "time": []}}}, "displayed_time": "10.41", "trialTime": 11536, "trial_type": "mouselab-mdp", "trial_index": 93, "time_elapsed": 2928864, "internal_node_id": "0.0-4.0-5.0-4.0"}}, {"uniqueid": "w70280885:a22748486", "current_trial": 94, "dateTime": 1664466949420, "trialdata": {"revealed_states": [], "num_clicks_accrued": [0, 0, 0, 0, 0, 0, 0, 0, 0, 0, 0, 0, 0], "stateRewards": ["", 2, 4, 48, 48, -2, 4, 48, -24, -4, 8, -48, 48], "withholdReward": false, "trial_id": "mdp_407586865939", "block": "test3", "trialIndex": 73, "score": 58.75, "costs": -0.25, "simulationMode": [null, null, null], "rewards": [2, 4, 48], "path": ["0", "0", "1", "2", "3"], "rt": [1639, 89, 399], "actions": ["up", "up", "right"], "actionTimes": [2949, 3557, 4469], "queries": {"click": {"state": {"target": ["1"], "time": [2230]}, "edge": {"target": [], "time": []}}, "mouseover": {"state": {"target": ["1"], "time": [1783]}, "edge": {"target": [], "time": []}}, "mouseout": {"state": {"target": ["1"], "time": [599]}, "edge": {"target": [], "time": []}}}, "displayed_time": "9.31", "trialTime": 10833, "trial_type": "mouselab-mdp", "trial_index": 94, "time_elapsed": 2939853, "internal_node_id": "0.0-4.0-5.0-5.0"}}, {"uniqueid": "w70280885:a22748486", "current_trial": 95, "dateTime": 1664466960201, "trialdata": {"revealed_states": [], "num_clicks_accrued": [0, 0, 0, 0, 0, 0, 0, 0, 0, 0, 0, 0, 0], "stateRewards": ["", 2, -4, 48, -24, 4, -8, -24, 48, -2, -4, 24, -48], "withholdReward": true, "trial_id": "mdp_357328205509", "block": "test3", "trialIndex": 74, "score": 22.75, "costs": -0.25, "simulationMode": [null, null, null], "rewards": [-2, -4, 24], "path": ["0", "0", "9", "10", "11"], "rt": [2732, 132, 131], "actions": ["left", "left", "up"], "actionTimes": [4150, 4785, 5437], "queries": {"click": {"state": {"target": ["6"], "time": [2551]}, "edge": {"target": [], "time": []}}, "mouseover": {"state": {"target": ["5", "6", "5", "0", "9"], "time": [1785, 2002, 2984, 3084, 3435]}, "edge": {"target": [], "time": []}}, "mouseout": {"state": {"target": ["1", "5", "6", "5", "0"], "time": [667, 1818, 2968, 3035, 3384]}, "edge": {"target": [], "time": []}}}, "displayed_time": "9.42", "trialTime": 10617, "trial_type": "mouselab-mdp", "trial_index": 95, "time_elapsed": 2950634, "internal_node_id": "0.0-4.0-5.0-6.0"}}, {"uniqueid": "w70280885:a22748486", "current_trial": 96, "dateTime": 1664466974037, "trialdata": {"revealed_states": [], "num_clicks_accrued": [0, 0, 0, 0, 0, 0, 0, 0, 0, 0, 0, 0, 0], "stateRewards": ["", -4, 8, -24, 48, 2, -8, 24, 48, 2, -8, -24, -48], "withholdReward": false, "trial_id": "mdp_493778446445", "block": "test3", "trialIndex": 75, "score": 22.75, "costs": -0.25, "simulationMode": [null, null, null], "rewards": [2, -8, 24], "path": ["0", "0", "5", "6", "7"], "rt": [2126, 339, 309], "actions": ["right", "right", "up"], "actionTimes": [3594, 4444, 5262], "queries": {"click": {"state": {"target": ["1"], "time": [2348]}, "edge": {"target": [], "time": []}}, "mouseover": {"state": {"target": ["1"], "time": [1885]}, "edge": {"target": [], "time": []}}, "mouseout": {"state": {"target": ["9"], "time": [768]}, "edge": {"target": [], "time": []}}}, "displayed_time": "10.47", "trialTime": 13673, "trial_type": "mouselab-mdp", "trial_index": 96, "time_elapsed": 2964470, "internal_node_id": "0.0-4.0-5.0-7.0"}}, {"uniqueid": "w70280885:a22748486", "current_trial": 97, "dateTime": 1664466986034, "trialdata": {"revealed_states": [], "num_clicks_accrued": [0, 0, 0, 0, 0, 0, 0, 0, 0, 0, 0, 0, 0], "stateRewards": ["", 2, 8, 24, -48, 4, 8, 24, 24, 4, -8, 48, 48], "withholdReward": false, "trial_id": "mdp_646103824875", "block": "test3", "trialIndex": 76, "score": -33.25, "costs": -0.25, "simulationMode": [null, null, null], "rewards": [2, 8, -48], "path": ["0", "0", "1", "2", "4"], "rt": [3288, 113, 1094], "actions": ["up", "up", "left"], "actionTimes": [4682, 5314, 6929], "queries": {"click": {"state": {"target": ["10"], "time": [3012]}, "edge": {"target": [], "time": []}}, "mouseover": {"state": {"target": ["9", "10"], "time": [1632, 2282]}, "edge": {"target": [], "time": []}}, "mouseout": {"state": {"target": ["1", "9"], "time": [700, 1649]}, "edge": {"target": [], "time": []}}}, "displayed_time": "10.39", "trialTime": 11869, "trial_type": "mouselab-mdp", "trial_index": 97, "time_elapsed": 2976468, "internal_node_id": "0.0-4.0-5.0-8.0"}}, {"uniqueid": "w70280885:a22748486", "current_trial": 98, "dateTime": 1664466997651, "trialdata": {"revealed_states": [], "num_clicks_accrued": [0, 0, 0, 0, 0, 0, 0, 0, 0, 0, 0, 0, 0], "stateRewards": ["", -2, -4, -24, -48, -4, -8, -48, 24, -4, -8, -24, -48], "withholdReward": true, "trial_id": "mdp_475782454549", "block": "test3", "trialIndex": 77, "score": -55.25, "costs": -0.25, "simulationMode": [null, null, null], "rewards": [-4, -8, -48], "path": ["0", "0", "5", "6", "7"], "rt": [1844, 293, 154], "actions": ["right", "right", "up"], "actionTimes": [3325, 4125, 4802], "queries": {"click": {"state": {"target": ["5"], "time": [2490]}, "edge": {"target": [], "time": []}}, "mouseover": {"state": {"target": ["5"], "time": [2008]}, "edge": {"target": [], "time": []}}, "mouseout": {"state": {"target": ["10", "9", "0"], "time": [643, 858, 1925]}, "edge": {"target": [], "time": []}}}, "displayed_time": "10.49", "trialTime": 11449, "trial_type": "mouselab-mdp", "trial_index": 98, "time_elapsed": 2988085, "internal_node_id": "0.0-4.0-5.0-9.0"}}, {"uniqueid": "w70280885:a22748486", "current_trial": 99, "dateTime": 1664467007720, "trialdata": {"revealed_states": [], "num_clicks_accrued": [0, 0, 0, 0, 0, 0, 0, 0, 0, 0, 0, 0, 0], "stateRewards": ["", 4, 4, 48, -48, -2, -8, -48, -24, 2, 4, -24, -48], "withholdReward": true, "trial_id": "mdp_239929662917", "block": "test3", "trialIndex": 78, "score": -35.25, "costs": -0.25, "simulationMode": [null, null, null], "rewards": [4, 4, -48], "path": ["0", "0", "1", "2", "4"], "rt": [2545, 425, 175], "actions": ["up", "up", "left"], "actionTimes": [3924, 4857, 5541], "queries": {"click": {"state": {"target": ["1"], "time": [2600]}, "edge": {"target": [], "time": []}}, "mouseover": {"state": {"target": ["1"], "time": [1679]}, "edge": {"target": [], "time": []}}, "mouseout": {"state": {"target": ["5", "1", "0"], "time": [779, 8595, 8727]}, "edge": {"target": [], "time": []}}}, "displayed_time": "9.38", "trialTime": 9908, "trial_type": "mouselab-mdp", "trial_index": 99, "time_elapsed": 2998154, "internal_node_id": "0.0-4.0-5.0-10.0"}}, {"uniqueid": "w70280885:a22748486", "current_trial": 100, "dateTime": 1664467018374, "trialdata": {"revealed_states": [], "num_clicks_accrued": [0, 0, 0, 0, 0, 0, 0, 0, 0, 0, 0, 0, 0], "stateRewards": ["", -2, 8, 48, -48, 4, -8, 24, 24, 4, 4, -48, -24], "withholdReward": true, "trial_id": "mdp_746937869927", "block": "test3", "trialIndex": 79, "score": -11.25, "costs": -0.25, "simulationMode": [null, null, null], "rewards": [4, 4, -24], "path": ["0", "0", "9", "10", "12"], "rt": [2359, 236, 272], "actions": ["left", "left", "down"], "actionTimes": [3849, 4601, 5393], "queries": {"click": {"state": {"target": ["9"], "time": [2757]}, "edge": {"target": [], "time": []}}, "mouseover": {"state": {"target": ["9", "10", "9", "0"], "time": [1782, 2099, 2315, 3281]}, "edge": {"target": [], "time": []}}, "mouseout": {"state": {"target": ["0", "9", "10", "9", "0"], "time": [1732, 2032, 2283, 3248, 3365]}, "edge": {"target": [], "time": []}}}, "displayed_time": "9.49", "trialTime": 10483, "trial_type": "mouselab-mdp", "trial_index": 100, "time_elapsed": 3008807, "internal_node_id": "0.0-4.0-5.0-11.0"}}, {"uniqueid": "w70280885:a22748486", "current_trial": 101, "dateTime": 1664467028932, "trialdata": {"revealed_states": [], "num_clicks_accrued": [0, 0, 0, 0, 0, 0, 0, 0, 0, 0, 0, 0, 0], "stateRewards": ["", -4, -4, -48, 48, -4, -8, -24, -48, -2, 8, 48, 24], "withholdReward": true, "trial_id": "mdp_365393526663", "block": "test3", "trialIndex": 80, "score": -51.25, "costs": -0.25, "simulationMode": [null, null, null], "rewards": [-4, -4, -48], "path": ["0", "0", "1", "2", "3"], "rt": [2003, 339, 62], "actions": ["up", "up", "right"], "actionTimes": [3525, 4371, 4944], "queries": {"click": {"state": {"target": ["5"], "time": [2620]}, "edge": {"target": [], "time": []}}, "mouseover": {"state": {"target": ["5"], "time": [1818]}, "edge": {"target": [], "time": []}}, "mouseout": {"state": {"target": ["0"], "time": [980]}, "edge": {"target": [], "time": []}}}, "displayed_time": "9.52", "trialTime": 10425, "trial_type": "mouselab-mdp", "trial_index": 101, "time_elapsed": 3019366, "internal_node_id": "0.0-4.0-5.0-12.0"}}, {"uniqueid": "w70280885:a22748486", "current_trial": 102, "dateTime": 1664467039592, "trialdata": {"revealed_states": [], "num_clicks_accrued": [0, 0, 0, 0, 0, 0, 0, 0, 0, 0, 0, 0, 0], "stateRewards": ["", -2, -8, -48, 24, 2, -4, -48, 48, 2, 4, 24, -24], "withholdReward": false, "trial_id": "mdp_849341543762", "block": "test3", "trialIndex": 81, "score": -13.25, "costs": -0.25, "simulationMode": [null, null, null], "rewards": [2, 4, -24], "path": ["0", "0", "9", "10", "12"], "rt": [1756, 91, 149], "actions": ["left", "left", "down"], "actionTimes": [3229, 3841, 4498], "queries": {"click": {"state": {"target": ["9"], "time": [2355]}, "edge": {"target": [], "time": []}}, "mouseover": {"state": {"target": ["9"], "time": [1814]}, "edge": {"target": [], "time": []}}, "mouseout": {"state": {"target": ["5", "9"], "time": [662, 5246]}, "edge": {"target": [], "time": []}}}, "displayed_time": "9.47", "trialTime": 10487, "trial_type": "mouselab-mdp", "trial_index": 102, "time_elapsed": 3030026, "internal_node_id": "0.0-4.0-5.0-13.0"}}, {"uniqueid": "w70280885:a22748486", "current_trial": 103, "dateTime": 1664467051484, "trialdata": {"revealed_states": [], "num_clicks_accrued": [0, 0, 0, 0, 0, 0, 0, 0, 0, 0, 0, 0, 0], "stateRewards": ["", 2, 4, -48, 24, -4, 4, -24, 48, -2, -8, -48, 48], "withholdReward": true, "trial_id": "mdp_424193661731", "block": "test3", "trialIndex": 82, "score": -37.25, "costs": -0.25, "simulationMode": [null, null, null], "rewards": [2, 4, -48], "path": ["0", "0", "1", "2", "3"], "rt": [1494, 83, 353], "actions": ["up", "up", "right"], "actionTimes": [3412, 4014, 4887], "queries": {"click": {"state": {"target": ["5"], "time": [2766]}, "edge": {"target": [], "time": []}}, "mouseover": {"state": {"target": ["5"], "time": [2279]}, "edge": {"target": [], "time": []}}, "mouseout": {"state": {"target": ["0", "5"], "time": [2246, 11378]}, "edge": {"target": [], "time": []}}}, "displayed_time": "10.92", "trialTime": 11748, "trial_type": "mouselab-mdp", "trial_index": 103, "time_elapsed": 3041918, "internal_node_id": "0.0-4.0-5.0-14.0"}}, {"uniqueid": "w70280885:a22748486", "current_trial": 104, "dateTime": 1664467069328, "trialdata": {"revealed_states": [], "num_clicks_accrued": [0, 0, 0, 0, 0, 0, 0, 0, 0, 0, 0, 0, 0], "stateRewards": ["", 4, -8, 48, 24, 4, -4, 48, 48, -4, 8, -48, 24], "withholdReward": false, "trial_id": "mdp_303828806348", "block": "test3", "trialIndex": 83, "score": -39.25, "costs": -0.25, "simulationMode": [null, null, null], "rewards": [-4, 8, -48], "path": ["0", "0", "9", "10", "11"], "rt": [1741, 246, 36], "actions": ["left", "left", "up"], "actionTimes": [3151, 3905, 4459], "queries": {"click": {"state": {"target": ["10"], "time": [2622]}, "edge": {"target": [], "time": []}}, "mouseover": {"state": {"target": ["9", "10"], "time": [1724, 1840]}, "edge": {"target": [], "time": []}}, "mouseout": {"state": {"target": ["0", "9"], "time": [1691, 1756]}, "edge": {"target": [], "time": []}}}, "displayed_time": "10.41", "trialTime": 17703, "trial_type": "mouselab-mdp", "trial_index": 104, "time_elapsed": 3059761, "internal_node_id": "0.0-4.0-5.0-15.0"}}, {"uniqueid": "w70280885:a22748486", "current_trial": 105, "dateTime": 1664467081130, "trialdata": {"revealed_states": [], "num_clicks_accrued": [0, 0, 0, 0, 0, 0, 0, 0, 0, 0, 0, 0, 0], "stateRewards": ["", -2, -8, 48, 24, -2, 8, -48, -24, -2, 4, -48, 48], "withholdReward": true, "trial_id": "mdp_295220852217", "block": "test3", "trialIndex": 84, "score": -13.25, "costs": -0.25, "simulationMode": [null, null, null], "rewards": [-2, 8, -24], "path": ["0", "0", "5", "6", "8"], "rt": [2918, 131, 47], "actions": ["right", "right", "down"], "actionTimes": [4594, 5236, 5802], "queries": {"click": {"state": {"target": ["6"], "time": [3226]}, "edge": {"target": [], "time": []}}, "mouseover": {"state": {"target": ["5", "6"], "time": [2538, 2822]}, "edge": {"target": [], "time": []}}, "mouseout": {"state": {"target": ["10", "9", "5", "6"], "time": [786, 852, 2769, 3835]}, "edge": {"target": [], "time": []}}}, "displayed_time": "10.68", "trialTime": 11656, "trial_type": "mouselab-mdp", "trial_index": 105, "time_elapsed": 3071564, "internal_node_id": "0.0-4.0-5.0-16.0"}}, {"uniqueid": "w70280885:a22748486", "current_trial": 106, "dateTime": 1664467092500, "trialdata": {"revealed_states": [], "num_clicks_accrued": [0, 0, 0, 0, 0, 0, 0, 0, 0, 0, 0, 0, 0], "stateRewards": ["", 2, 8, -48, -24, 2, -4, -48, 24, 2, -4, -24, -24], "withholdReward": true, "trial_id": "mdp_954659099093", "block": "test3", "trialIndex": 85, "score": -33.25, "costs": -0.25, "simulationMode": [null, null, null], "rewards": [2, 8, -48], "path": ["0", "0", "1", "2", "3"], "rt": [2157, 260, 385], "actions": ["up", "up", "right"], "actionTimes": [3575, 4340, 5233], "queries": {"click": {"state": {"target": ["1"], "time": [2456]}, "edge": {"target": [], "time": []}}, "mouseover": {"state": {"target": ["1"], "time": [1713]}, "edge": {"target": [], "time": []}}, "mouseout": {"state": {"target": ["5"], "time": [746]}, "edge": {"target": [], "time": []}}}, "displayed_time": "10.42", "trialTime": 11204, "trial_type": "mouselab-mdp", "trial_index": 106, "time_elapsed": 3