{"condition": 0, "counterbalance": 0, "assignmentId": "a42186504", "workerId": "w10545179", "hitId": "h44315071", "currenttrial": 486, "bonus": 0, "data": [{"uniqueid": "w10545179:a42186504", "current_trial": 0, "dateTime": 1664463938394, "trialdata": {"success": true, "trial_type": "fullscreen", "trial_index": 0, "time_elapsed": 3391, "internal_node_id": "0.0-0.0"}}, {"uniqueid": "w10545179:a42186504", "current_trial": 1, "dateTime": 1664463941492, "trialdata": {"view_history": [{"page_index": 0, "viewing_time": 3080}], "rt": 3081, "trial_id": "exp_instructions_distractor", "trial_type": "instructions", "trial_index": 1, "time_elapsed": 6490, "internal_node_id": "0.0-1.0"}}, {"uniqueid": "w10545179:a42186504", "current_trial": 2, "dateTime": 1664464028676, "trialdata": {"view_history": [{"page_index": 0, "viewing_time": 87169}], "rt": 87169, "trial_id": "color_game_instructions", "trial_type": "instructions", "trial_index": 2, "time_elapsed": 93674, "internal_node_id": "0.0-2.0"}}, {"uniqueid": "w10545179:a42186504", "current_trial": 3, "dateTime": 1664464030807, "trialdata": {"rt": 2123, "stimulus": "<h1> Get ready to start the game! </h1>\n\nThank you for reading the instructions. Get ready start with the first of 5 block(s) of this game.\n<br><br>\nIn this first block, you will complete 90 rounds of this game before moving on.\n<br><br>\nRemember, the better you perform, the bigger your bonus will be!\n<br><br>\n<div style='text-align: center;'>Press <code>space</code> to begin.</div>", "response": " ", "trial_id": "stroop_1_ready_1", "trial_type": "html-keyboard-response", "trial_index": 3, "time_elapsed": 95805, "internal_node_id": "0.0-3.0"}}, {"uniqueid": "w10545179:a42186504", "current_trial": 4, "dateTime": 1664464032622, "trialdata": {"rt": 1802, "stimulus": "<p id='stroop-text' class='stroop-yellow'>YELLOW</p>", "response": "y", "stimulus-type": "congruent", "word": "yellow", "color": "yellow", "correct_response": "y", "trial_id": "stroop-trial-1-congruent-20", "trial_type": "html-keyboard-response", "trial_index": 4, "time_elapsed": 97619, "internal_node_id": "0.0-4.0-0.0"}}, {"uniqueid": "w10545179:a42186504", "current_trial": 5, "dateTime": 1664464034144, "trialdata": {"rt": 1014, "stimulus": "<p id='stroop-text' class='stroop-blue'>BOTTLE</p>", "response": "b", "stimulus-type": "unrelated", "word": "BOTTLE", "color": "blue", "correct_response": "b", "trial_id": "stroop-trial-1-unrelated-4", "trial_type": "html-keyboard-response", "trial_index": 5, "time_elapsed": 99142, "internal_node_id": "0.0-4.0-1.0"}}, {"uniqueid": "w10545179:a42186504", "current_trial": 6, "dateTime": 1664464036712, "trialdata": {"rt": 2057, "stimulus": "<p id='stroop-text' class='stroop-red'>GREEN</p>", "response": "r", "stimulus-type": "incongruent", "word": "green", "color": "red", "correct_response": "r", "trial_id": "stroop-trial-1-incongruent-30", "trial_type": "html-keyboard-response", "trial_index": 6, "time_elapsed": 101710, "internal_node_id": "0.0-4.0-2.0"}}, {"uniqueid": "w10545179:a42186504", "current_trial": 7, "dateTime": 1664464038654, "trialdata": {"rt": 1419, "stimulus": "<p id='stroop-text' class='stroop-red'>BOTTLE</p>", "response": "r", "stimulus-type": "unrelated", "word": "BOTTLE", "color": "red", "correct_response": "r", "trial_id": "stroop-trial-1-unrelated-14", "trial_type": "html-keyboard-response", "trial_index": 7, "time_elapsed": 103651, "internal_node_id": "0.0-4.0-3.0"}}, {"uniqueid": "w10545179:a42186504", "current_trial": 8, "dateTime": 1664464040870, "trialdata": {"rt": 1711, "stimulus": "<p id='stroop-text' class='stroop-blue'>STONE</p>", "response": "b", "stimulus-type": "unrelated", "word": "STONE", "color": "blue", "correct_response": "b", "trial_id": "stroop-trial-1-unrelated-15", "trial_type": "html-keyboard-response", "trial_index": 8, "time_elapsed": 105867, "internal_node_id": "0.0-4.0-4.0"}}, {"uniqueid": "w10545179:a42186504", "current_trial": 9, "dateTime": 1664464042450, "trialdata": {"rt": 998, "stimulus": "<p id='stroop-text' class='stroop-green'>GREEN</p>", "response": "g", "stimulus-type": "congruent", "word": "green", "color": "green", "correct_response": "g", "trial_id": "stroop-trial-1-congruent-15", "trial_type": "html-keyboard-response", "trial_index": 9, "time_elapsed": 107447, "internal_node_id": "0.0-4.0-5.0"}}, {"uniqueid": "w10545179:a42186504", "current_trial": 10, "dateTime": 1664464044652, "trialdata": {"rt": 1699, "stimulus": "<p id='stroop-text' class='stroop-yellow'>BOTTLE</p>", "response": "y", "stimulus-type": "unrelated", "word": "BOTTLE", "color": "yellow", "correct_response": "y", "trial_id": "stroop-trial-1-unrelated-16", "trial_type": "html-keyboard-response", "trial_index": 10, "time_elapsed": 109650, "internal_node_id": "0.0-4.0-6.0"}}, {"uniqueid": "w10545179:a42186504", "current_trial": 11, "dateTime": 1664464046170, "trialdata": {"rt": 994, "stimulus": "<p id='stroop-text' class='stroop-blue'>BLUE</p>", "response": "b", "stimulus-type": "congruent", "word": "blue", "color": "blue", "correct_response": "b", "trial_id": "stroop-trial-1-congruent-11", "trial_type": "html-keyboard-response", "trial_index": 11, "time_elapsed": 111168, "internal_node_id": "0.0-4.0-7.0"}}, {"uniqueid": "w10545179:a42186504", "current_trial": 12, "dateTime": 1664464047797, "trialdata": {"rt": 1117, "stimulus": "<p id='stroop-text' class='stroop-yellow'>YELLOW</p>", "response": "y", "stimulus-type": "congruent", "word": "yellow", "color": "yellow", "correct_response": "y", "trial_id": "stroop-trial-1-congruent-6", "trial_type": "html-keyboard-response", "trial_index": 12, "time_elapsed": 112794, "internal_node_id": "0.0-4.0-8.0"}}, {"uniqueid": "w10545179:a42186504", "current_trial": 13, "dateTime": 1664464049605, "trialdata": {"rt": 1039, "stimulus": "<p id='stroop-text' class='stroop-yellow'>MONKEY</p>", "response": "y", "stimulus-type": "unrelated", "word": "MONKEY", "color": "yellow", "correct_response": "y", "trial_id": "stroop-trial-1-unrelated-29", "trial_type": "html-keyboard-response", "trial_index": 13, "time_elapsed": 114603, "internal_node_id": "0.0-4.0-9.0"}}, {"uniqueid": "w10545179:a42186504", "current_trial": 14, "dateTime": 1664464051209, "trialdata": {"rt": 1094, "stimulus": "<p id='stroop-text' class='stroop-green'>RED</p>", "response": "g", "stimulus-type": "incongruent", "word": "red", "color": "green", "correct_response": "g", "trial_id": "stroop-trial-1-incongruent-23", "trial_type": "html-keyboard-response", "trial_index": 14, "time_elapsed": 116207, "internal_node_id": "0.0-4.0-10.0"}}, {"uniqueid": "w10545179:a42186504", "current_trial": 15, "dateTime": 1664464052734, "trialdata": {"rt": 1017, "stimulus": "<p id='stroop-text' class='stroop-green'>GREEN</p>", "response": "g", "stimulus-type": "congruent", "word": "green", "color": "green", "correct_response": "g", "trial_id": "stroop-trial-1-congruent-22", "trial_type": "html-keyboard-response", "trial_index": 15, "time_elapsed": 117732, "internal_node_id": "0.0-4.0-11.0"}}, {"uniqueid": "w10545179:a42186504", "current_trial": 16, "dateTime": 1664464054172, "trialdata": {"rt": 930, "stimulus": "<p id='stroop-text' class='stroop-green'>SHIP</p>", "response": "g", "stimulus-type": "unrelated", "word": "SHIP", "color": "green", "correct_response": "g", "trial_id": "stroop-trial-1-unrelated-7", "trial_type": "html-keyboard-response", "trial_index": 16, "time_elapsed": 119168, "internal_node_id": "0.0-4.0-12.0"}}, {"uniqueid": "w10545179:a42186504", "current_trial": 17, "dateTime": 1664464055754, "trialdata": {"rt": 1067, "stimulus": "<p id='stroop-text' class='stroop-yellow'>BRIDGE</p>", "response": "y", "stimulus-type": "unrelated", "word": "BRIDGE", "color": "yellow", "correct_response": "y", "trial_id": "stroop-trial-1-unrelated-21", "trial_type": "html-keyboard-response", "trial_index": 17, "time_elapsed": 120752, "internal_node_id": "0.0-4.0-13.0"}}, {"uniqueid": "w10545179:a42186504", "current_trial": 18, "dateTime": 1664464057926, "trialdata": {"rt": 1657, "stimulus": "<p id='stroop-text' class='stroop-green'>GREEN</p>", "response": "g", "stimulus-type": "congruent", "word": "green", "color": "green", "correct_response": "g", "trial_id": "stroop-trial-1-congruent-14", "trial_type": "html-keyboard-response", "trial_index": 18, "time_elapsed": 122923, "internal_node_id": "0.0-4.0-14.0"}}, {"uniqueid": "w10545179:a42186504", "current_trial": 19, "dateTime": 1664464059622, "trialdata": {"rt": 1191, "stimulus": "<p id='stroop-text' class='stroop-red'>GREEN</p>", "response": "r", "stimulus-type": "incongruent", "word": "green", "color": "red", "correct_response": "r", "trial_id": "stroop-trial-1-incongruent-1", "trial_type": "html-keyboard-response", "trial_index": 19, "time_elapsed": 124619, "internal_node_id": "0.0-4.0-15.0"}}, {"uniqueid": "w10545179:a42186504", "current_trial": 20, "dateTime": 1664464061049, "trialdata": {"rt": 914, "stimulus": "<p id='stroop-text' class='stroop-red'>YELLOW</p>", "response": "r", "stimulus-type": "incongruent", "word": "yellow", "color": "red", "correct_response": "r", "trial_id": "stroop-trial-1-incongruent-26", "trial_type": "html-keyboard-response", "trial_index": 20, "time_elapsed": 126046, "internal_node_id": "0.0-4.0-16.0"}}, {"uniqueid": "w10545179:a42186504", "current_trial": 21, "dateTime": 1664464062928, "trialdata": {"rt": 1374, "stimulus": "<p id='stroop-text' class='stroop-yellow'>DOG</p>", "response": "y", "stimulus-type": "unrelated", "word": "DOG", "color": "yellow", "correct_response": "y", "trial_id": "stroop-trial-1-unrelated-19", "trial_type": "html-keyboard-response", "trial_index": 21, "time_elapsed": 127926, "internal_node_id": "0.0-4.0-17.0"}}, {"uniqueid": "w10545179:a42186504", "current_trial": 22, "dateTime": 1664464064256, "trialdata": {"rt": 824, "stimulus": "<p id='stroop-text' class='stroop-green'>GREEN</p>", "response": "g", "stimulus-type": "congruent", "word": "green", "color": "green", "correct_response": "g", "trial_id": "stroop-trial-1-congruent-27", "trial_type": "html-keyboard-response", "trial_index": 22, "time_elapsed": 129253, "internal_node_id": "0.0-4.0-18.0"}}, {"uniqueid": "w10545179:a42186504", "current_trial": 23, "dateTime": 1664464065776, "trialdata": {"rt": 1014, "stimulus": "<p id='stroop-text' class='stroop-blue'>YELLOW</p>", "response": "b", "stimulus-type": "incongruent", "word": "yellow", "color": "blue", "correct_response": "b", "trial_id": "stroop-trial-1-incongruent-12", "trial_type": "html-keyboard-response", "trial_index": 23, "time_elapsed": 130774, "internal_node_id": "0.0-4.0-19.0"}}, {"uniqueid": "w10545179:a42186504", "current_trial": 24, "dateTime": 1664464067862, "trialdata": {"rt": 1580, "stimulus": "<p id='stroop-text' class='stroop-green'>WINDOW</p>", "response": "g", "stimulus-type": "unrelated", "word": "WINDOW", "color": "green", "correct_response": "g", "trial_id": "stroop-trial-1-unrelated-22", "trial_type": "html-keyboard-response", "trial_index": 24, "time_elapsed": 132860, "internal_node_id": "0.0-4.0-20.0"}}, {"uniqueid": "w10545179:a42186504", "current_trial": 25, "dateTime": 1664464069382, "trialdata": {"rt": 1005, "stimulus": "<p id='stroop-text' class='stroop-yellow'>YELLOW</p>", "response": "y", "stimulus-type": "congruent", "word": "yellow", "color": "yellow", "correct_response": "y", "trial_id": "stroop-trial-1-congruent-23", "trial_type": "html-keyboard-response", "trial_index": 25, "time_elapsed": 134379, "internal_node_id": "0.0-4.0-21.0"}}, {"uniqueid": "w10545179:a42186504", "current_trial": 26, "dateTime": 1664464070819, "trialdata": {"rt": 932, "stimulus": "<p id='stroop-text' class='stroop-yellow'>DOG</p>", "response": "y", "stimulus-type": "unrelated", "word": "DOG", "color": "yellow", "correct_response": "y", "trial_id": "stroop-trial-1-unrelated-3", "trial_type": "html-keyboard-response", "trial_index": 26, "time_elapsed": 135816, "internal_node_id": "0.0-4.0-22.0"}}, {"uniqueid": "w10545179:a42186504", "current_trial": 27, "dateTime": 1664464072309, "trialdata": {"rt": 986, "stimulus": "<p id='stroop-text' class='stroop-blue'>BLUE</p>", "response": "b", "stimulus-type": "congruent", "word": "blue", "color": "blue", "correct_response": "b", "trial_id": "stroop-trial-1-congruent-18", "trial_type": "html-keyboard-response", "trial_index": 27, "time_elapsed": 137306, "internal_node_id": "0.0-4.0-23.0"}}, {"uniqueid": "w10545179:a42186504", "current_trial": 28, "dateTime": 1664464074011, "trialdata": {"rt": 1196, "stimulus": "<p id='stroop-text' class='stroop-yellow'>BOTTLE</p>", "response": "y", "stimulus-type": "unrelated", "word": "BOTTLE", "color": "yellow", "correct_response": "y", "trial_id": "stroop-trial-1-unrelated-13", "trial_type": "html-keyboard-response", "trial_index": 28, "time_elapsed": 139008, "internal_node_id": "0.0-4.0-24.0"}}, {"uniqueid": "w10545179:a42186504", "current_trial": 29, "dateTime": 1664464075452, "trialdata": {"rt": 929, "stimulus": "<p id='stroop-text' class='stroop-red'>CHAIR</p>", "response": "r", "stimulus-type": "unrelated", "word": "CHAIR", "color": "red", "correct_response": "r", "trial_id": "stroop-trial-1-unrelated-23", "trial_type": "html-keyboard-response", "trial_index": 29, "time_elapsed": 140449, "internal_node_id": "0.0-4.0-25.0"}}, {"uniqueid": "w10545179:a42186504", "current_trial": 30, "dateTime": 1664464076924, "trialdata": {"rt": 964, "stimulus": "<p id='stroop-text' class='stroop-red'>RED</p>", "response": "r", "stimulus-type": "congruent", "word": "red", "color": "red", "correct_response": "r", "trial_id": "stroop-trial-1-congruent-1", "trial_type": "html-keyboard-response", "trial_index": 30, "time_elapsed": 141921, "internal_node_id": "0.0-4.0-26.0"}}, {"uniqueid": "w10545179:a42186504", "current_trial": 31, "dateTime": 1664464078415, "trialdata": {"rt": 982, "stimulus": "<p id='stroop-text' class='stroop-green'>BOAT</p>", "response": "g", "stimulus-type": "unrelated", "word": "BOAT", "color": "green", "correct_response": "g", "trial_id": "stroop-trial-1-unrelated-1", "trial_type": "html-keyboard-response", "trial_index": 31, "time_elapsed": 143413, "internal_node_id": "0.0-4.0-27.0"}}, {"uniqueid": "w10545179:a42186504", "current_trial": 32, "dateTime": 1664464079891, "trialdata": {"rt": 960, "stimulus": "<p id='stroop-text' class='stroop-red'>DOG</p>", "response": "r", "stimulus-type": "unrelated", "word": "DOG", "color": "red", "correct_response": "r", "trial_id": "stroop-trial-1-unrelated-12", "trial_type": "html-keyboard-response", "trial_index": 32, "time_elapsed": 144888, "internal_node_id": "0.0-4.0-28.0"}}, {"uniqueid": "w10545179:a42186504", "current_trial": 33, "dateTime": 1664464081339, "trialdata": {"rt": 938, "stimulus": "<p id='stroop-text' class='stroop-red'>RED</p>", "response": "r", "stimulus-type": "congruent", "word": "red", "color": "red", "correct_response": "r", "trial_id": "stroop-trial-1-congruent-28", "trial_type": "html-keyboard-response", "trial_index": 33, "time_elapsed": 146336, "internal_node_id": "0.0-4.0-29.0"}}, {"uniqueid": "w10545179:a42186504", "current_trial": 34, "dateTime": 1664464082800, "trialdata": {"rt": 945, "stimulus": "<p id='stroop-text' class='stroop-yellow'>YELLOW</p>", "response": "y", "stimulus-type": "congruent", "word": "yellow", "color": "yellow", "correct_response": "y", "trial_id": "stroop-trial-1-congruent-13", "trial_type": "html-keyboard-response", "trial_index": 34, "time_elapsed": 147797, "internal_node_id": "0.0-4.0-30.0"}}, {"uniqueid": "w10545179:a42186504", "current_trial": 35, "dateTime": 1664464084315, "trialdata": {"rt": 1009, "stimulus": "<p id='stroop-text' class='stroop-yellow'>YELLOW</p>", "response": "y", "stimulus-type": "congruent", "word": "yellow", "color": "yellow", "correct_response": "y", "trial_id": "stroop-trial-1-congruent-10", "trial_type": "html-keyboard-response", "trial_index": 35, "time_elapsed": 149313, "internal_node_id": "0.0-4.0-31.0"}}, {"uniqueid": "w10545179:a42186504", "current_trial": 36, "dateTime": 1664464085880, "trialdata": {"rt": 1059, "stimulus": "<p id='stroop-text' class='stroop-green'>DOG</p>", "response": "g", "stimulus-type": "unrelated", "word": "DOG", "color": "green", "correct_response": "g", "trial_id": "stroop-trial-1-unrelated-11", "trial_type": "html-keyboard-response", "trial_index": 36, "time_elapsed": 150878, "internal_node_id": "0.0-4.0-32.0"}}, {"uniqueid": "w10545179:a42186504", "current_trial": 37, "dateTime": 1664464087377, "trialdata": {"rt": 987, "stimulus": "<p id='stroop-text' class='stroop-green'>BLUE</p>", "response": "g", "stimulus-type": "incongruent", "word": "blue", "color": "green", "correct_response": "g", "trial_id": "stroop-trial-1-incongruent-16", "trial_type": "html-keyboard-response", "trial_index": 37, "time_elapsed": 152374, "internal_node_id": "0.0-4.0-33.0"}}, {"uniqueid": "w10545179:a42186504", "current_trial": 38, "dateTime": 1664464088890, "trialdata": {"rt": 1005, "stimulus": "<p id='stroop-text' class='stroop-red'>BOAT</p>", "response": "r", "stimulus-type": "unrelated", "word": "BOAT", "color": "red", "correct_response": "r", "trial_id": "stroop-trial-1-unrelated-30", "trial_type": "html-keyboard-response", "trial_index": 38, "time_elapsed": 153887, "internal_node_id": "0.0-4.0-34.0"}}, {"uniqueid": "w10545179:a42186504", "current_trial": 39, "dateTime": 1664464090456, "trialdata": {"rt": 1051, "stimulus": "<p id='stroop-text' class='stroop-green'>BOTTLE</p>", "response": "g", "stimulus-type": "unrelated", "word": "BOTTLE", "color": "green", "correct_response": "g", "trial_id": "stroop-trial-1-unrelated-25", "trial_type": "html-keyboard-response", "trial_index": 39, "time_elapsed": 155454, "internal_node_id": "0.0-4.0-35.0"}}, {"uniqueid": "w10545179:a42186504", "current_trial": 40, "dateTime": 1664464091920, "trialdata": {"rt": 950, "stimulus": "<p id='stroop-text' class='stroop-blue'>WINDOW</p>", "response": "b", "stimulus-type": "unrelated", "word": "WINDOW", "color": "blue", "correct_response": "b", "trial_id": "stroop-trial-1-unrelated-8", "trial_type": "html-keyboard-response", "trial_index": 40, "time_elapsed": 156917, "internal_node_id": "0.0-4.0-36.0"}}, {"uniqueid": "w10545179:a42186504", "current_trial": 41, "dateTime": 1664464093399, "trialdata": {"rt": 965, "stimulus": "<p id='stroop-text' class='stroop-yellow'>RED</p>", "response": "y", "stimulus-type": "incongruent", "word": "red", "color": "yellow", "correct_response": "y", "trial_id": "stroop-trial-1-incongruent-11", "trial_type": "html-keyboard-response", "trial_index": 41, "time_elapsed": 158396, "internal_node_id": "0.0-4.0-37.0"}}, {"uniqueid": "w10545179:a42186504", "current_trial": 42, "dateTime": 1664464095094, "trialdata": {"rt": 1181, "stimulus": "<p id='stroop-text' class='stroop-green'>BLUE</p>", "response": "g", "stimulus-type": "incongruent", "word": "blue", "color": "green", "correct_response": "g", "trial_id": "stroop-trial-1-incongruent-17", "trial_type": "html-keyboard-response", "trial_index": 42, "time_elapsed": 160090, "internal_node_id": "0.0-4.0-38.0"}}, {"uniqueid": "w10545179:a42186504", "current_trial": 43, "dateTime": 1664464097338, "trialdata": {"rt": 1736, "stimulus": "<p id='stroop-text' class='stroop-blue'>DOG</p>", "response": "b", "stimulus-type": "unrelated", "word": "DOG", "color": "blue", "correct_response": "b", "trial_id": "stroop-trial-1-unrelated-17", "trial_type": "html-keyboard-response", "trial_index": 43, "time_elapsed": 162335, "internal_node_id": "0.0-4.0-39.0"}}, {"uniqueid": "w10545179:a42186504", "current_trial": 44, "dateTime": 1664464098752, "trialdata": {"rt": 906, "stimulus": "<p id='stroop-text' class='stroop-blue'>BRAIN</p>", "response": "b", "stimulus-type": "unrelated", "word": "BRAIN", "color": "blue", "correct_response": "b", "trial_id": "stroop-trial-1-unrelated-27", "trial_type": "html-keyboard-response", "trial_index": 44, "time_elapsed": 163749, "internal_node_id": "0.0-4.0-40.0"}}, {"uniqueid": "w10545179:a42186504", "current_trial": 45, "dateTime": 1664464100449, "trialdata": {"rt": 1186, "stimulus": "<p id='stroop-text' class='stroop-blue'>GREEN</p>", "response": "b", "stimulus-type": "incongruent", "word": "green", "color": "blue", "correct_response": "b", "trial_id": "stroop-trial-1-incongruent-4", "trial_type": "html-keyboard-response", "trial_index": 45, "time_elapsed": 165446, "internal_node_id": "0.0-4.0-41.0"}}, {"uniqueid": "w10545179:a42186504", "current_trial": 46, "dateTime": 1664464101853, "trialdata": {"rt": 900, "stimulus": "<p id='stroop-text' class='stroop-blue'>RED</p>", "response": "b", "stimulus-type": "incongruent", "word": "red", "color": "blue", "correct_response": "b", "trial_id": "stroop-trial-1-incongruent-25", "trial_type": "html-keyboard-response", "trial_index": 46, "time_elapsed": 166851, "internal_node_id": "0.0-4.0-42.0"}}, {"uniqueid": "w10545179:a42186504", "current_trial": 47, "dateTime": 1664464103749, "trialdata": {"rt": 1380, "stimulus": "<p id='stroop-text' class='stroop-red'>BLUE</p>", "response": "r", "stimulus-type": "incongruent", "word": "blue", "color": "red", "correct_response": "r", "trial_id": "stroop-trial-1-incongruent-2", "trial_type": "html-keyboard-response", "trial_index": 47, "time_elapsed": 168747, "internal_node_id": "0.0-4.0-43.0"}}, {"uniqueid": "w10545179:a42186504", "current_trial": 48, "dateTime": 1664464105381, "trialdata": {"rt": 1125, "stimulus": "<p id='stroop-text' class='stroop-blue'>YELLOW</p>", "response": "b", "stimulus-type": "incongruent", "word": "yellow", "color": "blue", "correct_response": "b", "trial_id": "stroop-trial-1-incongruent-13", "trial_type": "html-keyboard-response", "trial_index": 48, "time_elapsed": 170378, "internal_node_id": "0.0-4.0-44.0"}}, {"uniqueid": "w10545179:a42186504", "current_trial": 49, "dateTime": 1664464107287, "trialdata": {"rt": 1396, "stimulus": "<p id='stroop-text' class='stroop-green'>YELLOW</p>", "response": "g", "stimulus-type": "incongruent", "word": "yellow", "color": "green", "correct_response": "g", "trial_id": "stroop-trial-1-incongruent-18", "trial_type": "html-keyboard-response", "trial_index": 49, "time_elapsed": 172285, "internal_node_id": "0.0-4.0-45.0"}}, {"uniqueid": "w10545179:a42186504", "current_trial": 50, "dateTime": 1664464108822, "trialdata": {"rt": 1031, "stimulus": "<p id='stroop-text' class='stroop-green'>RED</p>", "response": "g", "stimulus-type": "incongruent", "word": "red", "color": "green", "correct_response": "g", "trial_id": "stroop-trial-1-incongruent-24", "trial_type": "html-keyboard-response", "trial_index": 50, "time_elapsed": 173820, "internal_node_id": "0.0-4.0-46.0"}}, {"uniqueid": "w10545179:a42186504", "current_trial": 51, "dateTime": 1664464110263, "trialdata": {"rt": 933, "stimulus": "<p id='stroop-text' class='stroop-yellow'>YELLOW</p>", "response": "y", "stimulus-type": "congruent", "word": "yellow", "color": "yellow", "correct_response": "y", "trial_id": "stroop-trial-1-congruent-3", "trial_type": "html-keyboard-response", "trial_index": 51, "time_elapsed": 175261, "internal_node_id": "0.0-4.0-47.0"}}, {"uniqueid": "w10545179:a42186504", "current_trial": 52, "dateTime": 1664464111765, "trialdata": {"rt": 993, "stimulus": "<p id='stroop-text' class='stroop-red'>GREEN</p>", "response": "r", "stimulus-type": "incongruent", "word": "green", "color": "red", "correct_response": "r", "trial_id": "stroop-trial-1-incongruent-22", "trial_type": "html-keyboard-response", "trial_index": 52, "time_elapsed": 176762, "internal_node_id": "0.0-4.0-48.0"}}, {"uniqueid": "w10545179:a42186504", "current_trial": 53, "dateTime": 1664464113484, "trialdata": {"rt": 1104, "stimulus": "<p id='stroop-text' class='stroop-red'>BLUE</p>", "response": "r", "stimulus-type": "incongruent", "word": "blue", "color": "red", "correct_response": "r", "trial_id": "stroop-trial-1-incongruent-7", "trial_type": "html-keyboard-response", "trial_index": 53, "time_elapsed": 178482, "internal_node_id": "0.0-4.0-49.0"}}, {"uniqueid": "w10545179:a42186504", "current_trial": 54, "dateTime": 1664464114940, "trialdata": {"rt": 944, "stimulus": "<p id='stroop-text' class='stroop-blue'>BLUE</p>", "response": "b", "stimulus-type": "congruent", "word": "blue", "color": "blue", "correct_response": "b", "trial_id": "stroop-trial-1-congruent-5", "trial_type": "html-keyboard-response", "trial_index": 54, "time_elapsed": 179937, "internal_node_id": "0.0-4.0-50.0"}}, {"uniqueid": "w10545179:a42186504", "current_trial": 55, "dateTime": 1664464116489, "trialdata": {"rt": 1041, "stimulus": "<p id='stroop-text' class='stroop-green'>CHAIR</p>", "response": "g", "stimulus-type": "unrelated", "word": "CHAIR", "color": "green", "correct_response": "g", "trial_id": "stroop-trial-1-unrelated-28", "trial_type": "html-keyboard-response", "trial_index": 55, "time_elapsed": 181487, "internal_node_id": "0.0-4.0-51.0"}}, {"uniqueid": "w10545179:a42186504", "current_trial": 56, "dateTime": 1664464117976, "trialdata": {"rt": 970, "stimulus": "<p id='stroop-text' class='stroop-yellow'>DOG</p>", "response": "y", "stimulus-type": "unrelated", "word": "DOG", "color": "yellow", "correct_response": "y", "trial_id": "stroop-trial-1-unrelated-24", "trial_type": "html-keyboard-response", "trial_index": 56, "time_elapsed": 182973, "internal_node_id": "0.0-4.0-52.0"}}, {"uniqueid": "w10545179:a42186504", "current_trial": 57, "dateTime": 1664464119892, "trialdata": {"rt": 1413, "stimulus": "<p id='stroop-text' class='stroop-blue'>YELLOW</p>", "response": "b", "stimulus-type": "incongruent", "word": "yellow", "color": "blue", "correct_response": "b", "trial_id": "stroop-trial-1-incongruent-9", "trial_type": "html-keyboard-response", "trial_index": 57, "time_elapsed": 184890, "internal_node_id": "0.0-4.0-53.0"}}, {"uniqueid": "w10545179:a42186504", "current_trial": 58, "dateTime": 1664464121413, "trialdata": {"rt": 1011, "stimulus": "<p id='stroop-text' class='stroop-red'>RED</p>", "response": "r", "stimulus-type": "congruent", "word": "red", "color": "red", "correct_response": "r", "trial_id": "stroop-trial-1-congruent-4", "trial_type": "html-keyboard-response", "trial_index": 58, "time_elapsed": 186410, "internal_node_id": "0.0-4.0-54.0"}}, {"uniqueid": "w10545179:a42186504", "current_trial": 59, "dateTime": 1664464122847, "trialdata": {"rt": 918, "stimulus": "<p id='stroop-text' class='stroop-red'>RED</p>", "response": "r", "stimulus-type": "congruent", "word": "red", "color": "red", "correct_response": "r", "trial_id": "stroop-trial-1-congruent-7", "trial_type": "html-keyboard-response", "trial_index": 59, "time_elapsed": 187844, "internal_node_id": "0.0-4.0-55.0"}}, {"uniqueid": "w10545179:a42186504", "current_trial": 60, "dateTime": 1664464124260, "trialdata": {"rt": 901, "stimulus": "<p id='stroop-text' class='stroop-blue'>SHIP</p>", "response": "b", "stimulus-type": "unrelated", "word": "SHIP", "color": "blue", "correct_response": "b", "trial_id": "stroop-trial-1-unrelated-2", "trial_type": "html-keyboard-response", "trial_index": 60, "time_elapsed": 189257, "internal_node_id": "0.0-4.0-56.0"}}, {"uniqueid": "w10545179:a42186504", "current_trial": 61, "dateTime": 1664464125670, "trialdata": {"rt": 890, "stimulus": "<p id='stroop-text' class='stroop-green'>SHIP</p>", "response": "g", "stimulus-type": "unrelated", "word": "SHIP", "color": "green", "correct_response": "g", "trial_id": "stroop-trial-1-unrelated-10", "trial_type": "html-keyboard-response", "trial_index": 61, "time_elapsed": 190666, "internal_node_id": "0.0-4.0-57.0"}}, {"uniqueid": "w10545179:a42186504", "current_trial": 62, "dateTime": 1664464127102, "trialdata": {"rt": 924, "stimulus": "<p id='stroop-text' class='stroop-red'>YELLOW</p>", "response": "y", "stimulus-type": "incongruent", "word": "yellow", "color": "red", "correct_response": "r", "trial_id": "stroop-trial-1-incongruent-5", "trial_type": "html-keyboard-response", "trial_index": 62, "time_elapsed": 192099, "internal_node_id": "0.0-4.0-58.0"}}, {"uniqueid": "w10545179:a42186504", "current_trial": 63, "dateTime": 1664464128944, "trialdata": {"rt": 1319, "stimulus": "<p id='stroop-text' class='stroop-red'>BLUE</p>", "response": "r", "stimulus-type": "incongruent", "word": "blue", "color": "red", "correct_response": "r", "trial_id": "stroop-trial-1-incongruent-28", "trial_type": "html-keyboard-response", "trial_index": 63, "time_elapsed": 193941, "internal_node_id": "0.0-4.0-59.0"}}, {"uniqueid": "w10545179:a42186504", "current_trial": 64, "dateTime": 1664464130801, "trialdata": {"rt": 1345, "stimulus": "<p id='stroop-text' class='stroop-green'>RED</p>", "response": "g", "stimulus-type": "incongruent", "word": "red", "color": "green", "correct_response": "g", "trial_id": "stroop-trial-1-incongruent-15", "trial_type": "html-keyboard-response", "trial_index": 64, "time_elapsed": 195798, "internal_node_id": "0.0-4.0-60.0"}}, {"uniqueid": "w10545179:a42186504", "current_trial": 65, "dateTime": 1664464132149, "trialdata": {"rt": 835, "stimulus": "<p id='stroop-text' class='stroop-yellow'>YELLOW</p>", "response": "y", "stimulus-type": "congruent", "word": "yellow", "color": "yellow", "correct_response": "y", "trial_id": "stroop-trial-1-congruent-2", "trial_type": "html-keyboard-response", "trial_index": 65, "time_elapsed": 197146, "internal_node_id": "0.0-4.0-61.0"}}, {"uniqueid": "w10545179:a42186504", "current_trial": 66, "dateTime": 1664464133742, "trialdata": {"rt": 1082, "stimulus": "<p id='stroop-text' class='stroop-blue'>RED</p>", "response": "b", "stimulus-type": "incongruent", "word": "red", "color": "blue", "correct_response": "b", "trial_id": "stroop-trial-1-incongruent-20", "trial_type": "html-keyboard-response", "trial_index": 66, "time_elapsed": 198739, "internal_node_id": "0.0-4.0-62.0"}}, {"uniqueid": "w10545179:a42186504", "current_trial": 67, "dateTime": 1664464135113, "trialdata": {"rt": 855, "stimulus": "<p id='stroop-text' class='stroop-yellow'>YELLOW</p>", "response": "y", "stimulus-type": "congruent", "word": "yellow", "color": "yellow", "correct_response": "y", "trial_id": "stroop-trial-1-congruent-17", "trial_type": "html-keyboard-response", "trial_index": 67, "time_elapsed": 200110, "internal_node_id": "0.0-4.0-63.0"}}, {"uniqueid": "w10545179:a42186504", "current_trial": 68, "dateTime": 1664464136810, "trialdata": {"rt": 1189, "stimulus": "<p id='stroop-text' class='stroop-red'>BLUE</p>", "response": "r", "stimulus-type": "incongruent", "word": "blue", "color": "red", "correct_response": "r", "trial_id": "stroop-trial-1-incongruent-3", "trial_type": "html-keyboard-response", "trial_index": 68, "time_elapsed": 201807, "internal_node_id": "0.0-4.0-64.0"}}, {"uniqueid": "w10545179:a42186504", "current_trial": 69, "dateTime": 1664464138338, "trialdata": {"rt": 1009, "stimulus": "<p id='stroop-text' class='stroop-green'>GREEN</p>", "response": "g", "stimulus-type": "congruent", "word": "green", "color": "green", "correct_response": "g", "trial_id": "stroop-trial-1-congruent-12", "trial_type": "html-keyboard-response", "trial_index": 69, "time_elapsed": 203335, "internal_node_id": "0.0-4.0-65.0"}}, {"uniqueid": "w10545179:a42186504", "current_trial": 70, "dateTime": 1664464140009, "trialdata": {"rt": 1155, "stimulus": "<p id='stroop-text' class='stroop-red'>RED</p>", "response": "r", "stimulus-type": "congruent", "word": "red", "color": "red", "correct_response": "r", "trial_id": "stroop-trial-1-congruent-30", "trial_type": "html-keyboard-response", "trial_index": 70, "time_elapsed": 205006, "internal_node_id": "0.0-4.0-66.0"}}, {"uniqueid": "w10545179:a42186504", "current_trial": 71, "dateTime": 1664464141738, "trialdata": {"rt": 1219, "stimulus": "<p id='stroop-text' class='stroop-blue'>RED</p>", "response": "b", "stimulus-type": "incongruent", "word": "red", "color": "blue", "correct_response": "b", "trial_id": "stroop-trial-1-incongruent-21", "trial_type": "html-keyboard-response", "trial_index": 71, "time_elapsed": 206735, "internal_node_id": "0.0-4.0-67.0"}}, {"uniqueid": "w10545179:a42186504", "current_trial": 72, "dateTime": 1664464143133, "trialdata": {"rt": 888, "stimulus": "<p id='stroop-text' class='stroop-yellow'>MONKEY</p>", "response": "y", "stimulus-type": "unrelated", "word": "MONKEY", "color": "yellow", "correct_response": "y", "trial_id": "stroop-trial-1-unrelated-20", "trial_type": "html-keyboard-response", "trial_index": 72, "time_elapsed": 208130, "internal_node_id": "0.0-4.0-68.0"}}, {"uniqueid": "w10545179:a42186504", "current_trial": 73, "dateTime": 1664464144942, "trialdata": {"rt": 1297, "stimulus": "<p id='stroop-text' class='stroop-red'>FORK</p>", "response": "r", "stimulus-type": "unrelated", "word": "FORK", "color": "red", "correct_response": "r", "trial_id": "stroop-trial-1-unrelated-9", "trial_type": "html-keyboard-response", "trial_index": 73, "time_elapsed": 209939, "internal_node_id": "0.0-4.0-69.0"}}, {"uniqueid": "w10545179:a42186504", "current_trial": 74, "dateTime": 1664464146389, "trialdata": {"rt": 942, "stimulus": "<p id='stroop-text' class='stroop-yellow'>YELLOW</p>", "response": "y", "stimulus-type": "congruent", "word": "yellow", "color": "yellow", "correct_response": "y", "trial_id": "stroop-trial-1-congruent-24", "trial_type": "html-keyboard-response", "trial_index": 74, "time_elapsed": 211386, "internal_node_id": "0.0-4.0-70.0"}}, {"uniqueid": "w10545179:a42186504", "current_trial": 75, "dateTime": 1664464147949, "trialdata": {"rt": 1050, "stimulus": "<p id='stroop-text' class='stroop-green'>GREEN</p>", "response": "g", "stimulus-type": "congruent", "word": "green", "color": "green", "correct_response": "g", "trial_id": "stroop-trial-1-congruent-26", "trial_type": "html-keyboard-response", "trial_index": 75, "time_elapsed": 212946, "internal_node_id": "0.0-4.0-71.0"}}, {"uniqueid": "w10545179:a42186504", "current_trial": 76, "dateTime": 1664464149344, "trialdata": {"rt": 880, "stimulus": "<p id='stroop-text' class='stroop-red'>BLUE</p>", "response": "r", "stimulus-type": "incongruent", "word": "blue", "color": "red", "correct_response": "r", "trial_id": "stroop-trial-1-incongruent-29", "trial_type": "html-keyboard-response", "trial_index": 76, "time_elapsed": 214341, "internal_node_id": "0.0-4.0-72.0"}}, {"uniqueid": "w10545179:a42186504", "current_trial": 77, "dateTime": 1664464150868, "trialdata": {"rt": 1014, "stimulus": "<p id='stroop-text' class='stroop-blue'>BLUE</p>", "response": "b", "stimulus-type": "congruent", "word": "blue", "color": "blue", "correct_response": "b", "trial_id": "stroop-trial-1-congruent-19", "trial_type": "html-keyboard-response", "trial_index": 77, "time_elapsed": 215865, "internal_node_id": "0.0-4.0-73.0"}}, {"uniqueid": "w10545179:a42186504", "current_trial": 78, "dateTime": 1664464152280, "trialdata": {"rt": 899, "stimulus": "<p id='stroop-text' class='stroop-blue'>BLUE</p>", "response": "b", "stimulus-type": "congruent", "word": "blue", "color": "blue", "correct_response": "b", "trial_id": "stroop-trial-1-congruent-21", "trial_type": "html-keyboard-response", "trial_index": 78, "time_elapsed": 217278, "internal_node_id": "0.0-4.0-74.0"}}, {"uniqueid": "w10545179:a42186504", "current_trial": 79, "dateTime": 1664464154161, "trialdata": {"rt": 1351, "stimulus": "<p id='stroop-text' class='stroop-yellow'>GREEN</p>", "response": "y", "stimulus-type": "incongruent", "word": "green", "color": "yellow", "correct_response": "y", "trial_id": "stroop-trial-1-incongruent-8", "trial_type": "html-keyboard-response", "trial_index": 79, "time_elapsed": 219158, "internal_node_id": "0.0-4.0-75.0"}}, {"uniqueid": "w10545179:a42186504", "current_trial": 80, "dateTime": 1664464155629, "trialdata": {"rt": 958, "stimulus": "<p id='stroop-text' class='stroop-blue'>GREEN</p>", "response": "b", "stimulus-type": "incongruent", "word": "green", "color": "blue", "correct_response": "b", "trial_id": "stroop-trial-1-incongruent-10", "trial_type": "html-keyboard-response", "trial_index": 80, "time_elapsed": 220626, "internal_node_id": "0.0-4.0-76.0"}}, {"uniqueid": "w10545179:a42186504", "current_trial": 81, "dateTime": 1664464157081, "trialdata": {"rt": 939, "stimulus": "<p id='stroop-text' class='stroop-blue'>BLUE</p>", "response": "b", "stimulus-type": "congruent", "word": "blue", "color": "blue", "correct_response": "b", "trial_id": "stroop-trial-1-congruent-8", "trial_type": "html-keyboard-response", "trial_index": 81, "time_elapsed": 222078, "internal_node_id": "0.0-4.0-77.0"}}, {"uniqueid": "w10545179:a42186504", "current_trial": 82, "dateTime": 1664464158570, "trialdata": {"rt": 974, "stimulus": "<p id='stroop-text' class='stroop-red'>BLUE</p>", "response": "r", "stimulus-type": "incongruent", "word": "blue", "color": "red", "correct_response": "r", "trial_id": "stroop-trial-1-incongruent-27", "trial_type": "html-keyboard-response", "trial_index": 82, "time_elapsed": 223567, "internal_node_id": "0.0-4.0-78.0"}}, {"uniqueid": "w10545179:a42186504", "current_trial": 83, "dateTime": 1664464160031, "trialdata": {"rt": 947, "stimulus": "<p id='stroop-text' class='stroop-red'>YELLOW</p>", "response": "y", "stimulus-type": "incongruent", "word": "yellow", "color": "red", "correct_response": "r", "trial_id": "stroop-trial-1-incongruent-19", "trial_type": "html-keyboard-response", "trial_index": 83, "time_elapsed": 225029, "internal_node_id": "0.0-4.0-79.0"}}, {"uniqueid": "w10545179:a42186504", "current_trial": 84, "dateTime": 1664464162086, "trialdata": {"rt": 1541, "stimulus": "<p id='stroop-text' class='stroop-yellow'>BRIDGE</p>", "response": "y", "stimulus-type": "unrelated", "word": "BRIDGE", "color": "yellow", "correct_response": "y", "trial_id": "stroop-trial-1-unrelated-18", "trial_type": "html-keyboard-response", "trial_index": 84, "time_elapsed": 227083, "internal_node_id": "0.0-4.0-80.0"}}, {"uniqueid": "w10545179:a42186504", "current_trial": 85, "dateTime": 1664464163558, "trialdata": {"rt": 964, "stimulus": "<p id='stroop-text' class='stroop-blue'>BLUE</p>", "response": "b", "stimulus-type": "congruent", "word": "blue", "color": "blue", "correct_response": "b", "trial_id": "stroop-trial-1-congruent-9", "trial_type": "html-keyboard-response", "trial_index": 85, "time_elapsed": 228555, "internal_node_id": "0.0-4.0-81.0"}}, {"uniqueid": "w10545179:a42186504", "current_trial": 86, "dateTime": 1664464164968, "trialdata": {"rt": 885, "stimulus": "<p id='stroop-text' class='stroop-yellow'>YELLOW</p>", "response": "y", "stimulus-type": "congruent", "word": "yellow", "color": "yellow", "correct_response": "y", "trial_id": "stroop-trial-1-congruent-16", "trial_type": "html-keyboard-response", "trial_index": 86, "time_elapsed": 229965, "internal_node_id": "0.0-4.0-82.0"}}, {"uniqueid": "w10545179:a42186504", "current_trial": 87, "dateTime": 1664464166412, "trialdata": {"rt": 927, "stimulus": "<p id='stroop-text' class='stroop-yellow'>STONE</p>", "response": "y", "stimulus-type": "unrelated", "word": "STONE", "color": "yellow", "correct_response": "y", "trial_id": "stroop-trial-1-unrelated-26", "trial_type": "html-keyboard-response", "trial_index": 87, "time_elapsed": 231409, "internal_node_id": "0.0-4.0-83.0"}}, {"uniqueid": "w10545179:a42186504", "current_trial": 88, "dateTime": 1664464167819, "trialdata": {"rt": 895, "stimulus": "<p id='stroop-text' class='stroop-red'>RED</p>", "response": "r", "stimulus-type": "congruent", "word": "red", "color": "red", "correct_response": "r", "trial_id": "stroop-trial-1-congruent-25", "trial_type": "html-keyboard-response", "trial_index": 88, "time_elapsed": 232816, "internal_node_id": "0.0-4.0-84.0"}}, {"uniqueid": "w10545179:a42186504", "current_trial": 89, "dateTime": 1664464169183, "trialdata": {"rt": 856, "stimulus": "<p id='stroop-text' class='stroop-red'>YELLOW</p>", "response": "r", "stimulus-type": "incongruent", "word": "yellow", "color": "red", "correct_response": "r", "trial_id": "stroop-trial-1-incongruent-14", "trial_type": "html-keyboard-response", "trial_index": 89, "time_elapsed": 234179, "internal_node_id": "0.0-4.0-85.0"}}, {"uniqueid": "w10545179:a42186504", "current_trial": 90, "dateTime": 1664464170899, "trialdata": {"rt": 1203, "stimulus": "<p id='stroop-text' class='stroop-blue'>BRIDGE</p>", "response": "b", "stimulus-type": "unrelated", "word": "BRIDGE", "color": "blue", "correct_response": "b", "trial_id": "stroop-trial-1-unrelated-6", "trial_type": "html-keyboard-response", "trial_index": 90, "time_elapsed": 235896, "internal_node_id": "0.0-4.0-86.0"}}, {"uniqueid": "w10545179:a42186504", "current_trial": 91, "dateTime": 1664464172357, "trialdata": {"rt": 947, "stimulus": "<p id='stroop-text' class='stroop-green'>CHAIR</p>", "response": "g", "stimulus-type": "unrelated", "word": "CHAIR", "color": "green", "correct_response": "g", "trial_id": "stroop-trial-1-unrelated-5", "trial_type": "html-keyboard-response", "trial_index": 91, "time_elapsed": 237354, "internal_node_id": "0.0-4.0-87.0"}}, {"uniqueid": "w10545179:a42186504", "current_trial": 92, "dateTime": 1664464173782, "trialdata": {"rt": 898, "stimulus": "<p id='stroop-text' class='stroop-green'>GREEN</p>", "response": "g", "stimulus-type": "congruent", "word": "green", "color": "green", "correct_response": "g", "trial_id": "stroop-trial-1-congruent-29", "trial_type": "html-keyboard-response", "trial_index": 92, "time_elapsed": 238779, "internal_node_id": "0.0-4.0-88.0"}}, {"uniqueid": "w10545179:a42186504", "current_trial": 93, "dateTime": 1664464175243, "trialdata": {"rt": 951, "stimulus": "<p id='stroop-text' class='stroop-blue'>GREEN</p>", "response": "b", "stimulus-type": "incongruent", "word": "green", "color": "blue", "correct_response": "b", "trial_id": "stroop-trial-1-incongruent-6", "trial_type": "html-keyboard-response", "trial_index": 93, "time_elapsed": 240240, "internal_node_id": "0.0-4.0-89.0"}}, {"uniqueid": "w10545179:a42186504", "current_trial": 94, "dateTime": 1664464192190, "trialdata": {"rt": 16432, "stimulus": "  <h1> End of block! </h1>\n\n  You have reached the end of the block 1/5. If you need a short break, feel free to take one now before moving on.\n\n  <br><br>\n  In the next block, you will complete another 90 rounds of this game.\n\n  <br><br>\n  <div style='text-align: center;'>Press <code>space</code> to begin.</div>\n  <br><br>\n<div style='text-align: center;'>(If the experiment doesn't continue, try clicking on the text and then pressing <code>space</code>.)</div>", "response": " ", "trial_id": "stroop_1_ready_2", "trial_type": "html-keyboard-response", "trial_index": 94, "time_elapsed": 257188, "internal_node_id": "0.0-5.0"}}, {"uniqueid": "w10545179:a42186504", "current_trial": 95, "dateTime": 1664464193932, "trialdata": {"rt": 1730, "stimulus": "<p id='stroop-text' class='stroop-red'>BRIDGE</p>", "response": "r", "stimulus-type": "unrelated", "word": "BRIDGE", "color": "red", "correct_response": "r", "trial_id": "stroop-trial-1-unrelated-10", "trial_type": "html-keyboard-response", "trial_index": 95, "time_elapsed": 258929, "internal_node_id": "0.0-6.0-0.0"}}, {"uniqueid": "w10545179:a42186504", "current_trial": 96, "dateTime": 1664464195643, "trialdata": {"rt": 1199, "stimulus": "<p id='stroop-text' class='stroop-green'>BOTTLE</p>", "response": "g", "stimulus-type": "unrelated", "word": "BOTTLE", "color": "green", "correct_response": "g", "trial_id": "stroop-trial-1-unrelated-1", "trial_type": "html-keyboard-response", "trial_index": 96, "time_elapsed": 260640, "internal_node_id": "0.0-6.0-1.0"}}, {"uniqueid": "w10545179:a42186504", "current_trial": 97, "dateTime": 1664464196982, "trialdata": {"rt": 823, "stimulus": "<p id='stroop-text' class='stroop-yellow'>SHIP</p>", "response": "y", "stimulus-type": "unrelated", "word": "SHIP", "color": "yellow", "correct_response": "y", "trial_id": "stroop-trial-1-unrelated-20", "trial_type": "html-keyboard-response", "trial_index": 97, "time_elapsed": 261979, "internal_node_id": "0.0-6.0-2.0"}}, {"uniqueid": "w10545179:a42186504", "current_trial": 98, "dateTime": 1664464198499, "trialdata": {"rt": 1006, "stimulus": "<p id='stroop-text' class='stroop-green'>BRAIN</p>", "response": "g", "stimulus-type": "unrelated", "word": "BRAIN", "color": "green", "correct_response": "g", "trial_id": "stroop-trial-1-unrelated-21", "trial_type": "html-keyboard-response", "trial_index": 98, "time_elapsed": 263496, "internal_node_id": "0.0-6.0-3.0"}}, {"uniqueid": "w10545179:a42186504", "current_trial": 99, "dateTime": 1664464200454, "trialdata": {"rt": 1442, "stimulus": "<p id='stroop-text' class='stroop-red'>BLUE</p>", "response": "r", "stimulus-type": "incongruent", "word": "blue", "color": "red", "correct_response": "r", "trial_id": "stroop-trial-1-incongruent-16", "trial_type": "html-keyboard-response", "trial_index": 99, "time_elapsed": 265451, "internal_node_id": "0.0-6.0-4.0"}}, {"uniqueid": "w10545179:a42186504", "current_trial": 100, "dateTime": 1664464201821, "trialdata": {"rt": 859, "stimulus": "<p id='stroop-text' class='stroop-blue'>CHAIR</p>", "response": "b", "stimulus-type": "unrelated", "word": "CHAIR", "color": "blue", "correct_response": "b", "trial_id": "stroop-trial-1-unrelated-17", "trial_type": "html-keyboard-response", "trial_index": 100, "time_elapsed": 266818, "internal_node_id": "0.0-6.0-5.0"}}, {"uniqueid": "w10545179:a42186504", "current_trial": 101, "dateTime": 1664464203150, "trialdata": {"rt": 814, "stimulus": "<p id='stroop-text' class='stroop-blue'>GREEN</p>", "response": "b", "stimulus-type": "incongruent", "word": "green", "color": "blue", "correct_response": "b", "trial_id": "stroop-trial-1-incongruent-17", "trial_type": "html-keyboard-response", "trial_index": 101, "time_elapsed": 268147, "internal_node_id": "0.0-6.0-6.0"}}, {"uniqueid": "w10545179:a42186504", "current_trial": 102, "dateTime": 1664464204487, "trialdata": {"rt": 822, "stimulus": "<p id='stroop-text' class='stroop-yellow'>YELLOW</p>", "response": "y", "stimulus-type": "congruent", "word": "yellow", "color": "yellow", "correct_response": "y", "trial_id": "stroop-trial-1-congruent-21", "trial_type": "html-keyboard-response", "trial_index": 102, "time_elapsed": 269482, "internal_node_id": "0.0-6.0-7.0"}}, {"uniqueid": "w10545179:a42186504", "current_trial": 103, "dateTime": 1664464206157, "trialdata": {"rt": 1155, "stimulus": "<p id='stroop-text' class='stroop-red'>GREEN</p>", "response": "r", "stimulus-type": "incongruent", "word": "green", "color": "red", "correct_response": "r", "trial_id": "stroop-trial-1-incongruent-21", "trial_type": "html-keyboard-response", "trial_index": 103, "time_elapsed": 271155, "internal_node_id": "0.0-6.0-8.0"}}, {"uniqueid": "w10545179:a42186504", "current_trial": 104, "dateTime": 1664464207827, "trialdata": {"rt": 1161, "stimulus": "<p id='stroop-text' class='stroop-red'>GREEN</p>", "response": "r", "stimulus-type": "incongruent", "word": "green", "color": "red", "correct_response": "r", "trial_id": "stroop-trial-1-incongruent-12", "trial_type": "html-keyboard-response", "trial_index": 104, "time_elapsed": 272824, "internal_node_id": "0.0-6.0-9.0"}}, {"uniqueid": "w10545179:a42186504", "current_trial": 105, "dateTime": 1664464209239, "trialdata": {"rt": 900, "stimulus": "<p id='stroop-text' class='stroop-red'>RED</p>", "response": "r", "stimulus-type": "congruent", "word": "red", "color": "red", "correct_response": "r", "trial_id": "stroop-trial-1-congruent-29", "trial_type": "html-keyboard-response", "trial_index": 105, "time_elapsed": 274237, "internal_node_id": "0.0-6.0-10.0"}}, {"uniqueid": "w10545179:a42186504", "current_trial": 106, "dateTime": 1664464210978, "trialdata": {"rt": 1225, "stimulus": "<p id='stroop-text' class='stroop-green'>YELLOW</p>", "response": "g", "stimulus-type": "incongruent", "word": "yellow", "color": "green", "correct_response": "g", "trial_id": "stroop-trial-1-incongruent-26", "trial_type": "html-keyboard-response", "trial_index": 106, "time_elapsed": 275975, "internal_node_id": "0.0-6.0-11.0"}}, {"uniqueid": "w10545179:a42186504", "current_trial": 107, "dateTime": 1664464212951, "trialdata": {"rt": 1449, "stimulus": "<p id='stroop-text' class='stroop-green'>BRAIN</p>", "response": "g", "stimulus-type": "unrelated", "word": "BRAIN", "color": "green", "correct_response": "g", "trial_id": "stroop-trial-1-unrelated-27", "trial_type": "html-keyboard-response", "trial_index": 107, "time_elapsed": 277946, "internal_node_id": "0.0-6.0-12.0"}}, {"uniqueid": "w10545179:a42186504", "current_trial": 108, "dateTime": 1664464214614, "trialdata": {"rt": 1153, "stimulus": "<p id='stroop-text' class='stroop-blue'>RED</p>", "response": "b", "stimulus-type": "incongruent", "word": "red", "color": "blue", "correct_response": "b", "trial_id": "stroop-trial-1-incongruent-14", "trial_type": "html-keyboard-response", "trial_index": 108, "time_elapsed": 279611, "internal_node_id": "0.0-6.0-13.0"}}, {"uniqueid": "w10545179:a42186504", "current_trial": 109, "dateTime": 1664464215983, "trialdata": {"rt": 854, "stimulus": "<p id='stroop-text' class='stroop-red'>RED</p>", "response": "r", "stimulus-type": "congruent", "word": "red", "color": "red", "correct_response": "r", "trial_id": "stroop-trial-1-congruent-11", "trial_type": "html-keyboard-response", "trial_index": 109, "time_elapsed": 280980, "internal_node_id": "0.0-6.0-14.0"}}, {"uniqueid": "w10545179:a42186504", "current_trial": 110, "dateTime": 1664464217972, "trialdata": {"rt": 1482, "stimulus": "<p id='stroop-text' class='stroop-yellow'>DOG</p>", "response": "y", "stimulus-type": "unrelated", "word": "DOG", "color": "yellow", "correct_response": "y", "trial_id": "stroop-trial-1-unrelated-28", "trial_type": "html-keyboard-response", "trial_index": 110, "time_elapsed": 282969, "internal_node_id": "0.0-6.0-15.0"}}, {"uniqueid": "w10545179:a42186504", "current_trial": 111, "dateTime": 1664464219287, "trialdata": {"rt": 800, "stimulus": "<p id='stroop-text' class='stroop-red'>RED</p>", "response": "r", "stimulus-type": "congruent", "word": "red", "color": "red", "correct_response": "r", "trial_id": "stroop-trial-1-congruent-18", "trial_type": "html-keyboard-response", "trial_index": 111, "time_elapsed": 284284, "internal_node_id": "0.0-6.0-16.0"}}, {"uniqueid": "w10545179:a42186504", "current_trial": 112, "dateTime": 1664464221765, "trialdata": {"rt": 1964, "stimulus": "<p id='stroop-text' class='stroop-green'>GREEN</p>", "response": "g", "stimulus-type": "congruent", "word": "green", "color": "green", "correct_response": "g", "trial_id": "stroop-trial-1-congruent-9", "trial_type": "html-keyboard-response", "trial_index": 112, "time_elapsed": 286762, "internal_node_id": "0.0-6.0-17.0"}}, {"uniqueid": "w10545179:a42186504", "current_trial": 113, "dateTime": 1664464223382, "trialdata": {"rt": 1095, "stimulus": "<p id='stroop-text' class='stroop-red'>BOTTLE</p>", "response": "r", "stimulus-type": "unrelated", "word": "BOTTLE", "color": "red", "correct_response": "r", "trial_id": "stroop-trial-1-unrelated-9", "trial_type": "html-keyboard-response", "trial_index": 113, "time_elapsed": 288379, "internal_node_id": "0.0-6.0-18.0"}}, {"uniqueid": "w10545179:a42186504", "current_trial": 114, "dateTime": 1664464224974, "trialdata": {"rt": 1073, "stimulus": "<p id='stroop-text' class='stroop-blue'>YELLOW</p>", "response": "b", "stimulus-type": "incongruent", "word": "yellow", "color": "blue", "correct_response": "b", "trial_id": "stroop-trial-1-incongruent-5", "trial_type": "html-keyboard-response", "trial_index": 114, "time_elapsed": 289971, "internal_node_id": "0.0-6.0-19.0"}}, {"uniqueid": "w10545179:a42186504", "current_trial": 115, "dateTime": 1664464226743, "trialdata": {"rt": 1256, "stimulus": "<p id='stroop-text' class='stroop-yellow'>BOAT</p>", "response": "y", "stimulus-type": "unrelated", "word": "BOAT", "color": "yellow", "correct_response": "y", "trial_id": "stroop-trial-1-unrelated-5", "trial_type": "html-keyboard-response", "trial_index": 115, "time_elapsed": 291740, "internal_node_id": "0.0-6.0-20.0"}}, {"uniqueid": "w10545179:a42186504", "current_trial": 116, "dateTime": 1664464228162, "trialdata": {"rt": 896, "stimulus": "<p id='stroop-text' class='stroop-red'>RED</p>", "response": "r", "stimulus-type": "congruent", "word": "red", "color": "red", "correct_response": "r", "trial_id": "stroop-trial-1-congruent-24", "trial_type": "html-keyboard-response", "trial_index": 116, "time_elapsed": 293159, "internal_node_id": "0.0-6.0-21.0"}}, {"uniqueid": "w10545179:a42186504", "current_trial": 117, "dateTime": 1664464229620, "trialdata": {"rt": 948, "stimulus": "<p id='stroop-text' class='stroop-red'>YELLOW</p>", "response": "r", "stimulus-type": "incongruent", "word": "yellow", "color": "red", "correct_response": "r", "trial_id": "stroop-trial-1-incongruent-24", "trial_type": "html-keyboard-response", "trial_index": 117, "time_elapsed": 294617, "internal_node_id": "0.0-6.0-22.0"}}, {"uniqueid": "w10545179:a42186504", "current_trial": 118, "dateTime": 1664464230951, "trialdata": {"rt": 819, "stimulus": "<p id='stroop-text' class='stroop-yellow'>YELLOW</p>", "response": "y", "stimulus-type": "congruent", "word": "yellow", "color": "yellow", "correct_response": "y", "trial_id": "stroop-trial-1-congruent-28", "trial_type": "html-keyboard-response", "trial_index": 118, "time_elapsed": 295948, "internal_node_id": "0.0-6.0-23.0"}}, {"uniqueid": "w10545179:a42186504", "current_trial": 119, "dateTime": 1664464232345, "trialdata": {"rt": 877, "stimulus": "<p id='stroop-text' class='stroop-blue'>BLUE</p>", "response": "b", "stimulus-type": "congruent", "word": "blue", "color": "blue", "correct_response": "b", "trial_id": "stroop-trial-1-congruent-13", "trial_type": "html-keyboard-response", "trial_index": 119, "time_elapsed": 297342, "internal_node_id": "0.0-6.0-24.0"}}, {"uniqueid": "w10545179:a42186504", "current_trial": 120, "dateTime": 1664464233855, "trialdata": {"rt": 1000, "stimulus": "<p id='stroop-text' class='stroop-red'>GREEN</p>", "response": "r", "stimulus-type": "incongruent", "word": "green", "color": "red", "correct_response": "r", "trial_id": "stroop-trial-1-incongruent-9", "trial_type": "html-keyboard-response", "trial_index": 120, "time_elapsed": 298852, "internal_node_id": "0.0-6.0-25.0"}}, {"uniqueid": "w10545179:a42186504", "current_trial": 121, "dateTime": 1664464235166, "trialdata": {"rt": 797, "stimulus": "<p id='stroop-text' class='stroop-red'>GREEN</p>", "response": "r", "stimulus-type": "incongruent", "word": "green", "color": "red", "correct_response": "r", "trial_id": "stroop-trial-1-incongruent-15", "trial_type": "html-keyboard-response", "trial_index": 121, "time_elapsed": 300164, "internal_node_id": "0.0-6.0-26.0"}}, {"uniqueid": "w10545179:a42186504", "current_trial": 122, "dateTime": 1664464236479, "trialdata": {"rt": 789, "stimulus": "<p id='stroop-text' class='stroop-blue'>BLUE</p>", "response": "b", "stimulus-type": "congruent", "word": "blue", "color": "blue", "correct_response": "b", "trial_id": "stroop-trial-1-congruent-27", "trial_type": "html-keyboard-response", "trial_index": 122, "time_elapsed": 301476, "internal_node_id": "0.0-6.0-27.0"}}, {"uniqueid": "w10545179:a42186504", "current_trial": 123, "dateTime": 1664464237768, "trialdata": {"rt": 764, "stimulus": "<p id='stroop-text' class='stroop-red'>RED</p>", "response": "r", "stimulus-type": "congruent", "word": "red", "color": "red", "correct_response": "r", "trial_id": "stroop-trial-1-congruent-3", "trial_type": "html-keyboard-response", "trial_index": 123, "time_elapsed": 302765, "internal_node_id": "0.0-6.0-28.0"}}, {"uniqueid": "w10545179:a42186504", "current_trial": 124, "dateTime": 1664464239204, "trialdata": {"rt": 927, "stimulus": "<p id='stroop-text' class='stroop-red'>GREEN</p>", "response": "r", "stimulus-type": "incongruent", "word": "green", "color": "red", "correct_response": "r", "trial_id": "stroop-trial-1-incongruent-11", "trial_type": "html-keyboard-response", "trial_index": 124, "time_elapsed": 304201, "internal_node_id": "0.0-6.0-29.0"}}, {"uniqueid": "w10545179:a42186504", "current_trial": 125, "dateTime": 1664464240561, "trialdata": {"rt": 837, "stimulus": "<p id='stroop-text' class='stroop-green'>GREEN</p>", "response": "g", "stimulus-type": "congruent", "word": "green", "color": "green", "correct_response": "g", "trial_id": "stroop-trial-1-congruent-8", "trial_type": "html-keyboard-response", "trial_index": 125, "time_elapsed": 305558, "internal_node_id": "0.0-6.0-30.0"}}, {"uniqueid": "w10545179:a42186504", "current_trial": 126, "dateTime": 1664464241936, "trialdata": {"rt": 860, "stimulus": "<p id='stroop-text' class='stroop-blue'>GREEN</p>", "response": "b", "stimulus-type": "incongruent", "word": "green", "color": "blue", "correct_response": "b", "trial_id": "stroop-trial-1-incongruent-13", "trial_type": "html-keyboard-response", "trial_index": 126, "time_elapsed": 306933, "internal_node_id": "0.0-6.0-31.0"}}, {"uniqueid": "w10545179:a42186504", "current_trial": 127, "dateTime": 1664464243447, "trialdata": {"rt": 995, "stimulus": "<p id='stroop-text' class='stroop-green'>GREEN</p>", "response": "g", "stimulus-type": "congruent", "word": "green", "color": "green", "correct_response": "g", "trial_id": "stroop-trial-1-congruent-12", "trial_type": "html-keyboard-response", "trial_index": 127, "time_elapsed": 308444, "internal_node_id": "0.0-6.0-32.0"}}, {"uniqueid": "w10545179:a42186504", "current_trial": 128, "dateTime": 1664464244704, "trialdata": {"rt": 745, "stimulus": "<p id='stroop-text' class='stroop-yellow'>YELLOW</p>", "response": "y", "stimulus-type": "congruent", "word": "yellow", "color": "yellow", "correct_response": "y", "trial_id": "stroop-trial-1-congruent-6", "trial_type": "html-keyboard-response", "trial_index": 128, "time_elapsed": 309701, "internal_node_id": "0.0-6.0-33.0"}}, {"uniqueid": "w10545179:a42186504", "current_trial": 129, "dateTime": 1664464246271, "trialdata": {"rt": 1057, "stimulus": "<p id='stroop-text' class='stroop-red'>BOTTLE</p>", "response": "r", "stimulus-type": "unrelated", "word": "BOTTLE", "color": "red", "correct_response": "r", "trial_id": "stroop-trial-1-unrelated-4", "trial_type": "html-keyboard-response", "trial_index": 129, "time_elapsed": 311268, "internal_node_id": "0.0-6.0-34.0"}}, {"uniqueid": "w10545179:a42186504", "current_trial": 130, "dateTime": 1664464247696, "trialdata": {"rt": 907, "stimulus": "<p id='stroop-text' class='stroop-green'>GREEN</p>", "response": "g", "stimulus-type": "congruent", "word": "green", "color": "green", "correct_response": "g", "trial_id": "stroop-trial-1-congruent-1", "trial_type": "html-keyboard-response", "trial_index": 130, "time_elapsed": 312694, "internal_node_id": "0.0-6.0-35.0"}}, {"uniqueid": "w10545179:a42186504", "current_trial": 131, "dateTime": 1664464249287, "trialdata": {"rt": 1074, "stimulus": "<p id='stroop-text' class='stroop-red'>BRAIN</p>", "response": "r", "stimulus-type": "unrelated", "word": "BRAIN", "color": "red", "correct_response": "r", "trial_id": "stroop-trial-1-unrelated-7", "trial_type": "html-keyboard-response", "trial_index": 131, "time_elapsed": 314284, "internal_node_id": "0.0-6.0-36.0"}}, {"uniqueid": "w10545179:a42186504", "current_trial": 132, "dateTime": 1664464250622, "trialdata": {"rt": 813, "stimulus": "<p id='stroop-text' class='stroop-red'>RED</p>", "response": "r", "stimulus-type": "congruent", "word": "red", "color": "red", "correct_response": "r", "trial_id": "stroop-trial-1-congruent-19", "trial_type": "html-keyboard-response", "trial_index": 132, "time_elapsed": 315620, "internal_node_id": "0.0-6.0-37.0"}}, {"uniqueid": "w10545179:a42186504", "current_trial": 133, "dateTime": 1664464252420, "trialdata": {"rt": 1283, "stimulus": "<p id='stroop-text' class='stroop-green'>BOTTLE</p>", "response": "g", "stimulus-type": "unrelated", "word": "BOTTLE", "color": "green", "correct_response": "g", "trial_id": "stroop-trial-1-unrelated-14", "trial_type": "html-keyboard-response", "trial_index": 133, "time_elapsed": 317417, "internal_node_id": "0.0-6.0-38.0"}}, {"uniqueid": "w10545179:a42186504", "current_trial": 134, "dateTime": 1664464254126, "trialdata": {"rt": 1190, "stimulus": "<p id='stroop-text' class='stroop-red'>CHAIR</p>", "response": "r", "stimulus-type": "unrelated", "word": "CHAIR", "color": "red", "correct_response": "r", "trial_id": "stroop-trial-1-unrelated-3", "trial_type": "html-keyboard-response", "trial_index": 134, "time_elapsed": 319123, "internal_node_id": "0.0-6.0-39.0"}}, {"uniqueid": "w10545179:a42186504", "current_trial": 135, "dateTime": 1664464255986, "trialdata": {"rt": 1346, "stimulus": "<p id='stroop-text' class='stroop-blue'>GREEN</p>", "response": "b", "stimulus-type": "incongruent", "word": "green", "color": "blue", "correct_response": "b", "trial_id": "stroop-trial-1-incongruent-28", "trial_type": "html-keyboard-response", "trial_index": 135, "time_elapsed": 320984, "internal_node_id": "0.0-6.0-40.0"}}, {"uniqueid": "w10545179:a42186504", "current_trial": 136, "dateTime": 1664464257257, "trialdata": {"rt": 757, "stimulus": "<p id='stroop-text' class='stroop-blue'>BLUE</p>", "response": "b", "stimulus-type": "congruent", "word": "blue", "color": "blue", "correct_response": "b", "trial_id": "stroop-trial-1-congruent-2", "trial_type": "html-keyboard-response", "trial_index": 136, "time_elapsed": 322254, "internal_node_id": "0.0-6.0-41.0"}}, {"uniqueid": "w10545179:a42186504", "current_trial": 137, "dateTime": 1664464258508, "trialdata": {"rt": 740, "stimulus": "<p id='stroop-text' class='stroop-yellow'>YELLOW</p>", "response": "y", "stimulus-type": "congruent", "word": "yellow", "color": "yellow", "correct_response": "y", "trial_id": "stroop-trial-1-congruent-23", "trial_type": "html-keyboard-response", "trial_index": 137, "time_elapsed": 323505, "internal_node_id": "0.0-6.0-42.0"}}, {"uniqueid": "w10545179:a42186504", "current_trial": 138, "dateTime": 1664464260112, "trialdata": {"rt": 1094, "stimulus": "<p id='stroop-text' class='stroop-green'>GREEN</p>", "response": "g", "stimulus-type": "congruent", "word": "green", "color": "green", "correct_response": "g", "trial_id": "stroop-trial-1-congruent-26", "trial_type": "html-keyboard-response", "trial_index": 138, "time_elapsed": 325109, "internal_node_id": "0.0-6.0-43.0"}}, {"uniqueid": "w10545179:a42186504", "current_trial": 139, "dateTime": 1664464261356, "trialdata": {"rt": 729, "stimulus": "<p id='stroop-text' class='stroop-red'>GREEN</p>", "response": "r", "stimulus-type": "incongruent", "word": "green", "color": "red", "correct_response": "r", "trial_id": "stroop-trial-1-incongruent-25", "trial_type": "html-keyboard-response", "trial_index": 139, "time_elapsed": 326354, "internal_node_id": "0.0-6.0-44.0"}}, {"uniqueid": "w10545179:a42186504", "current_trial": 140, "dateTime": 1664464262688, "trialdata": {"rt": 813, "stimulus": "<p id='stroop-text' class='stroop-red'>BLUE</p>", "response": "r", "stimulus-type": "incongruent", "word": "blue", "color": "red", "correct_response": "r", "trial_id": "stroop-trial-1-incongruent-29", "trial_type": "html-keyboard-response", "trial_index": 140, "time_elapsed": 327685, "internal_node_id": "0.0-6.0-45.0"}}, {"uniqueid": "w10545179:a42186504", "current_trial": 141, "dateTime": 1664464264114, "trialdata": {"rt": 908, "stimulus": "<p id='stroop-text' class='stroop-red'>GREEN</p>", "response": "r", "stimulus-type": "incongruent", "word": "green", "color": "red", "correct_response": "r", "trial_id": "stroop-trial-1-incongruent-30", "trial_type": "html-keyboard-response", "trial_index": 141, "time_elapsed": 329111, "internal_node_id": "0.0-6.0-46.0"}}, {"uniqueid": "w10545179:a42186504", "current_trial": 142, "dateTime": 1664464265390, "trialdata": {"rt": 758, "stimulus": "<p id='stroop-text' class='stroop-red'>RED</p>", "response": "r", "stimulus-type": "congruent", "word": "red", "color": "red", "correct_response": "r", "trial_id": "stroop-trial-1-congruent-22", "trial_type": "html-keyboard-response", "trial_index": 142, "time_elapsed": 330387, "internal_node_id": "0.0-6.0-47.0"}}, {"uniqueid": "w10545179:a42186504", "current_trial": 143, "dateTime": 1664464266842, "trialdata": {"rt": 939, "stimulus": "<p id='stroop-text' class='stroop-green'>CHAIR</p>", "response": "g", "stimulus-type": "unrelated", "word": "CHAIR", "color": "green", "correct_response": "g", "trial_id": "stroop-trial-1-unrelated-2", "trial_type": "html-keyboard-response", "trial_index": 143, "time_elapsed": 331839, "internal_node_id": "0.0-6.0-48.0"}}, {"uniqueid": "w10545179:a42186504", "current_trial": 144, "dateTime": 1664464268156, "trialdata": {"rt": 803, "stimulus": "<p id='stroop-text' class='stroop-yellow'>GREEN</p>", "response": "y", "stimulus-type": "incongruent", "word": "green", "color": "yellow", "correct_response": "y", "trial_id": "stroop-trial-1-incongruent-22", "trial_type": "html-keyboard-response", "trial_index": 144, "time_elapsed": 333153, "internal_node_id": "0.0-6.0-49.0"}}, {"uniqueid": "w10545179:a42186504", "current_trial": 145, "dateTime": 1664464269400, "trialdata": {"rt": 732, "stimulus": "<p id='stroop-text' class='stroop-red'>RED</p>", "response": "r", "stimulus-type": "congruent", "word": "red", "color": "red", "correct_response": "r", "trial_id": "stroop-trial-1-congruent-30", "trial_type": "html-keyboard-response", "trial_index": 145, "time_elapsed": 334397, "internal_node_id": "0.0-6.0-50.0"}}, {"uniqueid": "w10545179:a42186504", "current_trial": 146, "dateTime": 1664464270801, "trialdata": {"rt": 892, "stimulus": "<p id='stroop-text' class='stroop-green'>GREEN</p>", "response": "g", "stimulus-type": "congruent", "word": "green", "color": "green", "correct_response": "g", "trial_id": "stroop-trial-1-congruent-4", "trial_type": "html-keyboard-response", "trial_index": 146, "time_elapsed": 335798, "internal_node_id": "0.0-6.0-51.0"}}, {"uniqueid": "w10545179:a42186504", "current_trial": 147, "dateTime": 1664464272536, "trialdata": {"rt": 1221, "stimulus": "<p id='stroop-text' class='stroop-blue'>YELLOW</p>", "response": "b", "stimulus-type": "incongruent", "word": "yellow", "color": "blue", "correct_response": "b", "trial_id": "stroop-trial-1-incongruent-20", "trial_type": "html-keyboard-response", "trial_index": 147, "time_elapsed": 337533, "internal_node_id": "0.0-6.0-52.0"}}, {"uniqueid": "w10545179:a42186504", "current_trial": 148, "dateTime": 1664464274312, "trialdata": {"rt": 1263, "stimulus": "<p id='stroop-text' class='stroop-green'>BRAIN</p>", "response": "g", "stimulus-type": "unrelated", "word": "BRAIN", "color": "green", "correct_response": "g", "trial_id": "stroop-trial-1-unrelated-15", "trial_type": "html-keyboard-response", "trial_index": 148, "time_elapsed": 339309, "internal_node_id": "0.0-6.0-53.0"}}, {"uniqueid": "w10545179:a42186504", "current_trial": 149, "dateTime": 1664464275698, "trialdata": {"rt": 868, "stimulus": "<p id='stroop-text' class='stroop-blue'>BRIDGE</p>", "response": "b", "stimulus-type": "unrelated", "word": "BRIDGE", "color": "blue", "correct_response": "b", "trial_id": "stroop-trial-1-unrelated-16", "trial_type": "html-keyboard-response", "trial_index": 149, "time_elapsed": 340695, "internal_node_id": "0.0-6.0-54.0"}}, {"uniqueid": "w10545179:a42186504", "current_trial": 150, "dateTime": 1664464277036, "trialdata": {"rt": 823, "stimulus": "<p id='stroop-text' class='stroop-yellow'>RED</p>", "response": "y", "stimulus-type": "incongruent", "word": "red", "color": "yellow", "correct_response": "y", "trial_id": "stroop-trial-1-incongruent-6", "trial_type": "html-keyboard-response", "trial_index": 150, "time_elapsed": 342034, "internal_node_id": "0.0-6.0-55.0"}}, {"uniqueid": "w10545179:a42186504", "current_trial": 151, "dateTime": 1664464278544, "trialdata": {"rt": 992, "stimulus": "<p id='stroop-text' class='stroop-green'>CHAIR</p>", "response": "g", "stimulus-type": "unrelated", "word": "CHAIR", "color": "green", "correct_response": "g", "trial_id": "stroop-trial-1-unrelated-25", "trial_type": "html-keyboard-response", "trial_index": 151, "time_elapsed": 343541, "internal_node_id": "0.0-6.0-56.0"}}, {"uniqueid": "w10545179:a42186504", "current_trial": 152, "dateTime": 1664464280096, "trialdata": {"rt": 1036, "stimulus": "<p id='stroop-text' class='stroop-blue'>YELLOW</p>", "response": "b", "stimulus-type": "incongruent", "word": "yellow", "color": "blue", "correct_response": "b", "trial_id": "stroop-trial-1-incongruent-27", "trial_type": "html-keyboard-response", "trial_index": 152, "time_elapsed": 345093, "internal_node_id": "0.0-6.0-57.0"}}, {"uniqueid": "w10545179:a42186504", "current_trial": 153, "dateTime": 1664464281602, "trialdata": {"rt": 990, "stimulus": "<p id='stroop-text' class='stroop-green'>WINDOW</p>", "response": "g", "stimulus-type": "unrelated", "word": "WINDOW", "color": "green", "correct_response": "g", "trial_id": "stroop-trial-1-unrelated-12", "trial_type": "html-keyboard-response", "trial_index": 153, "time_elapsed": 346599, "internal_node_id": "0.0-6.0-58.0"}}, {"uniqueid": "w10545179:a42186504", "current_trial": 154, "dateTime": 1664464282939, "trialdata": {"rt": 819, "stimulus": "<p id='stroop-text' class='stroop-green'>MONKEY</p>", "response": "g", "stimulus-type": "unrelated", "word": "MONKEY", "color": "green", "correct_response": "g", "trial_id": "stroop-trial-1-unrelated-11", "trial_type": "html-keyboard-response", "trial_index": 154, "time_elapsed": 347936, "internal_node_id": "0.0-6.0-59.0"}}, {"uniqueid": "w10545179:a42186504", "current_trial": 155, "dateTime": 1664464284326, "trialdata": {"rt": 868, "stimulus": "<p id='stroop-text' class='stroop-green'>RED</p>", "response": "g", "stimulus-type": "incongruent", "word": "red", "color": "green", "correct_response": "g", "trial_id": "stroop-trial-1-incongruent-18", "trial_type": "html-keyboard-response", "trial_index": 155, "time_elapsed": 349323, "internal_node_id": "0.0-6.0-60.0"}}, {"uniqueid": "w10545179:a42186504", "current_trial": 156, "dateTime": 1664464285608, "trialdata": {"rt": 763, "stimulus": "<p id='stroop-text' class='stroop-green'>GREEN</p>", "response": "g", "stimulus-type": "congruent", "word": "green", "color": "green", "correct_response": "g", "trial_id": "stroop-trial-1-congruent-25", "trial_type": "html-keyboard-response", "trial_index": 156, "time_elapsed": 350605, "internal_node_id": "0.0-6.0-61.0"}}, {"uniqueid": "w10545179:a42186504", "current_trial": 157, "dateTime": 1664464286918, "trialdata": {"rt": 793, "stimulus": "<p id='stroop-text' class='stroop-blue'>FORK</p>", "response": "b", "stimulus-type": "unrelated", "word": "FORK", "color": "blue", "correct_response": "b", "trial_id": "stroop-trial-1-unrelated-30", "trial_type": "html-keyboard-response", "trial_index": 157, "time_elapsed": 351915, "internal_node_id": "0.0-6.0-62.0"}}, {"uniqueid": "w10545179:a42186504", "current_trial": 158, "dateTime": 1664464288187, "trialdata": {"rt": 745, "stimulus": "<p id='stroop-text' class='stroop-blue'>CHAIR</p>", "response": "b", "stimulus-type": "unrelated", "word": "CHAIR", "color": "blue", "correct_response": "b", "trial_id": "stroop-trial-1-unrelated-24", "trial_type": "html-keyboard-response", "trial_index": 158, "time_elapsed": 353184, "internal_node_id": "0.0-6.0-63.0"}}, {"uniqueid": "w10545179:a42186504", "current_trial": 159, "dateTime": 1664464289441, "trialdata": {"rt": 736, "stimulus": "<p id='stroop-text' class='stroop-yellow'>GREEN</p>", "response": "y", "stimulus-type": "incongruent", "word": "green", "color": "yellow", "correct_response": "y", "trial_id": "stroop-trial-1-incongruent-8", "trial_type": "html-keyboard-response", "trial_index": 159, "time_elapsed": 354438, "internal_node_id": "0.0-6.0-64.0"}}, {"uniqueid": "w10545179:a42186504", "current_trial": 160, "dateTime": 1664464291085, "trialdata": {"rt": 1128, "stimulus": "<p id='stroop-text' class='stroop-blue'>DOG</p>", "response": "b", "stimulus-type": "unrelated", "word": "DOG", "color": "blue", "correct_response": "b", "trial_id": "stroop-trial-1-unrelated-22", "trial_type": "html-keyboard-response", "trial_index": 160, "time_elapsed": 356082, "internal_node_id": "0.0-6.0-65.0"}}, {"uniqueid": "w10545179:a42186504", "current_trial": 161, "dateTime": 1664464292333, "trialdata": {"rt": 736, "stimulus": "<p id='stroop-text' class='stroop-red'>RED</p>", "response": "r", "stimulus-type": "congruent", "word": "red", "color": "red", "correct_response": "r", "trial_id": "stroop-trial-1-congruent-15", "trial_type": "html-keyboard-response", "trial_index": 161, "time_elapsed": 357330, "internal_node_id": "0.0-6.0-66.0"}}, {"uniqueid": "w10545179:a42186504", "current_trial": 162, "dateTime": 1664464293604, "trialdata": {"rt": 752, "stimulus": "<p id='stroop-text' class='stroop-yellow'>YELLOW</p>", "response": "y", "stimulus-type": "congruent", "word": "yellow", "color": "yellow", "correct_response": "y", "trial_id": "stroop-trial-1-congruent-16", "trial_type": "html-keyboard-response", "trial_index": 162, "time_elapsed": 358601, "internal_node_id": "0.0-6.0-67.0"}}, {"uniqueid": "w10545179:a42186504", "current_trial": 163, "dateTime": 1664464294864, "trialdata": {"rt": 731, "stimulus": "<p id='stroop-text' class='stroop-blue'>BLUE</p>", "response": "b", "stimulus-type": "congruent", "word": "blue", "color": "blue", "correct_response": "b", "trial_id": "stroop-trial-1-congruent-20", "trial_type": "html-keyboard-response", "trial_index": 163, "time_elapsed": 359861, "internal_node_id": "0.0-6.0-68.0"}}, {"uniqueid": "w10545179:a42186504", "current_trial": 164, "dateTime": 1664464296104, "trialdata": {"rt": 724, "stimulus": "<p id='stroop-text' class='stroop-blue'>BRAIN</p>", "response": "b", "stimulus-type": "unrelated", "word": "BRAIN", "color": "blue", "correct_response": "b", "trial_id": "stroop-trial-1-unrelated-13", "trial_type": "html-keyboard-response", "trial_index": 164, "time_elapsed": 361101, "internal_node_id": "0.0-6.0-69.0"}}, {"uniqueid": "w10545179:a42186504", "current_trial": 165, "dateTime": 1664464297726, "trialdata": {"rt": 1110, "stimulus": "<p id='stroop-text' class='stroop-red'>BLUE</p>", "response": "r", "stimulus-type": "incongruent", "word": "blue", "color": "red", "correct_response": "r", "trial_id": "stroop-trial-1-incongruent-19", "trial_type": "html-keyboard-response", "trial_index": 165, "time_elapsed": 362723, "internal_node_id": "0.0-6.0-70.0"}}, {"uniqueid": "w10545179:a42186504", "current_trial": 166, "dateTime": 1664464299033, "trialdata": {"rt": 801, "stimulus": "<p id='stroop-text' class='stroop-yellow'>GREEN</p>", "response": "y", "stimulus-type": "incongruent", "word": "green", "color": "yellow", "correct_response": "y", "trial_id": "stroop-trial-1-incongruent-1", "trial_type": "html-keyboard-response", "trial_index": 166, "time_elapsed": 364031, "internal_node_id": "0.0-6.0-71.0"}}, {"uniqueid": "w10545179:a42186504", "current_trial": 167, "dateTime": 1664464300581, "trialdata": {"rt": 1025, "stimulus": "<p id='stroop-text' class='stroop-red'>CHAIR</p>", "response": "r", "stimulus-type": "unrelated", "word": "CHAIR", "color": "red", "correct_response": "r", "trial_id": "stroop-trial-1-unrelated-23", "trial_type": "html-keyboard-response", "trial_index": 167, "time_elapsed": 365578, "internal_node_id": "0.0-6.0-72.0"}}, {"uniqueid": "w10545179:a42186504", "current_trial": 168, "dateTime": 1664464301829, "trialdata": {"rt": 732, "stimulus": "<p id='stroop-text' class='stroop-red'>RED</p>", "response": "r", "stimulus-type": "congruent", "word": "red", "color": "red", "correct_response": "r", "trial_id": "stroop-trial-1-congruent-17", "trial_type": "html-keyboard-response", "trial_index": 168, "time_elapsed": 366827, "internal_node_id": "0.0-6.0-73.0"}}, {"uniqueid": "w10545179:a42186504", "current_trial": 169, "dateTime": 1664464303259, "trialdata": {"rt": 918, "stimulus": "<p id='stroop-text' class='stroop-green'>BOTTLE</p>", "response": "g", "stimulus-type": "unrelated", "word": "BOTTLE", "color": "green", "correct_response": "g", "trial_id": "stroop-trial-1-unrelated-18", "trial_type": "html-keyboard-response", "trial_index": 169, "time_elapsed": 368256, "internal_node_id": "0.0-6.0-74.0"}}, {"uniqueid": "w10545179:a42186504", "current_trial": 170, "dateTime": 1664464304523, "trialdata": {"rt": 753, "stimulus": "<p id='stroop-text' class='stroop-green'>RED</p>", "response": "g", "stimulus-type": "incongruent", "word": "red", "color": "green", "correct_response": "g", "trial_id": "stroop-trial-1-incongruent-7", "trial_type": "html-keyboard-response", "trial_index": 170, "time_elapsed": 369521, "internal_node_id": "0.0-6.0-75.0"}}, {"uniqueid": "w10545179:a42186504", "current_trial": 171, "dateTime": 1664464306137, "trialdata": {"rt": 1103, "stimulus": "<p id='stroop-text' class='stroop-red'>BLUE</p>", "response": "r", "stimulus-type": "incongruent", "word": "blue", "color": "red", "correct_response": "r", "trial_id": "stroop-trial-1-incongruent-23", "trial_type": "html-keyboard-response", "trial_index": 171, "time_elapsed": 371135, "internal_node_id": "0.0-6.0-76.0"}}, {"uniqueid": "w10545179:a42186504", "current_trial": 172, "dateTime": 1664464308040, "trialdata": {"rt": 1379, "stimulus": "<p id='stroop-text' class='stroop-blue'>GREEN</p>", "response": "b", "stimulus-type": "incongruent", "word": "green", "color": "blue", "correct_response": "b", "trial_id": "stroop-trial-1-incongruent-3", "trial_type": "html-keyboard-response", "trial_index": 172, "time_elapsed": 373037, "internal_node_id": "0.0-6.0-77.0"}}, {"uniqueid": "w10545179:a42186504", "current_trial": 173, "dateTime": 1664464309795, "trialdata": {"rt": 1236, "stimulus": "<p id='stroop-text' class='stroop-green'>YELLOW</p>", "response": "g", "stimulus-type": "incongruent", "word": "yellow", "color": "green", "correct_response": "g", "trial_id": "stroop-trial-1-incongruent-10", "trial_type": "html-keyboard-response", "trial_index": 173, "time_elapsed": 374792, "internal_node_id": "0.0-6.0-78.0"}}, {"uniqueid": "w10545179:a42186504", "current_trial": 174, "dateTime": 1664464311055, "trialdata": {"rt": 745, "stimulus": "<p id='stroop-text' class='stroop-yellow'>YELLOW</p>", "response": "y", "stimulus-type": "congruent", "word": "yellow", "color": "yellow", "correct_response": "y", "trial_id": "stroop-trial-1-congruent-10", "trial_type": "html-keyboard-response", "trial_index": 174, "time_elapsed": 376052, "internal_node_id": "0.0-6.0-79.0"}}, {"uniqueid": "w10545179:a42186504", "current_trial": 175, "dateTime": 1664464312303, "trialdata": {"rt": 725, "stimulus": "<p id='stroop-text' class='stroop-yellow'>YELLOW</p>", "response": "y", "stimulus-type": "congruent", "word": "yellow", "color": "yellow", "correct_response": "y", "trial_id": "stroop-trial-1-congruent-7", "trial_type": "html-keyboard-response", "trial_index": 175, "time_elapsed": 377300, "internal_node_id": "0.0-6.0-80.0"}}, {"uniqueid": "w10545179:a42186504", "current_trial": 176, "dateTime": 1664464313687, "trialdata": {"rt": 866, "stimulus": "<p id='stroop-text' class='stroop-green'>BRIDGE</p>", "response": "g", "stimulus-type": "unrelated", "word": "BRIDGE", "color": "green", "correct_response": "g", "trial_id": "stroop-trial-1-unrelated-26", "trial_type": "html-keyboard-response", "trial_index": 176, "time_elapsed": 378685, "internal_node_id": "0.0-6.0-81.0"}}, {"uniqueid": "w10545179:a42186504", "current_trial": 177, "dateTime": 1664464314956, "trialdata": {"rt": 755, "stimulus": "<p id='stroop-text' class='stroop-green'>STONE</p>", "response": "g", "stimulus-type": "unrelated", "word": "STONE", "color": "green", "correct_response": "g", "trial_id": "stroop-trial-1-unrelated-6", "trial_type": "html-keyboard-response", "trial_index": 177, "time_elapsed": 379953, "internal_node_id": "0.0-6.0-82.0"}}, {"uniqueid": "w10545179:a42186504", "current_trial": 178, "dateTime": 1664464316274, "trialdata": {"rt": 805, "stimulus": "<p id='stroop-text' class='stroop-green'>RED</p>", "response": "g", "stimulus-type": "incongruent", "word": "red", "color": "green", "correct_response": "g", "trial_id": "stroop-trial-1-incongruent-4", "trial_type": "html-keyboard-response", "trial_index": 178, "time_elapsed": 381271, "internal_node_id": "0.0-6.0-83.0"}}, {"uniqueid": "w10545179:a42186504", "current_trial": 179, "dateTime": 1664464317548, "trialdata": {"rt": 754, "stimulus": "<p id='stroop-text' class='stroop-red'>MONKEY</p>", "response": "r", "stimulus-type": "unrelated", "word": "MONKEY", "color": "red", "correct_response": "r", "trial_id": "stroop-trial-1-unrelated-8", "trial_type": "html-keyboard-response", "trial_index": 179, "time_elapsed": 382544, "internal_node_id": "0.0-6.0-84.0"}}, {"uniqueid": "w10545179:a42186504", "current_trial": 180, "dateTime": 1664464318937, "trialdata": {"rt": 875, "stimulus": "<p id='stroop-text' class='stroop-blue'>YELLOW</p>", "response": "b", "stimulus-type": "incongruent", "word": "yellow", "color": "blue", "correct_response": "b", "trial_id": "stroop-trial-1-incongruent-2", "trial_type": "html-keyboard-response", "trial_index": 180, "time_elapsed": 383934, "internal_node_id": "0.0-6.0-85.0"}}, {"uniqueid": "w10545179:a42186504", "current_trial": 181, "dateTime": 1664464320307, "trialdata": {"rt": 852, "stimulus": "<p id='stroop-text' class='stroop-green'>BRIDGE</p>", "response": "g", "stimulus-type": "unrelated", "word": "BRIDGE", "color": "green", "correct_response": "g", "trial_id": "stroop-trial-1-unrelated-19", "trial_type": "html-keyboard-response", "trial_index": 181, "time_elapsed": 385304, "internal_node_id": "0.0-6.0-86.0"}}, {"uniqueid": "w10545179:a42186504", "current_trial": 182, "dateTime": 1664464321619, "trialdata": {"rt": 795, "stimulus": "<p id='stroop-text' class='stroop-red'>RED</p>", "response": "r", "stimulus-type": "congruent", "word": "red", "color": "red", "correct_response": "r", "trial_id": "stroop-trial-1-congruent-14", "trial_type": "html-keyboard-response", "trial_index": 182, "time_elapsed": 386616, "internal_node_id": "0.0-6.0-87.0"}}, {"uniqueid": "w10545179:a42186504", "current_trial": 183, "dateTime": 1664464322982, "trialdata": {"rt": 844, "stimulus": "<p id='stroop-text' class='stroop-red'>BRIDGE</p>", "response": "r", "stimulus-type": "unrelated", "word": "BRIDGE", "color": "red", "correct_response": "r", "trial_id": "stroop-trial-1-unrelated-29", "trial_type": "html-keyboard-response", "trial_index": 183, "time_elapsed": 387979, "internal_node_id": "0.0-6.0-88.0"}}, {"uniqueid": "w10545179:a42186504", "current_trial": 184, "dateTime": 1664464324259, "trialdata": {"rt": 754, "stimulus": "<p id='stroop-text' class='stroop-green'>GREEN</p>", "response": "g", "stimulus-type": "congruent", "word": "green", "color": "green", "correct_response": "g", "trial_id": "stroop-trial-1-congruent-5", "trial_type": "html-keyboard-response", "trial_index": 184, "time_elapsed": 389256, "internal_node_id": "0.0-6.0-89.0"}}, {"uniqueid": "w10545179:a42186504", "current_trial": 185, "dateTime": 1664464331835, "trialdata": {"rt": 7048, "stimulus": "  <h1> End of block! </h1>\n\n  You have reached the end of the block 2/5. If you need a short break, feel free to take one now before moving on.\n\n  <br><br>\n  In the next block, you will complete another 90 rounds of this game.\n\n  <br><br>\n  <div style='text-align: center;'>Press <code>space</code> to begin.</div>\n  <br><br>\n<div style='text-align: center;'>(If the experiment doesn't continue, try clicking on the text and then pressing <code>space</code>.)</div>", "response": " ", "trial_id": "stroop_1_ready_3", "trial_type": "html-keyboard-response", "trial_index": 185, "time_elapsed": 396833, "internal_node_id": "0.0-7.0"}}, {"uniqueid": "w10545179:a42186504", "current_trial": 186, "dateTime": 1664464333455, "trialdata": {"rt": 1599, "stimulus": "<p id='stroop-text' class='stroop-yellow'>FORK</p>", "response": "y", "stimulus-type": "unrelated", "word": "FORK", "color": "yellow", "correct_response": "y", "trial_id": "stroop-trial-1-unrelated-25", "trial_type": "html-keyboard-response", "trial_index": 186, "time_elapsed": 398452, "internal_node_id": "0.0-8.0-0.0"}}, {"uniqueid": "w10545179:a42186504", "current_trial": 187, "dateTime": 1664464334905, "trialdata": {"rt": 934, "stimulus": "<p id='stroop-text' class='stroop-red'>FORK</p>", "response": "r", "stimulus-type": "unrelated", "word": "FORK", "color": "red", "correct_response": "r", "trial_id": "stroop-trial-1-unrelated-1", "trial_type": "html-keyboard-response", "trial_index": 187, "time_elapsed": 399902, "internal_node_id": "0.0-8.0-1.0"}}, {"uniqueid": "w10545179:a42186504", "current_trial": 188, "dateTime": 1664464336384, "trialdata": {"rt": 962, "stimulus": "<p id='stroop-text' class='stroop-red'>YELLOW</p>", "response": "r", "stimulus-type": "incongruent", "word": "yellow", "color": "red", "correct_response": "r", "trial_id": "stroop-trial-1-incongruent-6", "trial_type": "html-keyboard-response", "trial_index": 188, "time_elapsed": 401381, "internal_node_id": "0.0-8.0-2.0"}}, {"uniqueid": "w10545179:a42186504", "current_trial": 189, "dateTime": 1664464337684, "trialdata": {"rt": 778, "stimulus": "<p id='stroop-text' class='stroop-red'>RED</p>", "response": "r", "stimulus-type": "congruent", "word": "red", "color": "red", "correct_response": "r", "trial_id": "stroop-trial-1-congruent-12", "trial_type": "html-keyboard-response", "trial_index": 189, "time_elapsed": 402681, "internal_node_id": "0.0-8.0-3.0"}}, {"uniqueid": "w10545179:a42186504", "current_trial": 190, "dateTime": 1664464339405, "trialdata": {"rt": 1207, "stimulus": "<p id='stroop-text' class='stroop-yellow'>BRIDGE</p>", "response": "y", "stimulus-type": "unrelated", "word": "BRIDGE", "color": "yellow", "correct_response": "y", "trial_id": "stroop-trial-1-unrelated-19", "trial_type": "html-keyboard-response", "trial_index": 190, "time_elapsed": 404402, "internal_node_id": "0.0-8.0-4.0"}}, {"uniqueid": "w10545179:a42186504", "current_trial": 191, "dateTime": 1664464340834, "trialdata": {"rt": 910, "stimulus": "<p id='stroop-text' class='stroop-blue'>RED</p>", "response": "b", "stimulus-type": "incongruent", "word": "red", "color": "blue", "correct_response": "b", "trial_id": "stroop-trial-1-incongruent-13", "trial_type": "html-keyboard-response", "trial_index": 191, "time_elapsed": 405831, "internal_node_id": "0.0-8.0-5.0"}}, {"uniqueid": "w10545179:a42186504", "current_trial": 192, "dateTime": 1664464342276, "trialdata": {"rt": 926, "stimulus": "<p id='stroop-text' class='stroop-green'>STONE</p>", "response": "g", "stimulus-type": "unrelated", "word": "STONE", "color": "green", "correct_response": "g", "trial_id": "stroop-trial-1-unrelated-4", "trial_type": "html-keyboard-response", "trial_index": 192, "time_elapsed": 407273, "internal_node_id": "0.0-8.0-6.0"}}, {"uniqueid": "w10545179:a42186504", "current_trial": 193, "dateTime": 1664464343949, "trialdata": {"rt": 1153, "stimulus": "<p id='stroop-text' class='stroop-yellow'>BLUE</p>", "response": "y", "stimulus-type": "incongruent", "word": "blue", "color": "yellow", "correct_response": "y", "trial_id": "stroop-trial-1-incongruent-1", "trial_type": "html-keyboard-response", "trial_index": 193, "time_elapsed": 408946, "internal_node_id": "0.0-8.0-7.0"}}, {"uniqueid": "w10545179:a42186504", "current_trial": 194, "dateTime": 1664464345302, "trialdata": {"rt": 837, "stimulus": "<p id='stroop-text' class='stroop-green'>WINDOW</p>", "response": "g", "stimulus-type": "unrelated", "word": "WINDOW", "color": "green", "correct_response": "g", "trial_id": "stroop-trial-1-unrelated-7", "trial_type": "html-keyboard-response", "trial_index": 194, "time_elapsed": 410299, "internal_node_id": "0.0-8.0-8.0"}}, {"uniqueid": "w10545179:a42186504", "current_trial": 195, "dateTime": 1664464346781, "trialdata": {"rt": 958, "stimulus": "<p id='stroop-text' class='stroop-blue'>BLUE</p>", "response": "b", "stimulus-type": "congruent", "word": "blue", "color": "blue", "correct_response": "b", "trial_id": "stroop-trial-1-congruent-5", "trial_type": "html-keyboard-response", "trial_index": 195, "time_elapsed": 411779, "internal_node_id": "0.0-8.0-9.0"}}, {"uniqueid": "w10545179:a42186504", "current_trial": 196, "dateTime": 1664464348957, "trialdata": {"rt": 1664, "stimulus": "<p id='stroop-text' class='stroop-green'>YELLOW</p>", "response": "g", "stimulus-type": "incongruent", "word": "yellow", "color": "green", "correct_response": "g", "trial_id": "stroop-trial-1-incongruent-22", "trial_type": "html-keyboard-response", "trial_index": 196, "time_elapsed": 413954, "internal_node_id": "0.0-8.0-10.0"}}, {"uniqueid": "w10545179:a42186504", "current_trial": 197, "dateTime": 1664464350433, "trialdata": {"rt": 957, "stimulus": "<p id='stroop-text' class='stroop-yellow'>CHAIR</p>", "response": "y", "stimulus-type": "unrelated", "word": "CHAIR", "color": "yellow", "correct_response": "y", "trial_id": "stroop-trial-1-unrelated-18", "trial_type": "html-keyboard-response", "trial_index": 197, "time_elapsed": 415429, "internal_node_id": "0.0-8.0-11.0"}}, {"uniqueid": "w10545179:a42186504", "current_trial": 198, "dateTime": 1664464351820, "trialdata": {"rt": 868, "stimulus": "<p id='stroop-text' class='stroop-yellow'>CHAIR</p>", "response": "y", "stimulus-type": "unrelated", "word": "CHAIR", "color": "yellow", "correct_response": "y", "trial_id": "stroop-trial-1-unrelated-9", "trial_type": "html-keyboard-response", "trial_index": 198, "time_elapsed": 416817, "internal_node_id": "0.0-8.0-12.0"}}, {"uniqueid": "w10545179:a42186504", "current_trial": 199, "dateTime": 1664464353251, "trialdata": {"rt": 904, "stimulus": "<p id='stroop-text' class='stroop-blue'>BLUE</p>", "response": "b", "stimulus-type": "congruent", "word": "blue", "color": "blue", "correct_response": "b", "trial_id": "stroop-trial-1-congruent-28", "trial_type": "html-keyboard-response", "trial_index": 199, "time_elapsed": 418248, "internal_node_id": "0.0-8.0-13.0"}}, {"uniqueid": "w10545179:a42186504", "current_trial": 200, "dateTime": 1664464354595, "trialdata": {"rt": 830, "stimulus": "<p id='stroop-text' class='stroop-yellow'>YELLOW</p>", "response": "y", "stimulus-type": "congruent", "word": "yellow", "color": "yellow", "correct_response": "y", "trial_id": "stroop-trial-1-congruent-24", "trial_type": "html-keyboard-response", "trial_index": 200, "time_elapsed": 419592, "internal_node_id": "0.0-8.0-14.0"}}, {"uniqueid": "w10545179:a42186504", "current_trial": 201, "dateTime": 1664464356043, "trialdata": {"rt": 927, "stimulus": "<p id='stroop-text' class='stroop-blue'>BLUE</p>", "response": "b", "stimulus-type": "congruent", "word": "blue", "color": "blue", "correct_response": "b", "trial_id": "stroop-trial-1-congruent-30", "trial_type": "html-keyboard-response", "trial_index": 201, "time_elapsed": 421040, "internal_node_id": "0.0-8.0-15.0"}}, {"uniqueid": "w10545179:a42186504", "current_trial": 202, "dateTime": 1664464357753, "trialdata": {"rt": 1193, "stimulus": "<p id='stroop-text' class='stroop-red'>GREEN</p>", "response": "r", "stimulus-type": "incongruent", "word": "green", "color": "red", "correct_response": "r", "trial_id": "stroop-trial-1-incongruent-20", "trial_type": "html-keyboard-response", "trial_index": 202, "time_elapsed": 422750, "internal_node_id": "0.0-8.0-16.0"}}, {"uniqueid": "w10545179:a42186504", "current_trial": 203, "dateTime": 1664464359338, "trialdata": {"rt": 1061, "stimulus": "<p id='stroop-text' class='stroop-blue'>BLUE</p>", "response": "b", "stimulus-type": "congruent", "word": "blue", "color": "blue", "correct_response": "b", "trial_id": "stroop-trial-1-congruent-22", "trial_type": "html-keyboard-response", "trial_index": 203, "time_elapsed": 424335, "internal_node_id": "0.0-8.0-17.0"}}, {"uniqueid": "w10545179:a42186504", "current_trial": 204, "dateTime": 1664464360787, "trialdata": {"rt": 932, "stimulus": "<p id='stroop-text' class='stroop-yellow'>STONE</p>", "response": "y", "stimulus-type": "unrelated", "word": "STONE", "color": "yellow", "correct_response": "y", "trial_id": "stroop-trial-1-unrelated-8", "trial_type": "html-keyboard-response", "trial_index": 204, "time_elapsed": 425784, "internal_node_id": "0.0-8.0-18.0"}}, {"uniqueid": "w10545179:a42186504", "current_trial": 205, "dateTime": 1664464362194, "trialdata": {"rt": 890, "stimulus": "<p id='stroop-text' class='stroop-blue'>MONKEY</p>", "response": "b", "stimulus-type": "unrelated", "word": "MONKEY", "color": "blue", "correct_response": "b", "trial_id": "stroop-trial-1-unrelated-2", "trial_type": "html-keyboard-response", "trial_index": 205, "time_elapsed": 427191, "internal_node_id": "0.0-8.0-19.0"}}, {"uniqueid": "w10545179:a42186504", "current_trial": 206, "dateTime": 1664464363691, "trialdata": {"rt": 982, "stimulus": "<p id='stroop-text' class='stroop-green'>RED</p>", "response": "r", "stimulus-type": "incongruent", "word": "red", "color": "green", "correct_response": "g", "trial_id": "stroop-trial-1-incongruent-2", "trial_type": "html-keyboard-response", "trial_index": 206, "time_elapsed": 428688, "internal_node_id": "0.0-8.0-20.0"}}, {"uniqueid": "w10545179:a42186504", "current_trial": 207, "dateTime": 1664464366085, "trialdata": {"rt": 1877, "stimulus": "<p id='stroop-text' class='stroop-red'>BRIDGE</p>", "response": "r", "stimulus-type": "unrelated", "word": "BRIDGE", "color": "red", "correct_response": "r", "trial_id": "stroop-trial-1-unrelated-13", "trial_type": "html-keyboard-response", "trial_index": 207, "time_elapsed": 431082, "internal_node_id": "0.0-8.0-21.0"}}, {"uniqueid": "w10545179:a42186504", "current_trial": 208, "dateTime": 1664464368184, "trialdata": {"rt": 1578, "stimulus": "<p id='stroop-text' class='stroop-green'>RED</p>", "response": "g", "stimulus-type": "incongruent", "word": "red", "color": "green", "correct_response": "g", "trial_id": "stroop-trial-1-incongruent-29", "trial_type": "html-keyboard-response", "trial_index": 208, "time_elapsed": 433181, "internal_node_id": "0.0-8.0-22.0"}}, {"uniqueid": "w10545179:a42186504", "current_trial": 209, "dateTime": 1664464369537, "trialdata": {"rt": 835, "stimulus": "<p id='stroop-text' class='stroop-red'>RED</p>", "response": "r", "stimulus-type": "congruent", "word": "red", "color": "red", "correct_response": "r", "trial_id": "stroop-trial-1-congruent-7", "trial_type": "html-keyboard-response", "trial_index": 209, "time_elapsed": 434534, "internal_node_id": "0.0-8.0-23.0"}}, {"uniqueid": "w10545179:a42186504", "current_trial": 210, "dateTime": 1664464371051, "trialdata": {"rt": 993, "stimulus": "<p id='stroop-text' class='stroop-green'>BLUE</p>", "response": "g", "stimulus-type": "incongruent", "word": "blue", "color": "green", "correct_response": "g", "trial_id": "stroop-trial-1-incongruent-14", "trial_type": "html-keyboard-response", "trial_index": 210, "time_elapsed": 436049, "internal_node_id": "0.0-8.0-24.0"}}, {"uniqueid": "w10545179:a42186504", "current_trial": 211, "dateTime": 1664464372719, "trialdata": {"rt": 1152, "stimulus": "<p id='stroop-text' class='stroop-blue'>YELLOW</p>", "response": "b", "stimulus-type": "incongruent", "word": "yellow", "color": "blue", "correct_response": "b", "trial_id": "stroop-trial-1-incongruent-11", "trial_type": "html-keyboard-response", "trial_index": 211, "time_elapsed": 437716, "internal_node_id": "0.0-8.0-25.0"}}, {"uniqueid": "w10545179:a42186504", "current_trial": 212, "dateTime": 1664464374622, "trialdata": {"rt": 1383, "stimulus": "<p id='stroop-text' class='stroop-green'>BLUE</p>", "response": "g", "stimulus-type": "incongruent", "word": "blue", "color": "green", "correct_response": "g", "trial_id": "stroop-trial-1-incongruent-5", "trial_type": "html-keyboard-response", "trial_index": 212, "time_elapsed": 439619, "internal_node_id": "0.0-8.0-26.0"}}, {"uniqueid": "w10545179:a42186504", "current_trial": 213, "dateTime": 1664464376314, "trialdata": {"rt": 1173, "stimulus": "<p id='stroop-text' class='stroop-yellow'>BOTTLE</p>", "response": "y", "stimulus-type": "unrelated", "word": "BOTTLE", "color": "yellow", "correct_response": "y", "trial_id": "stroop-trial-1-unrelated-14", "trial_type": "html-keyboard-response", "trial_index": 213, "time_elapsed": 441310, "internal_node_id": "0.0-8.0-27.0"}}, {"uniqueid": "w10545179:a42186504", "current_trial": 214, "dateTime": 1664464377647, "trialdata": {"rt": 818, "stimulus": "<p id='stroop-text' class='stroop-yellow'>SHIP</p>", "response": "y", "stimulus-type": "unrelated", "word": "SHIP", "color": "yellow", "correct_response": "y", "trial_id": "stroop-trial-1-unrelated-22", "trial_type": "html-keyboard-response", "trial_index": 214, "time_elapsed": 442644, "internal_node_id": "0.0-8.0-28.0"}}, {"uniqueid": "w10545179:a42186504", "current_trial": 215, "dateTime": 1664464379296, "trialdata": {"rt": 1132, "stimulus": "<p id='stroop-text' class='stroop-green'>DOG</p>", "response": "g", "stimulus-type": "unrelated", "word": "DOG", "color": "green", "correct_response": "g", "trial_id": "stroop-trial-1-unrelated-16", "trial_type": "html-keyboard-response", "trial_index": 215, "time_elapsed": 444293, "internal_node_id": "0.0-8.0-29.0"}}, {"uniqueid": "w10545179:a42186504", "current_trial": 216, "dateTime": 1664464380610, "trialdata": {"rt": 788, "stimulus": "<p id='stroop-text' class='stroop-red'>RED</p>", "response": "r", "stimulus-type": "congruent", "word": "red", "color": "red", "correct_response": "r", "trial_id": "stroop-trial-1-congruent-6", "trial_type": "html-keyboard-response", "trial_index": 216, "time_elapsed": 445606, "internal_node_id": "0.0-8.0-30.0"}}, {"uniqueid": "w10545179:a42186504", "current_trial": 217, "dateTime": 1664464382147, "trialdata": {"rt": 1013, "stimulus": "<p id='stroop-text' class='stroop-green'>DOG</p>", "response": "g", "stimulus-type": "unrelated", "word": "DOG", "color": "green", "correct_response": "g", "trial_id": "stroop-trial-1-unrelated-30", "trial_type": "html-keyboard-response", "trial_index": 217, "time_elapsed": 447143, "internal_node_id": "0.0-8.0-31.0"}}, {"uniqueid": "w10545179:a42186504", "current_trial": 218, "dateTime": 1664464383481, "trialdata": {"rt": 818, "stimulus": "<p id='stroop-text' class='stroop-green'>GREEN</p>", "response": "g", "stimulus-type": "congruent", "word": "green", "color": "green", "correct_response": "g", "trial_id": "stroop-trial-1-congruent-18", "trial_type": "html-keyboard-response", "trial_index": 218, "time_elapsed": 448478, "internal_node_id": "0.0-8.0-32.0"}}, {"uniqueid": "w10545179:a42186504", "current_trial": 219, "dateTime": 1664464384815, "trialdata": {"rt": 811, "stimulus": "<p id='stroop-text' class='stroop-green'>GREEN</p>", "response": "g", "stimulus-type": "congruent", "word": "green", "color": "green", "correct_response": "g", "trial_id": "stroop-trial-1-congruent-3", "trial_type": "html-keyboard-response", "trial_index": 219, "time_elapsed": 449812, "internal_node_id": "0.0-8.0-33.0"}}, {"uniqueid": "w10545179:a42186504", "current_trial": 220, "dateTime": 1664464386173, "trialdata": {"rt": 844, "stimulus": "<p id='stroop-text' class='stroop-red'>RED</p>", "response": "r", "stimulus-type": "congruent", "word": "red", "color": "red", "correct_response": "r", "trial_id": "stroop-trial-1-congruent-10", "trial_type": "html-keyboard-response", "trial_index": 220, "time_elapsed": 451170, "internal_node_id": "0.0-8.0-34.0"}}, {"uniqueid": "w10545179:a42186504", "current_trial": 221, "dateTime": 1664464387489, "trialdata": {"rt": 806, "stimulus": "<p id='stroop-text' class='stroop-blue'>YELLOW</p>", "response": "b", "stimulus-type": "incongruent", "word": "yellow", "color": "blue", "correct_response": "b", "trial_id": "stroop-trial-1-incongruent-7", "trial_type": "html-keyboard-response", "trial_index": 221, "time_elapsed": 452486, "internal_node_id": "0.0-8.0-35.0"}}, {"uniqueid": "w10545179:a42186504", "current_trial": 222, "dateTime": 1664464388867, "trialdata": {"rt": 862, "stimulus": "<p id='stroop-text' class='stroop-blue'>YELLOW</p>", "response": "b", "stimulus-type": "incongruent", "word": "yellow", "color": "blue", "correct_response": "b", "trial_id": "stroop-trial-1-incongruent-10", "trial_type": 