{"condition": 0, "counterbalance": 0, "assignmentId": "a48521321", "workerId": "w11278443", "hitId": "h83889339", "currenttrial": 486, "bonus": 0, "data": [{"uniqueid": "w11278443:a48521321", "current_trial": 0, "dateTime": 1664368004340, "trialdata": {"success": true, "trial_type": "fullscreen", "trial_index": 0, "time_elapsed": 4427, "internal_node_id": "0.0-0.0"}}, {"uniqueid": "w11278443:a48521321", "current_trial": 1, "dateTime": 1664368057798, "trialdata": {"view_history": [{"page_index": 0, "viewing_time": 53450}], "rt": 53451, "trial_id": "exp_instructions_distractor", "trial_type": "instructions", "trial_index": 1, "time_elapsed": 57885, "internal_node_id": "0.0-1.0"}}, {"uniqueid": "w11278443:a48521321", "current_trial": 2, "dateTime": 1664368078030, "trialdata": {"view_history": [{"page_index": 0, "viewing_time": 20229}], "rt": 20229, "trial_id": "color_game_instructions", "trial_type": "instructions", "trial_index": 2, "time_elapsed": 78117, "internal_node_id": "0.0-2.0"}}, {"uniqueid": "w11278443:a48521321", "current_trial": 3, "dateTime": 1664368091831, "trialdata": {"rt": 13797, "stimulus": "<h1> Get ready to start the game! </h1>\n\nThank you for reading the instructions. Get ready start with the first of 5 block(s) of this game.\n<br><br>\nIn this first block, you will complete 90 rounds of this game before moving on.\n<br><br>\nRemember, the better you perform, the bigger your bonus will be!\n<br><br>\n<div style='text-align: center;'>Press <code>space</code> to begin.</div>", "response": " ", "trial_id": "stroop_1_ready_1", "trial_type": "html-keyboard-response", "trial_index": 3, "time_elapsed": 91918, "internal_node_id": "0.0-3.0"}}, {"uniqueid": "w11278443:a48521321", "current_trial": 4, "dateTime": 1664368093452, "trialdata": {"rt": 1595, "stimulus": "<p id='stroop-text' class='stroop-green'>YELLOW</p>", "response": "g", "stimulus-type": "incongruent", "word": "yellow", "color": "green", "correct_response": "g", "trial_id": "stroop-trial-1-incongruent-22", "trial_type": "html-keyboard-response", "trial_index": 4, "time_elapsed": 93538, "internal_node_id": "0.0-4.0-0.0"}}, {"uniqueid": "w11278443:a48521321", "current_trial": 5, "dateTime": 1664368095651, "trialdata": {"rt": 1696, "stimulus": "<p id='stroop-text' class='stroop-yellow'>WINDOW</p>", "response": "y", "stimulus-type": "unrelated", "word": "WINDOW", "color": "yellow", "correct_response": "y", "trial_id": "stroop-trial-1-unrelated-13", "trial_type": "html-keyboard-response", "trial_index": 5, "time_elapsed": 95738, "internal_node_id": "0.0-4.0-1.0"}}, {"uniqueid": "w11278443:a48521321", "current_trial": 6, "dateTime": 1664368097507, "trialdata": {"rt": 1349, "stimulus": "<p id='stroop-text' class='stroop-blue'>BLUE</p>", "response": "b", "stimulus-type": "congruent", "word": "blue", "color": "blue", "correct_response": "b", "trial_id": "stroop-trial-1-congruent-25", "trial_type": "html-keyboard-response", "trial_index": 6, "time_elapsed": 97593, "internal_node_id": "0.0-4.0-2.0"}}, {"uniqueid": "w11278443:a48521321", "current_trial": 7, "dateTime": 1664368099241, "trialdata": {"rt": 1229, "stimulus": "<p id='stroop-text' class='stroop-yellow'>YELLOW</p>", "response": "y", "stimulus-type": "congruent", "word": "yellow", "color": "yellow", "correct_response": "y", "trial_id": "stroop-trial-1-congruent-3", "trial_type": "html-keyboard-response", "trial_index": 7, "time_elapsed": 99327, "internal_node_id": "0.0-4.0-3.0"}}, {"uniqueid": "w11278443:a48521321", "current_trial": 8, "dateTime": 1664368100748, "trialdata": {"rt": 1003, "stimulus": "<p id='stroop-text' class='stroop-yellow'>BLUE</p>", "response": "y", "stimulus-type": "incongruent", "word": "blue", "color": "yellow", "correct_response": "y", "trial_id": "stroop-trial-1-incongruent-7", "trial_type": "html-keyboard-response", "trial_index": 8, "time_elapsed": 100834, "internal_node_id": "0.0-4.0-4.0"}}, {"uniqueid": "w11278443:a48521321", "current_trial": 9, "dateTime": 1664368102857, "trialdata": {"rt": 1604, "stimulus": "<p id='stroop-text' class='stroop-green'>STONE</p>", "response": "g", "stimulus-type": "unrelated", "word": "STONE", "color": "green", "correct_response": "g", "trial_id": "stroop-trial-1-unrelated-22", "trial_type": "html-keyboard-response", "trial_index": 9, "time_elapsed": 102943, "internal_node_id": "0.0-4.0-5.0"}}, {"uniqueid": "w11278443:a48521321", "current_trial": 10, "dateTime": 1664368104534, "trialdata": {"rt": 1172, "stimulus": "<p id='stroop-text' class='stroop-blue'>GREEN</p>", "response": "b", "stimulus-type": "incongruent", "word": "green", "color": "blue", "correct_response": "b", "trial_id": "stroop-trial-1-incongruent-25", "trial_type": "html-keyboard-response", "trial_index": 10, "time_elapsed": 104620, "internal_node_id": "0.0-4.0-6.0"}}, {"uniqueid": "w11278443:a48521321", "current_trial": 11, "dateTime": 1664368106651, "trialdata": {"rt": 1611, "stimulus": "<p id='stroop-text' class='stroop-green'>YELLOW</p>", "response": "g", "stimulus-type": "incongruent", "word": "yellow", "color": "green", "correct_response": "g", "trial_id": "stroop-trial-1-incongruent-2", "trial_type": "html-keyboard-response", "trial_index": 11, "time_elapsed": 106737, "internal_node_id": "0.0-4.0-7.0"}}, {"uniqueid": "w11278443:a48521321", "current_trial": 12, "dateTime": 1664368108088, "trialdata": {"rt": 935, "stimulus": "<p id='stroop-text' class='stroop-green'>YELLOW</p>", "response": "g", "stimulus-type": "incongruent", "word": "yellow", "color": "green", "correct_response": "g", "trial_id": "stroop-trial-1-incongruent-5", "trial_type": "html-keyboard-response", "trial_index": 12, "time_elapsed": 108175, "internal_node_id": "0.0-4.0-8.0"}}, {"uniqueid": "w11278443:a48521321", "current_trial": 13, "dateTime": 1664368109658, "trialdata": {"rt": 1064, "stimulus": "<p id='stroop-text' class='stroop-red'>GREEN</p>", "response": "r", "stimulus-type": "incongruent", "word": "green", "color": "red", "correct_response": "r", "trial_id": "stroop-trial-1-incongruent-15", "trial_type": "html-keyboard-response", "trial_index": 13, "time_elapsed": 109744, "internal_node_id": "0.0-4.0-9.0"}}, {"uniqueid": "w11278443:a48521321", "current_trial": 14, "dateTime": 1664368111036, "trialdata": {"rt": 874, "stimulus": "<p id='stroop-text' class='stroop-yellow'>YELLOW</p>", "response": "y", "stimulus-type": "congruent", "word": "yellow", "color": "yellow", "correct_response": "y", "trial_id": "stroop-trial-1-congruent-19", "trial_type": "html-keyboard-response", "trial_index": 14, "time_elapsed": 111123, "internal_node_id": "0.0-4.0-10.0"}}, {"uniqueid": "w11278443:a48521321", "current_trial": 15, "dateTime": 1664368112359, "trialdata": {"rt": 817, "stimulus": "<p id='stroop-text' class='stroop-red'>FORK</p>", "response": "r", "stimulus-type": "unrelated", "word": "FORK", "color": "red", "correct_response": "r", "trial_id": "stroop-trial-1-unrelated-17", "trial_type": "html-keyboard-response", "trial_index": 15, "time_elapsed": 112445, "internal_node_id": "0.0-4.0-11.0"}}, {"uniqueid": "w11278443:a48521321", "current_trial": 16, "dateTime": 1664368113849, "trialdata": {"rt": 987, "stimulus": "<p id='stroop-text' class='stroop-blue'>BOAT</p>", "response": "b", "stimulus-type": "unrelated", "word": "BOAT", "color": "blue", "correct_response": "b", "trial_id": "stroop-trial-1-unrelated-24", "trial_type": "html-keyboard-response", "trial_index": 16, "time_elapsed": 113935, "internal_node_id": "0.0-4.0-12.0"}}, {"uniqueid": "w11278443:a48521321", "current_trial": 17, "dateTime": 1664368115217, "trialdata": {"rt": 865, "stimulus": "<p id='stroop-text' class='stroop-yellow'>RED</p>", "response": "y", "stimulus-type": "incongruent", "word": "red", "color": "yellow", "correct_response": "y", "trial_id": "stroop-trial-1-incongruent-6", "trial_type": "html-keyboard-response", "trial_index": 17, "time_elapsed": 115303, "internal_node_id": "0.0-4.0-13.0"}}, {"uniqueid": "w11278443:a48521321", "current_trial": 18, "dateTime": 1664368116693, "trialdata": {"rt": 972, "stimulus": "<p id='stroop-text' class='stroop-blue'>BLUE</p>", "response": "b", "stimulus-type": "congruent", "word": "blue", "color": "blue", "correct_response": "b", "trial_id": "stroop-trial-1-congruent-15", "trial_type": "html-keyboard-response", "trial_index": 18, "time_elapsed": 116779, "internal_node_id": "0.0-4.0-14.0"}}, {"uniqueid": "w11278443:a48521321", "current_trial": 19, "dateTime": 1664368117915, "trialdata": {"rt": 715, "stimulus": "<p id='stroop-text' class='stroop-blue'>DOG</p>", "response": "b", "stimulus-type": "unrelated", "word": "DOG", "color": "blue", "correct_response": "b", "trial_id": "stroop-trial-1-unrelated-28", "trial_type": "html-keyboard-response", "trial_index": 19, "time_elapsed": 118002, "internal_node_id": "0.0-4.0-15.0"}}, {"uniqueid": "w11278443:a48521321", "current_trial": 20, "dateTime": 1664368119724, "trialdata": {"rt": 1304, "stimulus": "<p id='stroop-text' class='stroop-green'>GREEN</p>", "response": "g", "stimulus-type": "congruent", "word": "green", "color": "green", "correct_response": "g", "trial_id": "stroop-trial-1-congruent-13", "trial_type": "html-keyboard-response", "trial_index": 20, "time_elapsed": 119810, "internal_node_id": "0.0-4.0-16.0"}}, {"uniqueid": "w11278443:a48521321", "current_trial": 21, "dateTime": 1664368120794, "trialdata": {"rt": 566, "stimulus": "<p id='stroop-text' class='stroop-green'>BOTTLE</p>", "response": "g", "stimulus-type": "unrelated", "word": "BOTTLE", "color": "green", "correct_response": "g", "trial_id": "stroop-trial-1-unrelated-4", "trial_type": "html-keyboard-response", "trial_index": 21, "time_elapsed": 120880, "internal_node_id": "0.0-4.0-17.0"}}, {"uniqueid": "w11278443:a48521321", "current_trial": 22, "dateTime": 1664368122113, "trialdata": {"rt": 815, "stimulus": "<p id='stroop-text' class='stroop-blue'>STONE</p>", "response": "b", "stimulus-type": "unrelated", "word": "STONE", "color": "blue", "correct_response": "b", "trial_id": "stroop-trial-1-unrelated-30", "trial_type": "html-keyboard-response", "trial_index": 22, "time_elapsed": 122199, "internal_node_id": "0.0-4.0-18.0"}}, {"uniqueid": "w11278443:a48521321", "current_trial": 23, "dateTime": 1664368123627, "trialdata": {"rt": 1010, "stimulus": "<p id='stroop-text' class='stroop-yellow'>CHAIR</p>", "response": "y", "stimulus-type": "unrelated", "word": "CHAIR", "color": "yellow", "correct_response": "y", "trial_id": "stroop-trial-1-unrelated-25", "trial_type": "html-keyboard-response", "trial_index": 23, "time_elapsed": 123714, "internal_node_id": "0.0-4.0-19.0"}}, {"uniqueid": "w11278443:a48521321", "current_trial": 24, "dateTime": 1664368125897, "trialdata": {"rt": 1762, "stimulus": "<p id='stroop-text' class='stroop-blue'>GREEN</p>", "response": "b", "stimulus-type": "incongruent", "word": "green", "color": "blue", "correct_response": "b", "trial_id": "stroop-trial-1-incongruent-28", "trial_type": "html-keyboard-response", "trial_index": 24, "time_elapsed": 125984, "internal_node_id": "0.0-4.0-20.0"}}, {"uniqueid": "w11278443:a48521321", "current_trial": 25, "dateTime": 1664368127430, "trialdata": {"rt": 1028, "stimulus": "<p id='stroop-text' class='stroop-blue'>YELLOW</p>", "response": "b", "stimulus-type": "incongruent", "word": "yellow", "color": "blue", "correct_response": "b", "trial_id": "stroop-trial-1-incongruent-19", "trial_type": "html-keyboard-response", "trial_index": 25, "time_elapsed": 127517, "internal_node_id": "0.0-4.0-21.0"}}, {"uniqueid": "w11278443:a48521321", "current_trial": 26, "dateTime": 1664368128512, "trialdata": {"rt": 578, "stimulus": "<p id='stroop-text' class='stroop-blue'>GREEN</p>", "response": "b", "stimulus-type": "incongruent", "word": "green", "color": "blue", "correct_response": "b", "trial_id": "stroop-trial-1-incongruent-3", "trial_type": "html-keyboard-response", "trial_index": 26, "time_elapsed": 128599, "internal_node_id": "0.0-4.0-22.0"}}, {"uniqueid": "w11278443:a48521321", "current_trial": 27, "dateTime": 1664368130065, "trialdata": {"rt": 1048, "stimulus": "<p id='stroop-text' class='stroop-green'>GREEN</p>", "response": "g", "stimulus-type": "congruent", "word": "green", "color": "green", "correct_response": "g", "trial_id": "stroop-trial-1-congruent-4", "trial_type": "html-keyboard-response", "trial_index": 27, "time_elapsed": 130151, "internal_node_id": "0.0-4.0-23.0"}}, {"uniqueid": "w11278443:a48521321", "current_trial": 28, "dateTime": 1664368131661, "trialdata": {"rt": 1090, "stimulus": "<p id='stroop-text' class='stroop-red'>BLUE</p>", "response": "r", "stimulus-type": "incongruent", "word": "blue", "color": "red", "correct_response": "r", "trial_id": "stroop-trial-1-incongruent-26", "trial_type": "html-keyboard-response", "trial_index": 28, "time_elapsed": 131748, "internal_node_id": "0.0-4.0-24.0"}}, {"uniqueid": "w11278443:a48521321", "current_trial": 29, "dateTime": 1664368133263, "trialdata": {"rt": 1099, "stimulus": "<p id='stroop-text' class='stroop-blue'>FORK</p>", "response": "b", "stimulus-type": "unrelated", "word": "FORK", "color": "blue", "correct_response": "b", "trial_id": "stroop-trial-1-unrelated-7", "trial_type": "html-keyboard-response", "trial_index": 29, "time_elapsed": 133350, "internal_node_id": "0.0-4.0-25.0"}}, {"uniqueid": "w11278443:a48521321", "current_trial": 30, "dateTime": 1664368134618, "trialdata": {"rt": 849, "stimulus": "<p id='stroop-text' class='stroop-yellow'>YELLOW</p>", "response": "y", "stimulus-type": "congruent", "word": "yellow", "color": "yellow", "correct_response": "y", "trial_id": "stroop-trial-1-congruent-18", "trial_type": "html-keyboard-response", "trial_index": 30, "time_elapsed": 134704, "internal_node_id": "0.0-4.0-26.0"}}, {"uniqueid": "w11278443:a48521321", "current_trial": 31, "dateTime": 1664368135879, "trialdata": {"rt": 756, "stimulus": "<p id='stroop-text' class='stroop-yellow'>YELLOW</p>", "response": "y", "stimulus-type": "congruent", "word": "yellow", "color": "yellow", "correct_response": "y", "trial_id": "stroop-trial-1-congruent-10", "trial_type": "html-keyboard-response", "trial_index": 31, "time_elapsed": 135965, "internal_node_id": "0.0-4.0-27.0"}}, {"uniqueid": "w11278443:a48521321", "current_trial": 32, "dateTime": 1664368137240, "trialdata": {"rt": 857, "stimulus": "<p id='stroop-text' class='stroop-red'>RED</p>", "response": "r", "stimulus-type": "congruent", "word": "red", "color": "red", "correct_response": "r", "trial_id": "stroop-trial-1-congruent-28", "trial_type": "html-keyboard-response", "trial_index": 32, "time_elapsed": 137327, "internal_node_id": "0.0-4.0-28.0"}}, {"uniqueid": "w11278443:a48521321", "current_trial": 33, "dateTime": 1664368138654, "trialdata": {"rt": 909, "stimulus": "<p id='stroop-text' class='stroop-yellow'>CHAIR</p>", "response": "y", "stimulus-type": "unrelated", "word": "CHAIR", "color": "yellow", "correct_response": "y", "trial_id": "stroop-trial-1-unrelated-2", "trial_type": "html-keyboard-response", "trial_index": 33, "time_elapsed": 138740, "internal_node_id": "0.0-4.0-29.0"}}, {"uniqueid": "w11278443:a48521321", "current_trial": 34, "dateTime": 1664368141045, "trialdata": {"rt": 1886, "stimulus": "<p id='stroop-text' class='stroop-green'>GREEN</p>", "response": "g", "stimulus-type": "congruent", "word": "green", "color": "green", "correct_response": "g", "trial_id": "stroop-trial-1-congruent-24", "trial_type": "html-keyboard-response", "trial_index": 34, "time_elapsed": 141132, "internal_node_id": "0.0-4.0-30.0"}}, {"uniqueid": "w11278443:a48521321", "current_trial": 35, "dateTime": 1664368142530, "trialdata": {"rt": 979, "stimulus": "<p id='stroop-text' class='stroop-yellow'>YELLOW</p>", "response": "y", "stimulus-type": "congruent", "word": "yellow", "color": "yellow", "correct_response": "y", "trial_id": "stroop-trial-1-congruent-14", "trial_type": "html-keyboard-response", "trial_index": 35, "time_elapsed": 142616, "internal_node_id": "0.0-4.0-31.0"}}, {"uniqueid": "w11278443:a48521321", "current_trial": 36, "dateTime": 1664368143851, "trialdata": {"rt": 818, "stimulus": "<p id='stroop-text' class='stroop-red'>FORK</p>", "response": "r", "stimulus-type": "unrelated", "word": "FORK", "color": "red", "correct_response": "r", "trial_id": "stroop-trial-1-unrelated-3", "trial_type": "html-keyboard-response", "trial_index": 36, "time_elapsed": 143938, "internal_node_id": "0.0-4.0-32.0"}}, {"uniqueid": "w11278443:a48521321", "current_trial": 37, "dateTime": 1664368145112, "trialdata": {"rt": 755, "stimulus": "<p id='stroop-text' class='stroop-blue'>RED</p>", "response": "b", "stimulus-type": "incongruent", "word": "red", "color": "blue", "correct_response": "b", "trial_id": "stroop-trial-1-incongruent-27", "trial_type": "html-keyboard-response", "trial_index": 37, "time_elapsed": 145198, "internal_node_id": "0.0-4.0-33.0"}}, {"uniqueid": "w11278443:a48521321", "current_trial": 38, "dateTime": 1664368146253, "trialdata": {"rt": 638, "stimulus": "<p id='stroop-text' class='stroop-red'>RED</p>", "response": "r", "stimulus-type": "congruent", "word": "red", "color": "red", "correct_response": "r", "trial_id": "stroop-trial-1-congruent-16", "trial_type": "html-keyboard-response", "trial_index": 38, "time_elapsed": 146339, "internal_node_id": "0.0-4.0-34.0"}}, {"uniqueid": "w11278443:a48521321", "current_trial": 39, "dateTime": 1664368147413, "trialdata": {"rt": 657, "stimulus": "<p id='stroop-text' class='stroop-blue'>BLUE</p>", "response": "b", "stimulus-type": "congruent", "word": "blue", "color": "blue", "correct_response": "b", "trial_id": "stroop-trial-1-congruent-11", "trial_type": "html-keyboard-response", "trial_index": 39, "time_elapsed": 147500, "internal_node_id": "0.0-4.0-35.0"}}, {"uniqueid": "w11278443:a48521321", "current_trial": 40, "dateTime": 1664368148731, "trialdata": {"rt": 814, "stimulus": "<p id='stroop-text' class='stroop-yellow'>BLUE</p>", "response": "y", "stimulus-type": "incongruent", "word": "blue", "color": "yellow", "correct_response": "y", "trial_id": "stroop-trial-1-incongruent-29", "trial_type": "html-keyboard-response", "trial_index": 40, "time_elapsed": 148817, "internal_node_id": "0.0-4.0-36.0"}}, {"uniqueid": "w11278443:a48521321", "current_trial": 41, "dateTime": 1664368150032, "trialdata": {"rt": 794, "stimulus": "<p id='stroop-text' class='stroop-yellow'>BRAIN</p>", "response": "y", "stimulus-type": "unrelated", "word": "BRAIN", "color": "yellow", "correct_response": "y", "trial_id": "stroop-trial-1-unrelated-29", "trial_type": "html-keyboard-response", "trial_index": 41, "time_elapsed": 150119, "internal_node_id": "0.0-4.0-37.0"}}, {"uniqueid": "w11278443:a48521321", "current_trial": 42, "dateTime": 1664368151234, "trialdata": {"rt": 697, "stimulus": "<p id='stroop-text' class='stroop-yellow'>YELLOW</p>", "response": "y", "stimulus-type": "congruent", "word": "yellow", "color": "yellow", "correct_response": "y", "trial_id": "stroop-trial-1-congruent-22", "trial_type": "html-keyboard-response", "trial_index": 42, "time_elapsed": 151320, "internal_node_id": "0.0-4.0-38.0"}}, {"uniqueid": "w11278443:a48521321", "current_trial": 43, "dateTime": 1664368152504, "trialdata": {"rt": 766, "stimulus": "<p id='stroop-text' class='stroop-blue'>BLUE</p>", "response": "b", "stimulus-type": "congruent", "word": "blue", "color": "blue", "correct_response": "b", "trial_id": "stroop-trial-1-congruent-23", "trial_type": "html-keyboard-response", "trial_index": 43, "time_elapsed": 152590, "internal_node_id": "0.0-4.0-39.0"}}, {"uniqueid": "w11278443:a48521321", "current_trial": 44, "dateTime": 1664368153989, "trialdata": {"rt": 981, "stimulus": "<p id='stroop-text' class='stroop-green'>RED</p>", "response": "g", "stimulus-type": "incongruent", "word": "red", "color": "green", "correct_response": "g", "trial_id": "stroop-trial-1-incongruent-24", "trial_type": "html-keyboard-response", "trial_index": 44, "time_elapsed": 154075, "internal_node_id": "0.0-4.0-40.0"}}, {"uniqueid": "w11278443:a48521321", "current_trial": 45, "dateTime": 1664368155000, "trialdata": {"rt": 508, "stimulus": "<p id='stroop-text' class='stroop-green'>DOG</p>", "response": "g", "stimulus-type": "unrelated", "word": "DOG", "color": "green", "correct_response": "g", "trial_id": "stroop-trial-1-unrelated-23", "trial_type": "html-keyboard-response", "trial_index": 45, "time_elapsed": 155087, "internal_node_id": "0.0-4.0-41.0"}}, {"uniqueid": "w11278443:a48521321", "current_trial": 46, "dateTime": 1664368157029, "trialdata": {"rt": 1524, "stimulus": "<p id='stroop-text' class='stroop-red'>BLUE</p>", "response": "r", "stimulus-type": "incongruent", "word": "blue", "color": "red", "correct_response": "r", "trial_id": "stroop-trial-1-incongruent-14", "trial_type": "html-keyboard-response", "trial_index": 46, "time_elapsed": 157115, "internal_node_id": "0.0-4.0-42.0"}}, {"uniqueid": "w11278443:a48521321", "current_trial": 47, "dateTime": 1664368158282, "trialdata": {"rt": 749, "stimulus": "<p id='stroop-text' class='stroop-blue'>GREEN</p>", "response": "b", "stimulus-type": "incongruent", "word": "green", "color": "blue", "correct_response": "b", "trial_id": "stroop-trial-1-incongruent-1", "trial_type": "html-keyboard-response", "trial_index": 47, "time_elapsed": 158369, "internal_node_id": "0.0-4.0-43.0"}}, {"uniqueid": "w11278443:a48521321", "current_trial": 48, "dateTime": 1664368160019, "trialdata": {"rt": 1230, "stimulus": "<p id='stroop-text' class='stroop-yellow'>CHAIR</p>", "response": "y", "stimulus-type": "unrelated", "word": "CHAIR", "color": "yellow", "correct_response": "y", "trial_id": "stroop-trial-1-unrelated-20", "trial_type": "html-keyboard-response", "trial_index": 48, "time_elapsed": 160106, "internal_node_id": "0.0-4.0-44.0"}}, {"uniqueid": "w11278443:a48521321", "current_trial": 49, "dateTime": 1664368161252, "trialdata": {"rt": 728, "stimulus": "<p id='stroop-text' class='stroop-yellow'>YELLOW</p>", "response": "y", "stimulus-type": "congruent", "word": "yellow", "color": "yellow", "correct_response": "y", "trial_id": "stroop-trial-1-congruent-29", "trial_type": "html-keyboard-response", "trial_index": 49, "time_elapsed": 161338, "internal_node_id": "0.0-4.0-45.0"}}, {"uniqueid": "w11278443:a48521321", "current_trial": 50, "dateTime": 1664368162584, "trialdata": {"rt": 828, "stimulus": "<p id='stroop-text' class='stroop-blue'>BLUE</p>", "response": "b", "stimulus-type": "congruent", "word": "blue", "color": "blue", "correct_response": "b", "trial_id": "stroop-trial-1-congruent-1", "trial_type": "html-keyboard-response", "trial_index": 50, "time_elapsed": 162670, "internal_node_id": "0.0-4.0-46.0"}}, {"uniqueid": "w11278443:a48521321", "current_trial": 51, "dateTime": 1664368165482, "trialdata": {"rt": 2391, "stimulus": "<p id='stroop-text' class='stroop-green'>GREEN</p>", "response": "g", "stimulus-type": "congruent", "word": "green", "color": "green", "correct_response": "g", "trial_id": "stroop-trial-1-congruent-5", "trial_type": "html-keyboard-response", "trial_index": 51, "time_elapsed": 165568, "internal_node_id": "0.0-4.0-47.0"}}, {"uniqueid": "w11278443:a48521321", "current_trial": 52, "dateTime": 1664368167168, "trialdata": {"rt": 1182, "stimulus": "<p id='stroop-text' class='stroop-blue'>CHAIR</p>", "response": "b", "stimulus-type": "unrelated", "word": "CHAIR", "color": "blue", "correct_response": "b", "trial_id": "stroop-trial-1-unrelated-14", "trial_type": "html-keyboard-response", "trial_index": 52, "time_elapsed": 167255, "internal_node_id": "0.0-4.0-48.0"}}, {"uniqueid": "w11278443:a48521321", "current_trial": 53, "dateTime": 1664368168767, "trialdata": {"rt": 1093, "stimulus": "<p id='stroop-text' class='stroop-blue'>SHIP</p>", "response": "b", "stimulus-type": "unrelated", "word": "SHIP", "color": "blue", "correct_response": "b", "trial_id": "stroop-trial-1-unrelated-12", "trial_type": "html-keyboard-response", "trial_index": 53, "time_elapsed": 168853, "internal_node_id": "0.0-4.0-49.0"}}, {"uniqueid": "w11278443:a48521321", "current_trial": 54, "dateTime": 1664368170454, "trialdata": {"rt": 1182, "stimulus": "<p id='stroop-text' class='stroop-green'>GREEN</p>", "response": "g", "stimulus-type": "congruent", "word": "green", "color": "green", "correct_response": "g", "trial_id": "stroop-trial-1-congruent-17", "trial_type": "html-keyboard-response", "trial_index": 54, "time_elapsed": 170540, "internal_node_id": "0.0-4.0-50.0"}}, {"uniqueid": "w11278443:a48521321", "current_trial": 55, "dateTime": 1664368171582, "trialdata": {"rt": 622, "stimulus": "<p id='stroop-text' class='stroop-green'>MONKEY</p>", "response": "g", "stimulus-type": "unrelated", "word": "MONKEY", "color": "green", "correct_response": "g", "trial_id": "stroop-trial-1-unrelated-21", "trial_type": "html-keyboard-response", "trial_index": 55, "time_elapsed": 171668, "internal_node_id": "0.0-4.0-51.0"}}, {"uniqueid": "w11278443:a48521321", "current_trial": 56, "dateTime": 1664368174080, "trialdata": {"rt": 1993, "stimulus": "<p id='stroop-text' class='stroop-red'>RED</p>", "response": "r", "stimulus-type": "congruent", "word": "red", "color": "red", "correct_response": "r", "trial_id": "stroop-trial-1-congruent-9", "trial_type": "html-keyboard-response", "trial_index": 56, "time_elapsed": 174166, "internal_node_id": "0.0-4.0-52.0"}}, {"uniqueid": "w11278443:a48521321", "current_trial": 57, "dateTime": 1664368175627, "trialdata": {"rt": 1042, "stimulus": "<p id='stroop-text' class='stroop-yellow'>BLUE</p>", "response": "y", "stimulus-type": "incongruent", "word": "blue", "color": "yellow", "correct_response": "y", "trial_id": "stroop-trial-1-incongruent-13", "trial_type": "html-keyboard-response", "trial_index": 57, "time_elapsed": 175713, "internal_node_id": "0.0-4.0-53.0"}}, {"uniqueid": "w11278443:a48521321", "current_trial": 58, "dateTime": 1664368176964, "trialdata": {"rt": 832, "stimulus": "<p id='stroop-text' class='stroop-green'>BRAIN</p>", "response": "g", "stimulus-type": "unrelated", "word": "BRAIN", "color": "green", "correct_response": "g", "trial_id": "stroop-trial-1-unrelated-8", "trial_type": "html-keyboard-response", "trial_index": 58, "time_elapsed": 177050, "internal_node_id": "0.0-4.0-54.0"}}, {"uniqueid": "w11278443:a48521321", "current_trial": 59, "dateTime": 1664368178631, "trialdata": {"rt": 1162, "stimulus": "<p id='stroop-text' class='stroop-green'>WINDOW</p>", "response": "g", "stimulus-type": "unrelated", "word": "WINDOW", "color": "green", "correct_response": "g", "trial_id": "stroop-trial-1-unrelated-18", "trial_type": "html-keyboard-response", "trial_index": 59, "time_elapsed": 178717, "internal_node_id": "0.0-4.0-55.0"}}, {"uniqueid": "w11278443:a48521321", "current_trial": 60, "dateTime": 1664368180163, "trialdata": {"rt": 1025, "stimulus": "<p id='stroop-text' class='stroop-red'>SHIP</p>", "response": "r", "stimulus-type": "unrelated", "word": "SHIP", "color": "red", "correct_response": "r", "trial_id": "stroop-trial-1-unrelated-6", "trial_type": "html-keyboard-response", "trial_index": 60, "time_elapsed": 180249, "internal_node_id": "0.0-4.0-56.0"}}, {"uniqueid": "w11278443:a48521321", "current_trial": 61, "dateTime": 1664368181708, "trialdata": {"rt": 1041, "stimulus": "<p id='stroop-text' class='stroop-red'>GREEN</p>", "response": "r", "stimulus-type": "incongruent", "word": "green", "color": "red", "correct_response": "r", "trial_id": "stroop-trial-1-incongruent-8", "trial_type": "html-keyboard-response", "trial_index": 61, "time_elapsed": 181794, "internal_node_id": "0.0-4.0-57.0"}}, {"uniqueid": "w11278443:a48521321", "current_trial": 62, "dateTime": 1664368183970, "trialdata": {"rt": 1758, "stimulus": "<p id='stroop-text' class='stroop-green'>SHIP</p>", "response": "g", "stimulus-type": "unrelated", "word": "SHIP", "color": "green", "correct_response": "g", "trial_id": "stroop-trial-1-unrelated-16", "trial_type": "html-keyboard-response", "trial_index": 62, "time_elapsed": 184056, "internal_node_id": "0.0-4.0-58.0"}}, {"uniqueid": "w11278443:a48521321", "current_trial": 63, "dateTime": 1664368185182, "trialdata": {"rt": 705, "stimulus": "<p id='stroop-text' class='stroop-green'>GREEN</p>", "response": "g", "stimulus-type": "congruent", "word": "green", "color": "green", "correct_response": "g", "trial_id": "stroop-trial-1-congruent-27", "trial_type": "html-keyboard-response", "trial_index": 63, "time_elapsed": 185268, "internal_node_id": "0.0-4.0-59.0"}}, {"uniqueid": "w11278443:a48521321", "current_trial": 64, "dateTime": 1664368186295, "trialdata": {"rt": 608, "stimulus": "<p id='stroop-text' class='stroop-red'>CHAIR</p>", "response": "r", "stimulus-type": "unrelated", "word": "CHAIR", "color": "red", "correct_response": "r", "trial_id": "stroop-trial-1-unrelated-27", "trial_type": "html-keyboard-response", "trial_index": 64, "time_elapsed": 186381, "internal_node_id": "0.0-4.0-60.0"}}, {"uniqueid": "w11278443:a48521321", "current_trial": 65, "dateTime": 1664368187639, "trialdata": {"rt": 839, "stimulus": "<p id='stroop-text' class='stroop-yellow'>BOTTLE</p>", "response": "y", "stimulus-type": "unrelated", "word": "BOTTLE", "color": "yellow", "correct_response": "y", "trial_id": "stroop-trial-1-unrelated-9", "trial_type": "html-keyboard-response", "trial_index": 65, "time_elapsed": 187725, "internal_node_id": "0.0-4.0-61.0"}}, {"uniqueid": "w11278443:a48521321", "current_trial": 66, "dateTime": 1664368189184, "trialdata": {"rt": 1040, "stimulus": "<p id='stroop-text' class='stroop-blue'>YELLOW</p>", "response": "b", "stimulus-type": "incongruent", "word": "yellow", "color": "blue", "correct_response": "b", "trial_id": "stroop-trial-1-incongruent-23", "trial_type": "html-keyboard-response", "trial_index": 66, "time_elapsed": 189271, "internal_node_id": "0.0-4.0-62.0"}}, {"uniqueid": "w11278443:a48521321", "current_trial": 67, "dateTime": 1664368190373, "trialdata": {"rt": 684, "stimulus": "<p id='stroop-text' class='stroop-red'>BLUE</p>", "response": "r", "stimulus-type": "incongruent", "word": "blue", "color": "red", "correct_response": "r", "trial_id": "stroop-trial-1-incongruent-21", "trial_type": "html-keyboard-response", "trial_index": 67, "time_elapsed": 190460, "internal_node_id": "0.0-4.0-63.0"}}, {"uniqueid": "w11278443:a48521321", "current_trial": 68, "dateTime": 1664368191715, "trialdata": {"rt": 835, "stimulus": "<p id='stroop-text' class='stroop-red'>GREEN</p>", "response": "r", "stimulus-type": "incongruent", "word": "green", "color": "red", "correct_response": "r", "trial_id": "stroop-trial-1-incongruent-30", "trial_type": "html-keyboard-response", "trial_index": 68, "time_elapsed": 191802, "internal_node_id": "0.0-4.0-64.0"}}, {"uniqueid": "w11278443:a48521321", "current_trial": 69, "dateTime": 1664368193079, "trialdata": {"rt": 859, "stimulus": "<p id='stroop-text' class='stroop-yellow'>YELLOW</p>", "response": "y", "stimulus-type": "congruent", "word": "yellow", "color": "yellow", "correct_response": "y", "trial_id": "stroop-trial-1-congruent-20", "trial_type": "html-keyboard-response", "trial_index": 69, "time_elapsed": 193165, "internal_node_id": "0.0-4.0-65.0"}}, {"uniqueid": "w11278443:a48521321", "current_trial": 70, "dateTime": 1664368194859, "trialdata": {"rt": 1276, "stimulus": "<p id='stroop-text' class='stroop-yellow'>BLUE</p>", "response": "y", "stimulus-type": "incongruent", "word": "blue", "color": "yellow", "correct_response": "y", "trial_id": "stroop-trial-1-incongruent-10", "trial_type": "html-keyboard-response", "trial_index": 70, "time_elapsed": 194946, "internal_node_id": "0.0-4.0-66.0"}}, {"uniqueid": "w11278443:a48521321", "current_trial": 71, "dateTime": 1664368196159, "trialdata": {"rt": 793, "stimulus": "<p id='stroop-text' class='stroop-green'>BLUE</p>", "response": "g", "stimulus-type": "incongruent", "word": "blue", "color": "green", "correct_response": "g", "trial_id": "stroop-trial-1-incongruent-17", "trial_type": "html-keyboard-response", "trial_index": 71, "time_elapsed": 196245, "internal_node_id": "0.0-4.0-67.0"}}, {"uniqueid": "w11278443:a48521321", "current_trial": 72, "dateTime": 1664368197502, "trialdata": {"rt": 839, "stimulus": "<p id='stroop-text' class='stroop-blue'>GREEN</p>", "response": "b", "stimulus-type": "incongruent", "word": "green", "color": "blue", "correct_response": "b", "trial_id": "stroop-trial-1-incongruent-20", "trial_type": "html-keyboard-response", "trial_index": 72, "time_elapsed": 197588, "internal_node_id": "0.0-4.0-68.0"}}, {"uniqueid": "w11278443:a48521321", "current_trial": 73, "dateTime": 1664368199654, "trialdata": {"rt": 1648, "stimulus": "<p id='stroop-text' class='stroop-red'>STONE</p>", "response": "r", "stimulus-type": "unrelated", "word": "STONE", "color": "red", "correct_response": "r", "trial_id": "stroop-trial-1-unrelated-26", "trial_type": "html-keyboard-response", "trial_index": 73, "time_elapsed": 199740, "internal_node_id": "0.0-4.0-69.0"}}, {"uniqueid": "w11278443:a48521321", "current_trial": 74, "dateTime": 1664368200838, "trialdata": {"rt": 677, "stimulus": "<p id='stroop-text' class='stroop-red'>DOG</p>", "response": "r", "stimulus-type": "unrelated", "word": "DOG", "color": "red", "correct_response": "r", "trial_id": "stroop-trial-1-unrelated-1", "trial_type": "html-keyboard-response", "trial_index": 74, "time_elapsed": 200925, "internal_node_id": "0.0-4.0-70.0"}}, {"uniqueid": "w11278443:a48521321", "current_trial": 75, "dateTime": 1664368202707, "trialdata": {"rt": 1364, "stimulus": "<p id='stroop-text' class='stroop-blue'>BLUE</p>", "response": "b", "stimulus-type": "congruent", "word": "blue", "color": "blue", "correct_response": "b", "trial_id": "stroop-trial-1-congruent-7", "trial_type": "html-keyboard-response", "trial_index": 75, "time_elapsed": 202793, "internal_node_id": "0.0-4.0-71.0"}}, {"uniqueid": "w11278443:a48521321", "current_trial": 76, "dateTime": 1664368205465, "trialdata": {"rt": 2253, "stimulus": "<p id='stroop-text' class='stroop-green'>GREEN</p>", "response": "g", "stimulus-type": "congruent", "word": "green", "color": "green", "correct_response": "g", "trial_id": "stroop-trial-1-congruent-30", "trial_type": "html-keyboard-response", "trial_index": 76, "time_elapsed": 205552, "internal_node_id": "0.0-4.0-72.0"}}, {"uniqueid": "w11278443:a48521321", "current_trial": 77, "dateTime": 1664368206606, "trialdata": {"rt": 636, "stimulus": "<p id='stroop-text' class='stroop-green'>GREEN</p>", "response": "g", "stimulus-type": "congruent", "word": "green", "color": "green", "correct_response": "g", "trial_id": "stroop-trial-1-congruent-26", "trial_type": "html-keyboard-response", "trial_index": 77, "time_elapsed": 206692, "internal_node_id": "0.0-4.0-73.0"}}, {"uniqueid": "w11278443:a48521321", "current_trial": 78, "dateTime": 1664368208150, "trialdata": {"rt": 1041, "stimulus": "<p id='stroop-text' class='stroop-yellow'>GREEN</p>", "response": "y", "stimulus-type": "incongruent", "word": "green", "color": "yellow", "correct_response": "y", "trial_id": "stroop-trial-1-incongruent-9", "trial_type": "html-keyboard-response", "trial_index": 78, "time_elapsed": 208237, "internal_node_id": "0.0-4.0-74.0"}}, {"uniqueid": "w11278443:a48521321", "current_trial": 79, "dateTime": 1664368209505, "trialdata": {"rt": 850, "stimulus": "<p id='stroop-text' class='stroop-blue'>BLUE</p>", "response": "b", "stimulus-type": "congruent", "word": "blue", "color": "blue", "correct_response": "b", "trial_id": "stroop-trial-1-congruent-12", "trial_type": "html-keyboard-response", "trial_index": 79, "time_elapsed": 209591, "internal_node_id": "0.0-4.0-75.0"}}, {"uniqueid": "w11278443:a48521321", "current_trial": 80, "dateTime": 1664368210751, "trialdata": {"rt": 741, "stimulus": "<p id='stroop-text' class='stroop-blue'>FORK</p>", "response": "b", "stimulus-type": "unrelated", "word": "FORK", "color": "blue", "correct_response": "b", "trial_id": "stroop-trial-1-unrelated-11", "trial_type": "html-keyboard-response", "trial_index": 80, "time_elapsed": 210837, "internal_node_id": "0.0-4.0-76.0"}}, {"uniqueid": "w11278443:a48521321", "current_trial": 81, "dateTime": 1664368212015, "trialdata": {"rt": 760, "stimulus": "<p id='stroop-text' class='stroop-green'>BLUE</p>", "response": "g", "stimulus-type": "incongruent", "word": "blue", "color": "green", "correct_response": "g", "trial_id": "stroop-trial-1-incongruent-16", "trial_type": "html-keyboard-response", "trial_index": 81, "time_elapsed": 212101, "internal_node_id": "0.0-4.0-77.0"}}, {"uniqueid": "w11278443:a48521321", "current_trial": 82, "dateTime": 1664368213217, "trialdata": {"rt": 695, "stimulus": "<p id='stroop-text' class='stroop-blue'>GREEN</p>", "response": "b", "stimulus-type": "incongruent", "word": "green", "color": "blue", "correct_response": "b", "trial_id": "stroop-trial-1-incongruent-4", "trial_type": "html-keyboard-response", "trial_index": 82, "time_elapsed": 213303, "internal_node_id": "0.0-4.0-78.0"}}, {"uniqueid": "w11278443:a48521321", "current_trial": 83, "dateTime": 1664368214348, "trialdata": {"rt": 625, "stimulus": "<p id='stroop-text' class='stroop-blue'>BLUE</p>", "response": "b", "stimulus-type": "congruent", "word": "blue", "color": "blue", "correct_response": "b", "trial_id": "stroop-trial-1-congruent-8", "trial_type": "html-keyboard-response", "trial_index": 83, "time_elapsed": 214434, "internal_node_id": "0.0-4.0-79.0"}}, {"uniqueid": "w11278443:a48521321", "current_trial": 84, "dateTime": 1664368215383, "trialdata": {"rt": 530, "stimulus": "<p id='stroop-text' class='stroop-green'>GREEN</p>", "response": "g", "stimulus-type": "congruent", "word": "green", "color": "green", "correct_response": "g", "trial_id": "stroop-trial-1-congruent-21", "trial_type": "html-keyboard-response", "trial_index": 84, "time_elapsed": 215469, "internal_node_id": "0.0-4.0-80.0"}}, {"uniqueid": "w11278443:a48521321", "current_trial": 85, "dateTime": 1664368216503, "trialdata": {"rt": 613, "stimulus": "<p id='stroop-text' class='stroop-yellow'>BRAIN</p>", "response": "y", "stimulus-type": "unrelated", "word": "BRAIN", "color": "yellow", "correct_response": "y", "trial_id": "stroop-trial-1-unrelated-5", "trial_type": "html-keyboard-response", "trial_index": 85, "time_elapsed": 216589, "internal_node_id": "0.0-4.0-81.0"}}, {"uniqueid": "w11278443:a48521321", "current_trial": 86, "dateTime": 1664368217614, "trialdata": {"rt": 606, "stimulus": "<p id='stroop-text' class='stroop-red'>WINDOW</p>", "response": "r", "stimulus-type": "unrelated", "word": "WINDOW", "color": "red", "correct_response": "r", "trial_id": "stroop-trial-1-unrelated-10", "trial_type": "html-keyboard-response", "trial_index": 86, "time_elapsed": 217700, "internal_node_id": "0.0-4.0-82.0"}}, {"uniqueid": "w11278443:a48521321", "current_trial": 87, "dateTime": 1664368218949, "trialdata": {"rt": 831, "stimulus": "<p id='stroop-text' class='stroop-yellow'>DOG</p>", "response": "y", "stimulus-type": "unrelated", "word": "DOG", "color": "yellow", "correct_response": "y", "trial_id": "stroop-trial-1-unrelated-19", "trial_type": "html-keyboard-response", "trial_index": 87, "time_elapsed": 219036, "internal_node_id": "0.0-4.0-83.0"}}, {"uniqueid": "w11278443:a48521321", "current_trial": 88, "dateTime": 1664368220626, "trialdata": {"rt": 1172, "stimulus": "<p id='stroop-text' class='stroop-red'>MONKEY</p>", "response": "r", "stimulus-type": "unrelated", "word": "MONKEY", "color": "red", "correct_response": "r", "trial_id": "stroop-trial-1-unrelated-15", "trial_type": "html-keyboard-response", "trial_index": 88, "time_elapsed": 220713, "internal_node_id": "0.0-4.0-84.0"}}, {"uniqueid": "w11278443:a48521321", "current_trial": 89, "dateTime": 1664368221799, "trialdata": {"rt": 668, "stimulus": "<p id='stroop-text' class='stroop-red'>BLUE</p>", "response": "r", "stimulus-type": "incongruent", "word": "blue", "color": "red", "correct_response": "r", "trial_id": "stroop-trial-1-incongruent-12", "trial_type": "html-keyboard-response", "trial_index": 89, "time_elapsed": 221886, "internal_node_id": "0.0-4.0-85.0"}}, {"uniqueid": "w11278443:a48521321", "current_trial": 90, "dateTime": 1664368223013, "trialdata": {"rt": 705, "stimulus": "<p id='stroop-text' class='stroop-red'>GREEN</p>", "response": "r", "stimulus-type": "incongruent", "word": "green", "color": "red", "correct_response": "r", "trial_id": "stroop-trial-1-incongruent-11", "trial_type": "html-keyboard-response", "trial_index": 90, "time_elapsed": 223099, "internal_node_id": "0.0-4.0-86.0"}}, {"uniqueid": "w11278443:a48521321", "current_trial": 91, "dateTime": 1664368224134, "trialdata": {"rt": 616, "stimulus": "<p id='stroop-text' class='stroop-blue'>BLUE</p>", "response": "b", "stimulus-type": "congruent", "word": "blue", "color": "blue", "correct_response": "b", "trial_id": "stroop-trial-1-congruent-2", "trial_type": "html-keyboard-response", "trial_index": 91, "time_elapsed": 224220, "internal_node_id": "0.0-4.0-87.0"}}, {"uniqueid": "w11278443:a48521321", "current_trial": 92, "dateTime": 1664368225459, "trialdata": {"rt": 819, "stimulus": "<p id='stroop-text' class='stroop-red'>RED</p>", "response": "r", "stimulus-type": "congruent", "word": "red", "color": "red", "correct_response": "r", "trial_id": "stroop-trial-1-congruent-6", "trial_type": "html-keyboard-response", "trial_index": 92, "time_elapsed": 225545, "internal_node_id": "0.0-4.0-88.0"}}, {"uniqueid": "w11278443:a48521321", "current_trial": 93, "dateTime": 1664368227357, "trialdata": {"rt": 1393, "stimulus": "<p id='stroop-text' class='stroop-yellow'>BLUE</p>", "response": "y", "stimulus-type": "incongruent", "word": "blue", "color": "yellow", "correct_response": "y", "trial_id": "stroop-trial-1-incongruent-18", "trial_type": "html-keyboard-response", "trial_index": 93, "time_elapsed": 227443, "internal_node_id": "0.0-4.0-89.0"}}, {"uniqueid": "w11278443:a48521321", "current_trial": 94, "dateTime": 1664368254366, "trialdata": {"rt": 26501, "stimulus": "  <h1> End of block! </h1>\n\n  You have reached the end of the block 1/5. If you need a short break, feel free to take one now before moving on.\n\n  <br><br>\n  In the next block, you will complete another 90 rounds of this game.\n\n  <br><br>\n  <div style='text-align: center;'>Press <code>space</code> to begin.</div>\n  <br><br>\n<div style='text-align: center;'>(If the experiment doesn't continue, try clicking on the text and then pressing <code>space</code>.)</div>", "response": " ", "trial_id": "stroop_1_ready_2", "trial_type": "html-keyboard-response", "trial_index": 94, "time_elapsed": 254453, "internal_node_id": "0.0-5.0"}}, {"uniqueid": "w11278443:a48521321", "current_trial": 95, "dateTime": 1664368255895, "trialdata": {"rt": 1514, "stimulus": "<p id='stroop-text' class='stroop-blue'>YELLOW</p>", "response": "b", "stimulus-type": "incongruent", "word": "yellow", "color": "blue", "correct_response": "b", "trial_id": "stroop-trial-1-incongruent-10", "trial_type": "html-keyboard-response", "trial_index": 95, "time_elapsed": 255981, "internal_node_id": "0.0-6.0-0.0"}}, {"uniqueid": "w11278443:a48521321", "current_trial": 96, "dateTime": 1664368257693, "trialdata": {"rt": 1294, "stimulus": "<p id='stroop-text' class='stroop-green'>GREEN</p>", "response": "g", "stimulus-type": "congruent", "word": "green", "color": "green", "correct_response": "g", "trial_id": "stroop-trial-1-congruent-1", "trial_type": "html-keyboard-response", "trial_index": 96, "time_elapsed": 257779, "internal_node_id": "0.0-6.0-1.0"}}, {"uniqueid": "w11278443:a48521321", "current_trial": 97, "dateTime": 1664368259534, "trialdata": {"rt": 1335, "stimulus": "<p id='stroop-text' class='stroop-yellow'>YELLOW</p>", "response": "y", "stimulus-type": "congruent", "word": "yellow", "color": "yellow", "correct_response": "y", "trial_id": "stroop-trial-1-congruent-19", "trial_type": "html-keyboard-response", "trial_index": 97, "time_elapsed": 259620, "internal_node_id": "0.0-6.0-2.0"}}, {"uniqueid": "w11278443:a48521321", "current_trial": 98, "dateTime": 1664368261576, "trialdata": {"rt": 1537, "stimulus": "<p id='stroop-text' class='stroop-red'>YELLOW</p>", "response": "r", "stimulus-type": "incongruent", "word": "yellow", "color": "red", "correct_response": "r", "trial_id": "stroop-trial-1-incongruent-4", "trial_type": "html-keyboard-response", "trial_index": 98, "time_elapsed": 261663, "internal_node_id": "0.0-6.0-3.0"}}, {"uniqueid": "w11278443:a48521321", "current_trial": 99, "dateTime": 1664368263202, "trialdata": {"rt": 1120, "stimulus": "<p id='stroop-text' class='stroop-red'>BRIDGE</p>", "response": "r", "stimulus-type": "unrelated", "word": "BRIDGE", "color": "red", "correct_response": "r", "trial_id": "stroop-trial-1-unrelated-22", "trial_type": "html-keyboard-response", "trial_index": 99, "time_elapsed": 263288, "internal_node_id": "0.0-6.0-4.0"}}, {"uniqueid": "w11278443:a48521321", "current_trial": 100, "dateTime": 1664368264536, "trialdata": {"rt": 830, "stimulus": "<p id='stroop-text' class='stroop-green'>BOTTLE</p>", "response": "g", "stimulus-type": "unrelated", "word": "BOTTLE", "color": "green", "correct_response": "g", "trial_id": "stroop-trial-1-unrelated-28", "trial_type": "html-keyboard-response", "trial_index": 100, "time_elapsed": 264623, "internal_node_id": "0.0-6.0-5.0"}}, {"uniqueid": "w11278443:a48521321", "current_trial": 101, "dateTime": 1664368265690, "trialdata": {"rt": 648, "stimulus": "<p id='stroop-text' class='stroop-red'>GREEN</p>", "response": "r", "stimulus-type": "incongruent", "word": "green", "color": "red", "correct_response": "r", "trial_id": "stroop-trial-1-incongruent-13", "trial_type": "html-keyboard-response", "trial_index": 101, "time_elapsed": 265776, "internal_node_id": "0.0-6.0-6.0"}}, {"uniqueid": "w11278443:a48521321", "current_trial": 102, "dateTime": 1664368267157, "trialdata": {"rt": 962, "stimulus": "<p id='stroop-text' class='stroop-yellow'>STONE</p>", "response": "y", "stimulus-type": "unrelated", "word": "STONE", "color": "yellow", "correct_response": "y", "trial_id": "stroop-trial-1-unrelated-9", "trial_type": "html-keyboard-response", "trial_index": 102, "time_elapsed": 267243, "internal_node_id": "0.0-6.0-7.0"}}, {"uniqueid": "w11278443:a48521321", "current_trial": 103, "dateTime": 1664368268478, "trialdata": {"rt": 814, "stimulus": "<p id='stroop-text' class='stroop-blue'>BLUE</p>", "response": "b", "stimulus-type": "congruent", "word": "blue", "color": "blue", "correct_response": "b", "trial_id": "stroop-trial-1-congruent-5", "trial_type": "html-keyboard-response", "trial_index": 103, "time_elapsed": 268564, "internal_node_id": "0.0-6.0-8.0"}}, {"uniqueid": "w11278443:a48521321", "current_trial": 104, "dateTime": 1664368270150, "trialdata": {"rt": 1167, "stimulus": "<p id='stroop-text' class='stroop-red'>YELLOW</p>", "response": "r", "stimulus-type": "incongruent", "word": "yellow", "color": "red", "correct_response": "r", "trial_id": "stroop-trial-1-incongruent-5", "trial_type": "html-keyboard-response", "trial_index": 104, "time_elapsed": 270237, "internal_node_id": "0.0-6.0-9.0"}}, {"uniqueid": "w11278443:a48521321", "current_trial": 105, "dateTime": 1664368271795, "trialdata": {"rt": 1140, "stimulus": "<p id='stroop-text' class='stroop-green'>GREEN</p>", "response": "g", "stimulus-type": "congruent", "word": "green", "color": "green", "correct_response": "g", "trial_id": "stroop-trial-1-congruent-2", "trial_type": "html-keyboard-response", "trial_index": 105, "time_elapsed": 271881, "internal_node_id": "0.0-6.0-10.0"}}, {"uniqueid": "w11278443:a48521321", "current_trial": 106, "dateTime": 1664368273141, "trialdata": {"rt": 842, "stimulus": "<p id='stroop-text' class='stroop-yellow'>YELLOW</p>", "response": "y", "stimulus-type": "congruent", "word": "yellow", "color": "yellow", "correct_response": "y", "trial_id": "stroop-trial-1-congruent-16", "trial_type": "html-keyboard-response", "trial_index": 106, "time_elapsed": 273228, "internal_node_id": "0.0-6.0-11.0"}}, {"uniqueid": "w11278443:a48521321", "current_trial": 107, "dateTime": 1664368274384, "trialdata": {"rt": 737, "stimulus": "<p id='stroop-text' class='stroop-green'>RED</p>", "response": "g", "stimulus-type": "incongruent", "word": "red", "color": "green", "correct_response": "g", "trial_id": "stroop-trial-1-incongruent-3", "trial_type": "html-keyboard-response", "trial_index": 107, "time_elapsed": 274470, "internal_node_id": "0.0-6.0-12.0"}}, {"uniqueid": "w11278443:a48521321", "current_trial": 108, "dateTime": 1664368275895, "trialdata": {"rt": 1007, "stimulus": "<p id='stroop-text' class='stroop-yellow'>GREEN</p>", "response": "y", "stimulus-type": "incongruent", "word": "green", "color": "yellow", "correct_response": "y", "trial_id": "stroop-trial-1-incongruent-17", "trial_type": "html-keyboard-response", "trial_index": 108, "time_elapsed": 275981, "internal_node_id": "0.0-6.0-13.0"}}, {"uniqueid": "w11278443:a48521321", "current_trial": 109, "dateTime": 1664368277373, "trialdata": {"rt": 973, "stimulus": "<p id='stroop-text' class='stroop-green'>BLUE</p>", "response": "g", "stimulus-type": "incongruent", "word": "blue", "color": "green", "correct_response": "g", "trial_id": "stroop-trial-1-incongruent-27", "trial_type": "html-keyboard-response", "trial_index": 109, "time_elapsed": 277460, "internal_node_id": "0.0-6.0-14.0"}}, {"uniqueid": "w11278443:a48521321", "current_trial": 110, "dateTime": 1664368278657, "trialdata": {"rt": 776, "stimulus": "<p id='stroop-text' class='stroop-blue'>BLUE</p>", "response": "b", "stimulus-type": "congruent", "word": "blue", "color": "blue", "correct_response": "b", "trial_id": "stroop-trial-1-congruent-13", "trial_type": "html-keyboard-response", "trial_index": 110, "time_elapsed": 278743, "internal_node_id": "0.0-6.0-15.0"}}, {"uniqueid": "w11278443:a48521321", "current_trial": 111, "dateTime": 1664368280127, "trialdata": {"rt": 965, "stimulus": "<p id='stroop-text' class='stroop-yellow'>FORK</p>", "response": "y", "stimulus-type": "unrelated", "word": "FORK", "color": "yellow", "correct_response": "y", "trial_id": "stroop-trial-1-unrelated-18", "trial_type": "html-keyboard-response", "trial_index": 111, "time_elapsed": 280213, "internal_node_id": "0.0-6.0-16.0"}}, {"uniqueid": "w11278443:a48521321", "current_trial": 112, "dateTime": 1664368281724, "trialdata": {"rt": 1089, "stimulus": "<p id='stroop-text' class='stroop-blue'>WINDOW</p>", "response": "b", "stimulus-type": "unrelated", "word": "WINDOW", "color": "blue", "correct_response": "b", "trial_id": "stroop-trial-1-unrelated-27", "trial_type": "html-keyboard-response", "trial_index": 112, "time_elapsed": 281810, "internal_node_id": "0.0-6.0-17.0"}}, {"uniqueid": "w11278443:a48521321", "current_trial": 113, "dateTime": 1664368283015, "trialdata": {"rt": 784, "stimulus": "<p id='stroop-text' class='stroop-blue'>BLUE</p>", "response": "b", "stimulus-type": "congruent", "word": "blue", "color": "blue", "correct_response": "b", "trial_id": "stroop-trial-1-congruent-8", "trial_type": "html-keyboard-response", "trial_index": 113, "time_elapsed": 283101, "internal_node_id": "0.0-6.0-18.0"}}, {"uniqueid": "w11278443:a48521321", "current_trial": 114, "dateTime": 1664368284622, "trialdata": {"rt": 1102, "stimulus": "<p id='stroop-text' class='stroop-red'>BOTTLE</p>", "response": "r", "stimulus-type": "unrelated", "word": "BOTTLE", "color": "red", "correct_response": "r", "trial_id": "stroop-trial-1-unrelated-4", "trial_type": "html-keyboard-response", "trial_index": 114, "time_elapsed": 284708, "internal_node_id": "0.0-6.0-19.0"}}, {"uniqueid": "w11278443:a48521321", "current_trial": 115, "dateTime": 1664368286008, "trialdata": {"rt": 881, "stimulus": "<p id='stroop-text' class='stroop-red'>RED</p>", "response": "r", "stimulus-type": "congruent", "word": "red", "color": "red", "correct_response": "r", "trial_id": "stroop-trial-1-congruent-3", "trial_type": "html-keyboard-response", "trial_index": 115, "time_elapsed": 286095, "internal_node_id": "0.0-6.0-20.0"}}, {"uniqueid": "w11278443:a48521321", "current_trial": 116, "dateTime": 1664368287314, "trialdata": {"rt": 802, "stimulus": "<p id='stroop-text' class='stroop-red'>BRIDGE</p>", "response": "r", "stimulus-type": "unrelated", "word": "BRIDGE", "color": "red", "correct_response": "r", "trial_id": "stroop-trial-1-unrelated-13", "trial_type": "html-keyboard-response", "trial_index": 116, "time_elapsed": 287400, "internal_node_id": "0.0-6.0-21.0"}}, {"uniqueid": "w11278443:a48521321", "current_trial": 117, "dateTime": 1664368289061, "trialdata": {"rt": 1238, "stimulus": "<p id='stroop-text' class='stroop-yellow'>YELLOW</p>", "response": "y", "stimulus-type": "congruent", "word": "yellow", "color": "yellow", "correct_response": "y", "trial_id": "stroop-trial-1-congruent-18", "trial_type": "html-keyboard-response", "trial_index": 117, "time_elapsed": 289147, "internal_node_id": "0.0-6.0-22.0"}}, {"uniqueid": "w11278443:a48521321", "current_trial": 118, "dateTime": 1664368290459, "trialdata": {"rt": 895, "stimulus": "<p id='stroop-text' class='stroop-blue'>GREEN</p>", "response": "b", "stimulus-type": "incongruent", "word": "green", "color": "blue", "correct_response": "b", "trial_id": "stroop-trial-1-incongruent-9", "trial_type": "html-keyboard-response", "trial_index": 118, "time_elapsed": 290545, "internal_node_id": "0.0-6.0-23.0"}}, {"uniqueid": "w11278443:a48521321", "current_trial": 119, "dateTime": 1664368291602, "trialdata": {"rt": 638, "stimulus": "<p id='stroop-text' class='stroop-red'>RED</p>", "response": "r", "stimulus-type": "congruent", "word": "red", "color": "red", "correct_response": "r", "trial_id": "stroop-trial-1-congruent-23", "trial_type": "html-keyboard-response", "trial_index": 119, "time_elapsed": 291688, "internal_node_id": "0.0-6.0-24.0"}}, {"uniqueid": "w11278443:a48521321", "current_trial": 120, "dateTime": 1664368293220, "trialdata": {"rt": 1112, "stimulus": "<p id='stroop-text' class='stroop-green'>BLUE</p>", "response": "g", "stimulus-type": "incongruent", "word": "blue", "color": "green", "correct_response": "g", "trial_id": "stroop-trial-1-incongruent-23", "trial_type": "html-keyboard-response", "trial_index": 120, "time_elapsed": 293306, "internal_node_id": "0.0-6.0-25.0"}}, {"uniqueid": "w11278443:a48521321", "current_trial": 121, "dateTime": 1664368294827, "trialdata": {"rt": 1101, "stimulus": "<p id='stroop-text' class='stroop-green'>BOAT</p>", "response": "g", "stimulus-type": "unrelated", "word": "BOAT", "color": "green", "correct_response": "g", "trial_id": "stroop-trial-1-unrelated-6", "trial_type": "html-keyboard-response", "trial_index": 121, "time_elapsed": 294914, "internal_node_id": "0.0-6.0-26.0"}}, {"uniqueid": "w11278443:a48521321", "current_trial": 122, "dateTime": 1664368296516, "trialdata": {"rt": 1185, "stimulus": "<p id='stroop-text' class='stroop-blue'>BLUE</p>", "response": "b", "stimulus-type": "congruent", "word": "blue", "color": "blue", "correct_response": "b", "trial_id": "stroop-trial-1-congruent-7", "trial_type": "html-keyboard-response", "trial_index": 122, "time_elapsed": 296602, "internal_node_id": "0.0-6.0-27.0"}}, {"uniqueid": "w11278443:a48521321", "current_trial": 123, "dateTime": 1664368297649, "trialdata": {"rt": 630, "stimulus": "<p id='stroop-text' class='stroop-blue'>BLUE</p>", "response": "b", "stimulus-type": "congruent", "word": "blue", "color": "blue", "correct_response": "b", "trial_id": "stroop-trial-1-congruent-30", "trial_type": "html-keyboard-response", "trial_index": 123, "time_elapsed": 297736, "internal_node_id": "0.0-6.0-28.0"}}, {"uniqueid": "w11278443:a48521321", "current_trial": 124, "dateTime": 1664368299075, "trialdata": {"rt": 920, "stimulus": "<p id='stroop-text' class='stroop-yellow'>YELLOW</p>", "response": "y", "stimulus-type": "congruent", "word": "yellow", "color": "yellow", "correct_response": "y", "trial_id": "stroop-trial-1-congruent-22", "trial_type": "html-keyboard-response", "trial_index": 124, "time_elapsed": 299162, "internal_node_id": "0.0-6.0-29.0"}}, {"uniqueid": "w11278443:a48521321", "current_trial": 125, "dateTime": 1664368300311, "trialdata": {"rt": 731, "stimulus": "<p id='stroop-text' class='stroop-green'>WINDOW</p>", "response": "g", "stimulus-type": "unrelated", "word": "WINDOW", "color": "green", "correct_response": "g", "trial_id": "stroop-trial-1-unrelated-30", "trial_type": "html-keyboard-response", "trial_index": 125, "time_elapsed": 300398, "internal_node_id": "0.0-6.0-30.0"}}, {"uniqueid": "w11278443:a48521321", "current_trial": 126, "dateTime": 1664368301635, "trialdata": {"rt": 820, "stimulus": "<p id='stroop-text' class='stroop-blue'>YELLOW</p>", "response": "b", "stimulus-type": "incongruent", "word": "yellow", "color": "blue", "correct_response": "b", "trial_id": "stroop-trial-1-incongruent-30", "trial_type": "html-keyboard-response", "trial_index": 126, "time_elapsed": 301721, "internal_node_id": "0.0-6.0-31.0"}}, {"uniqueid": "w11278443:a48521321", "current_trial": 127, "dateTime": 1664368302857, "trialdata": {"rt": 717, "stimulus": "<p id='stroop-text' class='stroop-yellow'>YELLOW</p>", "response": "y", "stimulus-type": "congruent", "word": "yellow", "color": "yellow", "correct_response": "y", "trial_id": "stroop-trial-1-congruent-6", "trial_type": "html-keyboard-response", "trial_index": 127, "time_elapsed": 302944, "internal_node_id": "0.0-6.0-32.0"}}, {"uniqueid": "w11278443:a48521321", "current_trial": 128, "dateTime": 1664368304094, "trialdata": {"rt": 733, "stimulus": "<p id='stroop-text' class='stroop-red'>SHIP</p>", "response": "r", "stimulus-type": "unrelated", "word": "SHIP", "color": "red", "correct_response": "r", "trial_id": "stroop-trial-1-unrelated-15", "trial_type": "html-keyboard-response", "trial_index": 128, "time_elapsed": 304181, "internal_node_id": "0.0-6.0-33.0"}}, {"uniqueid": "w11278443:a48521321", "current_trial": 129, "dateTime": 1664368306630, "trialdata": {"rt": 2030, "stimulus": "<p id='stroop-text' class='stroop-blue'>YELLOW</p>", "response": "b", "stimulus-type": "incongruent", "word": "yellow", "color": "blue", "correct_response": "b", "trial_id": "stroop-trial-1-incongruent-22", "trial_type": "html-keyboard-response", "trial_index": 129, "time_elapsed": 306716, "internal_node_id": "0.0-6.0-34.0"}}, {"uniqueid": "w11278443:a48521321", "current_trial": 130, "dateTime": 1664368308252, "trialdata": {"rt": 1117, "stimulus": "<p id='stroop-text' class='stroop-blue'>RED</p>", "response": "b", "stimulus-type": "incongruent", "word": "red", "color": "blue", "correct_response": "b", "trial_id": "stroop-trial-1-incongruent-2", "trial_type": "html-keyboard-response", "trial_index": 130, "time_elapsed": 308338, "internal_node_id": "0.0-6.0-35.0"}}, {"uniqueid": "w11278443:a48521321", "current_trial": 131, "dateTime": 1664368309283, "trialdata": {"rt": 529, "stimulus": "<p id='stroop-text' class='stroop-blue'>BLUE</p>", "response": "b", "stimulus-type": "congruent", "word": "blue", "color": "blue", "correct_response": "b", "trial_id": "stroop-trial-1-congruent-4", "trial_type": "html-keyboard-response", "trial_index": 131, "time_elapsed": 309370, "internal_node_id": "0.0-6.0-36.0"}}, {"uniqueid": "w11278443:a48521321", "current_trial": 132, "dateTime": 1664368310427, "trialdata": {"rt": 640, "stimulus": "<p id='stroop-text' class='stroop-red'>FORK</p>", "response": "r", "stimulus-type": "unrelated", "word": "FORK", "color": "red", "correct_response": "r", "trial_id": "stroop-trial-1-unrelated-17", "trial_type": "html-keyboard-response", "trial_index": 132, "time_elapsed": 310513, "internal_node_id": "0.0-6.0-37.0"}}, {"uniqueid": "w11278443:a48521321", "current_trial": 133, "dateTime": 1664368311620, "trialdata": {"rt": 688, "stimulus": "<p id='stroop-text' class='stroop-green'>GREEN</p>", "response": "g", "stimulus-type": "congruent", "word": "green", "color": "green", "correct_response": "g", "trial_id": "stroop-trial-1-congruent-12", "trial_type": "html-keyboard-response", "trial_index": 133, "time_elapsed": 311706, "internal_node_id": "0.0-6.0-38.0"}}, {"uniqueid": "w11278443:a48521321", "current_trial": 134, "dateTime": 1664368312975, "trialdata": {"rt": 849, "stimulus": "<p id='stroop-text' class='stroop-blue'>BOAT</p>", "response": "b", "stimulus-type": "unrelated", "word": "BOAT", "color": "blue", "correct_response": "b", "trial_id": "stroop-trial-1-unrelated-5", "trial_type": "html-keyboard-response", "trial_index": 134, "time_elapsed": 313062, "internal_node_id": "0.0-6.0-39.0"}}, {"uniqueid": "w11278443:a48521321", "current_trial": 135, "dateTime": 1664368314068, "trialdata": {"rt": 586, "stimulus": "<p id='stroop-text' class='stroop-blue'>BLUE</p>", "response": "b", "stimulus-type": "congruent", "word": "blue", "color": "blue", "correct_response": "b", "trial_id": "stroop-trial-1-congruent-14", "trial_type": "html-keyboard-response", "trial_index": 135, "time_elapsed": 314154, "internal_node_id": "0.0-6.0-40.0"}}, {"uniqueid": "w11278443:a48521321", "current_trial": 136, "dateTime": 1664368315266, "trialdata": {"rt": 693, "stimulus": "<p id='stroop-text' class='stroop-red'>RED</p>", "response": "r", "stimulus-type": "congruent", "word": "red", "color": "red", "correct_response": "r", "trial_id": "stroop-trial-1-congruent-10", "trial_type": "html-keyboard-response", "trial_index": 136, "time_elapsed": 315352, "internal_node_id": "0.0-6.0-41.0"}}, {"uniqueid": "w11278443:a48521321", "current_trial": 137, "dateTime": 1664368316207, "trialdata": {"rt": 433, "stimulus": "<p id='stroop-text' class='stroop-red'>YELLOW</p>", "response": "r", "stimulus-type": "incongruent", "word": "yellow", "color": "red", "correct_response": "r", "trial_id": "stroop-trial-1-incongruent-20", "trial_type": "html-keyboard-response", "trial_index": 137, "time_elapsed": 316294, "internal_node_id": "0.0-6.0-42.0"}}, {"uniqueid": "w11278443:a48521321", "current_trial": 138, "dateTime": 1664368317301, "trialdata": {"rt": 589, "stimulus": "<p id='stroop-text' class='stroop-red'>RED</p>", "response": "r", "stimulus-type": "congruent", "word": "red", "color": "red", "correct_response": "r", "trial_id": "stroop-trial-1-congruent-26", "trial_type": "html-keyboard-response", "trial_index": 138, "time_elapsed": 317388, "internal_node_id": "0.0-6.0-43.0"}}, {"uniqueid": "w11278443:a48521321", "current_trial": 139, "dateTime": 1664368318393, "trialdata": {"rt": 587, "stimulus": "<p id='stroop-text' class='stroop-green'>BLUE</p>", "response": "g", "stimulus-type": "incongruent", "word": "blue", "color": "green", "correct_response": "g", "trial_id": "stroop-trial-1-incongruent-12", "trial_type": "html-keyboard-response", "trial_index": 139, "time_elapsed": 318480, "internal_node_id": "0.0-6.0-44.0"}}, {"uniqueid": "w11278443:a48521321", "current_trial": 140, "dateTime": 1664368319526, "trialdata": {"rt": 624, "stimulus": "<p id='stroop-text' class='stroop-green'>RED</p>", "response": "g", "stimulus-type": "incongruent", "word": "red", "color": "green", "correct_response": "g", "trial_id": "stroop-trial-1-incongruent-15", "trial_type": "html-keyboard-response", "trial_index": 140, "time_elapsed": 319612, "internal_node_id": "0.0-6.0-45.0"}}, {"uniqueid": "w11278443:a48521321", "current_trial": 141, "dateTime": 1664368321145, "trialdata": {"rt": 1114, "stimulus": "<p id='stroop-text' class='stroop-red'>MONKEY</p>", "response": "r", "stimulus-type": "unrelated", "word": "MONKEY", "color": "red", "correct_response": "r", "trial_id": "stroop-trial-1-unrelated-19", "trial_type": "html-keyboard-response", "trial_index": 141, "time_elapsed": 321231, "internal_node_id": "0.0-6.0-46.0"}}, {"uniqueid": "w11278443:a48521321", "current_trial": 142, "dateTime": 1664368322420, "trialdata": {"rt": 767, "stimulus": "<p id='stroop-text' class='stroop-blue'>GREEN</p>", "response": "b", "stimulus-type": "incongruent", "word": "green", "color": "blue", "correct_response": "b", "trial_id": "stroop-trial-1-incongruent-8", "trial_type": "html-keyboard-response", "trial_index": 142, "time_elapsed": 322507, "internal_node_id": "0.0-6.0-47.0"}}, {"uniqueid": "w11278443:a48521321", "current_trial": 143, "dateTime": 1664368326009, "trialdata": {"rt": 3084, "stimulus": "<p id='stroop-text' class='stroop-green'>SHIP</p>", "response": "g", "stimulus-type": "unrelated", "word": "SHIP", "color": "green", "correct_response": "g", "trial_id": "stroop-trial-1-unrelated-14", "trial_type": "html-keyboard-response", "trial_index": 143, "time_elapsed": 326096, "internal_node_id": "0.0-6.0-48.0"}}, {"uniqueid": "w11278443:a48521321", "current_trial": 144, "dateTime": 1664368327538, "trialdata": {"rt": 1022, "stimulus": "<p id='stroop-text' class='stroop-blue'>YELLOW</p>", "response": "b", "stimulus-type": "incongruent", "word": "yellow", "color": "blue", "correct_response": "b", "trial_id": "stroop-trial-1-incongruent-14", "trial_type": "html-keyboard-response", "trial_index": 144, "time_elapsed": 327624, "internal_node_id": "0.0-6.0-49.0"}}, {"uniqueid": "w11278443:a48521321", "current_trial": 145, "dateTime": 1664368329388, "trialdata": {"rt": 1344, "stimulus": "<p id='stroop-text' class='stroop-yellow'>DOG</p>", "response": "y", "stimulus-type": "unrelated", "word": "DOG", "color": "yellow", "correct_response": "y", "trial_id": "stroop-trial-1-unrelated-2", "trial_type": "html-keyboard-response", "trial_index": 145, "time_elapsed": 329474, "internal_node_id": "0.0-6.0-50.0"}}, {"uniqueid": "w11278443:a48521321", "current_trial": 146, "dateTime": 1664368330702, "trialdata": {"rt": 806, "stimulus": "<p id='stroop-text' class='stroop-blue'>BLUE</p>", "response": "b", "stimulus-type": "congruent", "word": "blue", "color": "blue", "correct_response": "b", "trial_id": "stroop-trial-1-congruent-9", "trial_type": "html-keyboard-response", "trial_index": 146, "time_elapsed": 330788, "internal_node_id": "0.0-6.0-51.0"}}, {"uniqueid": "w11278443:a48521321", "current_trial": 147, "dateTime": 1664368332199, "trialdata": {"rt": 992, "stimulus": "<p id='stroop-text' class='stroop-green'>GREEN</p>", "response": "g", "stimulus-type": "congruent", "word": "green", "color": "green", "correct_response": "g", "trial_id": "stroop-trial-1-congruent-15", "trial_type": "html-keyboard-response", "trial_index": 147, "time_elapsed": 332286, "internal_node_id": "0.0-6.0-52.0"}}, {"uniqueid": "w11278443:a48521321", "current_trial": 148, "dateTime": 1664368333425, "trialdata": {"rt": 720, "stimulus": "<p id='stroop-text' class='stroop-green'>MONKEY</p>", "response": "g", "stimulus-type": "unrelated", "word": "MONKEY", "color": "green", "correct_response": "g", "trial_id": "stroop-trial-1-unrelated-11", "trial_type": "html-keyboard-response", "trial_index": 148, "time_elapsed": 333511, "internal_node_id": "0.0-6.0-53.0"}}, {"uniqueid": "w11278443:a48521321", "current_trial": 149, "dateTime": 1664368334870, "trialdata": {"rt": 939, "stimulus": "<p id='stroop-text' class='stroop-red'>GREEN</p>", "response": "r", "stimulus-type": "incongruent", "word": "green", "color": "red", "correct_response": "r", "trial_id": "stroop-trial-1-incongruent-19", "trial_type": "html-keyboard-response", "trial_index": 149, "time_elapsed": 334957, "internal_node_id": "0.0-6.0-54.0"}}, {"uniqueid": "w11278443:a48521321", "current_trial": 150, "dateTime": 1664368336117, "trialdata": {"rt": 742, "stimulus": "<p id='stroop-text' class='stroop-red'>WINDOW</p>", "response": "r", "stimulus-type": "unrelated", "word": "WINDOW", "color": "red", "correct_response": "r", "trial_id": "stroop-trial-1-unrelated-3", "trial_type": "html-keyboard-response", "trial_index": 150, "time_elapsed": 336203, "internal_node_id": "0.0-6.0-55.0"}}, {"uniqueid": "w11278443:a48521321", "current_trial": 151, "dateTime": 1664368338993, "trialdata": {"rt": 2370, "stimulus": "<p id='stroop-text' class='stroop-blue'>YELLOW</p>", "response": "b", "stimulus-type": "incongruent", "word": "yellow", "color": "blue", "correct_response": "b", "trial_id": "stroop-trial-1-incongruent-7", "trial_type": "html-keyboard-response", "trial_index": 151, "time_elapsed": 339079, "internal_node_id": "0.0-6.0-56.0"}}, {"uniqueid": "w11278443:a48521321", "current_trial": 152, "dateTime": 1664368340241, "trialdata": {"rt": 742, "stimulus": "<p id='stroop-text' class='stroop-blue'>BLUE</p>", "response": "b", "stimulus-type": "congruent", "word": "blue", "color": "blue", "correct_response": "b", "trial_id": "stroop-trial-1-congruent-24", "trial_type": "html-keyboard-response", "trial_index": 152, "time_elapsed": 340327, "internal_node_id": "0.0-6.0-57.0"}}, {"uniqueid": "w11278443:a48521321", "current_trial": 153, "dateTime": 1664368341354, "trialdata": {"rt": 605, "stimulus": "<p id='stroop-text' class='stroop-green'>GREEN</p>", "response": "g", "stimulus-type": "congruent", "word": "green", "color": "green", "correct_response": "g", "trial_id": "stroop-trial-1-congruent-25", "trial_type": "html-keyboard-response", "trial_index": 153, "time_elapsed": 341440, "internal_node_id": "0.0-6.0-58.0"}}, {"uniqueid": "w11278443:a48521321", "current_trial": 154, "dateTime": 1664368342436, "trialdata": {"rt": 575, "stimulus": "<p id='stroop-text' class='stroop-green'>BRAIN</p>", "response": "g", "stimulus-type": "unrelated", "word": "BRAIN", "color": "green", "correct_response": "g", "trial_id": "stroop-trial-1-unrelated-25", "trial_type": "html-keyboard-response", "trial_index": 154, "time_elapsed": 342522, "internal_node_id": "0.0-6.0-59.0"}}, {"uniqueid": "w11278443:a48521321", "current_trial": 155, "dateTime": 1664368343982, "trialdata": {"rt": 1040, "stimulus": "<p id='stroop-text' class='stroop-yellow'>YELLOW</p>", "response": "y", "stimulus-type": "congruent", "word": "yellow", "color": "yellow", "correct_response": "y", "trial_id": "stroop-trial-1-congruent-11", "trial_type": "html-keyboard-response", "trial_index": 155, "time_elapsed": 344068, "internal_node_id": "0.0-6.0-60.0"}}, {"uniqueid": "w11278443:a48521321", "current_trial": 156, "dateTime": 1664368346322, "trialdata": {"rt": 1834, "stimulus": "<p id='stroop-text' class='stroop-green'>FORK</p>", "response": "g", "stimulus-type": "unrelated", "word": "FORK", "color": "green", "correct_response": "g", "trial_id": "stroop-trial-1-unrelated-1", "trial_type": "html-keyboard-response", "trial_index": 156, "time_elapsed": 346408, "internal_node_id": "0.0-6.0-61.0"}}, {"uniqueid": "w11278443:a48521321", "current_trial": 157, "dateTime": 1664368347627, "trialdata": {"rt": 796, "stimulus": "<p id='stroop-text' class='stroop-blue'>YELLOW</p>", "response": "b", "stimulus-type": "incongruent", "word": "yellow", "color": "blue", "correct_response": "b", "trial_id": "stroop-trial-1-incongruent-29", "trial_type": "html-keyboard-response", "trial_index": 157, "time_elapsed": 347713, "internal_node_id": "0.0-6.0-62.0"}}, {"uniqueid": "w11278443:a48521321", "current_trial": 158, "dateTime": 1664368348710, "trialdata": {"rt": 576, "stimulus": "<p id='stroop-text' class='stroop-blue'>BLUE</p>", "response": "b", "stimulus-type": "congruent", "word": "blue", "color": "blue", "correct_response": "b", "trial_id": "stroop-trial-1-congruent-17", "trial_type": "html-keyboard-response", "trial_index": 158, "time_elapsed": 348796, "internal_node_id": "0.0-6.0-63.0"}}, {"uniqueid": "w11278443:a48521321", "current_trial": 159, "dateTime": 1664368351564, "trialdata": {"rt": 2347, "stimulus": "<p id='stroop-text' class='stroop-red'>YELLOW</p>", "response": "r", "stimulus-type": "incongruent", "word": "yellow", "color": "red", "correct_response": "r", "trial_id": "stroop-trial-1-incongruent-16", "trial_type": "html-keyboard-response", "trial_index": 159, "time_elapsed": 351651, "internal_node_id": "0.0-6.0-64.0"}}, {"uniqueid": "w11278443:a48521321", "current_trial": 160, "dateTime": 1664368352880, "trialdata": {"rt": 804, "stimulus": "<p id='stroop-text' class='stroop-yellow'>YELLOW</p>", "response": "y", "stimulus-type": "congruent", "word": "yellow", "color": "yellow", "correct_response": "y", "trial_id": "stroop-trial-1-congruent-29", "trial_type": "html-keyboard-response", "trial_index": 160, "time_elapsed": 352966, "internal_node_id": "0.0-6.0-65.0"}}, {"uniqueid": "w11278443:a48521321", "current_trial": 161, "dateTime": 1664368354144, "trialdata": {"rt": 758, "stimulus": "<p id='stroop-text' class='stroop-blue'>RED</p>", "response": "b", "stimulus-type": "incongruent", "word": "red", "color": "blue", "correct_response": "b", "trial_id": "stroop-trial-1-incongruent-1", "trial_type": "html-keyboard-response", "trial_index": 161, "time_elapsed": 354230, "internal_node_id": "0.0-6.0-66.0"}}, {"uniqueid": "w11278443:a48521321", "current_trial": 162, "dateTime": 1664368355362, "trialdata": {"rt": 712, "stimulus": "<p id='stroop-text' class='stroop-red'>BLUE</p>", "response": "r", "stimulus-type": "incongruent", "word": "blue", "color": "red", "correct_response": "r", "trial_id": "stroop-trial-1-incongruent-28", "trial_type": "html-keyboard-response", "trial_index": 162, "time_elapsed": 355449, "internal_node_id": "0.0-6.0-67.0"}}, {"uniqueid": "w11278443:a48521321", "current_trial": 163, "dateTime": 1664368357080, "trialdata": {"rt": 1211, "stimulus": "<p id='stroop-text' class='stroop-red'>MONKEY</p>", "response": "r", "stimulus-type": "unrelated", "word": "MONKEY", "color": "red", "correct_response": "r", "trial_id": "stroop-trial-1-unrelated-26", "trial_type": "html-keyboard-response", "trial_index": 163, "time_elapsed": 357166, "internal_node_id": "0.0-6.0-68.0"}}, {"uniqueid": "w11278443:a48521321", "current_trial": 164, "dateTime": 1664368358298, "trialdata": {"rt": 708, "stimulus": "<p id='stroop-text' class='stroop-red'>FORK</p>", "response": "r", "stimulus-type": "unrelated", "word": "FORK", "color": "red", "correct_response": "r", "trial_id": "stroop-trial-1-unrelated-21", "trial_type": "html-keyboard-response", "trial_index": 164, "time_elapsed": 358384, "internal_node_id": "0.0-6.0-69.0"}}, {"uniqueid": "w11278443:a48521321", "current_trial": 165, "dateTime": 1664368359492, "trialdata": {"rt": 688, "stimulus": "<p id='stroop-text' class='stroop-red'>DOG</p>", "response": "r", "stimulus-type": "unrelated", "word": "DOG", "color": "red", "correct_response": "r", "trial_id": "stroop-trial-1-unrelated-20", "trial_type": "html-keyboard-response", "trial_index": 165, "time_elapsed": 359579, "internal_node_id": "0.0-6.0-70.0"}}, {"uniqueid": "w11278443:a48521321", "current_trial": 166, "dateTime": 1664368361082, "trialdata": {"rt": 1084, "stimulus": "<p id='stroop-text' class='stroop-red'>BLUE</p>", "response": "r", "stimulus-type": "incongruent", "word": "blue", "color": "red", "correct_response": "r", "trial_id": "stroop-trial-1-incongruent-6", "trial_type": "html-keyboard-response", "trial_index": 166, "time_elapsed": 361168, "internal_node_id": "0.0-6.0-71.0"}}, {"uniqueid": "w11278443:a48521321", "current_trial": 167, "dateTime": 1664368362124, "trialdata": {"rt": 535, "stimulus": "<p id='stroop-text' class='stroop-red'>BRAIN</p>", "response": "r", "stimulus-type": "unrelated", "word": "BRAIN", "color": "red", "correct_response": "r", "trial_id": "stroop-trial-1-unrelated-24", "trial_type": "html-keyboard-response", "trial_index": 167, "time_elapsed": 362210, "internal_node_id": "0.0-6.0-72.0"}}, {"uniqueid": "w11278443:a48521321", "current_trial": 168, "dateTime": 1664368363074, "trialdata": {"rt": 442, "stimulus": "<p id='stroop-text' class='stroop-red'>RED</p>", "response": "r", "stimulus-type": "congruent", "word": "red", "color": "red", "correct_response": "r", "trial_id": "stroop-trial-1-congruent-20", "trial_type": "html-keyboard-response", "trial_index": 168, "time_elapsed": 363161, "internal_node_id": "0.0-6.0-73.0"}}, {"uniqueid": "w11278443:a48521321", "current_trial": 169, "dateTime": 1664368364370, "trialdata": {"rt": 790, "stimulus": "<p id='stroop-text' class='stroop-yellow'>RED</p>", "response": "y", "stimulus-type": "incongruent", "word": "red", "color": "yellow", "correct_response": "y", "trial_id": "stroop-trial-1-incongruent-11", "trial_type": "html-keyboard-response", "trial_index": 169, "time_elapsed": 364456, "internal_node_id": "0.0-6.0-74.0"}}, {"uniqueid": "w11278443:a48521321", "current_trial": 170, "dateTime": 1664368365406, "trialdata": {"rt": 531, "stimulus": "<p id='stroop-text' class='stroop-red'>GREEN</p>", "response": "r", "stimulus-type": "incongruent", "word": "green", "color": "red", "correct_response": "r", "trial_id": "stroop-trial-1-incongruent-26", "trial_type": "html-keyboard-response", "trial_index": 170, "time_elapsed": 365493, "internal_node_id": "0.0-6.0-75.0"}}, {"uniqueid": "w11278443:a48521321", "current_trial": 171, "dateTime": 1664368366610, "trialdata": {"rt": 697, "stimulus": "<p id='stroop-text' class='stroop-red'>SHIP</p>", "response": "y", "stimulus-type": "unrelated", "word": "SHIP", "color": "red", "correct_response": "r", "trial_id": "stroop-trial-1-unrelated-10", "trial_type": "html-keyboard-response", "trial_index": 171, "time_elapsed": 366696, "internal_node_id": "0.0-6.0-76.0"}}, {"uniqueid": "w11278443:a48521321", "current_trial": 172, "dateTime": 1664368368996, "trialdata": {"rt": 1877, "stimulus": "<p id='stroop-text' class='stroop-yellow'>RED</p>", "response": "y", "stimulus-type": "incongruent", "word": "red", "color": "yellow", "correct_response": "y", "trial_id": "stroop-trial-1-incongruent-25", "trial_type": "html-keyboard-response", "trial_index": 172, "time_elapsed": 369083, "internal_node_id": "0.0-6.0-77.0"}}, {"uniqueid": "w11278443:a48521321", "current_trial": 173, "dateTime": 1664368370112, "trialdata": {"rt": 610, "stimulus": "<p id='stroop-text' class='stroop-blue'>BLUE</p>", "response": "b", "stimulus-type": "congruent", "word": "blue", "color": "blue", "correct_response": "b", "trial_id": "stroop-trial-1-congruent-21", "trial_type": "html-keyboard-response", "trial_index": 173, "time_elapsed": 370198, "internal_node_id": "0.0-6.0-78.0"}}, {"uniqueid": "w11278443:a48521321", "current_trial": 174, "dateTime": 1664368371254, "trialdata": {"rt": 635, "stimulus": "<p id='stroop-text' class='stroop-blue'>SHIP</p>", "response": "b", "stimulus-type": "unrelated", "word": "SHIP", "color": "blue", "correct_response": "b", "trial_id": "stroop-trial-1-unrelated-8", "trial_type": "html-keyboard-response", "trial_index": 174, "time_elapsed": 371341, "internal_node_id": "0.0-6.0-79.0"}}, {"uniqueid": "w11278443:a48521321", "current_trial": 175, "dateTime": 1664368372338, "trialdata": {"rt": 577, "stimulus": "<p id='stroop-text' class='stroop-blue'>BRIDGE</p>", "response": "b", "stimulus-type": "unrelated", "word": "BRIDGE", "color": "blue", "correct_response": "b", "trial_id": "stroop-trial-1-unrelated-7", "trial_type": "html-keyboard-response", "trial_index": 175, "time_elapsed": 372424, "internal_node_id": "0.0-6.0-80.0"}}, {"uniqueid": "w11278443:a48521321", "current_trial": 176, "dateTime": 1664368373613, "trialdata": {"rt": 766, "stimulus": "<p id='stroop-text' class='stroop-yellow'>YELLOW</p>", "response": "y", "stimulus-type": "congruent", "word": "yellow", "color": "yellow", "correct_response": "y", "trial_id": "stroop-trial-1-congruent-28", "trial_type": "html-keyboard-response", "trial_index": 176, "time_elapsed": 373699, "internal_node_id": "0.0-6.0-81.0"}}, {"uniqueid": "w11278443:a48521321", "current_trial": 177, "dateTime": 1664368374717, "trialdata": {"rt": 598, "stimulus": "<p id='stroop-text' class='stroop-yellow'>YELLOW</p>", "response": "y", "stimulus-type": "congruent", "word": "yellow", "color": "yellow", "correct_response": "y", "trial_id": "stroop-trial-1-congruent-27", "trial_type": "html-keyboard-response", "trial_index": 177, "time_elapsed": 374803, "internal_node_id": "0.0-6.0-82.0"}}, {"uniqueid": "w11278443:a48521321", "current_trial": 178, "dateTime": 1664368376520, "trialdata": {"rt": 1297, "stimulus": "<p id='stroop-text' class='stroop-green'>BRAIN</p>", "response": "g", "stimulus-type": "unrelated", "word": "BRAIN", "color": "green", "correct_response": "g", "trial_id": "stroop-trial-1-unrelated-23", "trial_type": "html-keyboard-response", "trial_index": 178, "time_elapsed": 376606, "internal_node_id": "0.0-6.0-83.0"}}, {"uniqueid": "w11278443:a48521321", "current_trial": 179, "dateTime": 1664368379485, "trialdata": {"rt": 2455, "stimulus": "<p id='stroop-text' class='stroop-blue'>YELLOW</p>", "response": "b", "stimulus-type": "incongruent", "word": "yellow", "color": "blue", "correct_response": "b", "trial_id": "stroop-trial-1-incongruent-18", "trial_type": "html-keyboard-response", "trial_index": 179, "time_elapsed": 379572, "internal_node_id": "0.0-6.0-84.0"}}, {"uniqueid": "w11278443:a48521321", "current_trial": 180, "dateTime": 1664368381194, "trialdata": {"rt": 1201, "stimulus": "<p id='stroop-text' class='stroop-blue'>BRIDGE</p>", "response": "b", "stimulus-type": "unrelated", "word": "BRIDGE", "color": "blue", "correct_response": "b", "trial_id": "stroop-trial-1-unrelated-12", "trial_type": "html-keyboard-response", "trial_index": 180, "time_elapsed": 381281, "internal_node_id": "0.0-6.0-85.0"}}, {"uniqueid": "w11278443:a48521321", "current_trial": 181, "dateTime": 1664368383148, "trialdata": {"rt": 1448, "stimulus": "<p id='stroop-text' class='stroop-red'>BLUE</p>", "response": "r", "stimulus-type": "incongruent", "word": "blue", "color": "red", "correct_response": "r", "trial_id": "stroop-trial-1-incongruent-21", "trial_type": "html-keyboard-response", "trial_index": 181, "time_elapsed": 383234, "internal_node_id": "0.0-6.0-86.0"}}, {"uniqueid": "w11278443:a48521321", "current_trial": 182, "dateTime": 1664368386095, "trialdata": {"rt": 2441, "stimulus": "<p id='stroop-text' class='stroop-green'>BLUE</p>", "response": "g", "stimulus-type": "incongruent", "word": "blue", "color": "green", "correct_response": "g", "trial_id": "stroop-trial-1-incongruent-24", "trial_type": "html-keyboard-response", "trial_index": 182, "time_elapsed": 386181, "internal_node_id": "0.0-6.0-87.0"}}, {"uniqueid": "w11278443:a48521321", "current_trial": 183, "dateTime": 1664368388472, "trialdata": {"rt": 1870, "stimulus": "<p id='stroop-text' class='stroop-blue'>WINDOW</p>", "response": "b", "stimulus-type": "unrelated", "word": "WINDOW", "color": "blue", "correct_response": "b", "trial_id": "stroop-trial-1-unrelated-16", "trial_type": "html-keyboard-response", "trial_index": 183, "time_elapsed": 388558, "internal_node_id": "0.0-6.0-88.0"}}, {"uniqueid": "w11278443:a48521321", "current_trial": 184, "dateTime": 1664368389847, "trialdata": {"rt": 870, "stimulus": "<p id='stroop-text' class='stroop-red'>FORK</p>", "response": "r", "stimulus-type": "unrelated", "word": "FORK", "color": "red", "correct_response": "r", "trial_id": "stroop-trial-1-unrelated-29", "trial_type": "html-keyboard-response", "trial_index": 184, "time_elapsed": 389934, "internal_node_id": "0.0-6.0-89.0"}}, {"uniqueid": "w11278443:a48521321", "current_trial": 185, "dateTime": 1664368561558, "trialdata": {"rt": 171205, "stimulus": "  <h1> End of block! </h1>\n\n  You have reached the end of the block 2/5. If you need a short break, feel free to take one now before moving on.\n\n  <br><br>\n  In the next block, you will complete another 90 rounds of this game.\n\n  <br><br>\n  <div style='text-align: center;'>Press <code>space</code> to begin.</div>\n  <br><br>\n<div style='text-align: center;'>(If the experiment doesn't continue, try clicking on the text and then pressing <code>space</code>.)</div>", "response": " ", "trial_id": "stroop_1_ready_3", "trial_type": "html-keyboard-response", "trial_index": 185, "time_elapsed": 561645, "internal_node_id": "0.0-7.0"}}, {"uniqueid": "w11278443:a48521321", "current_trial": 186, "dateTime": 1664368562682, "trialdata": {"rt": 1120, "stimulus": "<p id='stroop-text' class='stroop-yellow'>CHAIR</p>", "response": "y", "stimulus-type": "unrelated", "word": "CHAIR", "color": "yellow", "correct_response": "y", "trial_id": "stroop-trial-1-unrelated-21", "trial_type": "html-keyboard-response", "trial_index": 186, "time_elapsed": 562769, "internal_node_id": "0.0-8.0-0.0"}}, {"uniqueid": "w11278443:a48521321", "current_trial": 187, "dateTime": 1664368564152, "trialdata": {"rt": 965, "stimulus": "<p id='stroop-text' class='stroop-blue'>BOTTLE</p>", "response": "b", "stimulus-type": "unrelated", "word": "BOTTLE", "color": "blue", "correct_response": "b", "trial_id": "stroop-trial-1-unrelated-2", "trial_type": "html-keyboard-response", "trial_index": 187, "time_elapsed": 564239, "internal_node_id": "0.0-8.0-1.0"}}, {"uniqueid": "w11278443:a48521321", "current_trial": 188, "dateTime": 1664368566930, "trialdata": {"rt": 2272, "stimulus": "<p id='stroop-text' class='stroop-red'>GREEN</p>", "response": "r", "stimulus-type": "incongruent", "word": "green", "color": "red", "correct_response": "r", "trial_id": "stroop-trial-1-incongruent-23", "trial_type": "html-keyboard-response", "trial_index": 188, "time_elapsed": 567016, "internal_node_id": "0.0-8.0-2.0"}}, {"uniqueid": "w11278443:a48521321", "current_trial": 189, "dateTime": 1664368567933, "trialdata": {"rt": 496, "stimulus": "<p id='stroop-text' class='stroop-red'>RED</p>", "response": "r", "stimulus-type": "congruent", "word": "red", "color": "red", "correct_response": "r", "trial_id": "stroop-trial-1-congruent-18", "trial_type": "html-keyboard-response", "trial_index": 189, "time_elapsed": 568019, "internal_node_id": "0.0-8.0-3.0"}}, {"uniqueid": "w11278443:a48521321", "current_trial": 190, "dateTime": 1664368569558, "trialdata": {"rt": 1119, "stimulus": "<p id='stroop-text' class='stroop-yellow'>RED</p>", "response": "y", "stimulus-type": "incongruent", "word": "red", "color": "yellow", "correct_response": "y", "trial_id": "stroop-trial-1-incongruent-6", "trial_type": "html-keyboard-response", "trial_index": 190, "time_elapsed": 569644, "internal_node_id": "0.0-8.0-4.0"}}, {"uniqueid": "w11278443:a48521321", "current_trial": 191, "dateTime": 1664368571442, "trialdata": {"rt": 1378, "stimulus": "<p id='stroop-text' class='stroop-green'>BRIDGE</p>", "response": "g", "stimulus-type": "unrelated", "word": "BRIDGE", "color": "green", "correct_response": "g", "trial_id": "stroop-trial-1-unrelated-26", "trial_type": "html-keyboard-response", "trial_index": 191, "time_elapsed": 571529, "internal_node_id": "0.0-8.0-5.0"}}, {"uniqueid": "w11278443:a48521321", "current_trial": 192, "dateTime": 1664368572961, "trialdata": {"rt": 1012, "stimulus": "<p id='stroop-text' class='stroop-yellow'>BOAT</p>", "response": "y", "stimulus-type": "unrelated", "word": "BOAT", "color": "yellow", "correct_response": "y", "trial_id": "stroop-trial-1-unrelated-16", "trial_type": "html-keyboard-response", "trial_index": 192, "time_elapsed": 573047, "internal_node_id": "0.0-8.0-6.0"}}, {"uniqueid": "w11278443:a48521321", "current_trial": 193, "dateTime": 1664368574665, "trialdata": {"rt": 1198, "stimulus": "<p id='stroop-text' class='stroop-red'>RED</p>", "response": "r", "stimulus-type": "congruent", "word": "red", "color": "red", "correct_response": "r", "trial_id": "stroop-trial-1-congruent-19", "trial_type": "html-keyboard-response", "trial_index": 193, "time_elapsed": 574751, "internal_node_id": "0.0-8.0-7.0"}}, {"uniqueid": "w11278443:a48521321", "current_trial": 194, "dateTime": 1664368576135, "trialdata": {"rt": 964, "stimulus": "<p id='stroop-text' class='stroop-green'>BLUE</p>", "response": "g", "stimulus-type": "incongruent", "word": "blue", "color": "green", "correct_response": "g", "trial_id": "stroop-trial-1-incongruent-10", "trial_type": "html-keyboard-response", "trial_index": 194, "time_elapsed": 576221, "internal_node_id": "0.0-8.0-8.0"}}, {"uniqueid": "w11278443:a48521321", "current_trial": 195, "dateTime": 1664368580689, "trialdata": {"rt": 4048, "stimulus": "<p id='stroop-text' class='stroop-yellow'>YELLOW</p>", "response": "y", "stimulus-type": "congruent", "word": "yellow", "color": "yellow", "correct_response": "y", "trial_id": "stroop-trial-1-congruent-27", "trial_type": "html-keyboard-response", "trial_index": 195, "time_elapsed": 580775, "internal_node_id": "0.0-8.0-9.0"}}, {"uniqueid": "w11278443:a48521321", "current_trial": 196, "dateTime": 1664368582326, "trialdata": {"rt": 1133, "stimulus": "<p id='stroop-text' class='stroop-yellow'>BLUE</p>", "response": "y", "stimulus-type": "incongruent", "word": "blue", "color": "yellow", "correct_response": "y", "trial_id": "stroop-trial-1-incongruent-16", "trial_type": "html-keyboard-response", "trial_index": 196, "time_elapsed": 582412, "internal_node_id": "0.0-8.0-10.0"}}, {"uniqueid": "w11278443:a48521321", "current_trial": 197, "dateTime": 1664368583778, "trialdata": {"rt": 944, "stimulus": "<p id='stroop-text' class='stroop-blue'>BLUE</p>", "response": "b", "stimulus-type": "congruent", "word": "blue", "color": "blue", "correct_response": "b", "trial_id": "stroop-trial-1-congruent-22", "trial_type": "html-keyboard-response", "trial_index": 197, "time_elapsed": 583864, "internal_node_id": "0.0-8.0-11.0"}}, {"uniqueid": "w11278443:a48521321", "current_trial": 198, "dateTime": 1664368585786, "trialdata": {"rt": 1500, "stimulus": "<p id='stroop-text' class='stroop-green'>GREEN</p>", "response": "g", "stimulus-type": "congruent", "word": "green", "color": "green", "correct_response": "g", "trial_id": "stroop-trial-1-congruent-6", "trial_type": "html-keyboard-response", "trial_index": 198, "time_elapsed": 585872, "internal_node_id": "0.0-8.0-12.0"}}, {"uniqueid": "w11278443:a48521321", "current_trial": 199, "dateTime": 1664368587129, "trialdata": {"rt": 836, "stimulus": "<p id='stroop-text' class='stroop-yellow'>YELLOW</p>", "response": "y", "stimulus-type": "congruent", "word": "yellow", "color": "yellow", "correct_response": "y", "trial_id": "stroop-trial-1-congruent-5", "trial_type": "html-keyboard-response", "trial_index": 199, "time_elapsed": 587215, "internal_node_id": "0.0-8.0-13.0"}}, {"uniqueid": "w11278443:a48521321", "current_trial": 200, "dateTime": 1664368589386, "trialdata": {"rt": 1750, "stimulus": "<p id='stroop-text' class='stroop-blue'>RED</p>", "response": "b", "stimulus-type": "incongruent", "word": "red", "color": "blue", "correct_response": "b", "trial_id": "stroop-trial-1-incongruent-21", "trial_type": "html-keyboard-response", "trial_index": 200, "time_elapsed": 589472, "internal_node_id": "0.0-8.0-14.0"}}, {"uniqueid": "w11278443:a48521321", "current_trial": 201, "dateTime": 1664368590796, "trialdata": {"rt": 903, "stimulus": "<p id='stroop-text' class='stroop-red'>BRIDGE</p>", "response": "r", "stimulus-type": "unrelated", "word": "BRIDGE", "color": "red", "correct_response": "r", "trial_id": "stroop-trial-1-unrelated-13", "trial_type": "html-keyboard-response", "trial_index": 201, "time_elapsed": 590883, "internal_node_id": "0.0-8.0-15.0"}}, {"uniqueid": "w11278443:a48521321", "current_trial": 202, "dateTime": 1664368592848, "trialdata": {"rt": 1547, "stimulus": "<p id='stroop-text' class='stroop-red'>BLUE</p>", "response": "r", "stimulus-type": "incongruent", "word": "blue", "color": "red", "correct_response": "r", "trial_id": "stroop-trial-1-incongruent-22", "trial_type": "html-keyboard-response", "trial_index": 202, "time_elapsed": 592934, "internal_node_id": "0.0-8.0-16.0"}}, {"uniqueid": "w11278443:a48521321", "current_trial": 203, "dateTime": 1664368594075, "trialdata": {"rt": 721, "stimulus": "<p id='stroop-text' class='stroop-green'>GREEN</p>", "response": "g", "stimulus-type": "congruent", "word": "green", "color": "green", "correct_response": "g", "trial_id": "stroop-trial-1-congruent-30", "trial_type": "html-keyboard-response", "trial_index": 203, "time_elapsed": 594162, "internal_node_id": "0.0-8.0-17.0"}}, {"uniqueid": "w11278443:a48521321", "current_trial": 204, "dateTime": 1664368595377, "trialdata": {"rt": 796, "stimulus": "<p id='stroop-text' class='stroop-green'>FORK</p>", "response": "g", "stimulus-type": "unrelated", "word": "FORK", "color": "green", "correct_response": "g", "trial_id": "stroop-trial-1-unrelated-9", "trial_type": "html-keyboard-response", "trial_index": 204, "time_elapsed": 595463, "internal_node_id": "0.0-8.0-18.0"}}, {"uniqueid": "w11278443:a48521321", "current_trial": 205, "dateTime": 1664368596716, "trialdata": {"rt": 833, "stimulus": "<p id='stroop-text' class='stroop-yellow'>YELLOW</p>", "response": "y", "stimulus-type": "congruent", "word": "yellow", "color": "yellow", "correct_response": "y", "trial_id": "stroop-trial-1-congruent-1", "trial_type": "html-keyboard-response", "trial_index": 205, "time_elapsed": 596803, "internal_node_id": "0.0-8.0-19.0"}}, {"uniqueid": "w11278443:a48521321", "current_trial": 206, "dateTime": 1664368598157, "trialdata": {"rt": 936, "stimulus": "<p id='stroop-text' class='stroop-yellow'>YELLOW</p>", "response": "y", "stimulus-type": "congruent", "word": "yellow", "color": "yellow", "correct_response": "y", "trial_id": "stroop-trial-1-congruent-29", "trial_type": "html-keyboard-response", "trial_index": 206, "time_elapsed": 598243, "internal_node_id": "0.0-8.0-20.0"}}, {"uniqueid": "w11278443:a48521321", "current_trial": 207, "dateTime": 1664368599639, "trialdata": {"rt": 976, "stimulus": "<p id='stroop-text' class='stroop-yellow'>GREEN</p>", "response": "y", "stimulus-type": "incongruent", "word": "green", "color": "yellow", "correct_response": "y", "trial_id": "stroop-trial-1-incongruent-30", "trial_type": "html-keyboard-response", "trial_index": 207, "time_elapsed": 599725, "internal_node_id": "0.0-8.0-21.0"}}, {"uniqueid": "w11278443:a48521321", "current_trial": 208, "dateTime": 1664368600709, "trialdata": {"rt": 562, "stimulus": "<p id='stroop-text' class='stroop-yellow'>YELLOW</p>", "response": "y", "stimulus-type": "congruent", "word": "yellow", "color": "yellow", "correct_response": "y", "trial_id": "stroop-trial-1-congruent-12", "trial_type": "html-keyboard-response", "trial_index": 208, "time_elapsed": 600795, "internal_node_id": "0.0-8.0-22.0"}}, {"uniqueid": "w11278443:a48521321", "current_trial": 209, "dateTime": 1664368601661, "trialdata": {"rt": 444, "stimulus": "<p id='stroop-text' class='stroop-red'>GREEN</p>", "response": "r", "stimulus-type": "incongruent", "word": "green", "color": "red", "correct_response": "r", "trial_id": "stroop-trial-1-incongruent-9", "trial_type": "html-keyboard-response", "trial_index": 209, "time_elapsed": 601747, "internal_node_id": "0.0-8.0-23.0"}}, {"uniqueid": "w11278443:a48521321", "current_trial": 210, "dateTime": 1664368603009, "trialdata": {"rt": 842, "stimulus": "<p id='stroop-text' class='stroop-green'>BLUE</p>", "response": "g", "stimulus-type": "incongruent", "word": "blue", "color": "green", "correct_response": "g", "trial_id": "stroop-trial-1-incongruent-29", "trial_type": "html-keyboard-response", "trial_index": 210, "time_elapsed": 603095, "internal_node_id": "0.0-8.0-24.0"}}, {"uniqueid": "w11278443:a48521321", "current_trial": 211, "dateTime": 1664368604177, "trialdata": {"rt": 663, "stimulus": "<p id='stroop-text' class='stroop-green'>BRAIN</p>", "response": "g", "stimulus-type": "unrelated", "word": "BRAIN", "color": "green", "correct_response": "g", "trial_id": "stroop-trial-1-unrelated-29", "trial_type": "html-keyboard-response", "trial_index": 211, "time_elapsed": 604264, "internal_node_id": "0.0-8.0-25.0"}}, {"uniqueid": "w11278443:a48521321", "current_trial": 212, "dateTime": 1664368605360, "trialdata": {"rt": 677, "stimulus": "<p id='stroop-text' class='stroop-green'>YELLOW</p>", "response": "g", "stimulus-type": "incongruent", "word": "yellow", "color": "green", "correct_response": "g", "trial_id": "stroop-trial-1-incongruent-12", "trial_type": "html-keyboard-response", "trial_index": 212, "time_elapsed": 605446, "internal_node_id": "0.0-8.0-26.0"}}, {"uniqueid": "w11278443:a48521321", "current_trial": 213, "dateTime": 1664368606602, "trialdata": {"rt": 734, "stimulus": "<p id='stroop-text' class='stroop-blue'>BOAT</p>", "response": "b", "stimulus-type": "unrelated", "word": "BOAT", "color": "blue", "correct_response": "b", "trial_id": "stroop-trial-1-unrelated-15", "trial_type": "html-keyboard-response", "trial_index": 213, "time_elapsed": 606689, "internal_node_id": "0.0-8.0-27.0"}}, {"uniqueid": "w11278443:a48521321", "current_trial": 214, "dateTime": 1664368607830, "trialdata": {"rt": 721, "stimulus": "<p id='stroop-text' class='stroop-blue'>GREEN</p>", "response": "b", "stimulus-type": "incongruent", "word": "green", "color": "blue", "correct_response": "b", "trial_id": "stroop-trial-1-incongruent-4", "trial_type": "html-keyboard-response", "trial_index": 214, "time_elapsed": 607916, "internal_node_id": "0.0-8.0-28.0"}}, {"uniqueid": "w11278443:a48521321", "current_trial": 215, "dateTime": 1664368609322, "trialdata": {"rt": 989, "stimulus": "<p id='stroop-text' class='stroop-yellow'>BRIDGE</p>", "response": "y", "stimulus-type": "unrelated", "word": "BRIDGE", "color": "yellow", "correct_response": "y", "trial_id": "stroop-trial-1-unrelated-5", "trial_type": "html-keyboard-response", "trial_index": 215, "time_elapsed": 609409, "internal_node_id": "0.0-8.0-29.0"}}, {"uniqueid": "w11278443:a48521321", "current_trial": 216, "dateTime": 1664368611367, "trialdata": {"rt": 1538, "stimulus": "<p id='stroop-text' class='stroop-yellow'>BLUE</p>", "response": "y", "stimulus-type": "incongruent", "word": "blue", "color": "yellow", "correct_response": "y", "trial_id": "stroop-trial-1-incongruent-18", "trial_type": "html-keyboard-response", "trial_index": 216, "time_elapsed": 611453, "internal_node_id": "0.0-8.0-30.0"}}, {"uniqueid": "w11278443:a48521321", "current_trial": 217, "dateTime": 1664368613396, "trialdata": {"rt": 1520, "stimulus": "<p id='stroop-text' class='stroop-blue'>BLUE</p>", "response": "b", "stimulus-type": "congruent", "word": "blue", "color": "blue", "correct_response": "b", "trial_id": "stroop-trial-1-congruent-7", "trial_type": "html-keyboard-response", "trial_index": 217, "time_elapsed": 613482, "internal_node_id": "0.0-8.0-31.0"}}, {"uniqueid": "w11278443:a48521321", "current_trial": 218, "dateTime": 1664368614426, "trialdata": {"rt": 523, "stimulus": "<p id='stroop-text' class='stroop-blue'>BOTTLE</p>", "response": "b", "stimulus-type": "unrelated", "word": "BOTTLE", "color": "blue", "correct_response": "b", "trial_id": "stroop-trial-1-unrelated-4", "trial_type": "html-keyboard-response", "trial_index": 218, "time_elapsed": 614512, "internal_node_id": "0.0-8.0-32.0"}}, {"uniqueid": "w11278443:a48521321", "current_trial": 219, "dateTime": 1664368615655, "trialdata": {"rt": 722, "stimulus": "<p id='stroop-text' class='stroop-blue'>CHAIR</p>", "response": "b", "stimulus-type": "unrelated", "word": "CHAIR", "color": "blue", "correct_response": "b", "trial_id": "stroop-trial-1-unrelated-10", "trial_type": "html-keyboard-response", "trial_index": 219, "time_elapsed": 615741, "internal_node_id": "0.0-8.0-33.0"}}, {"uniqueid": "w11278443:a48521321", "current_trial": 220, "dateTime": 1664368616827, "trialdata": {"rt": 666, "stimulus": "<p id='stroop-text' class='stroop-red'>RED</p>", "response": "r", "stimulus-type": "congruent", "word": "red", "color": "red", "correct_response": "r", "trial_id": "stroop-trial-1-congruent-15", "trial_type": "html-keyboard-response", "trial_index": 220, "time_elapsed": 616914, "internal_node_id": "0.0-8.0-34.0"}}, {"uniqueid": "w11278443:a48521321", "current_trial": 221, "dateTime": 1664368618145, "trialdata": {"rt": 812, "stimulus": "<p id='stroop-text' class='stroop-yellow'>YELLOW</p>", "response": "y", "stimulus-type": "congruent", "word": "yellow", "color": "yellow", "correct_response": "y", "trial_id": "stroop-trial-1-congruent-25", "trial_type": "html-keyboard-response", "trial_index": 221, "time_elapsed": 618231, "internal_node_id": "0.0-8.0-35.0"}}, {"uniqueid": "w11278443:a48521321", "current_trial": 222, "dateTime": 1664368619695, "trialdata": {"rt": 1044, "stimulus": "<p id='stroop-text' class='stroop-blue'>BRAIN</p>", "response": "b", "stimulus-type": "unrelated", "word": "BRAIN", "color": "blue", "correct_response": "b", "trial_id": "stroop-