{"condition": 1, "counterbalance": 0, "assignmentId": "a63456293", "workerId": "w20778574", "hitId": "h66800561", "currenttrial": 137, "bonus": 0, "data": [{"uniqueid": "w20778574:a63456293", "current_trial": 0, "dateTime": 1664368665202, "trialdata": {"success": true, "trial_type": "fullscreen", "trial_index": 0, "time_elapsed": 11864, "internal_node_id": "0.0-0.0"}}, {"uniqueid": "w20778574:a63456293", "current_trial": 1, "dateTime": 1664368702222, "trialdata": {"view_history": [{"page_index": 0, "viewing_time": 36975}], "rt": 36980, "trial_id": "exp_instructions_no_distractor", "trial_type": "instructions", "trial_index": 1, "time_elapsed": 48891, "internal_node_id": "0.0-1.0"}}, {"uniqueid": "w20778574:a63456293", "current_trial": 2, "dateTime": 1664368711706, "trialdata": {"success": true, "trial_type": "fullscreen", "trial_index": 2, "time_elapsed": 58376, "internal_node_id": "0.0-2.0-0.0"}}, {"uniqueid": "w20778574:a63456293", "current_trial": 3, "dateTime": 1664369059976, "trialdata": {"view_history": [{"page_index": 0, "viewing_time": 156914}, {"page_index": 1, "viewing_time": 64061}, {"page_index": 2, "viewing_time": 58069}, {"page_index": 3, "viewing_time": 17388}, {"page_index": 4, "viewing_time": 51820}], "rt": 348254, "trial_id": "mouselab_instructions_1", "trial_type": "instructions", "trial_index": 3, "time_elapsed": 406645, "internal_node_id": "0.0-2.0-1.0"}}, {"uniqueid": "w20778574:a63456293", "current_trial": 4, "dateTime": 1664369083120, "trialdata": {"revealed_states": [], "num_clicks_accrued": [0, 0, 0, 0, 0, 0, 0, 0, 0, 0, 0, 0, 0], "stateRewards": ["", 10, -10, 10, 10, 10, -10, 10, -10, 10, -10, 10, -10], "withholdReward": false, "trial_id": "practice_1", "block": "test", "trialIndex": 0, "score": 11.75, "costs": -0.25, "simulationMode": [null, null, null], "rewards": [10, -10, 10], "path": ["0", "0", "5", "6", "7"], "rt": [10719, 477, 3429], "actions": ["right", "right", "up"], "actionTimes": [13086, 14068, 18026], "queries": {"click": {"state": {"target": ["5"], "time": [8359]}, "edge": {"target": [], "time": []}}, "mouseover": {"state": {"target": ["5"], "time": [7712]}, "edge": {"target": [], "time": []}}, "mouseout": {"state": {"target": ["5", "0", "5", "5", "5"], "time": [null, 7675, 9472, 9772, 12190]}, "edge": {"target": [], "time": []}}}, "displayed_time": "18.53", "trialTime": 21505, "trial_type": "mouselab-mdp", "trial_index": 4, "time_elapsed": 429783, "internal_node_id": "0.0-2.0-2.0-0.0"}}, {"uniqueid": "w20778574:a63456293", "current_trial": 5, "dateTime": 1664369100224, "trialdata": {"revealed_states": [], "num_clicks_accrued": [0, 0, 0, 0, 0, 0, 0, 0, 0, 0, 0, 0, 0], "stateRewards": ["", -10, -10, 10, -10, -10, 10, -10, -10, 10, 10, -10, -10], "withholdReward": false, "trial_id": "practice_2", "block": "test", "trialIndex": 1, "score": 11.75, "costs": -0.25, "simulationMode": [null, null, null], "rewards": [10, 10, -10], "path": ["0", "0", "9", "10", "11"], "rt": [5518, 673, 716], "actions": ["left", "left", "up"], "actionTimes": [11107, 12288, 13514], "queries": {"click": {"state": {"target": ["9"], "time": [8984]}, "edge": {"target": [], "time": []}}, "mouseover": {"state": {"target": ["0", "9", "1", "9"], "time": [6226, 6323, 7523, 8506]}, "edge": {"target": [], "time": []}}, "mouseout": {"state": {"target": ["5", "0", "0", "9", "1"], "time": [4720, 5789, 6256, 7410, 8274]}, "edge": {"target": [], "time": []}}}, "displayed_time": "14.09", "trialTime": 16587, "trial_type": "mouselab-mdp", "trial_index": 5, "time_elapsed": 446894, "internal_node_id": "0.0-2.0-2.0-1.0"}}, {"uniqueid": "w20778574:a63456293", "current_trial": 6, "dateTime": 1664369258332, "trialdata": {"view_history": [{"page_index": 0, "viewing_time": 71018}, {"page_index": 1, "viewing_time": 55708}, {"page_index": 2, "viewing_time": 31361}], "rt": 158092, "trial_id": "mouselab_instructions_2_scarce", "trial_type": "instructions", "trial_index": 6, "time_elapsed": 605002, "internal_node_id": "0.0-2.0-3.0"}}, {"uniqueid": "w20778574:a63456293", "current_trial": 7, "dateTime": 1664369402527, "trialdata": {"rt": 144151, "response": {"Q0": "$-48 to $48", "Q1": "The cost is always $0.25.", "Q2": "The better I perform the higher my bonus will be.", "Q3": "No, the amount of cash at each node of the web may be different each time.", "Q4": "The values of the nodes walked through from start to finish.", "Q5": "No, the spider might forget to count the money on some rounds."}, "question_order": [0, 1, 2, 3, 4, 5], "correct": {"Q0": "$-48 to $48", "Q1": "The cost is always $0.25.", "Q2": "The better I perform the higher my bonus will be.", "Q3": "No, the amount of cash at each node of the web may be different each time.", "Q4": "The values of the nodes walked through from start to finish.", "Q5": "No, the spider might forget to count the money on some rounds."}, "trial_id": "mouselab_quiz_scarce", "trial_type": "survey-multi-choice", "trial_index": 7, "time_elapsed": 749197, "internal_node_id": "0.0-2.0-4.0"}}, {"uniqueid": "w20778574:a63456293", "current_trial": 8, "dateTime": 1664369455006, "trialdata": {"rt": 52423, "stimulus": "\n<h1> Get ready to start the game! </h1>\n\nThank you for reading the instructions. Get ready start with the first of 4 block(s) of this game.\n<br><br>\nIn this first block, you will complete 30 rounds of this game before moving on.\n<br><br>\nRemember, the more money the spider gets, the bigger your bonus will be!\n<br><br>\n<div style='text-align: center;'>Press <code>space</code> to begin.</div>\n\n<br><br>\n(If, at any point, the <code>space</code> key does not take you to the next page, click once on the text and try again.)", "response": " ", "trial_id": "mdp_ready_1", "trial_type": "html-keyboard-response", "trial_index": 8, "time_elapsed": 801676, "internal_node_id": "0.0-4.0-0.0"}}, {"uniqueid": "w20778574:a63456293", "current_trial": 9, "dateTime": 1664369474497, "trialdata": {"revealed_states": [], "num_clicks_accrued": [0, 0, 0, 0, 0, 0, 0, 0, 0, 0, 0, 0, 0], "stateRewards": ["", -2, -4, 48, -24, -4, -4, -24, -24, -2, 4, -48, -24], "withholdReward": true, "trial_id": "mdp_410467837196", "block": "test1", "trialIndex": 2, "score": 46.25, "costs": -0.75, "simulationMode": [null, null, null], "rewards": [-2, -4, 48], "path": ["0", "0", "1", "2", "3"], "rt": [8096, 660, 1262], "actions": ["up", "up", "right"], "actionTimes": [10464, 11676, 13481], "queries": {"click": {"state": {"target": ["9", "1", "5"], "time": [3401, 4934, 6518]}, "edge": {"target": [], "time": []}}, "mouseover": {"state": {"target": ["9", "1", "5", "5"], "time": [3094, 4514, 5433, 5686]}, "edge": {"target": [], "time": []}}, "mouseout": {"state": {"target": ["0", "9", "1", "5"], "time": [2882, 4264, 5366, 5480]}, "edge": {"target": [], "time": []}}}, "displayed_time": "13.99", "trialTime": 19096, "trial_type": "mouselab-mdp", "trial_index": 9, "time_elapsed": 821163, "internal_node_id": "0.0-4.0-1.0-0.0"}}, {"uniqueid": "w20778574:a63456293", "current_trial": 10, "dateTime": 1664369491364, "trialdata": {"revealed_states": [], "num_clicks_accrued": [0, 0, 0, 0, 0, 0, 0, 0, 0, 0, 0, 0, 0], "stateRewards": ["", -4, 4, -24, 48, -2, 8, -48, 24, 2, 4, 48, -48], "withholdReward": true, "trial_id": "mdp_366632183904", "block": "test1", "trialIndex": 3, "score": -37.25, "costs": -0.25, "simulationMode": [null, null, null], "rewards": [2, 4, -48], "path": ["0", "0", "9", "10", "12"], "rt": [2590, 496, 586], "actions": ["left", "left", "down"], "actionTimes": [5202, 6251, 7338], "queries": {"click": {"state": {"target": ["5"], "time": [3530]}, "edge": {"target": [], "time": []}}, "mouseover": {"state": {"target": ["5"], "time": [3208]}, "edge": {"target": [], "time": []}}, "mouseout": {"state": {"target": ["5", "0", "0"], "time": [1523, 1623, 3203]}, "edge": {"target": [], "time": []}}}, "displayed_time": "12.62", "trialTime": 16392, "trial_type": "mouselab-mdp", "trial_index": 10, "time_elapsed": 838033, "internal_node_id": "0.0-4.0-1.0-1.0"}}, {"uniqueid": "w20778574:a63456293", "current_trial": 11, "dateTime": 1664369507154, "trialdata": {"revealed_states": [], "num_clicks_accrued": [0, 0, 0, 0, 0, 0, 0, 0, 0, 0, 0, 0, 0], "stateRewards": ["", -4, -4, -48, -24, 2, 8, 24, -48, 4, 4, 48, 48], "withholdReward": true, "trial_id": "mdp_693501840209", "block": "test1", "trialIndex": 4, "score": -27, "costs": 0, "simulationMode": [null, null, null], "rewards": [-4, -4, -24], "path": ["0", "0", "1", "2", "4"], "rt": [1852, 713, 279], "actions": ["up", "up", "left"], "actionTimes": [5186, 6424, 7206], "queries": {"click": {"state": {"target": [], "time": []}, "edge": {"target": [], "time": []}}, "mouseover": {"state": {"target": ["5"], "time": [3856]}, "edge": {"target": [], "time": []}}, "mouseout": {"state": {"target": ["5", "0"], "time": [2439, 2588]}, "edge": {"target": [], "time": []}}}, "displayed_time": "12.34", "trialTime": 15394, "trial_type": "mouselab-mdp", "trial_index": 11, "time_elapsed": 853823, "internal_node_id": "0.0-4.0-1.0-2.0"}}, {"uniqueid": "w20778574:a63456293", "current_trial": 12, "dateTime": 1664369522360, "trialdata": {"revealed_states": [], "num_clicks_accrued": [0, 0, 0, 0, 0, 0, 0, 0, 0, 0, 0, 0, 0], "stateRewards": ["", -2, 8, -48, 48, -4, 8, -24, 24, 4, -4, 24, -48], "withholdReward": true, "trial_id": "mdp_904238083902", "block": "test1", "trialIndex": 5, "score": 28.5, "costs": -0.5, "simulationMode": [null, null, null], "rewards": [4, -4, 24], "path": ["0", "0", "9", "10", "11"], "rt": [3625, 336, 373], "actions": ["left", "left", "up"], "actionTimes": [6432, 7300, 8203], "queries": {"click": {"state": {"target": ["1", "9"], "time": [3838, 4933]}, "edge": {"target": [], "time": []}}, "mouseover": {"state": {"target": ["0", "1", "9"], "time": [3271, 3487, 4604]}, "edge": {"target": [], "time": []}}, "mouseout": {"state": {"target": ["5", "11", "9", "0", "1"], "time": [1781, 1941, 2103, 3325, 4389]}, "edge": {"target": [], "time": []}}}, "displayed_time": "11.81", "trialTime": 14901, "trial_type": "mouselab-mdp", "trial_index": 12, "time_elapsed": 869029, "internal_node_id": "0.0-4.0-1.0-3.0"}}, {"uniqueid": "w20778574:a63456293", "current_trial": 13, "dateTime": 1664369535042, "trialdata": {"revealed_states": [], "num_clicks_accrued": [0, 0, 0, 0, 0, 0, 0, 0, 0, 0, 0, 0, 0], "stateRewards": ["", -2, -8, -24, 48, -2, -8, -48, -48, 2, -8, -48, 24], "withholdReward": true, "trial_id": "mdp_288324580942", "block": "test1", "trialIndex": 6, "score": -49.25, "costs": -0.25, "simulationMode": [null, null, null], "rewards": [2, -8, -48], "path": ["0", "0", "9", "10", "11"], "rt": [3405, 548, 142], "actions": ["left", "left", "up"], "actionTimes": [6247, 7316, 7962], "queries": {"click": {"state": {"target": ["5"], "time": [3931]}, "edge": {"target": [], "time": []}}, "mouseover": {"state": {"target": ["5", "0", "9"], "time": [3586, 4574, 4687]}, "edge": {"target": [], "time": []}}, "mouseout": {"state": {"target": ["9", "0", "5", "0"], "time": [1791, 3550, 4551, 4661]}, "edge": {"target": [], "time": []}}}, "displayed_time": "9.85", "trialTime": 12288, "trial_type": "mouselab-mdp", "trial_index": 13, "time_elapsed": 881711, "internal_node_id": "0.0-4.0-1.0-4.0"}}, {"uniqueid": "w20778574:a63456293", "current_trial": 14, "dateTime": 1664369550138, "trialdata": {"revealed_states": [], "num_clicks_accrued": [0, 0, 0, 0, 0, 0, 0, 0, 0, 0, 0, 0, 0], "stateRewards": ["", -2, 8, -48, 48, 4, -8, -48, 48, 4, -4, -24, 48], "withholdReward": true, "trial_id": "mdp_144739116828", "block": "test1", "trialIndex": 7, "score": -47.25, "costs": -0.25, "simulationMode": [null, null, null], "rewards": [4, -8, -48], "path": ["0", "0", "5", "6", "7"], "rt": [2620, 615, 438], "actions": ["right", "right", "up"], "actionTimes": [5111, 6252, 7193], "queries": {"click": {"state": {"target": ["1"], "time": [3666]}, "edge": {"target": [], "time": []}}, "mouseover": {"state": {"target": ["1"], "time": [3363]}, "edge": {"target": [], "time": []}}, "mouseout": {"state": {"target": ["9", "0"], "time": [1624, 3194]}, "edge": {"target": [], "time": []}}}, "displayed_time": "12.49", "trialTime": 14633, "trial_type": "mouselab-mdp", "trial_index": 14, "time_elapsed": 896804, "internal_node_id": "0.0-4.0-1.0-5.0"}}, {"uniqueid": "w20778574:a63456293", "current_trial": 15, "dateTime": 1664369565034, "trialdata": {"revealed_states": [], "num_clicks_accrued": [0, 0, 0, 0, 0, 0, 0, 0, 0, 0, 0, 0, 0], "stateRewards": ["", 2, 8, -24, -48, -4, 8, -48, -48, -2, -8, -24, -24], "withholdReward": true, "trial_id": "mdp_978177451072", "block": "test1", "trialIndex": 8, "score": -33.75, "costs": -0.75, "simulationMode": [null, null, null], "rewards": [2, 8, -48], "path": ["0", "0", "1", "2", "4"], "rt": [4901, 403, 621], "actions": ["up", "up", "left"], "actionTimes": [7839, 8746, 9882], "queries": {"click": {"state": {"target": ["9", "5", "1"], "time": [4443, 5534, 6320]}, "edge": {"target": [], "time": []}}, "mouseover": {"state": {"target": ["9", "0", "5", "1"], "time": [3835, 5000, 5203, 5984]}, "edge": {"target": [], "time": []}}, "mouseout": {"state": {"target": ["1", "6", "5", "0", "9", "0", "5"], "time": [1728, 2004, 2100, 3466, 4955, 5151, 5900]}, "edge": {"target": [], "time": []}}}, "displayed_time": "12.94", "trialTime": 14302, "trial_type": "mouselab-mdp", "trial_index": 15, "time_elapsed": 911703, "internal_node_id": "0.0-4.0-1.0-6.0"}}, {"uniqueid": "w20778574:a63456293", "current_trial": 16, "dateTime": 1664369579396, "trialdata": {"revealed_states": [], "num_clicks_accrued": [0, 0, 0, 0, 0, 0, 0, 0, 0, 0, 0, 0, 0], "stateRewards": ["", -2, 4, -48, -48, -4, -8, 48, -48, 2, 4, 48, -48], "withholdReward": true, "trial_id": "mdp_258647270500", "block": "test1", "trialIndex": 9, "score": 58.25, "costs": -0.75, "simulationMode": [null, null, null], "rewards": [2, 4, 48], "path": ["0", "0", "9", "10", "11"], "rt": [5465, 272, 517], "actions": ["left", "left", "up"], "actionTimes": [8342, 9180, 10206], "queries": {"click": {"state": {"target": ["1", "9", "5"], "time": [3888, 5642, 6965]}, "edge": {"target": [], "time": []}}, "mouseover": {"state": {"target": ["1", "9", "0", "5"], "time": [3544, 5380, 5914, 6396]}, "edge": {"target": [], "time": []}}, "mouseout": {"state": {"target": ["1", "5", "1", "9", "0"], "time": [1745, 1859, 5195, 5883, 5947]}, "edge": {"target": [], "time": []}}}, "displayed_time": "10.75", "trialTime": 13891, "trial_type": "mouselab-mdp", "trial_index": 16, "time_elapsed": 926065, "internal_node_id": "0.0-4.0-1.0-7.0"}}, {"uniqueid": "w20778574:a63456293", "current_trial": 17, "dateTime": 1664369597895, "trialdata": {"revealed_states": [], "num_clicks_accrued": [0, 0, 0, 0, 0, 0, 0, 0, 0, 0, 0, 0, 0], "stateRewards": ["", 4, -8, -24, 48, -4, 8, -24, -48, -4, -4, 24, 48], "withholdReward": false, "trial_id": "mdp_282352776624", "block": "test1", "trialIndex": 10, "score": -39, "costs": 0, "simulationMode": [null, null, null], "rewards": [-4, 8, -48], "path": ["0", "0", "5", "6", "8"], "rt": [1961, 506, 291], "actions": ["right", "right", "down"], "actionTimes": [4859, 5878, 6720], "queries": {"click": {"state": {"target": [], "time": []}, "edge": {"target": [], "time": []}}, "mouseover": {"state": {"target": [], "time": []}, "edge": {"target": [], "time": []}}, "mouseout": {"state": {"target": ["5"], "time": [2047]}, "edge": {"target": [], "time": []}}}, "displayed_time": "12.90", "trialTime": 18041, "trial_type": "mouselab-mdp", "trial_index": 17, "time_elapsed": 944564, "internal_node_id": "0.0-4.0-1.0-8.0"}}, {"uniqueid": "w20778574:a63456293", "current_trial": 18, "dateTime": 1664369609678, "trialdata": {"revealed_states": [], "num_clicks_accrued": [0, 0, 0, 0, 0, 0, 0, 0, 0, 0, 0, 0, 0], "stateRewards": ["", 2, 8, -48, 48, -4, -8, 24, 24, -2, -8, 24, -24], "withholdReward": true, "trial_id": "mdp_910248289075", "block": "test1", "trialIndex": 11, "score": -33.25, "costs": -0.25, "simulationMode": [null, null, null], "rewards": [2, 8, -48], "path": ["0", "0", "1", "2", "3"], "rt": [2471, 151, 230], "actions": ["up", "up", "right"], "actionTimes": [4013, 4755, 5491], "queries": {"click": {"state": {"target": ["1"], "time": [2351]}, "edge": {"target": [], "time": []}}, "mouseover": {"state": {"target": ["0", "1"], "time": [1860, 2023]}, "edge": {"target": [], "time": []}}, "mouseout": {"state": {"target": ["0", "0", "1"], "time": [704, 1890, 2941]}, "edge": {"target": [], "time": []}}}, "displayed_time": "9.54", "trialTime": 11186, "trial_type": "mouselab-mdp", "trial_index": 18, "time_elapsed": 956348, "internal_node_id": "0.0-4.0-1.0-9.0"}}, {"uniqueid": "w20778574:a63456293", "current_trial": 19, "dateTime": 1664369622721, "trialdata": {"revealed_states": [], "num_clicks_accrued": [0, 0, 0, 0, 0, 0, 0, 0, 0, 0, 0, 0, 0], "stateRewards": ["", -4, -8, -24, -48, -2, -8, 24, -48, -4, -8, 24, -48], "withholdReward": false, "trial_id": "mdp_621812384092", "block": "test1", "trialIndex": 12, "score": 18.25, "costs": -0.75, "simulationMode": [null, null, null], "rewards": [-2, -8, 24], "path": ["0", "0", "5", "6", "7"], "rt": [4110, 251, 169], "actions": ["right", "right", "up"], "actionTimes": [6060, 6874, 7582], "queries": {"click": {"state": {"target": ["9", "1", "5"], "time": [2895, 3757, 4437]}, "edge": {"target": [], "time": []}}, "mouseover": {"state": {"target": ["9", "1", "5", "6"], "time": [2583, 3432, 4151, 4803]}, "edge": {"target": [], "time": []}}, "mouseout": {"state": {"target": ["0", "9", "1", "5", "6"], "time": [2482, 3265, 4060, 4771, 5313]}, "edge": {"target": [], "time": []}}}, "displayed_time": "10.95", "trialTime": 12601, "trial_type": "mouselab-mdp", "trial_index": 19, "time_elapsed": 969389, "internal_node_id": "0.0-4.0-1.0-10.0"}}, {"uniqueid": "w20778574:a63456293", "current_trial": 20, "dateTime": 1664369637987, "trialdata": {"revealed_states": [], "num_clicks_accrued": [0, 0, 0, 0, 0, 0, 0, 0, 0, 0, 0, 0, 0], "stateRewards": ["", -2, 4, -24, 48, 4, -8, 48, -48, 2, -8, 48, 24], "withholdReward": true, "trial_id": "mdp_501111216502", "block": "test1", "trialIndex": 13, "score": 22.75, "costs": -0.25, "simulationMode": [null, null, null], "rewards": [2, -8, 24], "path": ["0", "0", "9", "10", "12"], "rt": [2869, 441, 562], "actions": ["left", "left", "down"], "actionTimes": [5793, 6747, 7824], "queries": {"click": {"state": {"target": ["9"], "time": [4221]}, "edge": {"target": [], "time": []}}, "mouseover": {"state": {"target": ["9", "0"], "time": [3699, 4955]}, "edge": {"target": [], "time": []}}, "mouseout": {"state": {"target": ["5", "0", "9"], "time": [1918, 3616, 4528]}, "edge": {"target": [], "time": []}}}, "displayed_time": "12.99", "trialTime": 14635, "trial_type": "mouselab-mdp", "trial_index": 20, "time_elapsed": 984656, "internal_node_id": "0.0-4.0-1.0-11.0"}}, {"uniqueid": "w20778574:a63456293", "current_trial": 21, "dateTime": 1664369652202, "trialdata": {"revealed_states": [], "num_clicks_accrued": [0, 0, 0, 0, 0, 0, 0, 0, 0, 0, 0, 0, 0], "stateRewards": ["", 4, -8, 48, 24, 4, -4, 48, 48, -4, 8, -48, 24], "withholdReward": true, "trial_id": "mdp_303828806348", "block": "test1", "trialIndex": 14, "score": 52.75, "costs": -0.25, "simulationMode": [null, null, null], "rewards": [4, -4, 48], "path": ["0", "0", "5", "6", "8"], "rt": [2801, 435, 4015], "actions": ["right", "right", "down"], "actionTimes": [5009, 5956, 10495], "queries": {"click": {"state": {"target": ["5"], "time": [3431]}, "edge": {"target": [], "time": []}}, "mouseover": {"state": {"target": ["5", "1"], "time": [2944, 3978]}, "edge": {"target": [], "time": []}}, "mouseout": {"state": {"target": ["0", "5", "1", "6", "8"], "time": [2921, 3772, 4246, 7917, 8825]}, "edge": {"target": [], "time": []}}}, "displayed_time": "11.23", "trialTime": 13809, "trial_type": "mouselab-mdp", "trial_index": 21, "time_elapsed": 998870, "internal_node_id": "0.0-4.0-1.0-12.0"}}, {"uniqueid": "w20778574:a63456293", "current_trial": 22, "dateTime": 1664369668827, "trialdata": {"revealed_states": [], "num_clicks_accrued": [0, 0, 0, 0, 0, 0, 0, 0, 0, 0, 0, 0, 0], "stateRewards": ["", -2, 4, 24, 48, 2, 4, -48, -48, -2, 8, 48, -24], "withholdReward": true, "trial_id": "mdp_305701202606", "block": "test1", "trialIndex": 15, "score": -37.75, "costs": -0.75, "simulationMode": [null, null, null], "rewards": [2, 4, -48], "path": ["0", "0", "5", "6", "7"], "rt": [4244, 144, 831], "actions": ["right", "right", "up"], "actionTimes": [6617, 7278, 8635], "queries": {"click": {"state": {"target": ["1", "9", "5"], "time": [3551, 4584, 5417]}, "edge": {"target": [], "time": []}}, "mouseover": {"state": {"target": ["1", "9", "0", "5"], "time": [3165, 4179, 5010, 5212]}, "edge": {"target": [], "time": []}}, "mouseout": {"state": {"target": ["6", "5", "0", "1", "9", "0", "5"], "time": [1445, 1610, 2821, 4007, 4961, 5077, 5727]}, "edge": {"target": [], "time": []}}}, "displayed_time": "10.37", "trialTime": 16187, "trial_type": "mouselab-mdp", "trial_index": 22, "time_elapsed": 1015497, "internal_node_id": "0.0-4.0-1.0-13.0"}}, {"uniqueid": "w20778574:a63456293", "current_trial": 23, "dateTime": 1664369679255, "trialdata": {"revealed_states": [], "num_clicks_accrued": [0, 0, 0, 0, 0, 0, 0, 0, 0, 0, 0, 0, 0], "stateRewards": ["", 2, -8, 48, -24, -4, -8, -24, 48, -2, 4, 24, -48], "withholdReward": true, "trial_id": "mdp_186932504904", "block": "test1", "trialIndex": 16, "score": 46.5, "costs": -0.5, "simulationMode": [null, null, null], "rewards": [2, -8, 48], "path": ["0", "0", "1", "2", "3"], "rt": [4280, 286, 456], "actions": ["up", "up", "right"], "actionTimes": [5928, 6731, 7731], "queries": {"click": {"state": {"target": ["5", "1"], "time": [2922, 3856]}, "edge": {"target": [], "time": []}}, "mouseover": {"state": {"target": ["5", "1"], "time": [2523, 3437]}, "edge": {"target": [], "time": []}}, "mouseout": {"state": {"target": ["0", "0", "5"], "time": [605, 2492, 3371]}, "edge": {"target": [], "time": []}}}, "displayed_time": "8.65", "trialTime": 9953, "trial_type": "mouselab-mdp", "trial_index": 23, "time_elapsed": 1025924, "internal_node_id": "0.0-4.0-1.0-14.0"}}, {"uniqueid": "w20778574:a63456293", "current_trial": 24, "dateTime": 1664369693477, "trialdata": {"revealed_states": [], "num_clicks_accrued": [0, 0, 0, 0, 0, 0, 0, 0, 0, 0, 0, 0, 0], "stateRewards": ["", 4, -8, 48, 48, 2, 4, 48, -48, 4, -4, -48, 48], "withholdReward": true, "trial_id": "mdp_519605841135", "block": "test1", "trialIndex": 17, "score": 52.75, "costs": -0.25, "simulationMode": [null, null, null], "rewards": [4, -4, 48], "path": ["0", "0", "9", "10", "12"], "rt": [3158, 496, 913], "actions": ["left", "left", "down"], "actionTimes": [5976, 6991, 8424], "queries": {"click": {"state": {"target": ["9"], "time": [4571]}, "edge": {"target": [], "time": []}}, "mouseover": {"state": {"target": ["1", "9"], "time": [3538, 4309]}, "edge": {"target": [], "time": []}}, "mouseout": {"state": {"target": ["1", "1", "9"], "time": [2152, 3765, 4921]}, "edge": {"target": [], "time": []}}}, "displayed_time": "10.82", "trialTime": 13624, "trial_type": "mouselab-mdp", "trial_index": 24, "time_elapsed": 1040144, "internal_node_id": "0.0-4.0-1.0-15.0"}}, {"uniqueid": "w20778574:a63456293", "current_trial": 25, "dateTime": 1664369708177, "trialdata": {"revealed_states": [], "num_clicks_accrued": [0, 0, 0, 0, 0, 0, 0, 0, 0, 0, 0, 0, 0], "stateRewards": ["", 2, -8, 48, -24, 2, -4, 24, 48, 4, -4, 48, -24], "withholdReward": false, "trial_id": "mdp_656500928756", "block": "test1", "trialIndex": 18, "score": 52.75, "costs": -0.25, "simulationMode": [null, null, null], "rewards": [4, -4, 48], "path": ["0", "0", "9", "10", "11"], "rt": [2654, 201, 215], "actions": ["left", "left", "up"], "actionTimes": [5092, 5856, 6579], "queries": {"click": {"state": {"target": ["9"], "time": [3818]}, "edge": {"target": [], "time": []}}, "mouseover": {"state": {"target": ["9"], "time": [3239]}, "edge": {"target": [], "time": []}}, "mouseout": {"state": {"target": ["0", "9"], "time": [3074, 12837]}, "edge": {"target": [], "time": []}}}, "displayed_time": "10.45", "trialTime": 14130, "trial_type": "mouselab-mdp", "trial_index": 25, "time_elapsed": 1054846, "internal_node_id": "0.0-4.0-1.0-16.0"}}, {"uniqueid": "w20778574:a63456293", "current_trial": 26, "dateTime": 1664369720431, "trialdata": {"revealed_states": [], "num_clicks_accrued": [0, 0, 0, 0, 0, 0, 0, 0, 0, 0, 0, 0, 0], "stateRewards": ["", 4, 4, 48, -48, 4, 4, -48, 24, 2, 8, 24, -48], "withholdReward": true, "trial_id": "mdp_291674656283", "block": "test1", "trialIndex": 19, "score": 60.75, "costs": -0.25, "simulationMode": [null, null, null], "rewards": [4, 4, 48], "path": ["0", "0", "1", "2", "3"], "rt": [2259, 394, 245], "actions": ["up", "up", "right"], "actionTimes": [4655, 5557, 6309], "queries": {"click": {"state": {"target": ["1"], "time": [3106]}, "edge": {"target": [], "time": []}}, "mouseover": {"state": {"target": ["1"], "time": [2841]}, "edge": {"target": [], "time": []}}, "mouseout": {"state": {"target": ["3", "1", "0", "1"], "time": [1439, 1655, 2750, 3561]}, "edge": {"target": [], "time": []}}}, "displayed_time": "10.40", "trialTime": 11799, "trial_type": "mouselab-mdp", "trial_index": 26, "time_elapsed": 1067100, "internal_node_id": "0.0-4.0-1.0-17.0"}}, {"uniqueid": "w20778574:a63456293", "current_trial": 27, "dateTime": 1664369732068, "trialdata": {"revealed_states": [], "num_clicks_accrued": [0, 0, 0, 0, 0, 0, 0, 0, 0, 0, 0, 0, 0], "stateRewards": ["", -2, 4, 48, -24, 2, 8, 24, 48, 2, 4, -24, -48], "withholdReward": true, "trial_id": "mdp_892412058587", "block": "test1", "trialIndex": 20, "score": -37.5, "costs": -0.5, "simulationMode": [null, null, null], "rewards": [2, 4, -48], "path": ["0", "0", "9", "10", "12"], "rt": [3521, 282, 504], "actions": ["left", "left", "down"], "actionTimes": [5461, 6263, 7279], "queries": {"click": {"state": {"target": ["1", "9"], "time": [3178, 4202]}, "edge": {"target": [], "time": []}}, "mouseover": {"state": {"target": ["1", "0", "9"], "time": [2781, 3782, 3844]}, "edge": {"target": [], "time": []}}, "mouseout": {"state": {"target": ["0", "0", "1", "0"], "time": [970, 2466, 3666, 3809]}, "edge": {"target": [], "time": []}}}, "displayed_time": "9.94", "trialTime": 11193, "trial_type": "mouselab-mdp", "trial_index": 27, "time_elapsed": 1078736, "internal_node_id": "0.0-4.0-1.0-18.0"}}, {"uniqueid": "w20778574:a63456293", "current_trial": 28, "dateTime": 1664369746053, "trialdata": {"revealed_states": [], "num_clicks_accrued": [0, 0, 0, 0, 0, 0, 0, 0, 0, 0, 0, 0, 0], "stateRewards": ["", -2, -8, -24, -24, 4, -4, -48, 48, 2, 8, 48, -48], "withholdReward": false, "trial_id": "mdp_498095124548", "block": "test1", "trialIndex": 21, "score": 52.75, "costs": -0.25, "simulationMode": [null, null, null], "rewards": [4, -4, 48], "path": ["0", "0", "5", "6", "8"], "rt": [2239, 349, 680], "actions": ["right", "right", "down"], "actionTimes": [4630, 5487, 6699], "queries": {"click": {"state": {"target": ["5"], "time": [3137]}, "edge": {"target": [], "time": []}}, "mouseover": {"state": {"target": ["5"], "time": [2794]}, "edge": {"target": [], "time": []}}, "mouseout": {"state": {"target": ["9", "9", "0", "5"], "time": [1353, 1482, 2746, 3643]}, "edge": {"target": [], "time": []}}}, "displayed_time": "9.39", "trialTime": 13356, "trial_type": "mouselab-mdp", "trial_index": 28, "time_elapsed": 1092722, "internal_node_id": "0.0-4.0-1.0-19.0"}}, {"uniqueid": "w20778574:a63456293", "current_trial": 29, "dateTime": 1664369759290, "trialdata": {"revealed_states": [], "num_clicks_accrued": [0, 0, 0, 0, 0, 0, 0, 0, 0, 0, 0, 0, 0], "stateRewards": ["", 4, 4, 24, -48, 2, -8, -24, -48, 4, 8, 48, 48], "withholdReward": true, "trial_id": "mdp_592471239511", "block": "test1", "trialIndex": 22, "score": 36.75, "costs": -0.25, "simulationMode": [null, null, null], "rewards": [4, 4, 24], "path": ["0", "0", "1", "2", "3"], "rt": [2702, 315, 369], "actions": ["up", "up", "right"], "actionTimes": [5109, 5926, 6797], "queries": {"click": {"state": {"target": ["1"], "time": [3198]}, "edge": {"target": [], "time": []}}, "mouseover": {"state": {"target": ["1", "9"], "time": [2822, 3754]}, "edge": {"target": [], "time": []}}, "mouseout": {"state": {"target": ["5", "2", "1", "0", "1", "9"], "time": [1081, 1384, 1453, 2721, 3537, 4237]}, "edge": {"target": [], "time": []}}}, "displayed_time": "11.41", "trialTime": 12752, "trial_type": "mouselab-mdp", "trial_index": 29, "time_elapsed": 1105958, "internal_node_id": "0.0-4.0-1.0-20.0"}}, {"uniqueid": "w20778574:a63456293", "current_trial": 30, "dateTime": 1664369778294, "trialdata": {"revealed_states": [], "num_clicks_accrued": [0, 0, 0, 0, 0, 0, 0, 0, 0, 0, 0, 0, 0], "stateRewards": ["", -4, -4, 24, -48, 2, 4, -24, -48, -2, -8, -24, 24], "withholdReward": false, "trial_id": "mdp_565569130486", "block": "test1", "trialIndex": 23, "score": -13.5, "costs": -0.5, "simulationMode": [null, null, null], "rewards": [2, 4, -24], "path": ["0", "0", "5", "6", "7"], "rt": [4548, 656, 499], "actions": ["right", "right", "up"], "actionTimes": [6450, 7610, 8620], "queries": {"click": {"state": {"target": ["1", "9"], "time": [3351, 4994]}, "edge": {"target": [], "time": []}}, "mouseover": {"state": {"target": ["1", "9", "5"], "time": [2568, 4215, 5664]}, "edge": {"target": [], "time": []}}, "mouseout": {"state": {"target": ["1", "9", "5"], "time": [4016, 5548, 16610]}, "edge": {"target": [], "time": []}}}, "displayed_time": "11.91", "trialTime": 18533, "trial_type": "mouselab-mdp", "trial_index": 30, "time_elapsed": 1124963, "internal_node_id": "0.0-4.0-1.0-21.0"}}, {"uniqueid": "w20778574:a63456293", "current_trial": 31, "dateTime": 1664369791459, "trialdata": {"revealed_states": [], "num_clicks_accrued": [0, 0, 0, 0, 0, 0, 0, 0, 0, 0, 0, 0, 0], "stateRewards": ["", 2, 4, 48, 48, 4, -8, 24, -48, -4, -8, -24, -48], "withholdReward": true, "trial_id": "mdp_343818007251", "block": "test1", "trialIndex": 24, "score": 58.75, "costs": -0.25, "simulationMode": [null, null, null], "rewards": [2, 4, 48], "path": ["0", "0", "1", "2", "3"], "rt": [2899, 214, 320], "actions": ["up", "up", "right"], "actionTimes": [4851, 5574, 6396], "queries": {"click": {"state": {"target": ["1"], "time": [3772]}, "edge": {"target": [], "time": []}}, "mouseover": {"state": {"target": ["1"], "time": [3201]}, "edge": {"target": [], "time": []}}, "mouseout": {"state": {"target": ["0"], "time": [2920]}, "edge": {"target": [], "time": []}}}, "displayed_time": "10.95", "trialTime": 12654, "trial_type": "mouselab-mdp", "trial_index": 31, "time_elapsed": 1138129, "internal_node_id": "0.0-4.0-1.0-22.0"}}, {"uniqueid": "w20778574:a63456293", "current_trial": 32, "dateTime": 1664369804318, "trialdata": {"revealed_states": [], "num_clicks_accrued": [0, 0, 0, 0, 0, 0, 0, 0, 0, 0, 0, 0, 0], "stateRewards": ["", 2, -8, 24, -48, 2, 4, 48, -48, -2, -8, -48, 48], "withholdReward": false, "trial_id": "mdp_629420544881", "block": "test1", "trialIndex": 25, "score": 22.75, "costs": -0.25, "simulationMode": [null, null, null], "rewards": [2, -8, 24], "path": ["0", "0", "1", "2", "3"], "rt": [2577, 340, 259], "actions": ["up", "up", "right"], "actionTimes": [4714, 5563, 6332], "queries": {"click": {"state": {"target": ["1"], "time": [3391]}, "edge": {"target": [], "time": []}}, "mouseover": {"state": {"target": ["1"], "time": [2800]}, "edge": {"target": [], "time": []}}, "mouseout": {"state": {"target": ["1", "0"], "time": [786, 2715]}, "edge": {"target": [], "time": []}}}, "displayed_time": "10.19", "trialTime": 12374, "trial_type": "mouselab-mdp", "trial_index": 32, "time_elapsed": 1150986, "internal_node_id": "0.0-4.0-1.0-23.0"}}, {"uniqueid": "w20778574:a63456293", "current_trial": 33, "dateTime": 1664369818537, "trialdata": {"revealed_states": [], "num_clicks_accrued": [0, 0, 0, 0, 0, 0, 0, 0, 0, 0, 0, 0, 0], "stateRewards": ["", -2, 8, -24, 24, 2, -8, 48, -24, 2, 8, -24, -24], "withholdReward": true, "trial_id": "mdp_674708270444", "block": "test1", "trialIndex": 26, "score": -9.5, "costs": -0.5, "simulationMode": [null, null, null], "rewards": [2, 8, -24], "path": ["0", "0", "9", "10", "11"], "rt": [4808, 248, 1096], "actions": ["left", "left", "up"], "actionTimes": [7160, 7931, 9531], "queries": {"click": {"state": {"target": ["1", "9"], "time": [4006, 5567]}, "edge": {"target": [], "time": []}}, "mouseover": {"state": {"target": ["1", "9", "9"], "time": [3464, 4728, 5000]}, "edge": {"target": [], "time": []}}, "mouseout": {"state": {"target": ["1", "0", "1", "9"], "time": [976, 1377, 4664, 4758]}, "edge": {"target": [], "time": []}}}, "displayed_time": "11.35", "trialTime": 13587, "trial_type": "mouselab-mdp", "trial_index": 33, "time_elapsed": 1165205, "internal_node_id": "0.0-4.0-1.0-24.0"}}, {"uniqueid": "w20778574:a63456293", "current_trial": 34, "dateTime": 1664369831759, "trialdata": {"revealed_states": [], "num_clicks_accrued": [0, 0, 0, 0, 0, 0, 0, 0, 0, 0, 0, 0, 0], "stateRewards": ["", 4, 8, -48, 24, -2, 8, -48, -48, -4, 4, 48, -48], "withholdReward": true, "trial_id": "mdp_693807815190", "block": "test1", "trialIndex": 27, "score": -37, "costs": 0, "simulationMode": [null, null, null], "rewards": [-2, 8, -48], "path": ["0", "0", "5", "6", "7"], "rt": [1911, 341, 193], "actions": ["right", "right", "up"], "actionTimes": [4390, 5231, 5952], "queries": {"click": {"state": {"target": [], "time": []}, "edge": {"target": [], "time": []}}, "mouseover": {"state": {"target": [], "time": []}, "edge": {"target": [], "time": []}}, "mouseout": {"state": {"target": ["9"], "time": [1281]}, "edge": {"target": [], "time": []}}}, "displayed_time": "11.49", "trialTime": 12614, "trial_type": "mouselab-mdp", "trial_index": 34, "time_elapsed": 1178428, "internal_node_id": "0.0-4.0-1.0-25.0"}}, {"uniqueid": "w20778574:a63456293", "current_trial": 35, "dateTime": 1664369848402, "trialdata": {"revealed_states": [], "num_clicks_accrued": [0, 0, 0, 0, 0, 0, 0, 0, 0, 0, 0, 0, 0], "stateRewards": ["", -2, 8, -48, 48, -4, -8, 24, 24, -2, -4, 48, -48], "withholdReward": false, "trial_id": "mdp_867247318592", "block": "test1", "trialIndex": 28, "score": 59, "costs": 0, "simulationMode": [null, null, null], "rewards": [-2, 8, 48], "path": ["0", "0", "1", "2", "4"], "rt": [1990, 238, 463], "actions": ["up", "up", "left"], "actionTimes": [3794, 4633, 5604], "queries": {"click": {"state": {"target": [], "time": []}, "edge": {"target": [], "time": []}}, "mouseover": {"state": {"target": [], "time": []}, "edge": {"target": [], "time": []}}, "mouseout": {"state": {"target": [], "time": []}, "edge": {"target": [], "time": []}}}, "displayed_time": "11.80", "trialTime": 16064, "trial_type": "mouselab-mdp", "trial_index": 35, "time_elapsed": 1195072, "internal_node_id": "0.0-4.0-1.0-26.0"}}, {"uniqueid": "w20778574:a63456293", "current_trial": 36, "dateTime": 1664369861183, "trialdata": {"revealed_states": [], "num_clicks_accrued": [0, 0, 0, 0, 0, 0, 0, 0, 0, 0, 0, 0, 0], "stateRewards": ["", -2, -4, -24, 24, -2, 4, -24, -24, -4, 4, 24, -24], "withholdReward": true, "trial_id": "mdp_999419261719", "block": "test1", "trialIndex": 29, "score": 23, "costs": 0, "simulationMode": [null, null, null], "rewards": [-2, -4, 24], "path": ["0", "0", "1", "2", "4"], "rt": [3099, 286, 716], "actions": ["up", "up", "left"], "actionTimes": [5868, 6678, 7941], "queries": {"click": {"state": {"target": [], "time": []}, "edge": {"target": [], "time": []}}, "mouseover": {"state": {"target": [], "time": []}, "edge": {"target": [], "time": []}}, "mouseout": {"state": {"target": [], "time": []}, "edge": {"target": [], "time": []}}}, "displayed_time": "10.77", "trialTime": 12376, "trial_type": "mouselab-mdp", "trial_index": 36, "time_elapsed": 1207853, "internal_node_id": "0.0-4.0-1.0-27.0"}}, {"uniqueid": "w20778574:a63456293", "current_trial": 37, "dateTime": 1664369873726, "trialdata": {"revealed_states": [], "num_clicks_accrued": [0, 0, 0, 0, 0, 0, 0, 0, 0, 0, 0, 0, 0], "stateRewards": ["", 4, -4, 48, -48, 2, 8, -48, 24, -2, -4, -24, 48], "withholdReward": false, "trial_id": "mdp_937564992306", "block": "test1", "trialIndex": 30, "score": -25, "costs": 0, "simulationMode": [null, null, null], "rewards": [-2, -4, -24], "path": ["0", "0", "9", "10", "11"], "rt": [3304, 224, 206], "actions": ["left", "left", "up"], "actionTimes": [4948, 5690, 6406], "queries": {"click": {"state": {"target": [], "time": []}, "edge": {"target": [], "time": []}}, "mouseover": {"state": {"target": [], "time": []}, "edge": {"target": [], "time": []}}, "mouseout": {"state": {"target": [], "time": []}, "edge": {"target": [], "time": []}}}, "displayed_time": "9.64", "trialTime": 12006, "trial_type": "mouselab-mdp", "trial_index": 37, "time_elapsed": 1220395, "internal_node_id": "0.0-4.0-1.0-28.0"}}, {"uniqueid": "w20778574:a63456293", "current_trial": 38, "dateTime": 1664369886187, "trialdata": {"revealed_states": [], "num_clicks_accrued": [0, 0, 0, 0, 0, 0, 0, 0, 0, 0, 0, 0, 0], "stateRewards": ["", 2, 8, 48, -48, -2, -4, -24, 24, 4, -4, 48, -48], "withholdReward": true, "trial_id": "mdp_105734044587", "block": "test1", "trialIndex": 31, "score": -33, "costs": 0, "simulationMode": [null, null, null], "rewards": [2, 8, -48], "path": ["0", "0", "1", "2", "4"], "rt": [3341, 156, 74], "actions": ["up", "up", "left"], "actionTimes": [4695, 5355, 5937], "queries": {"click": {"state": {"target": [], "time": []}, "edge": {"target": [], "time": []}}, "mouseover": {"state": {"target": [], "time": []}, "edge": {"target": [], "time": []}}, "mouseout": {"state": {"target": [], "time": []}, "edge": {"target": [], "time": []}}}, "displayed_time": "10.35", "trialTime": 11747, "trial_type": "mouselab-mdp", "trial_index": 38, "time_elapsed": 1232856, "internal_node_id": "0.0-4.0-1.0-29.0"}}, {"uniqueid": "w20778574:a63456293", "current_trial": 39, "dateTime": 1664369909345, "trialdata": {"rt": 23113, "stimulus": "<h1> End of block! </h1>\n\nYou have reached the end of the block 1/4. If you need a short break, feel free to take one now before moving on.\n\n<br><br>\nIn the next block, you will complete another 30 rounds of this game.\n\n<br><br>\n<div style='text-align: center;'>Press <code>space</code> to begin.</div>\n<br><br>\n<div style='text-align: center;'>(If the experiment doesn't continue, try clicking on the text and then pressing <code>space</code>.)</div>", "response": " ", "trial_id": "mdp_ready_2", "trial_type": "html-keyboard-response", "trial_index": 39, "time_elapsed": 1256014, "internal_node_id": "0.0-4.0-2.0"}}, {"uniqueid": "w20778574:a63456293", "current_trial": 40, "dateTime": 1664369921267, "trialdata": {"revealed_states": [], "num_clicks_accrued": [0, 0, 0, 0, 0, 0, 0, 0, 0, 0, 0, 0, 0], "stateRewards": ["", -2, -4, -24, 48, -4, 8, 48, 48, 2, 8, -48, -24], "withholdReward": true, "trial_id": "mdp_136376573354", "block": "test2", "trialIndex": 32, "score": -33, "costs": 0, "simulationMode": [null, null, null], "rewards": [2, 8, -48], "path": ["0", "0", "9", "10", "11"], "rt": [3160, 308, 278], "actions": ["left", "left", "up"], "actionTimes": [4688, 5551, 6339], "queries": {"click": {"state": {"target": [], "time": []}, "edge": {"target": [], "time": []}}, "mouseover": {"state": {"target": [], "time": []}, "edge": {"target": [], "time": []}}, "mouseout": {"state": {"target": ["0"], "time": [3536]}, "edge": {"target": [], "time": []}}}, "displayed_time": "9.53", "trialTime": 11410, "trial_type": "mouselab-mdp", "trial_index": 40, "time_elapsed": 1267937, "internal_node_id": "0.0-4.0-3.0-0.0"}}, {"uniqueid": "w20778574:a63456293", "current_trial": 41, "dateTime": 1664369933339, "trialdata": {"revealed_states": [], "num_clicks_accrued": [0, 0, 0, 0, 0, 0, 0, 0, 0, 0, 0, 0, 0], "stateRewards": ["", 2, 4, 48, 48, -2, 4, 48, -24, -4, 8, -48, 48], "withholdReward": false, "trial_id": "mdp_407586865939", "block": "test2", "trialIndex": 33, "score": -39, "costs": 0, "simulationMode": [null, null, null], "rewards": [-4, 8, -48], "path": ["0", "0", "9", "10", "11"], "rt": [2706, 163, 351], "actions": ["left", "left", "up"], "actionTimes": [4688, 5384, 6234], "queries": {"click": {"state": {"target": [], "time": []}, "edge": {"target": [], "time": []}}, "mouseover": {"state": {"target": [], "time": []}, "edge": {"target": [], "time": []}}, "mouseout": {"state": {"target": ["0"], "time": [1176]}, "edge": {"target": [], "time": []}}}, "displayed_time": "9.98", "trialTime": 11467, "trial_type": "mouselab-mdp", "trial_index": 41, "time_elapsed": 1280008, "internal_node_id": "0.0-4.0-3.0-1.0"}}, {"uniqueid": "w20778574:a63456293", "current_trial": 42, "dateTime": 1664369946194, "trialdata": {"revealed_states": [], "num_clicks_accrued": [0, 0, 0, 0, 0, 0, 0, 0, 0, 0, 0, 0, 0], "stateRewards": ["", -2, 4, -24, -48, -4, 8, -24, 48, 4, 4, -48, 24], "withholdReward": true, "trial_id": "mdp_341117665701", "block": "test2", "trialIndex": 34, "score": -35.25, "costs": -0.25, "simulationMode": [null, null, null], "rewards": [4, 4, -48], "path": ["0", "0", "9", "10", "11"], "rt": [3533, 93, 237], "actions": ["left", "left", "up"], "actionTimes": [5318, 5918, 6671], "queries": {"click": {"state": {"target": ["9"], "time": [3573]}, "edge": {"target": [], "time": []}}, "mouseover": {"state": {"target": ["1", "9"], "time": [2453, 3021]}, "edge": {"target": [], "time": []}}, "mouseout": {"state": {"target": ["0", "1", "9"], "time": [1288, 2905, 4237]}, "edge": {"target": [], "time": []}}}, "displayed_time": "10.79", "trialTime": 12267, "trial_type": "mouselab-mdp", "trial_index": 42, "time_elapsed": 1292863, "internal_node_id": "0.0-4.0-3.0-2.0"}}, {"uniqueid": "w20778574:a63456293", "current_trial": 43, "dateTime": 1664369958367, "trialdata": {"revealed_states": [], "num_clicks_accrued": [0, 0, 0, 0, 0, 0, 0, 0, 0, 0, 0, 0, 0], "stateRewards": ["", 4, -4, 48, -48, -2, -8, -24, 48, -2, 4, 24, -24], "withholdReward": true, "trial_id": "mdp_507290896735", "block": "test2", "trialIndex": 35, "score": 31, "costs": 0, "simulationMode": [null, null, null], "rewards": [-2, 4, 24], "path": ["0", "0", "9", "10", "11"], "rt": [2411, 259, 241], "actions": ["left", "left", "up"], "actionTimes": [3978, 4741, 5500], "queries": {"click": {"state": {"target": [], "time": []}, "edge": {"target": [], "time": []}}, "mouseover": {"state": {"target": [], "time": []}, "edge": {"target": [], "time": []}}, "mouseout": {"state": {"target": ["0"], "time": [1275]}, "edge": {"target": [], "time": []}}}, "displayed_time": "9.57", "trialTime": 11677, "trial_type": "mouselab-mdp", "trial_index": 43, "time_elapsed": 1305036, "internal_node_id": "0.0-4.0-3.0-3.0"}}, {"uniqueid": "w20778574:a63456293", "current_trial": 44, "dateTime": 1664369970371, "trialdata": {"revealed_states": [], "num_clicks_accrued": [0, 0, 0, 0, 0, 0, 0, 0, 0, 0, 0, 0, 0], "stateRewards": ["", -4, -4, 24, -24, 4, 4, 24, 48, 4, -4, 48, -48], "withholdReward": true, "trial_id": "mdp_522385334882", "block": "test2", "trialIndex": 36, "score": 21, "costs": 0, "simulationMode": [null, null, null], "rewards": [-4, -4, 24], "path": ["0", "0", "1", "2", "3"], "rt": [3522, 168, 119], "actions": ["up", "up", "right"], "actionTimes": [5123, 5837, 6459], "queries": {"click": {"state": {"target": [], "time": []}, "edge": {"target": [], "time": []}}, "mouseover": {"state": {"target": ["0"], "time": [1636]}, "edge": {"target": [], "time": []}}, "mouseout": {"state": {"target": ["0"], "time": [1026]}, "edge": {"target": [], "time": []}}}, "displayed_time": "10.60", "trialTime": 11454, "trial_type": "mouselab-mdp", "trial_index": 44, "time_elapsed": 1317041, "internal_node_id": "0.0-4.0-3.0-4.0"}}, {"uniqueid": "w20778574:a63456293", "current_trial": 45, "dateTime": 1664369982752, "trialdata": {"revealed_states": [], "num_clicks_accrued": [0, 0, 0, 0, 0, 0, 0, 0, 0, 0, 0, 0, 0], "stateRewards": ["", -2, -8, -24, 48, -2, -8, -48, -48, 2, -8, -48, 24], "withholdReward": true, "trial_id": "mdp_288324580942", "block": "test2", "trialIndex": 37, "score": 43, "costs": 0, "simulationMode": [null, null, null], "rewards": [-2, -8, 48], "path": ["0", "0", "1", "2", "4"], "rt": [3413, 34, 248], "actions": ["up", "up", "left"], "actionTimes": [4985, 5530, 6277], "queries": {"click": {"state": {"target": [], "time": []}, "edge": {"target": [], "time": []}}, "mouseover": {"state": {"target": [], "time": []}, "edge": {"target": [], "time": []}}, "mouseout": {"state": {"target": [], "time": []}, "edge": {"target": [], "time": []}}}, "displayed_time": "10.58", "trialTime": 11626, "trial_type": "mouselab-mdp", "trial_index": 45, "time_elapsed": 1329421, "internal_node_id": "0.0-4.0-3.0-5.0"}}, {"uniqueid": "w20778574:a63456293", "current_trial": 46, "dateTime": 1664369997630, "trialdata": {"revealed_states": [], "num_clicks_accrued": [0, 0, 0, 0, 0, 0, 0, 0, 0, 0, 0, 0, 0], "stateRewards": ["", -2, 4, -24, -24, -2, 4, 48, 24, -4, -8, 24, -48], "withholdReward": false, "trial_id": "mdp_191839460481", "block": "test2", "trialIndex": 38, "score": 31, "costs": 0, "simulationMode": [null, null, null], "rewards": [-2, 4, 24], "path": ["0", "0", "5", "6", "8"], "rt": [5256, 62, 275], "actions": ["right", "right", "down"], "actionTimes": [7976, 8558, 9397], "queries": {"click": {"state": {"target": [], "time": []}, "edge": {"target": [], "time": []}}, "mouseover": {"state": {"target": [], "time": []}, "edge": {"target": [], "time": []}}, "mouseout": {"state": {"target": [], "time": []}, "edge": {"target": [], "time": []}}}, "displayed_time": "11.72", "trialTime": 14062, "trial_type": "mouselab-mdp", "trial_index": 46, "time_elapsed": 1344299, "internal_node_id": "0.0-4.0-3.0-6.0"}}, {"uniqueid": "w20778574:a63456293", "current_trial": 47, "dateTime": 1664370011542, "trialdata": {"revealed_states": [], "num_clicks_accrued": [0, 0, 0, 0, 0, 0, 0, 0, 0, 0, 0, 0, 0], "stateRewards": ["", 4, 4, 24, -48, 2, -8, -24, -48, 4, 8, 48, 48], "withholdReward": true, "trial_id": "mdp_592471239511", "block": "test2", "trialIndex": 39, "score": 65, "costs": 0, "simulationMode": [null, null, null], "rewards": [4, 8, 48], "path": ["0", "0", "9", "10", "11"], "rt": [3833, 405, 373], "actions": ["left", "left", "up"], "actionTimes": [5673, 6581, 7461], "queries": {"click": {"state": {"target": [], "time": []}, "edge": {"target": [], "time": []}}, "mouseover": {"state": {"target": [], "time": []}, "edge": {"target": [], "time": []}}, "mouseout": {"state": {"target": [], "time": []}, "edge": {"target": [], "time": []}}}, "displayed_time": "11.85", "trialTime": 13277, "trial_type": "mouselab-mdp", "trial_index": 47, "time_elapsed": 1358212, "internal_node_id": "0.0-4.0-3.0-7.0"}}, {"uniqueid": "w20778574:a63456293", "current_trial": 48, "dateTime": 1664370026109, "trialdata": {"revealed_states": [], "num_clicks_accrued": [0, 0, 0, 0, 0, 0, 0, 0, 0, 0, 0, 0, 0], "stateRewards": ["", -2, -4, 48, -24, -4, -4, -24, -24, -2, 4, -48, -24], "withholdReward": true, "trial_id": "mdp_410467837196", "block": "test2", "trialIndex": 40, "score": -25, "costs": 0, "simulationMode": [null, null, null], "rewards": [-2, -4, -24], "path": ["0", "0", "1", "2", "4"], "rt": [2574, 129, 109], "actions": ["up", "up", "left"], "actionTimes": [4435, 5091, 5704], "queries": {"click": {"state": {"target": [], "time": []}, "edge": {"target": [], "time": []}}, "mouseover": {"state": {"target": [], "time": []}, "edge": {"target": [], "time": []}}, "mouseout": {"state": {"target": [], "time": []}, "edge": {"target": [], "time": []}}}, "displayed_time": "10.86", "trialTime": 14079, "trial_type": "mouselab-mdp", "trial_index": 48, "time_elapsed": 1372778, "internal_node_id": "0.0-4.0-3.0-8.0"}}, {"uniqueid": "w20778574:a63456293", "current_trial": 49, "dateTime": 1664370041977, "trialdata": {"revealed_states": [], "num_clicks_accrued": [0, 0, 0, 0, 0, 0, 0, 0, 0, 0, 0, 0, 0], "stateRewards": ["", -4, -8, 48, 48, -4, 4, 48, -24, 4, 8, -24, -48], "withholdReward": true, "trial_id": "mdp_142906093415", "block": "test2", "trialIndex": 41, "score": 41, "costs": 0, "simulationMode": [null, null, null], "rewards": [-4, -8, 48], "path": ["0", "0", "1", "2", "4"], "rt": [1758, 75, 119], "actions": ["up", "up", "left"], "actionTimes": [4970, 5553, 6210], "queries": {"click": {"state": {"target": [], "time": []}, "edge": {"target": [], "time": []}}, "mouseover": {"state": {"target": [], "time": []}, "edge": {"target": [], "time": []}}, "mouseout": {"state": {"target": [], "time": []}, "edge": {"target": [], "time": []}}}, "displayed_time": "12.21", "trialTime": 15212, "trial_type": "mouselab-mdp", "trial_index": 49, "time_elapsed": 1388645, "internal_node_id": "0.0-4.0-3.0-9.0"}}, {"uniqueid": "w20778574:a63456293", "current_trial": 50, "dateTime": 1664370054833, "trialdata": {"revealed_states": [], "num_clicks_accrued": [0, 0, 0, 0, 0, 0, 0, 0, 0, 0, 0, 0, 0], "stateRewards": ["", 4, -8, 24, 48, -2, -4, -48, 24, 2, 4, -48, -24], "withholdReward": true, "trial_id": "mdp_749974461966", "block": "test2", "trialIndex": 42, "score": 49, "costs": 0, "simulationMode": [null, null, null], "rewards": [4, -8, 48], "path": ["0", "0", "1", "2", "4"], "rt": [2972, 8, 120], "actions": ["up", "up", "left"], "actionTimes": [4525, 5056, 5702], "queries": {"click": {"state": {"target": [], "time": []}, "edge": {"target": [], "time": []}}, "mouseover": {"state": {"target": [], "time": []}, "edge": {"target": [], "time": []}}, "mouseout": {"state": {"target": [], "time": []}, "edge": {"target": [], "time": []}}}, "displayed_time": "10.55", "trialTime": 12070, "trial_type": "mouselab-mdp", "trial_index": 50, "time_elapsed": 1401502, "internal_node_id": "0.0-4.0-3.0-10.0"}}, {"uniqueid": "w20778574:a63456293", "current_trial": 51, "dateTime": 1664370066456, "trialdata": {"revealed_states": [], "num_clicks_accrued": [0, 0, 0, 0, 0, 0, 0, 0, 0, 0, 0, 0, 0], "stateRewards": ["", -4, 8, -48, -48, -2, -8, -24, -48, 2, -4, -48, 24], "withholdReward": true, "trial_id": "mdp_743906784415", "block": "test2", "trialIndex": 43, "score": -39, "costs": 0, "simulationMode": [null, null, null], "rewards": [-4, 8, -48], "path": ["0", "0", "1", "2", "4"], "rt": [3853, 112, 64], "actions": ["up", "up", "left"], "actionTimes": [5667, 6297, 6886], "queries": {"click": {"state": {"target": [], "time": []}, "edge": {"target": [], "time": []}}, "mouseover": {"state": {"target": [], "time": []}, "edge": {"target": [], "time": []}}, "mouseout": {"state": {"target": [], "time": []}, "edge": {"target": [], "time": []}}}, "displayed_time": "9.81", "trialTime": 10900, "trial_type": "mouselab-mdp", "trial_index": 51, "time_elapsed": 1413126, "internal_node_id": "0.0-4.0-3.0-11.0"}}, {"uniqueid": "w20778574:a63456293", "current_trial": 52, "dateTime": 1664370082468, "trialdata": {"revealed_states": [], "num_clicks_accrued": [0, 0, 0, 0, 0, 0, 0, 0, 0, 0, 0, 0, 0], "stateRewards": ["", 2, 4, -48, -48, 4, 4, -48, -48, -2, -8, 48, -24], "withholdReward": true, "trial_id": "mdp_175327338412", "block": "test2", "trialIndex": 44, "score": 43, "costs": 0, "simulationMode": [null, null, null], "rewards": [-2, -8, 48], "path": ["0", "0", "9", "10", "11"], "rt": [2016, 251, 284], "actions": ["left", "left", "up"], "actionTimes": [6532, 7309, 8091], "queries": {"click": {"state": {"target": [], "time": []}, "edge": {"target": [], "time": []}}, "mouseover": {"state": {"target": [], "time": []}, "edge": {"target": [], "time": []}}, "mouseout": {"state": {"target": [], "time": []}, "edge": {"target": [], "time": []}}}, "displayed_time": "13.52", "trialTime": 15448, "trial_type": "mouselab-mdp", "trial_index": 52, "time_elapsed": 1429137, "internal_node_id": "0.0-4.0-3.0-12.0"}}, {"uniqueid": "w20778574:a63456293", "current_trial": 53, "dateTime": 1664370095401, "trialdata": {"revealed_states": [], "num_clicks_accrued": [0, 0, 0, 0, 0, 0, 0, 0, 0, 0, 0, 0, 0], "stateRewards": ["", 2, 4, 48, 24, -2, -8, 24, 24, -2, 4, -48, 24], "withholdReward": false, "trial_id": "mdp_130849500124", "block": "test2", "trialIndex": 45, "score": 19, "costs": 0, "simulationMode": [null, null, null], "rewards": [-2, -8, 24], "path": ["0", "0", "5", "6", "8"], "rt": [2599, 75, 103], "actions": ["right", "right", "down"], "actionTimes": [4555, 5133, 5754], "queries": {"click": {"state": {"target": [], "time": []}, "edge": {"target": [], "time": []}}, "mouseover": {"state": {"target": [], "time": []}, "edge": {"target": [], "time": []}}, "mouseout": {"state": {"target": [], "time": []}, "edge": {"target": [], "time": []}}}, "displayed_time": "10.96", "trialTime": 12264, "trial_type": "mouselab-mdp", "trial_index": 53, "time_elapsed": 1442069, "internal_node_id": "0.0-4.0-3.0-13.0"}}, {"uniqueid": "w20778574:a63456293", "current_trial": 54, "dateTime": 1664370108038, "trialdata": {"revealed_states": [], "num_clicks_accrued": [0, 0, 0, 0, 0, 0, 0, 0, 0, 0, 0, 0, 0], "stateRewards": ["", 4, 8, 48, 48, 4, 4, -24, -48, 4, 8, -48, -48], "withholdReward": true, "trial_id": "mdp_984548726931", "block": "test2", "trialIndex": 46, "score": 65, "costs": 0, "simulationMode": [null, null, null], "rewards": [4, 8, 48], "path": ["0", "0", "1", "2", "3"], "rt": [2544, 91, 787], "actions": ["up", "up", "right"], "actionTimes": [4400, 5010, 6385], "queries": {"click": {"state": {"target": [], "time": []}, "edge": {"target": [], "time": []}}, "mouseover": {"state": {"target": [], "time": []}, "edge": {"target": [], "time": []}}, "mouseout": {"state": {"target": [], "time": []}, "edge": {"target": [], "time": []}}}, "displayed_time": "10.86", "trialTime": 11995, "trial_type": "mouselab-mdp", "trial_index": 54, "time_elapsed": 1454707, "internal_node_id": "0.0-4.0-3.0-14.0"}}, {"uniqueid": "w20778574:a63456293", "current_trial": 55, "dateTime": 1664370123524, "trialdata": {"revealed_states": [], "num_clicks_accrued": [0, 0, 0, 0, 0, 0, 0, 0, 0, 0, 0, 0, 0], "stateRewards": ["", 2, 4, -24, -24, 4, 8, -48, 48, 2, 4, -24, -48], "withholdReward": false, "trial_id": "mdp_565165082781", "block": "test2", "trialIndex": 47, "score": -13, "costs": 0, "simulationMode": [null, null, null], "rewards": [2, 4, -24], "path": ["0", "0", "1", "2", "3"], "rt": [1832, 542, 595], "actions": ["up", "up", "right"], "actionTimes": [4313, 5368, 6471], "queries": {"click": {"state": {"target": [], "time": []}, "edge": {"target": [], "time": []}}, "mouseover": {"state": {"target": [], "time": []}, "edge": {"target": [], "time": []}}, "mouseout": {"state": {"target": [], "time": []}, "edge": {"target": [], "time": []}}}, "displayed_time": "12.48", "trialTime": 14870, "trial_type": "mouselab-mdp", "trial_index": 55, "time_elapsed": 1470192, "internal_node_id": "0.0-4.0-3.0-15.0"}}, {"uniqueid": "w20778574:a63456293", "current_trial": 56, "dateTime": 1664370135130, "trialdata": {"revealed_states": [], "num_clicks_accrued": [0, 0, 0, 0, 0, 0, 0, 0, 0, 0, 0, 0, 0], "stateRewards": ["", -4, -4, -24, 24, -4, 4, -24, 48, -2, 4, 48, -48], "withholdReward": true, "trial_id": "mdp_774757609669", "block": "test2", "trialIndex": 48, "score": 55, "costs": 0, "simulationMode": [null, null, null], "rewards": [-2, 4, 48], "path": ["0", "0", "9", "10", "11"], "rt": [1650, 286, 205], "actions": ["left", "left", "up"], "actionTimes": [3438, 4239, 4954], "queries": {"click": {"state": {"target": [], "time": []}, "edge": {"target": [], "time": []}}, "mouseover": {"state": {"target": [], "time": []}, "edge": {"target": [], "time": []}}, "mouseout": {"state": {"target": [], "time": []}, "edge": {"target": [], "time": []}}}, "displayed_time": "9.79", "trialTime": 10966, "trial_type": "mouselab-mdp", "trial_index": 56, "time_elapsed": 1481799, "internal_node_id": "0.0-4.0-3.0-16.0"}}, {"uniqueid": "w20778574:a63456293", "current_trial": 57, "dateTime": 1664370148214, "trialdata": {"revealed_states": [], "num_clicks_accrued": [0, 0, 0, 0, 0, 0, 0, 0, 0, 0, 0, 0, 0], "stateRewards": ["", 4, -4, 48, -48, 4, -4, 24, -24, 4, 8, -24, -48], "withholdReward": true, "trial_id": "mdp_433630527224", "block": "test2", "trialIndex": 49, "score": 53, "costs": 0, "simulationMode": [null, null, null], "rewards": [4, -4, 48], "path": ["0", "0", "1", "2", "3"], "rt": [3043, 91, 70], "actions": ["up", "up", "right"], "actionTimes": [6460, 7069, 7700], "queries": {"click": {"state": {"target": [], "time": []}, "edge": {"target": [], "time": []}}, "mouseover": {"state": {"target": [], "time": []}, "edge": {"target": [], "time": []}}, "mouseout": {"state": {"target": [], "time": []}, "edge": {"target": [], "time": []}}}, "displayed_time": "11.42", "trialTime": 12498, "trial_type": "mouselab-mdp", "trial_index": 57, "time_elapsed": 1494883, "internal_node_id": "0.0-4.0-3.0-17.0"}}, {"uniqueid": "w20778574:a63456293", "current_trial": 58, "dateTime": 1664370159981, "trialdata": {"revealed_states": [], "num_clicks_accrued": [0, 0, 0, 0, 0, 0, 0, 0, 0, 0, 0, 0, 0], "stateRewards": ["", -4, -4, 24, -48, -2, 8, -24, -48, -4, 4, 24, -48], "withholdReward": true, "trial_id": "mdp_934626330092", "block": "test2", "trialIndex": 50, "score": -51, "costs": 0, "simulationMode": [null, null, null], "rewards": [-4, -4, -48], "path": ["0", "0", "1", "2", "4"], "rt": [3408, 123, 224], "actions": ["up", "up", "left"], "actionTimes": [5471, 6103, 6836], "queries": {"click": {"state": {"target": [], "time": []}, "edge": {"target": [], "time": []}}, "mouseover": {"state": {"target": [], "time": []}, "edge": {"target": [], "time": []}}, "mouseout": {"state": {"target": [], "time": []}, "edge": {"target": [], "time": []}}}, "displayed_time": "10.06", "trialTime": 11228, "trial_type": "mouselab-mdp", "trial_index": 58, "time_elapsed": 1506650, "internal_node_id": "0.0-4.0-3.0-18.0"}}, {"uniqueid": "w20778574:a63456293", "current_trial": 59, "dateTime": 1664370172433, "trialdata": {"revealed_states": [], "num_clicks_accrued": [0, 0, 0, 0, 0, 0, 0, 0, 0, 0, 0, 0, 0], "stateRewards": ["", 4, 4, 48, -48, -2, -8, -48, -24, 2, 4, -24, -48], "withholdReward": true, "trial_id": "mdp_239929662917", "block": "test2", "trialIndex": 51, "score": -13, "costs": 0, "simulationMode": [null, null, null], "rewards": [2, 4, -24], "path": ["0", "0", "9", "10", "11"], "rt": [999, 195, 210], "actions": ["left", "left", "up"], "actionTimes": [3105, 3812, 4542], "queries": {"click": {"state": {"target": [], "time": []}, "edge": {"target": [], "time": []}}, "mouseover": {"state": {"target": [], "time": []}, "edge": {"target": [], "time": []}}, "mouseout": {"state": {"target": [], "time": []}, "edge": {"target": [], "time": []}}}, "displayed_time": "11.11", "trialTime": 11951, "trial_type": "mouselab-mdp", "trial_index": 59, "time_elapsed": 1519102, "internal_node_id": "0.0-4.0-3.0-19.0"}}, {"uniqueid": "w20778574:a63456293", "current_trial": 60, "dateTime": 1664370184261, "trialdata": {"revealed_states": [], "num_clicks_accrued": [0, 0, 0, 0, 0, 0, 0, 0, 0, 0, 0, 0, 0], "stateRewards": ["", 4, -4, 48, 24, 2, 4, 24, -24, 2, 4, 24, 48], "withholdReward": true, "trial_id": "mdp_736351885282", "block": "test2", "trialIndex": 52, "score": 53, "costs": 0, "simulationMode": [null, null, null], "rewards": [4, -4, 48], "path": ["0", "0", "1", "2", "3"], "rt": [1708, 194, 302], "actions": ["up", "up", "right"], "actionTimes": [3627, 4352, 5158], "queries": {"click": {"state": {"target": [], "time": []}, "edge": {"target": [], "time": []}}, "mouseover": {"state": {"target": [], "time": []}, "edge": {"target": [], "time": []}}, "mouseout": {"state": {"target": [], "time": []}, "edge": {"target": [], "time": []}}}, "displayed_time": "9.92", "trialTime": 11121, "trial_type": "mouselab-mdp", "trial_index": 60, "time_elapsed": 1530930, "internal_node_id": "0.0-4.0-3.0-20.0"}}, {"uniqueid": "w20778574:a63456293", "current_trial": 61, "dateTime": 1664370197255, "trialdata": {"revealed_states": [], "num_clicks_accrued": [0, 0, 0, 0, 0, 0, 0, 0, 0, 0, 0, 0, 0], "stateRewards": ["", -2, -8, -24, -48, 4, -8, 48, 24, 2, 4, -48, -48], "withholdReward": true, "trial_id": "mdp_898082967464", "block": "test2", "trialIndex": 53, "score": -29, "costs": 0, "simulationMode": [null, null, null], "rewards": [-2, -8, -24], "path": ["0", "0", "1", "2", "3"], "rt": [1301, 186, 256], "actions": ["up", "up", "right"], "actionTimes": [3539, 4236, 5038], "queries": {"click": {"state": {"target": [], "time": []}, "edge": {"target": [], "time": []}}, "mouseover": {"state": {"target": [], "time": []}, "edge": {"target": [], "time": []}}, "mouseout": {"state": {"target": [], "time": []}, "edge": {"target": [], "time": []}}}, "displayed_time": "11.24", "trialTime": 12344, "trial_type": "mouselab-mdp", "trial_index": 61, "time_elapsed": 1543925, "internal_node_id": "0.0-4.0-3.0-21.0"}}, {"uniqueid": "w20778574:a63456293", "current_trial": 62, "dateTime": 1664370213007, "trialdata": {"revealed_states": [], "num_clicks_accrued": [0, 0, 0, 0, 0, 0, 0, 0, 0, 0, 0, 0, 0], "stateRewards": ["", -2, 8, -24, 24, -4, -8, -24, 48, -2, -8, -48, 48], "withholdReward": true, "trial_id": "mdp_238332601315", "block": "test2", "trialIndex": 54, "score": -31, "costs": 0, "simulationMode": [null, null, null], "rewards": [-4, -8, -24], "path": ["0", "0", "5", "6", "7"], "rt": [1705, 802, 225], "actions": ["right", "right", "up"], "actionTimes": [4678, 6010, 6791], "queries": {"click": {"state": {"target": [], "time": []}, "edge": {"target": [], "time": []}}, "mouseover": {"state": {"target": [], "time": []}, "edge": {"target": [], "time": []}}, "mouseout": {"state": {"target": [], "time": []}, "edge": {"target": [], "time": []}}}, "displayed_time": "11.97", "trialTime": 15064, "trial_type": "mouselab-mdp", "trial_index": 62, "time_elapsed": 1559676, "internal_node_id": "0.0-4.0-3.0-22.0"}}, {"uniqueid": "w20778574:a63456293", "current_trial": 63, "dateTime": 1664370228730, "trialdata": {"revealed_states": [], "num_clicks_accrued": [0, 0, 0, 0, 0, 0, 0, 0, 0, 0, 0, 0, 0], "stateRewards": ["", -4, -4, 48, 24, -4, -4, -24, -48, -4, 4, 48, -24], "withholdReward": false, "trial_id": "mdp_896503755738", "block": "test2", "trialIndex": 55, "score": -27, "costs": 0, "simulationMode": [null, null, null], "rewards": [-4, -4, -24], "path": ["0", "0", "5", "6", "7"], "rt": [1714, 18, 153], "actions": ["right", "right", "up"], "actionTimes": [4703, 5231, 5911], "queries": {"click": {"state": {"target": [], "time": []}, "edge": {"target": [], "time": []}}, "mouseover": {"state": {"target": [], "time": []}, "edge": {"target": [], "time": []}}, "mouseout": {"state": {"target": [], "time": []}, "edge": {"target": [], "time": []}}}, "displayed_time": "11.99", "trialTime": 14973, "trial_type": "mouselab-mdp", "trial_index": 63, "time_elapsed": 1575398, "internal_node_id": "0.0-4.0-3.0-23.0"}}, {"uniqueid": "w20778574:a63456293", "current_trial": 64, "dateTime": 1664370241809, "trialdata": {"revealed_states": [], "num_clicks_accrued": [0, 0, 0, 0, 0, 0, 0, 0, 0, 0, 0, 0, 0], "stateRewards": ["", 4, -4, 48, -48, -4, -4, 48, -48, 4, 4, -48, -24], "withholdReward": true, "trial_id": "mdp_490058671112", "block": "test2", "trialIndex": 56, "score": -35, "costs": 0, "simulationMode": [null, null, null], "rewards": [4, 4, -48], "path": ["0", "0", "9", "10", "11"], "rt": [3448, 115, 70], "actions": ["left", "left", "up"], "actionTimes": [5528, 6165, 6753], "queries": {"click": {"state": {"target": [], "time": []}, "edge": {"target": [], "time": []}}, "mouseover": {"state": {"target": [], "time": []}, "edge": {"target": [], "time": []}}, "mouseout": {"state": {"target": [], "time": []}, "edge": {"target": [], "time": []}}}, "displayed_time": "10.08", "trialTime": 12358, "trial_type": "mouselab-mdp", "trial_index": 64, "time_elapsed": 1588478, "internal_node_id": "0.0-4.0-3.0-24.0"}}, {"uniqueid": "w20778574:a63456293", "current_trial": 65, "dateTime": 1664370255059, "trialdata": {"revealed_states": [], "num_clicks_accrued": [0, 0, 0, 0, 0, 0, 0, 0, 0, 0, 0, 0, 0], "stateRewards": ["", 2, 8, 48, 24, -4, 4, -48, 24, 2, 8, 48, 48], "withholdReward": false, "trial_id": "mdp_367344599162", "block": "test2", "trialIndex": 57, "score": 39, "costs": 0, "simulationMode": [null, null, null], "rewards": [2, 8, 24], "path": ["0", "0", "1", "2", "4"], "rt": [957, 167, 127], "actions": ["up", "up", "left"], "actionTimes": [2536, 3219, 3854], "queries": {"click": {"state": {"target": [], "time": []}, "edge": {"target": [], "time": []}}, "mouseover": {"state": {"target": [], "time": []}, "edge": {"target": [], "time": []}}, "mouseout": {"state": {"target": [], "time": []}, "edge": {"target": [], "time": []}}}, "displayed_time": "10.58", "trialTime": 12538, "trial_type": "mouselab-mdp", "trial_index": 65, "time_elapsed": 1601727, "internal_node_id": "0.0-4.0-3.0-25.0"}}, {"uniqueid": "w20778574:a63456293", "current_trial": 66, "dateTime": 1664370268661, "trialdata": {"revealed_states": [], "num_clicks_accrued": [0, 0, 0, 0, 0, 0, 0, 0, 0, 0, 0, 0, 0], "stateRewards": ["", -2, 4, -48, 24, -4, 8, 48, 24, -2, 4, -48, -24], "withholdReward": false, "trial_id": "mdp_740882974347", "block": "test2", "trialIndex": 58, "score": -41, "costs": 0, "simulationMode": [null, null, null], "rewards": [-2, 4, -48], "path": ["0", "0", "9", "10", "11"], "rt": [2593, 58, 201], "actions": ["left", "left", "up"], "actionTimes": [4357, 4937, 5671], "queries": {"click": {"state": {"target": [], "time": []}, "edge": {"target": [], "time": []}}, "mouseover": {"state": {"target": [], "time": []}, "edge": {"target": [], "time": []}}, "mouseout": {"state": {"target": [], "time": []}, "edge": {"target": [], "time": []}}}, "displayed_time": "10.77", "trialTime": 12854, "trial_type": "mouselab-mdp", "trial_index": 66, "time_elapsed": 1615329, "internal_node_id": "0.0-4.0-3.0-26.0"}}, {"uniqueid": "w20778574:a63456293", "current_trial": 67, "dateTime": 1664370279528, "trialdata": {"revealed_states": [], "num_clicks_accrued": [0, 0, 0, 0, 0, 0, 0, 0, 0, 0, 0, 0, 0], "stateRewards": ["", 2, -8, 24, -48, 2, 4, 48, -48, -2, -8, -48, 48], "withholdReward": true, "trial_id": "mdp_629420544881", "block": "test2", "trialIndex": 59, "score": 23, "costs": 0, "simulationMode": [null, null, null], "rewards": [2, -8, 24], "path": ["0", "0", "1", "2", "3"], "rt": [1191, 457, 813], "actions": ["up", "up", "right"], "actionTimes": [2992, 3949, 5271], "queries": {"click": {"state": {"target": [], "time": []}, "edge": {"target": [], "time": []}}, "mouseover": {"state": {"target": [], "time": []}, "edge": {"target": [], "time": []}}, "mouseout": {"state": {"target": [], "time": []}, "edge": {"target": [], "time": []}}}, "displayed_time": "8.80", "trialTime": 10215, "trial_type": "mouselab-mdp", "trial_index": 67, "time_elapsed": 1626196, "internal_node_id": "0.0-4.0-3.0-27.0"}}, {"uniqueid": "w20778574:a63456293", "current_trial": 68, "dateTime": 1664370292812, "trialdata": {"revealed_states": [], "num_clicks_accrued": [0, 0, 0, 0, 0, 0, 0, 0, 0, 0, 0, 0, 0], "stateRewards": ["", 2, -8, -48, 24, 4, 8, 48, -48, 2, -4, 24, 24], "withholdReward": false, "trial_id": "mdp_130475327289", "block": "test2", "trialIndex": 60, "score": 27, "costs": 0, "simulationMode": [null, null, null], "rewards": [2, -4, 24], "path": ["0", "0", "9", "10", "11"], "rt": [2246, 181, 30], "actions": ["left", "left", "up"], "actionTimes": [4180, 4906, 5436], "queries": {"click": {"state": {"target": [], "time": []}, "edge": {"target": [], "time": []}}, "mouseover": {"state": {"target": [], "time": []}, "edge": {"target": [], "time": []}}, "mouseout": {"state": {"target": [], "time": []}, "edge": {"target": [], "time": []}}}, "displayed_time": "10.93", "trialTime": 12667, "trial_type": "mouselab-mdp", "trial_index": 68, "time_elapsed": 1639480, "internal_node_id": "0.0-4.0-3.0-28.0"}}, {"uniqueid": "w20778574:a63456293", "current_trial": 69, "dateTime": 1664370304682, "trialdata": {"revealed_states": [], "num_clicks_accrued": [0, 0, 0, 0, 0, 0, 0, 0, 0, 0, 0, 0, 0], "stateRewards": ["", 4, 4, 48, -24, -4, -8, 24, -24, 2, -8, -24, 24], "withholdReward": true, "trial_id": "mdp_933201675789", "block": "test2", "trialIndex": 61, "score": -11, "costs": 0, "simulationMode": [null, null, null], "rewards": [4, 4, -24], "path": ["0", "0", "1", "2", "4"], "rt": [1393, 60, 803], "actions": ["up", "up", "left"], "actionTimes": [3751, 4387, 5700], "queries": {"click": {"state": {"target": [], "time": []}, "edge": {"target": [], "time": []}}, "mouseover": {"state": {"target": [], "time": []}, "edge": {"target": [], "time": []}}, "mouseout": {"state": {"target": [], "time": []}, "edge": {"target": [], "time": []}}}, "displayed_time": "9.36", "trialTime": 11082, "trial_type": "mouselab-mdp", "trial_index": 69, "time_elapsed": 1651350, "internal_node_id": "0.0-4.0-3.0-29.0"}}, {"uniqueid": "w20778574:a63456293", "current_trial": 70, "dateTime": 1664370327276, "trialdata": {"rt": 22534, "stimulus": "<h1> End of block! </h1>\n\nYou have reached the end of the block 2/4. If you need a short break, feel free to take one now before moving on.\n\n<br><br>\nIn the next block, you will complete another 30 rounds of this game.\n\n<br><br>\n<div style='text-align: center;'>Press <code>space</code> to begin.</div>\n<br><br>\n<div style='text-align: center;'>(If the experiment doesn't continue, try clicking on the text and then pressing <code>space</code>.)</div>", "response": " ", "trial_id": "mdp_ready_3", "trial_type": "html-keyboard-response", "trial_index": 70, "time_elapsed": 1673945, "internal_node_id": "0.0-4.0-4.0"}}, {"uniqueid": "w20778574:a63456293", "current_trial": 71, "dateTime": 1664370338920, "trialdata": {"revealed_states": [], "num_clicks_accrued": [0, 0, 0, 0, 0, 0, 0, 0, 0, 0, 0, 0, 0], "stateRewards": ["", 4, -4, 48, -48, -4, -4, 48, -48, 4, 4, -48, -24], "withholdReward": true, "trial_id": "mdp_490058671112", "block": "test3", "trialIndex": 62, "score": -35, "costs": 0, "simulationMode": [null, null, null], "rewards": [4, 4, -48], "path": ["0", "0", "9", "10", "11"], "rt": [1430, 170, 63], "actions": ["left", "left", "up"], "actionTimes": [3473, 4168, 4779], "queries": {"click": {"state": {"target": [], "time": []}, "edge": {"target": [], "time": []}}, "mouseover": {"state": {"target": [], "time": []}, "edge": {"target": [], "time": []}}, "mouseout": {"state": {"target": [], "time": []}, "edge": {"target": [], "time": []}}}, "displayed_time": "10.04", "trialTime": 10978, "trial_type": "mouselab-mdp", "trial_index": 71, "time_elapsed": 1685587, "internal_node_id": "0.0-4.0-5.0-0.0"}}, {"uniqueid": "w20778574:a63456293", "current_trial": 72, "dateTime": 1664370351004, "trialdata": {"revealed_states": [], "num_clicks_accrued": [0, 0, 0, 0, 0, 0, 0, 0, 0, 0, 0, 0, 0], "stateRewards": ["", 2, -8, -24, 48, 4, -8, -24, -24, 2, 8, -24, 24], "withholdReward": true, "trial_id": "mdp_480787552818", "block": "test3", "trialIndex": 63, "score": 47, "costs": 0, "simulationMode": [null, null, null], "rewards": [2, -8, 48], "path": ["0", "0", "1", "2", "4"], "rt": [1216, 49, 788], "actions": ["up", "up", "left"], "actionTimes": [3449, 4001, 5312], "queries": {"click": {"state": {"target": [], "time": []}, "edge": {"target": [], "time": []}}, "mouseover": {"state": {"target": [], "time": []}, "edge": {"target": [], "time": []}}, "mouseout": {"state": {"target": [], "time": []}, "edge": {"target": [], "time": []}}}, "displayed_time": "10.24", "trialTime": 11406, "trial_type": "mouselab-mdp", "trial_index": 72, "time_elapsed": 1697674, "internal_node_id": "0.0-4.0-5.0-1.0"}}, {"uniqueid": "w20778574:a63456293", "current_trial": 73, "dateTime": 1664370362697, "trialdata": {"revealed_states": [], "num_clicks_accrued": [0, 0, 0, 0, 0, 0, 0, 0, 0, 0, 0, 0, 0], "stateRewards": ["", -2, -8, 24, -24, 4, -8, 48, 48, -4, -8, -24, -48], "withholdReward": true, "trial_id": "mdp_286767261523", "block": "test3", "trialIndex": 64, "score": -31, "costs": 0, "simulationMode": [null, null, null], "rewards": [-4, -8, -24], "path": ["0", "0", "9", "10", "11"], "rt": [1214, 61, 11], "actions": ["left", "left", "up"], "actionTimes": [3167, 3739, 4269], "queries": {"click": {"state": {"target": [], "time": []}, "edge": {"target": [], "time": []}}, "mouseover": {"state": {"target": [], "time": []}, "edge": {"target": [], "time": []}}, "mouseout": {"state": {"target": [], "time": []}, "edge": {"target": [], "time": []}}}, "displayed_time": "9.98", "trialTime": 10951, "trial_type": "mouselab-mdp", "trial_index": 73, "time_elapsed": 1709366, "internal_node_id": "0.0-4.0-5.0-2.0"}}, {"uniqueid": "w20778574:a63456293", "current_trial": 74, "dateTime": 1664370374503, "trialdata": {"revealed_states": [], "num_clicks_accrued": [0, 0, 0, 0, 0, 0, 0, 0, 0, 0, 0, 0, 0], "stateRewards": ["", -4, -8, 24, -48, 2, 4, -48, -48, 2, -8, 24, 48], "withholdReward": true, "trial_id": "mdp_111262146724", "block": "test3", "trialIndex": 65, "score": 17, "costs": 0, "simulationMode": [null, null, null], "rewards": [-4, -8, 24], "path": ["0", "0", "1", "2", "3"], "rt": [1137, 137, 144], "actions": ["up", "up", "right"], "actionTimes": [3021, 3693, 4349], "queries": {"click": {"state": {"target": [], "time": []}, "edge": {"target": [], "time": []}}, "mouseover": {"state": {"target": [], "time": []}, "edge": {"target": [], "time": []}}, "mouseout": {"state": {"target": [], "time": []}, "edge": {"target": [], "time": []}}}, "displayed_time": "9.88", "trialTime": 11012, "trial_type": "mouselab-mdp", "trial_index": 74, "time_elapsed": 1721171, "internal_node_id": "0.0-4.0-5.0-3.0"}}, {"uniqueid": "w20778574:a63456293", "current_trial": 75, "dateTime": 1664370386469, "trialdata": {"revealed_states": [], "num_clicks_accrued": [0, 0, 0, 0, 0, 0, 0, 0, 0, 0, 0, 0, 0], "stateRewards": ["", -2, 8, -48, 48, -4, -8, 24, 24, -2, -4, 48, -48], "withholdReward": false, "trial_id": "mdp_867247318592", "block": "test3", "trialIndex": 66, "score": 47, "costs": 0, "simulationMode": [null, null, null], "rewards": [-2, -4, 48], "path": ["0", "0", "9", "10", "11"], "rt": [2068, 140, 66], "actions": ["left", "left", "up"], "actionTimes": [3893, 4554, 5147], "queries": {"click": {"state": {"target": [], "time": []}, "edge": {"target": [], "time": []}}, "mouseover": {"state": {"target": [], "time": []}, "edge": {"target": [], "time": []}}, "mouseout": {"state": {"target": [], "time": []}, "edge": {"target": [], "time": []}}}, "displayed_time": "9.82", "trialTime": 11277, "trial_type": "mouselab-mdp", "trial_index": 75, "time_elapsed": 1733138, "internal_node_id": "0.0-4.0-5.0-4.0"}}, {"uniqueid": "w20778574:a63456293", "current_trial": 76, "dateTime": 1664370399358, "trialdata": {"revealed_states": [], "num_clicks_accrued": [0, 0, 0, 0, 0, 0, 0, 0, 0, 0, 0, 0, 0], "stateRewards": ["", 4, 8, -48, 24, -2, 8, -48, -48, -4, 4, 48, -48], "withholdReward": false, "trial_id": "mdp_693807815190", "block": "test3", "trialIndex": 67, "score": 53, "costs": 0, "simulationMode": [null, null, null], "rewards": [-4, 4, 48], "path": ["0", "0", "9", "10", "11"], "rt": [3402, 146, 96], "actions": ["left", "left", "up"], "actionTimes": [5529, 6202, 6816], "queries": {"click": {"state": {"target": [], "time": []}, "edge": {"target": [], "time": []}}, "mouseover": {"state": {"target": [], "time": []}, "edge": {"target": [], "time": []}}, "mouseout": {"state": {"target": [], "time": []}, "edge": {"target": [], "time": []}}}, "displayed_time": "10.13", "trialTime": 12191, "trial_type": "mouselab-mdp", "trial_index": 76, "time_elapsed": 1746027, "internal_node_id": "0.0-4.0-5.0-5.0"}}, {"uniqueid": "w20778574:a63456293", "current_trial": 77, "dateTime": 1664370412113, "trialdata": {"revealed_states": [], "num_clicks_accrued": [0, 0, 0, 0, 0, 0, 0, 0, 0, 0, 0, 0, 0], "stateRewards": ["", 4, -4, 48, 24, 2, -8, 24, -48, -2, -4, -48, -48], "withholdReward": true, "trial_id": "mdp_655302318695", "block": "test3", "trialIndex": 68, "score": 53, "costs": 0, "simulationMode": [null, null, null], "rewards": [4, -4, 48], "path": ["0", "0", "1", "2", "3"], "rt": [1267, 110, 138], "actions": ["up", "up", "right"], "actionTimes": [3849, 4475, 5136], "queries": {"click": {"state": {"target": [], "time": []}, "edge": {"target": [], "time": []}}, "mouseover": {"state": {"target": [], "time": []}, "edge": {"target": [], "time": []}}, "mouseout": {"state": {"target": [], "time": []}, "edge": {"target": [], "time": []}}}, "displayed_time": "10.58", "trialTime": 11823, "trial_type": "mouselab-mdp", "trial_index": 77, "time_elapsed": 1758781, "internal_node_id": "0.0-4.0-5.0-6.0"}}, {"uniqueid": "w20778574:a63456293", "current_trial": 78, "dateTime": 1664370425459, "trialdata": {"revealed_states": [], "num_clicks_accrued": [0, 0, 0, 0, 0, 0, 0, 0, 0, 0, 0, 0, 0], "stateRewards": ["", 4, 8, -48, -48, 2, 4, -24, -48, 2, 8, 48, -48], "withholdReward": true, "trial_id": "mdp_902172716465", "block": "test3", "trialIndex": 69, "score": -31, "costs": 0, "simulationMode": [null, null, null], "rewards": [4, 8, -48], "path": ["0", "0", "1", "2", "4"], "rt": [1628, 74, 30], "actions": ["up", "up", "left"], "actionTimes": [3935, 4532, 5079], "queries": {"click": {"state": {"target": [], "time": []}, "edge": {"target": [], "time": []}}, "mouseover": {"state": {"target": [], "time": []}, "edge": {"target": [], "time": []}}, "mouseout": {"state": {"target": [], "time": []}, "edge": {"target": [], "time": []}}}, "displayed_time": "11.31", "trialTime": 12657, "trial_type": "mouselab-mdp", "trial_index": 78, "time_elapsed": 1772128, "internal_node_id": "0.0-4.0-5.0-7.0"}}, {"uniqueid": "w20778574:a63456293", "current_trial": 79, "dateTime": 1664370437010, "trialdata": {"revealed_states": [], "num_clicks_accrued": [0, 0, 0, 0, 0, 0, 0, 0, 0, 0, 0, 0, 0], "stateRewards": ["", 2, 8, 48, 24, 2, 8, 48, 48, -2, -4, -24, -48], "withholdReward": true, "trial_id": "mdp_717636349175", "block": "test3", "trialIndex": 70, "score": 63, "costs": 0, "simulationMode": [null, null, null], "rewards": [2, 8, 48], "path": ["0", "0", "5", "6", "8"], "rt": [3118, 769, 335], "actions": ["right", "right", "down"], "actionTimes": [4781, 6065, 6929], "queries": {"click": {"state": {"target": [], "time": []}, "edge": {"target": [], "time": []}}, "mouseover": {"state": {"target": [], "time": []}, "edge": {"target": [], "time": []}}, "mouseout": {"state": {"target": [], "time": []}, "edge": {"target": [], "time": []}}}, "displayed_time": "8.66", "trialTime": 10895, "trial_type": "mouselab-mdp", "trial_index": 79, "time_elapsed": 1783680, "internal_node_id": "0.0-4.0-5.0-8.0"}}, {"uniqueid": "w20778574:a63456293", "current_trial": 80, "dateTime": 1664370448875, "trialdata": {"revealed_states": [], "num_clicks_accrued": [0, 0, 0, 0, 0, 0, 0, 0, 0, 0, 0, 0, 0], "stateRewards": ["", -2, -4, -24, -48, -2, 8, -48, 24, 4, -4, -24, -24], "withholdReward": true, "trial_id": "mdp_915304165774", "block": "test3", "trialIndex": 71, "score": -25, "costs": 0, "simulationMode": [null, null, null], "rewards": [-2, -4, -24], "path": ["0", "0", "1", "2", "3"], "rt": [1846, 18, 443], "actions": ["up", "up", "right"], "actionTimes": [3776, 4313, 5270], "queries": {"click": {"state": {"target": [], "time": []}, "edge": {"target": [], "time": []}}, "mouseover": {"state": {"target": [], "time": []}, "edge": {"target": [], "time": []}}, "mouseout": {"state": {"target": [], "time": []}, "edge": {"target": [], "time": []}}}, "displayed_time": "9.93", "trialTime": 11206, "trial_type": "mouselab-mdp", "trial_index": 80, "time_elapsed": 1795544, "internal_node_id": "0.0-4.0-5.0-9.0"}}, {"uniqueid": "w20778574:a63456293", "current_trial": 81, "dateTime": 1664370463960, "trialdata": {"revealed_states": [], "num_clicks_accrued": [0, 0, 0, 0, 0, 0, 0, 0, 0, 0, 0, 0, 0], "stateRewards": ["", -4, -8, -24, 24, 2, 8, 24, 48, 2, 4, 24, -48], "withholdReward": false, "trial_id": "mdp_122352383932", "block": "test3", "trialIndex": 72, "score": -31, "costs": 0, "simulationMode": [null, null, null], "rewards": [-4, -8, -24], "path": ["0", "0", "1", "2", "3"], "rt": [1906, 26, 573], "actions": ["up", "up", "right"], "actionTimes": [4274, 4840, 5922], "queries": {"click": {"state": {"target": [], "time": []}, "edge": {"target": [], "time": []}}, "mouseover": {"state": {"target": [], "time": []}, "edge": {"target": [], "time": []}}, "mouseout": {"state": {"target": [], "time": []}, "edge": {"target": [], "time": []}}}, "displayed_time": "11.37", "trialTime": 14413, "trial_type": "mouselab-mdp", "trial_index": 81, "time_elapsed": 1810629, "internal_node_id": "0.0-4.0-5.0-10.0"}}, {"uniqueid": "w20778574:a63456293", "current_trial": 82, "dateTime": 1664370475988, "trialdata": {"revealed_states": [], "num_clicks_accrued": [0, 0, 0, 0, 0, 0, 0, 0, 0, 0, 0, 0, 0], "stateRewards": ["", -4, 4, -24, 24, -2, -4, 48, 24, 2, 8, -48, 24], "withholdReward": true, "trial_id": "mdp_150340189492", "block": "test3", "trialIndex": 73, "score": -19, "costs": 0, "simulationMode": [null, null, null], "rewards": [-4, 4, -24], "path": ["0", "0", "1", "2", "3"], "rt": [1755, 198, 72], "actions": ["up", "up", "right"], "actionTimes": [3560, 4276, 4854], "queries": {"click": {"state": {"target": [], "time": []}, "edge": {"target": [], "time": []}}, "mouseover": {"state": {"target": [], "time": []}, "edge": {"target": [], "time": []}}, "mouseout": {"state": {"target": [], "time": []}, "edge": {"target": [], "time": []}}}, "displayed_time": "9.80", "trialTime": 11308, "trial_type": "mouselab-mdp", "trial_index": 82, "time_elapsed": 1822657, "internal_node_id": "0.0-4.0-5.0-11.0"}}, {"uniqueid": "w20778574:a63456293", "current_trial": 83, "dateTime": 1664370492442, "trialdata": {"revealed_states": [], "num_clicks_accrued": [0, 0, 0, 0, 0, 0, 0, 0, 0, 0, 0, 0, 0], "stateRewards": ["", 2, -8, 24, 24, 2, 4, -48, -48, 4, 4, -24, 48], "withholdReward": true, "trial_id": "mdp_985707010949", "block": "test3", "trialIndex": 74, "score": 23, "costs": 0, "simulationMode": [null, null, null], "rewards": [2, -8, 24], "path": ["0", "0", "1", "2", "3"], "rt": [1975, 75, 11], "actions": ["up", "up", "right"], "actionTimes": [7224, 7811, 8326], "queries": {"click": {"state": {"target": [], "time": []}, "edge": {"target": [], "time": []}}, "mouseover": {"state": {"target": [], "time": []}, "edge": {"target": [], "time": []}}, "mouseout": {"state": {"target": [], "time": []}, "edge": {"target": [], "time": []}}}, "displayed_time": "14.25", "trialTime": 15439, "trial_type": "mouselab-mdp", "trial_index": 83, "time_elapsed": 1839110, "internal_node_id": "0.0-4.0-5.0-12.0"}}, {"uniqueid": "w20778574:a63456293", "current_trial": 84, "dateTime": 1664370505560, "trialdata": {"revealed_states": [], "num_clicks_accrued": [0, 0, 0, 0, 0, 0, 0, 0, 0, 0, 0, 0, 0], "stateRewards": ["", -2, -8, 24, -48, 4, 4, -24, -48, -2, -8, -48, 24], "withholdReward": true, "trial_id": "mdp_556006673466", "block": "test3", "trialIndex": 75, "score": -53, "costs": 0, "simulationMode": [null, null, null], "rewards": [-2, -8, -48], "path": ["0", "0", "9", "10", "11"], "rt": [1192, 13, 198], "actions": ["left", "left", "up"], "actionTimes": [2911, 3466, 4202], "queries": {"click": {"state": {"target": [], "time": []}, "edge": {"target": [], "time": []}}, "mouseover": {"state": {"target": [], "time": []}, "edge": {"target": [], "time": []}}, "mouseout": {"state": {"target": [], "time": []}, "edge": {"target": [], "time": []}}}, "displayed_time": "9.72", "trialTime": 12384, "trial_type": "mouselab-mdp", "trial_index": 84, "time_elapsed": 1852227, "internal_node_id": "0.0-4.0-5.0-13.0"}}, {"uniqueid": "w20778574:a63456293", "current_trial": 85, "dateTime": 1664370521948, "trialdata": {"revealed_states": [], "num_clicks_accrued": [0, 0, 0, 0, 0, 0, 0, 0, 0, 0, 0, 0, 0], "stateRewards": ["", -2, 8, 48, 48, 4, -8, -48, 48, 2, -4, -48, 48], "withholdReward": true, "trial_id": "mdp_132958048709", "block": "test3", "trialIndex": 76, "score": 51, "costs": 0, "simulationMode": [null, null, null], "rewards": [2, -4, 48], "path": ["0", "0", "9", "10", "12"], "rt": [1585, 60, 188], "actions": ["left", "left", "down"], "actionTimes": [6260, 6843, 7542], "queries": {"click": {"state": {"target": [], "time": []}, "edge": {"target": [], "time": []}}, "mouseover": {"state": {"target": [], "time": []}, "edge": {"target": [], "time": []}}, "mouseout": {"state": {"target": [], "time": []}, "edge": {"target": [], "time": []}}}, "displayed_time": "13.71", "trialTime": 15641, "trial_type": "mouselab-mdp", "trial_index": 85, "time_elapsed": 1868618, "internal_node_id": "0.0-4.0-5.0-14.0"}}, {"uniqueid": "w20778574:a63456293", "current_trial": 86, "dateTime": 1664370535931, "trialdata": {"revealed_states": [], "num_clicks_accrued": [0, 0, 0, 0, 0, 0, 0, 0, 0, 0, 0, 0, 0], "stateRewards": ["", -4, -4, -48, -24, 2, 8, 24, -48, 4, 4, 48, 48], "withholdReward": false, "trial_id": "mdp_693501840209", "block": "test3", "trialIndex": 77, "score": -27, "costs": 0, "simulationMode": [null, null, null], "rewards": [-4, -4, -24], "path": ["0", "0", "1", "2", "4"], "rt": [1364, 103, 462], "actions": ["up", "up", "left"], "actionTimes": [2723, 3335, 4317], "queries": {"click": {"state": {"target": [], "time": []}, "edge": {"target": [], "time": []}}, "mouseover": {"state": {"target": [], "time": []}, "edge": {"target": [], "time": []}}, "mouseout": {"state": {"target": [], "time": []}, "edge": {"target": [], "time": []}}}, "displayed_time": "10.36", "trialTime": 13377, "trial_type": "mouselab-mdp", "trial_index": 86, "time_elapsed": 1882599, "internal_node_id": "0.0-4.0-5.0-15.0"}}, {"uniqueid": "w20778574:a63456293", "current_trial": 87, "dateTime": 1664370551310, "trialdata": {"revealed_states": [], "num_clicks_accrued": [0, 0, 0, 0, 0, 0, 0, 0, 0, 0, 0, 0, 0], "stateRewards": ["", -2, -8, 48, 24, 2, 8, -48, 24, -4, 8, 48, 48], "withholdReward": true, "trial_id": "mdp_875436109858", "block": "test3", "trialIndex": 78, "score": -33, "costs": 0, "simulationMode": [null, null, null], "rewards": [2, 8, -48], "path": ["0", "0", "5", "6", "7"], "rt": [2548, 684, 22], "actions": ["right", "right", "up"], "actionTimes": [4208, 5413, 5949], "queries": {"click": {"state": {"target": [], "time": []}, "edge": {"target": [], "time": []}}, "mouseover": {"state": {"target": [], "time": []}, "edge": {"target": [], "time": []}}, "mouseout": {"state": {"target": [], "time": []}, "edge": {"target": [], "time": []}}}, "displayed_time": "10.66", "trialTime": 14741, "trial_type": "mouselab-mdp", "trial_index": 87, "time_elapsed": 1897980, "internal_node_id": "0.0-4.0-5.0-16.0"}}, {"uniqueid": "w20778574:a63456293", "current_trial": 88, "dateTime": 1664370564032, "trialdata": {"revealed_states": [], "num_clicks_accrued": [0, 0, 0, 0, 0, 0, 0, 0, 0, 0, 0, 0, 0], "stateRewards": ["", -2, 8, -48, 48, -4, 8, -24, 24, 4, -4, 24, -48], "withholdReward": true, "trial_id": "mdp_904238083902", "block": "test3", "trialIndex": 79, "score": 28.5, "costs": -0.5, "simulationMode": [null, null, null], "rewards": [4, -4, 24], "path": ["0", "0", "9", "10", "11"], "rt": [6270, 201, 165], "actions": ["left", "left", "up"], "actionTimes": [7971, 8704, 9421], "queries": {"click": {"state": {"target": ["1", "9"], "time": [5192, 6709]}, "edge": {"target": [], "time": []}}, "mouseover": {"state": {"target": ["1", "9"], "time": [4574, 5927]}, "edge": {"target": [], "time": []}}, "mouseout": {"state": {"target": ["0", "1"], "time": [4377, 5858]}, "edge": {"target": [], "time": []}}}, "displayed_time": "9.94", "trialTime": 12145, "trial_type": "mouselab-mdp", "trial_index": 88, "time_elapsed": 1910700, "internal_node_id": "0.0-4.0-5.0-17.0"}}, {"uniqueid": "w20778574:a63456293", "current_trial": 89, "dateTime": 1664370578493, "trialdata": {"revealed_states": [], "num_clicks_accrued": [0, 0, 0, 0, 0, 0, 0, 0, 0, 0, 0, 0, 0], "stateRewards": ["", 4, 4, 48, -24, 2, -4, 48, 24, -4, -4, -48, 24], "withholdReward": false, "trial_id": "mdp_496003763005", "block": "test3", "trialIndex": 80, "score": -11.5, "costs": -0.5, "simulationMode": [null, null, null], "rewards": [4, 4, -24], "path": ["0", "0", "1", "2", "4"], "rt": [5069, 95, 243], "actions": ["up", "up", "left"], "actionTimes": [7331, 7931, 8727], "queries": {"click": {"state": {"target": ["9", "1"], "time": [4220, 6180]}, "edge": {"target": [], "time": []}}, "mouseover": {"state": {"target": ["9", "1", "1"], "time": [3624, 5206, 5572]}, "edge": {"target": [], "time": []}}, "mouseout": {"state": {"target": ["9", "0", "9", "1"], "time": [903, 3567, 5124, 5242]}, "edge": {"target": [], "time": []}}}, "displayed_time": "10.26", "trialTime": 13708, "trial_type": "mouselab-mdp", "trial_index": 89, "time_elapsed": 1925163, "internal_node_id": "0.0-4.0-5.0-18.0"}}, {"uniqueid": "w20778574:a63456293", "current_trial": 90, "dateTime": 1664370591585, "trialdata": {"revealed_states": [], "num_clicks_accrued": [0, 0, 0, 0, 0, 0, 0, 0, 0, 0, 0, 0, 0], "stateRewards": ["", 4, -8, 48, -24, -4, 4, 24, 24, -2, -4, 24, 24], "withholdReward": true, "trial_id": "mdp_542168715839", "block": "test3", "trialIndex": 81, "score": 49, "costs": 0, "simulationMode": [null, null, null], "rewards": [4, -8, 48], "path": ["0", "0", "1", "2", "3"], "rt": [2473, 161, 557], "actions": ["up", "up", "right"], "actionTimes": [5154, 5859, 6949], "queries": {"click": {"state": {"target": [], "time": []}, "edge": {"target": [], "time": []}}, "mouseover": {"state": {"target": [], "time": []}, "edge": {"target": [], "time": []}}, "mouseout": {"state": {"target": ["1"], "time": [1051]}, "edge": {"target": [], "time": []}}}, "displayed_time": "10.68", "trialTime": 12100, "trial_type": "mouselab-mdp", "trial_index": 90, "time_elapsed": 1938255, "internal_node_id": "0.0-4.0-5.0-19.0"}}, {"uniqueid": "w20778574:a63456293", "current_trial": 91, "dateTime": 1664370606469, "trialdata": {"revealed_states": [], "num_clicks_accrued": [0, 0, 0, 0, 0, 0, 0, 0, 0, 0, 0, 0, 0], "stateRewards": ["", 4, -8, -24, 48, -4, 8, -24, -48, -4, -4, 24, 48], "withholdReward": false, "trial_id": "mdp_282352776624", "block": "test3", "trialIndex": 82, "score": 48.5, "costs": -0.5, "simulationMode": [null, null, null], "rewards": [4, -8, 48], "path": ["0", "0", "1", "2", "4"], "rt": [4852, 184, 236], "actions": ["up", "up", "left"], "actionTimes": [6303, 7001, 7756], "queries": {"click": {"state": {"target": ["9", "1"], "time": [3609, 5136]}, "edge": {"target": [], "time": []}}, "mouseover": {"state": {"target": ["9", "1"], "time": [3070, 4490]}, "edge": {"target": [], "time": []}}, "mouseout": {"state": {"target": ["0", "9"], "time": [2923, 4322]}, "edge": {"target": [], "time": []}}}, "displayed_time": "10.45", "trialTime": 14278, "trial_type": "mouselab-mdp", "trial_index": 91, "time_elapsed": 1953137, "internal_node_id": "0.0-4.0-5.0-20.0"}}, {"uniqueid": "w20778574:a63456293", "current_trial": 92, "dateTime": 1664370619572, "trialdata": {"revealed_states": [], "num_clicks_accrued": [0, 0, 0, 0, 0, 0, 0, 0, 0, 0, 0, 0, 0], "stateRewards": ["", 2, -4, -48, 24, -4, 4, 24, 24, 2, -8, -24, -48], "withholdReward": true, "trial_id": "mdp_807654778305", "block": "test3", "trialIndex": 83, "score": 26.25, "costs": -0.75, "simulationMode": [null, null, null], "rewards": [2, -4, 24], "path": ["0", "0", "1", "2", "4"], "rt": [5314, 37, 139], "actions": ["up", "up", "left"], "actionTimes": [7101, 7664, 8336], "queries": {"click": {"state": {"target": ["1", "5", "9"], "time": [3077, 4481, 5504]}, "edge": {"target": [], "time": []}}, "mouseover": {"state": {"target": ["1", "5", "0", "9"], "time": [2488, 3919, 4856, 4902]}, "edge": {"target": [], "time": []}}, "mouseout": {"state": {"target": ["1", "1", "5", "0"], "time": [703, 3687, 4815, 4893]}, "edge": {"target": [], "time": []}}}, "displayed_time": "10.79", "trialTime": 12330, "trial_type": "mouselab-mdp", "trial_index": 92, "time_elapsed": 1966240, "internal_node_id": "0.0-4.0-5.0-21.0"}}, {"uniqueid": "w20778574:a63456293", "current_trial": 93, "dateTime": 1664370632781, "trialdata": {"revealed_states": [], "num_clicks_accrued": [0, 0, 0, 0, 0, 0, 0, 0, 0, 0, 0, 0, 0], "stateRewards": ["", 4, -4, 48, -48, -2, -8, -24, 48, -2, 4, 24, -24], "withholdReward": true, "trial_id": "mdp_507290896735", "block": "test3", "trialIndex": 84, "score": -43.25, "costs": -0.25, "simulationMode": [null, null, null], "rewards": [4, -4, -48], "path": ["0", "0", "1", "2", "4"], "rt": [2711, 33, 898], "actions": ["up", "up", "left"], "actionTimes": [5329, 5878, 7332], "queries": {"click": {"state": {"target": ["1"], "time": [3984]}, "edge": {"target": [], "time": []}}, "mouseover": {"state": {"target": ["1"], "time": [3386]}, "edge": {"target": [], "time": []}}, "mouseout": {"state": {"target": ["9", "0", "1"], "time": [985, 3249, 4518]}, "edge": {"target": [], "time": []}}}, "displayed_time": "11.62", "trialTime": 12470, "trial_type": "mouselab-mdp", "trial_index": 93, "time_elapsed": 1979449, "internal_node_id": "0.0-4.0-5.0-22.0"}}, {"uniqueid": "w20778574:a63456293", "current_trial": 94, "dateTime": 1664370646920, "trialdata": {"revealed_states": [], "num_clicks_accrued": [0, 0, 0, 0, 0, 0, 0, 0, 0, 0, 0, 0, 0], "stateRewards": ["", 2, 8, -24, -48, -4, 8, -48, -48, -2, -8, -24, -24], "withholdReward": true, "trial_id": "mdp_978177451072", "block": "test3", "trialIndex": 85, "score": -9.75, "costs": -0.75, "simulationMode": [null, null, null], "rewards": [2, 8, -24], "path": ["0", "0", "1", "2", "3"], "rt": [4956, 269, 267], "actions": ["up", "up", "right"], "actionTimes": [6712, 7494, 8279], "queries": {"click": {"state": {"target": ["9", "1", "5"], "time": [2864, 4079, 5488]}, "edge": {"target": [], "time": []}}, "mouseover": {"state": {"target": ["9", "1", "5"], "time": [2402, 3480, 4918]}, "edge": {"target": [], "time": []}}, "mouseout": {"state": {"target": ["0", "9", "1"], "time": [2235, 3410, 4608]}, "edge": {"target": [], "time": []}}}, "displayed_time": "11.76", "trialTime": 13442, "trial_type": "mouselab-mdp", "trial_index": 94, "time_elapsed": 1993589, "internal_node_id": "0.0-4.0-5.0-23.0"}}, {"uniqueid": "w20778574:a63456293", "current_trial": 95, "dateTime": 1664370661040, "trialdata": {"revealed_states": [], "num_clicks_accrued": [0, 0, 0, 0, 0, 0, 0, 0, 0, 0, 0, 0, 0], "stateRewards": ["", -4, 8, -24, 24, -2, -8, 24, -24, 4, -4, -48, 48], "withholdReward": true, "trial_id": "mdp_297684722007", "block": "test3", "trialIndex": 86, "score": -43.75, "costs": -0.75, "simulationMode": [null, null, null], "rewards": [4, -4, -48], "path": ["0", "0", "9", "10", "11"], "rt": [5413, 156, 201], "actions": ["left", "left", "up"], "actionTimes": [8260, 8941, 9673], "queries": {"click": {"state": {"target": ["1", "9", "5"], "time": [4410, 5631, 7109]}, "edge": {"target": [], "time": []}}, "mouseover": {"state": {"target": ["1", "9", "8", "5"], "time": [3566, 5062, 6232, 6518]}, "edge": {"target": [], "time": []}}, "mouseout": {"state": {"target": ["5", "0", "1", "9", "8", "5"], "time": [1562, 1892, 5001, 6116, 6431, 7523]}, "edge": {"target": [], "time": []}}}, "displayed_time": "10.85", "trialTime": 13389, "trial_type": "mouselab-mdp", "trial_index": 95, "time_elapsed": 2007708, "internal_node_id": "0.0-4.0-5.0-24.0"}}, {"uniqueid": "w20778574:a63456293", "current_trial": 96, "dateTime": 1664370674353, "trialdata": {"revealed_states": [], "num_clicks_accrued": [0, 0, 0, 0, 0, 0, 0, 0, 0, 0, 0, 0, 0], "stateRewards": ["", 4, -8, -48, 24, 4, 4, -24, -24, 2, 4, -48, 24], "withholdReward": false, "trial_id": "mdp_626971397185", "block": "test3", "trialIndex": 87, "score": -11.25, "costs": -0.25, "simulationMode": [null, null, null], "rewards": [4, 4, -24], "path": ["0", "0", "5", "6", "7"], "rt": [2341, 169, 499], "actions": ["right", "right", "up"], "actionTimes": [4501, 5186, 6202], "queries": {"click": {"state": {"target": ["5"], "time": [3298]}, "edge": {"target": [], "time": []}}, "mouseover": {"state": {"target": ["5"], "time": [2746]}, "edge": {"target": [], "time": []}}, "mouseout": {"state": {"target": ["0", "5"], "time": [1044, 3679]}, "edge": {"target": [], "time": []}}}, "displayed_time": "9.16", "trialTime": 12634, "trial_type": "mouselab-mdp", "trial_index": 96, "time_elapsed": 2021021, "internal_node_id": "0.0-4.0-5.0-25.0"}}, {"uniqueid": "w20778574:a63456293", "current_trial": 97, "dateTime": 1664370688152, "trialdata": {"revealed_states": [], "num_clicks_accrued": [0, 0, 0, 0, 0, 0, 0, 0, 0, 0, 0, 0, 0], "stateRewards": ["", -4, 8, -24, -24, 4, -8, 48, -24, -4, -8, -24, -48], "withholdReward": true, "trial_id": "mdp_391766721791", "block": "test3", "trialIndex": 88, "score": 49, "costs": 0, "simulationMode": [null, null, null], "rewards": [4, -8, 48], "path": ["0", "0", "5", "6", "7"], "rt": [1660, 113, 792], "actions": ["right", "right", "up"], "actionTimes": [3520, 4161, 5476], "queries": {"click": {"state": {"target": [], "time": []}, "edge": {"target": [], "time": []}}, "mouseover": {"state": {"target": [], "time": []}, "edge": {"target": [], "time": []}}, "mouseout": {"state": {"target": ["0", "0"], "time": [722, 12525]}, "edge": {"target": [], "time": []}}}, "displayed_time": "10.86", "trialTime": 13013, "trial_type": "mouselab-mdp", "trial_index": 97, "time_elapsed": 2034821, "internal_node_id": "0.0-4.0-5.0-26.0"}}, {"uniqueid": "w20778574:a63456293", "current_trial": 98, "dateTime": 1664370701292, "trialdata": {"revealed_states": [], "num_clicks_accrued": [0, 0, 0, 0, 0, 0, 0, 0, 0, 0, 0, 0, 0], "stateRewards": ["", 2, -8, 48, -24, 2, 8, 24, -24, 4, -4, -48, -48], "withholdReward": true, "trial_id": "mdp_130946197263", "block": "test3", "trialIndex": 89, "score": 46.75, "costs": -0.25, "simulationMode": [null, null, null], "rewards": [2, -8, 48], "path": ["0", "0", "1", "2", "3"], "rt": [3932, 158, 50], "actions": ["up", "up", "right"], "actionTimes": [5990, 6672, 7242], "queries": {"click": {"state": {"target": ["1"], "time": [4691]}, "edge": {"target": [], "time": []}}, "mouseover": {"state": {"target": ["1"], "time": [4144]}, "edge": {"target": [], "time": []}}, "mouseout": {"state": {"target": ["0"], "time": [3819]}, "edge": {"target": [], "time": []}}}, "displayed_time": "11.09", "trialTime": 12385, "trial_type": "mouselab-mdp", "trial_index": 98, "time_elapsed": 2047960, "internal_node_id": "0.0-4.0-5.0-27.0"}}, {"uniqueid": "w20778574:a63456293", "current_trial": 99, "dateTime": 1664370715984, "trialdata": {"revealed_states": [], "num_clicks_accrued": [0, 0, 0, 0, 0, 0, 0, 0, 0, 0, 0, 0, 0], "stateRewards": ["", 2, -4, -24, -24, -2, -8, -48, 24, -4, -8, 24, 24], "withholdReward": true, "trial_id": "mdp_521351546461", "block": "test3", "trialIndex": 90, "score": -21.75, "costs": -0.75, "simulationMode": [null, null, null], "rewards": [2, -4, -24], "path": ["0", "0", "1", "2", "4"], "rt": [6953, 64, 71], "actions": ["up", "up", "left"], "actionTimes": [9087, 9655, 10242], "queries": {"click": {"state": {"target": ["5", "1", "9"], "time": [4599, 6289, 7728]}, "edge": {"target": [], "time": []}}, "mouseover": {"state": {"target": ["5", "1", "9"], "time": [3955, 5329, 7000]}, "edge": {"target": [], "time": []}}, "mouseout": {"state": {"target": ["1", "0", "5", "1", "9"], "time": [1034, 3914, 5170, 6883, 8236]}, "edge": {"target": [], "time": []}}}, "displayed_time": "11.13", "trialTime": 14035, "trial_type": "mouselab-mdp", "trial_index": 99, "time_elapsed": 2062652, "internal_node_id": "0.0-4.0-5.0-28.0"}}, {"uniqueid": "w20778574:a63456293", "current_trial": 100, "dateTime": 1664370730026, "trialdata": {"revealed_states": [], "num_clicks_accrued": [0, 0, 0, 0, 0, 0, 0, 0, 0, 0, 0, 0, 0], "stateRewards": ["", -4, -8, -48, 48, -2, -8, -48, -24, 4, 8, 24, -48], "withholdReward": true, "trial_id": "mdp_509977295685", "block": "test3", "trialIndex": 91, "score": 41, "costs": 0, "simulationMode": [null, null, null], "rewards": [4, 8, 24], "path": ["0", "0", "9", "10", "11"], "rt": [3746, 99, 91], "actions": ["left", "left", "up"], "actionTimes": [6132, 6747, 7367], "queries": {"click": {"state": {"target": [], "time": []}, "edge": {"target": [], "time": []}}, "mouseover": {"state": {"target": [], "time": []}, "edge": {"target": [], "time": []}}, "mouseout": {"state": {"target": [], "time": []}, "edge": {"target": [], "time": []}}}, "displayed_time": "11.39", "trialTime": 13440, "trial_type": "mouselab-mdp", "trial_index": 100, "time_elapsed": 2076695, "internal_node_id": "0.0-4.0-5.0-29.0"}}, {"uniqueid": "w20778574:a63456293", "current_trial": 101, "dateTime":