{"condition": 1, "counterbalance": 0, "assignmentId": "a32776331", "workerId": "w25267381", "hitId": "h76728604", "currenttrial": 136, "bonus": 0, "data": [{"uniqueid": "w25267381:a32776331", "current_trial": 0, "dateTime": 1664555025886, "trialdata": {"success": true, "trial_type": "fullscreen", "trial_index": 0, "time_elapsed": 5752, "internal_node_id": "0.0-0.0"}}, {"uniqueid": "w25267381:a32776331", "current_trial": 1, "dateTime": 1664555046670, "trialdata": {"view_history": [{"page_index": 0, "viewing_time": 20777}], "rt": 20780, "trial_id": "exp_instructions_no_distractor", "trial_type": "instructions", "trial_index": 1, "time_elapsed": 26536, "internal_node_id": "0.0-1.0"}}, {"uniqueid": "w25267381:a32776331", "current_trial": 2, "dateTime": 1664555049886, "trialdata": {"success": true, "trial_type": "fullscreen", "trial_index": 2, "time_elapsed": 29751, "internal_node_id": "0.0-2.0-0.0"}}, {"uniqueid": "w25267381:a32776331", "current_trial": 3, "dateTime": 1664555220587, "trialdata": {"view_history": [{"page_index": 0, "viewing_time": 86077}, {"page_index": 1, "viewing_time": 32200}, {"page_index": 2, "viewing_time": 10733}, {"page_index": 3, "viewing_time": 1633}, {"page_index": 2, "viewing_time": 4383}, {"page_index": 1, "viewing_time": 4400}, {"page_index": 2, "viewing_time": 3917}, {"page_index": 3, "viewing_time": 10317}, {"page_index": 4, "viewing_time": 17033}], "rt": 170696, "trial_id": "mouselab_instructions_1", "trial_type": "instructions", "trial_index": 3, "time_elapsed": 200452, "internal_node_id": "0.0-2.0-1.0"}}, {"uniqueid": "w25267381:a32776331", "current_trial": 4, "dateTime": 1664555250202, "trialdata": {"revealed_states": [], "num_clicks_accrued": [0, 0, 0, 0, 0, 0, 0, 0, 0, 0, 0, 0, 0], "stateRewards": ["", 10, 10, -10, 10, -10, -10, -10, -10, 10, 10, 10, -10], "withholdReward": false, "trial_id": "practice_1", "block": "test", "trialIndex": 0, "score": 30.25, "costs": -1.75, "simulationMode": [null, null, null], "rewards": [10, 10, 10], "path": ["0", "0", "9", "10", "11"], "rt": [18503, 803, 694], "actions": ["left", "left", "up"], "actionTimes": [21445, 22746, 23937], "queries": {"click": {"state": {"target": ["5", "9", "1", "10", "2", "11", "4"], "time": [7417, 10701, 11382, 12783, 13400, 14483, 16249]}, "edge": {"target": [], "time": []}}, "mouseover": {"state": {"target": ["5", "5", "12", "5", "6", "5", "0", "9", "1", "0", "10", "2", "11", "0", "4", "0"], "time": [3763, 4163, 4562, 6778, 6811, 6977, 10077, 10394, 11060, 11659, 12527, 13077, 14260, 15795, 15826, 16627]}, "edge": {"target": [], "time": []}}, "mouseout": {"state": {"target": ["6", "5", "5", "5", "12", "5", "6", "5", "0", "9", "1", "0", "10", "2", "11", "0", "4", "0"], "time": [2244, 2412, 3978, 4462, 4577, 6794, 6946, 10062, 10110, 10908, 11627, 11675, 13012, 14026, 14994, 15809, 16594, 16642]}, "edge": {"target": [], "time": []}}}, "displayed_time": "24.43", "trialTime": 29247, "trial_type": "mouselab-mdp", "trial_index": 4, "time_elapsed": 230067, "internal_node_id": "0.0-2.0-2.0-0.0"}}, {"uniqueid": "w25267381:a32776331", "current_trial": 5, "dateTime": 1664555267212, "trialdata": {"revealed_states": [], "num_clicks_accrued": [0, 0, 0, 0, 0, 0, 0, 0, 0, 0, 0, 0, 0], "stateRewards": ["", 10, 10, 10, -10, -10, 10, 10, 10, -10, 10, 10, 10], "withholdReward": false, "trial_id": "practice_2", "block": "test", "trialIndex": 1, "score": 29.75, "costs": -2.25, "simulationMode": [null, null, null], "rewards": [10, 10, 10], "path": ["0", "0", "1", "2", "3"], "rt": [11386, 84, 262], "actions": ["up", "up", "right"], "actionTimes": [13307, 13887, 14650], "queries": {"click": {"state": {"target": ["9", "10", "11", "5", "6", "1", "2", "4", "3"], "time": [4710, 5977, 6644, 8494, 8978, 10077, 10511, 10977, 11776]}, "edge": {"target": [], "time": []}}, "mouseover": {"state": {"target": ["9", "9", "0", "10", "11", "12", "5", "0", "5", "6", "1", "2", "4", "3"], "time": [3788, 4438, 5420, 5688, 6387, 7405, 7821, 8154, 8287, 8756, 9706, 10289, 10721, 11639]}, "edge": {"target": [], "time": []}}, "mouseout": {"state": {"target": ["0", "9", "9", "0", "9", "10", "11", "9", "12", "5", "0", "5", "6", "1", "2", "4", "2", "3", "6"], "time": [3721, 4122, 5405, 5638, 5670, 6371, 6938, 7055, 7506, 8122, 8237, 8688, 9555, 10204, 10688, 11321, 11538, 12105, 12305]}, "edge": {"target": [], "time": []}}}, "displayed_time": "15.14", "trialTime": 16969, "trial_type": "mouselab-mdp", "trial_index": 5, "time_elapsed": 247077, "internal_node_id": "0.0-2.0-2.0-1.0"}}, {"uniqueid": "w25267381:a32776331", "current_trial": 6, "dateTime": 1664555359802, "trialdata": {"view_history": [{"page_index": 0, "viewing_time": 36231}, {"page_index": 1, "viewing_time": 21633}, {"page_index": 2, "viewing_time": 7600}, {"page_index": 1, "viewing_time": 8049}, {"page_index": 0, "viewing_time": 10501}, {"page_index": 1, "viewing_time": 2899}, {"page_index": 2, "viewing_time": 5668}], "rt": 92582, "trial_id": "mouselab_instructions_2_scarce", "trial_type": "instructions", "trial_index": 6, "time_elapsed": 339668, "internal_node_id": "0.0-2.0-3.0"}}, {"uniqueid": "w25267381:a32776331", "current_trial": 7, "dateTime": 1664555519355, "trialdata": {"rt": 159542, "response": {"Q0": "$-48 to $48", "Q1": "The cost is always $0.25.", "Q2": "The better I perform the higher my bonus will be.", "Q3": "No, the amount of cash at each node of the web may be different each time.", "Q4": "The values of the nodes walked through from start to finish.", "Q5": "No, the spider might forget to count the money on some rounds."}, "question_order": [0, 1, 2, 3, 4, 5], "correct": {"Q0": "$-48 to $48", "Q1": "The cost is always $0.25.", "Q2": "The better I perform the higher my bonus will be.", "Q3": "No, the amount of cash at each node of the web may be different each time.", "Q4": "The values of the nodes walked through from start to finish.", "Q5": "No, the spider might forget to count the money on some rounds."}, "trial_id": "mouselab_quiz_scarce", "trial_type": "survey-multi-choice", "trial_index": 7, "time_elapsed": 499220, "internal_node_id": "0.0-2.0-4.0"}}, {"uniqueid": "w25267381:a32776331", "current_trial": 8, "dateTime": 1664555534495, "trialdata": {"rt": 15123, "stimulus": "\n<h1> Get ready to start the game! </h1>\n\nThank you for reading the instructions. Get ready start with the first of 4 block(s) of this game.\n<br><br>\nIn this first block, you will complete 30 rounds of this game before moving on.\n<br><br>\nRemember, the more money the spider gets, the bigger your bonus will be!\n<br><br>\n<div style='text-align: center;'>Press <code>space</code> to begin.</div>\n\n<br><br>\n(If, at any point, the <code>space</code> key does not take you to the next page, click once on the text and try again.)", "response": " ", "trial_id": "mdp_ready_1", "trial_type": "html-keyboard-response", "trial_index": 8, "time_elapsed": 514360, "internal_node_id": "0.0-4.0-0.0"}}, {"uniqueid": "w25267381:a32776331", "current_trial": 9, "dateTime": 1664555556970, "trialdata": {"revealed_states": [], "num_clicks_accrued": [0, 0, 0, 0, 0, 0, 0, 0, 0, 0, 0, 0, 0], "stateRewards": ["", 2, -8, -48, 24, 4, 8, 48, -48, 2, -4, 24, 24], "withholdReward": true, "trial_id": "mdp_130475327289", "block": "test1", "trialIndex": 2, "score": 63, "costs": -2, "simulationMode": [null, null, null], "rewards": [4, 8, 48], "path": ["0", "0", "5", "6", "7"], "rt": [6433, 38, 480], "actions": ["right", "right", "up"], "actionTimes": [17589, 18125, 19117], "queries": {"click": {"state": {"target": ["1", "2", "9", "10", "11", "5", "6", "7"], "time": [11990, 12676, 14092, 14477, 14993, 15742, 16110, 16625]}, "edge": {"target": [], "time": []}}, "mouseover": {"state": {"target": ["0", "1", "2", "4", "3", "3", "9", "10", "11", "11", "5", "6", "5", "6", "7"], "time": [11487, 11803, 12320, 12869, 13069, 13270, 13870, 14219, 14686, 14820, 15286, 15336, 15487, 15886, 16320]}, "edge": {"target": [], "time": []}}, "mouseout": {"state": {"target": ["0", "0", "1", "2", "4", "2", "3", "3", "1", "9", "10", "11", "11", "5", "6", "5", "6"], "time": [1586, 11519, 12152, 12836, 13021, 13053, 13084, 13487, 13570, 14188, 14670, 14720, 15237, 15302, 15454, 15853, 16270]}, "edge": {"target": [], "time": []}}}, "displayed_time": "20.16", "trialTime": 22424, "trial_type": "mouselab-mdp", "trial_index": 9, "time_elapsed": 536835, "internal_node_id": "0.0-4.0-1.0-0.0"}}, {"uniqueid": "w25267381:a32776331", "current_trial": 10, "dateTime": 1664555575576, "trialdata": {"revealed_states": [], "num_clicks_accrued": [0, 0, 0, 0, 0, 0, 0, 0, 0, 0, 0, 0, 0], "stateRewards": ["", -4, -4, -24, 48, -4, -8, -24, 48, 2, 4, 48, 48], "withholdReward": true, "trial_id": "mdp_810954007398", "block": "test1", "trialIndex": 3, "score": 58, "costs": -1, "simulationMode": [null, null, null], "rewards": [2, 4, 48], "path": ["0", "0", "9", "10", "11"], "rt": [4564, 73, 160], "actions": ["left", "left", "up"], "actionTimes": [8222, 8784, 9437], "queries": {"click": {"state": {"target": ["5", "9", "10", "11"], "time": [4350, 5300, 5813, 6515]}, "edge": {"target": [], "time": []}}, "mouseover": {"state": {"target": ["5", "6", "9", "10", "11", "12"], "time": [4094, 4643, 4977, 5477, 6243, 6927]}, "edge": {"target": [], "time": []}}, "mouseout": {"state": {"target": ["7", "5", "0", "5", "6", "9", "10", "11", "10"], "time": [2877, 3009, 4044, 4560, 4894, 5394, 6193, 6660, 6778]}, "edge": {"target": [], "time": []}}}, "displayed_time": "12.66", "trialTime": 18571, "trial_type": "mouselab-mdp", "trial_index": 10, "time_elapsed": 555441, "internal_node_id": "0.0-4.0-1.0-1.0"}}, {"uniqueid": "w25267381:a32776331", "current_trial": 11, "dateTime": 1664555593354, "trialdata": {"revealed_states": [], "num_clicks_accrued": [0, 0, 0, 0, 0, 0, 0, 0, 0, 0, 0, 0, 0], "stateRewards": ["", 2, -4, 24, 24, 4, -4, -24, 24, -4, -4, 48, 48], "withholdReward": true, "trial_id": "mdp_566306223773", "block": "test1", "trialIndex": 4, "score": 26.75, "costs": -2.25, "simulationMode": [null, null, null], "rewards": [4, -4, 24], "path": ["0", "0", "5", "6", "8"], "rt": [7222, 83, 356], "actions": ["right", "right", "down"], "actionTimes": [11872, 12450, 13306], "queries": {"click": {"state": {"target": ["9", "5", "1", "2", "3", "4", "6", "7", "8"], "time": [5289, 6089, 6639, 7072, 7706, 8139, 8739, 9339, 9889]}, "edge": {"target": [], "time": []}}, "mouseover": {"state": {"target": ["9", "10", "9", "5", "1", "2", "3", "3", "4", "6", "6", "7", "8", "10"], "time": [4817, 4899, 5134, 5933, 6351, 6817, 7305, 7451, 7865, 8400, 8467, 9065, 9617, 10883]}, "edge": {"target": [], "time": []}}, "mouseout": {"state": {"target": ["12", "0", "1", "9", "10", "9", "9", "5", "1", "2", "3", "3", "2", "4", "2", "6", "6", "7", "6", "8", "9", "10", "9", "5"], "time": [1700, 3950, 4015, 4849, 5031, 5433, 5666, 6266, 6784, 7266, 7333, 7815, 7849, 8284, 8299, 8433, 9032, 9499, 9568, 10050, 10851, 11100, 11116, 11167]}, "edge": {"target": [], "time": []}}}, "displayed_time": "13.80", "trialTime": 17739, "trial_type": "mouselab-mdp", "trial_index": 11, "time_elapsed": 573219, "internal_node_id": "0.0-4.0-1.0-2.0"}}, {"uniqueid": "w25267381:a32776331", "current_trial": 12, "dateTime": 1664555608990, "trialdata": {"revealed_states": [], "num_clicks_accrued": [0, 0, 0, 0, 0, 0, 0, 0, 0, 0, 0, 0, 0], "stateRewards": ["", 4, 8, -48, -48, 2, 4, -24, -48, 2, 8, 48, -48], "withholdReward": false, "trial_id": "mdp_902172716465", "block": "test1", "trialIndex": 5, "score": 60, "costs": -3, "simulationMode": [null, null, null], "rewards": [2, 8, 48], "path": ["0", "0", "9", "10", "11"], "rt": [9592, 137, 205], "actions": ["left", "left", "up"], "actionTimes": [11999, 12628, 13327], "queries": {"click": {"state": {"target": ["1", "2", "3", "4", "5", "6", "7", "8", "9", "10", "12", "11"], "time": [3245, 3743, 4312, 4929, 6062, 6446, 6862, 7479, 8245, 8712, 9312, 9895]}, "edge": {"target": [], "time": []}}, "mouseover": {"state": {"target": ["5", "1", "2", "3", "4", "6", "5", "6", "7", "8", "9", "9", "10", "12", "11"], "time": [2706, 2990, 3574, 4039, 4673, 5506, 5841, 6207, 6675, 7173, 7723, 7890, 8456, 8991, 9690]}, "edge": {"target": [], "time": []}}, "mouseout": {"state": {"target": ["6", "0", "5", "1", "2", "3", "2", "4", "1", "6", "5", "6", "7", "6", "8", "9", "9", "10", "12", "10", "11"], "time": [1489, 2659, 2940, 3440, 3990, 4506, 4640, 5289, 5424, 5540, 6157, 6624, 7023, 7107, 7606, 7756, 8373, 8856, 9457, 9591, 10056]}, "edge": {"target": [], "time": []}}}, "displayed_time": "13.82", "trialTime": 15598, "trial_type": "mouselab-mdp", "trial_index": 12, "time_elapsed": 588856, "internal_node_id": "0.0-4.0-1.0-3.0"}}, {"uniqueid": "w25267381:a32776331", "current_trial": 13, "dateTime": 1664555627283, "trialdata": {"revealed_states": [], "num_clicks_accrued": [0, 0, 0, 0, 0, 0, 0, 0, 0, 0, 0, 0, 0], "stateRewards": ["", -2, 8, -48, 48, -4, 8, -24, 24, 4, -4, 24, -48], "withholdReward": true, "trial_id": "mdp_904238083902", "block": "test1", "trialIndex": 6, "score": 56, "costs": -3, "simulationMode": [null, null, null], "rewards": [-2, 8, 48], "path": ["0", "0", "1", "2", "4"], "rt": [10697, 119, 292], "actions": ["up", "up", "left"], "actionTimes": [13864, 14473, 15260], "queries": {"click": {"state": {"target": ["9", "10", "12", "11", "5", "6", "8", "7", "1", "2", "3", "4"], "time": [4124, 4974, 5558, 6224, 7592, 7974, 8491, 9075, 9858, 10174, 10658, 11374]}, "edge": {"target": [], "time": []}}, "mouseover": {"state": {"target": ["9", "9", "10", "12", "11", "5", "0", "5", "6", "5", "6", "8", "7", "1", "1", "2", "3", "4", "4"], "time": [3618, 3919, 4635, 5334, 6035, 6801, 6901, 7001, 7032, 7450, 7700, 8235, 8801, 9419, 9685, 10002, 10485, 10885, 11218]}, "edge": {"target": [], "time": []}}, "mouseout": {"state": {"target": ["0", "9", "9", "10", "12", "11", "5", "0", "5", "6", "5", "6", "8", "6", "7", "1", "1", "2", "3", "2", "4", "4", "11"], "time": [3603, 3651, 4552, 5285, 5670, 6436, 6869, 7000, 7016, 7149, 7666, 8185, 8575, 8736, 9335, 9451, 9951, 10369, 10743, 10852, 11006, 11636, 11735]}, "edge": {"target": [], "time": []}}}, "displayed_time": "15.75", "trialTime": 18253, "trial_type": "mouselab-mdp", "trial_index": 13, "time_elapsed": 607149, "internal_node_id": "0.0-4.0-1.0-4.0"}}, {"uniqueid": "w25267381:a32776331", "current_trial": 14, "dateTime": 1664555644990, "trialdata": {"revealed_states": [], "num_clicks_accrued": [0, 0, 0, 0, 0, 0, 0, 0, 0, 0, 0, 0, 0], "stateRewards": ["", 4, -4, 24, 48, 4, 8, -24, -24, -2, 4, 48, 48], "withholdReward": true, "trial_id": "mdp_624998450453", "block": "test1", "trialIndex": 7, "score": 52, "costs": -3, "simulationMode": [null, null, null], "rewards": [-2, 4, 48], "path": ["0", "0", "9", "10", "12"], "rt": [11790, 631, 62], "actions": ["left", "left", "down"], "actionTimes": [13938, 15060, 15625], "queries": {"click": {"state": {"target": ["5", "9", "10", "12", "11", "6", "7", "8", "1", "2", "4", "3"], "time": [2852, 3802, 4502, 5001, 5701, 6969, 7485, 8085, 10686, 11117, 11585, 12402]}, "edge": {"target": [], "time": []}}, "mouseover": {"state": {"target": ["5", "0", "9", "10", "12", "11", "6", "7", "8", "8", "1", "2", "4", "3", "3"], "time": [2514, 3247, 3615, 4314, 4630, 5463, 6814, 7245, 7712, 7930, 10530, 10946, 11345, 11745, 12130]}, "edge": {"target": [], "time": []}}, "mouseout": {"state": {"target": ["0", "5", "0", "9", "10", "12", "10", "11", "5", "6", "7", "6", "8", "8", "6", "1", "2", "4", "2", "3", "3"], "time": [2480, 3148, 3298, 4147, 4597, 5181, 5365, 5865, 6231, 7179, 7646, 7696, 7763, 10096, 10177, 10880, 11296, 11695, 11729, 11863, 12546]}, "edge": {"target": [], "time": []}}}, "displayed_time": "16.11", "trialTime": 17671, "trial_type": "mouselab-mdp", "trial_index": 14, "time_elapsed": 624855, "internal_node_id": "0.0-4.0-1.0-5.0"}}, {"uniqueid": "w25267381:a32776331", "current_trial": 15, "dateTime": 1664555661438, "trialdata": {"revealed_states": [], "num_clicks_accrued": [0, 0, 0, 0, 0, 0, 0, 0, 0, 0, 0, 0, 0], "stateRewards": ["", 4, 4, 48, -24, -4, -8, 24, -24, 2, -8, -24, 24], "withholdReward": false, "trial_id": "mdp_933201675789", "block": "test1", "trialIndex": 8, "score": 58, "costs": -3, "simulationMode": [null, null, null], "rewards": [4, 4, 48], "path": ["0", "0", "1", "2", "3"], "rt": [8026, 48, 91], "actions": ["up", "up", "right"], "actionTimes": [11215, 11755, 12364], "queries": {"click": {"state": {"target": ["9", "10", "12", "11", "5", "6", "7", "8", "1", "2", "4", "3"], "time": [4413, 5112, 5629, 6310, 7013, 7445, 7878, 8379, 9029, 9380, 9829, 10313]}, "edge": {"target": [], "time": []}}, "mouseover": {"state": {"target": ["9", "10", "12", "11", "5", "6", "7", "8", "1", "1", "2", "4", "3"], "time": [3724, 4791, 5425, 6075, 6707, 7258, 7690, 8124, 8558, 8741, 9157, 9557, 10142]}, "edge": {"target": [], "time": []}}, "mouseout": {"state": {"target": ["6", "5", "0", "9", "10", "12", "10", "11", "5", "6", "7", "6", "8", "1", "1", "2", "4", "2", "3"], "time": [2541, 2795, 2989, 4624, 5323, 5773, 5974, 6575, 7192, 7642, 8041, 8091, 8507, 8573, 9140, 9507, 9957, 10024, 10440]}, "edge": {"target": [], "time": []}}}, "displayed_time": "12.86", "trialTime": 16413, "trial_type": "mouselab-mdp", "trial_index": 15, "time_elapsed": 641303, "internal_node_id": "0.0-4.0-1.0-6.0"}}, {"uniqueid": "w25267381:a32776331", "current_trial": 16, "dateTime": 1664555676131, "trialdata": {"revealed_states": [], "num_clicks_accrued": [0, 0, 0, 0, 0, 0, 0, 0, 0, 0, 0, 0, 0], "stateRewards": ["", 2, -4, -24, -48, -2, 8, -24, 48, -2, 8, 24, -48], "withholdReward": true, "trial_id": "mdp_566582551557", "block": "test1", "trialIndex": 9, "score": 56, "costs": -3, "simulationMode": [null, null, null], "rewards": [-2, 8, 48], "path": ["0", "0", "5", "6", "8"], "rt": [8797, 838, 449], "actions": ["right", "right", "down"], "actionTimes": [10270, 11598, 12541], "queries": {"click": {"state": {"target": ["1", "2", "3", "4", "5", "6", "9", "10", "11", "12", "8", "7"], "time": [2414, 3030, 3580, 4214, 4980, 5480, 6213, 6947, 7330, 7996, 8647, 9247]}, "edge": {"target": [], "time": []}}, "mouseover": {"state": {"target": ["1", "2", "3", "4", "5", "6", "0", "9", "10", "11", "12", "8", "7"], "time": [2192, 2859, 3375, 4008, 4609, 5191, 5740, 6075, 6693, 7092, 7693, 8393, 9009]}, "edge": {"target": [], "time": []}}, "mouseout": {"state": {"target": ["5", "0", "1", "2", "3", "2", "4", "1", "5", "6", "5", "0", "9", "10", "11", "10", "12", "8", "6", "7"], "time": [992, 1175, 2775, 3342, 3742, 3892, 4425, 4542, 5174, 5660, 5725, 5875, 6343, 7042, 7475, 7559, 8176, 8825, 8859, 9476]}, "edge": {"target": [], "time": []}}}, "displayed_time": "13.04", "trialTime": 14657, "trial_type": "mouselab-mdp", "trial_index": 16, "time_elapsed": 655997, "internal_node_id": "0.0-4.0-1.0-7.0"}}, {"uniqueid": "w25267381:a32776331", "current_trial": 17, "dateTime": 1664555695683, "trialdata": {"revealed_states": [], "num_clicks_accrued": [0, 0, 0, 0, 0, 0, 0, 0, 0, 0, 0, 0, 0], "stateRewards": ["", -4, 8, -24, 48, 2, -8, 24, 48, 2, -8, -24, -48], "withholdReward": true, "trial_id": "mdp_493778446445", "block": "test1", "trialIndex": 10, "score": 54, "costs": -3, "simulationMode": [null, null, null], "rewards": [-4, 8, 48], "path": ["0", "0", "1", "2", "4"], "rt": [14977, 24, 1], "actions": ["up", "up", "left"], "actionTimes": [16837, 17352, 17847], "queries": {"click": {"state": {"target": ["1", "2", "3", "4", "9", "10", "12", "11", "5", "6", "7", "8"], "time": [6534, 7134, 7551, 8084, 8834, 11351, 12018, 12551, 13233, 13885, 14269, 14834]}, "edge": {"target": [], "time": []}}, "mouseover": {"state": {"target": ["1", "1", "2", "3", "4", "9", "7", "10", "12", "12", "11", "5", "6", "6", "7", "8"], "time": [5962, 6445, 6946, 7429, 7846, 8313, 10664, 11112, 11478, 11751, 12329, 13097, 13428, 13728, 14044, 14528]}, "edge": {"target": [], "time": []}}, "mouseout": {"state": {"target": ["1", "1", "2", "3", "2", "4", "9", "1", "7", "10", "12", "12", "10", "11", "5", "6", "6", "7", "6", "8"], "time": [6012, 6895, 7279, 7654, 7763, 8229, 9096, 9413, 10695, 11444, 11528, 12144, 12212, 12746, 13413, 13460, 14012, 14412, 14495, 15164]}, "edge": {"target": [], "time": []}}}, "displayed_time": "18.36", "trialTime": 19513, "trial_type": "mouselab-mdp", "trial_index": 17, "time_elapsed": 675548, "internal_node_id": "0.0-4.0-1.0-8.0"}}, {"uniqueid": "w25267381:a32776331", "current_trial": 18, "dateTime": 1664555709611, "trialdata": {"revealed_states": [], "num_clicks_accrued": [0, 0, 0, 0, 0, 0, 0, 0, 0, 0, 0, 0, 0], "stateRewards": ["", 4, 4, 24, -48, 2, -8, -24, -48, 4, 8, 48, 48], "withholdReward": true, "trial_id": "mdp_592471239511", "block": "test1", "trialIndex": 11, "score": 63.25, "costs": -1.75, "simulationMode": [null, null, null], "rewards": [4, 8, 48], "path": ["0", "0", "9", "10", "11"], "rt": [5721, 90, 451], "actions": ["left", "left", "up"], "actionTimes": [7948, 8533, 9478], "queries": {"click": {"state": {"target": ["1", "2", "3", "4", "9", "10", "11"], "time": [2883, 3365, 3999, 4749, 6033, 6432, 6900]}, "edge": {"target": [], "time": []}}, "mouseover": {"state": {"target": ["1", "2", "3", "4", "9", "9", "10", "11", "12"], "time": [2643, 3210, 3743, 4278, 5477, 5861, 6277, 6727, 7292]}, "edge": {"target": [], "time": []}}, "mouseout": {"state": {"target": ["0", "1", "2", "3", "2", "4", "1", "9", "9", "10", "11", "10", "12"], "time": [2060, 3076, 3610, 4108, 4211, 5161, 5294, 5527, 6125, 6677, 7024, 7225, 11744]}, "edge": {"target": [], "time": []}}}, "displayed_time": "10.23", "trialTime": 13889, "trial_type": "mouselab-mdp", "trial_index": 18, "time_elapsed": 689477, "internal_node_id": "0.0-4.0-1.0-9.0"}}, {"uniqueid": "w25267381:a32776331", "current_trial": 19, "dateTime": 1664555725981, "trialdata": {"revealed_states": [], "num_clicks_accrued": [0, 0, 0, 0, 0, 0, 0, 0, 0, 0, 0, 0, 0], "stateRewards": ["", 2, -8, -24, -48, -2, -4, 48, 48, 4, 8, 48, 48], "withholdReward": false, "trial_id": "mdp_347285045422", "block": "test1", "trialIndex": 12, "score": 63.75, "costs": -1.25, "simulationMode": [null, null, null], "rewards": [4, 8, 48], "path": ["0", "0", "9", "10", "11"], "rt": [4463, 13, 781], "actions": ["left", "left", "up"], "actionTimes": [8063, 8579, 9864], "queries": {"click": {"state": {"target": ["5", "6", "9", "10", "11"], "time": [5056, 5472, 6022, 6389, 6856]}, "edge": {"target": [], "time": []}}, "mouseover": {"state": {"target": ["5", "5", "6", "0", "9", "10", "11", "12"], "time": [4433, 4884, 5216, 5667, 5733, 6149, 6650, 7301]}, "edge": {"target": [], "time": []}}, "mouseout": {"state": {"target": ["5", "3", "5", "5", "6", "5", "0", "9", "10", "11", "10", "12"], "time": [2049, 2282, 4533, 5168, 5599, 5666, 5700, 6115, 6583, 6983, 7084, 7384]}, "edge": {"target": [], "time": []}}}, "displayed_time": "11.60", "trialTime": 16332, "trial_type": "mouselab-mdp", "trial_index": 19, "time_elapsed": 705847, "internal_node_id": "0.0-4.0-1.0-10.0"}}, {"uniqueid": "w25267381:a32776331", "current_trial": 20, "dateTime": 1664555739737, "trialdata": {"revealed_states": [], "num_clicks_accrued": [0, 0, 0, 0, 0, 0, 0, 0, 0, 0, 0, 0, 0], "stateRewards": ["", -4, -8, 48, -24, 4, -8, 48, 48, -2, 4, -48, -24], "withholdReward": true, "trial_id": "mdp_925905402462", "block": "test1", "trialIndex": 13, "score": 46, "costs": -3, "simulationMode": [null, null, null], "rewards": [4, -8, 48], "path": ["0", "0", "5", "6", "8"], "rt": [7873, 45, 327], "actions": ["right", "right", "down"], "actionTimes": [10052, 10590, 11422], "queries": {"click": {"state": {"target": ["9", "10", "11", "12", "5", "6", "8", "7", "2", "3", "1", "4"], "time": [2668, 3035, 3434, 4068, 4601, 4951, 5252, 5751, 6667, 7069, 7551, 8034]}, "edge": {"target": [], "time": []}}, "mouseover": {"state": {"target": ["0", "9", "10", "11", "12", "5", "6", "8", "7", "2", "4", "2", "3", "1", "4"], "time": [2332, 2395, 2794, 3180, 3930, 4329, 4711, 5078, 5563, 6061, 6146, 6497, 6880, 7261, 7780]}, "edge": {"target": [], "time": []}}, "mouseout": {"state": {"target": ["9", "1", "0", "9", "10", "11", "10", "12", "5", "6", "8", "6", "7", "2", "4", "2", "3", "1"], "time": [1730, 1863, 2380, 2761, 3129, 3563, 3597, 4164, 4694, 5043, 5353, 5429, 6012, 6077, 6194, 6779, 7179, 7661]}, "edge": {"target": [], "time": []}}}, "displayed_time": "11.91", "trialTime": 13718, "trial_type": "mouselab-mdp", "trial_index": 20, "time_elapsed": 719603, "internal_node_id": "0.0-4.0-1.0-11.0"}}, {"uniqueid": "w25267381:a32776331", "current_trial": 21, "dateTime": 1664555753283, "trialdata": {"revealed_states": [], "num_clicks_accrued": [0, 0, 0, 0, 0, 0, 0, 0, 0, 0, 0, 0, 0], "stateRewards": ["", 2, 4, 48, -48, 2, 8, -24, 48, 4, 8, 48, -48], "withholdReward": true, "trial_id": "mdp_110142964375", "block": "test1", "trialIndex": 14, "score": 62, "costs": -1, "simulationMode": [null, null, null], "rewards": [2, 8, 48], "path": ["0", "0", "5", "6", "8"], "rt": [3314, 127, 452], "actions": ["right", "right", "down"], "actionTimes": [4870, 5500, 6442], "queries": {"click": {"state": {"target": ["5", "6", "7", "8"], "time": [2294, 2730, 3243, 3762]}, "edge": {"target": [], "time": []}}, "mouseover": {"state": {"target": ["5", "6", "7", "8"], "time": [2056, 2540, 3055, 3507]}, "edge": {"target": [], "time": []}}, "mouseout": {"state": {"target": ["4", "1", "0", "5", "6", "7", "6", "8"], "time": [807, 1056, 1990, 2440, 2955, 3373, 3423, 3923]}, "edge": {"target": [], "time": []}}}, "displayed_time": "10.56", "trialTime": 13508, "trial_type": "mouselab-mdp", "trial_index": 21, "time_elapsed": 733149, "internal_node_id": "0.0-4.0-1.0-12.0"}}, {"uniqueid": "w25267381:a32776331", "current_trial": 22, "dateTime": 1664555767661, "trialdata": {"revealed_states": [], "num_clicks_accrued": [0, 0, 0, 0, 0, 0, 0, 0, 0, 0, 0, 0, 0], "stateRewards": ["", -4, -8, -24, -48, -2, -8, 24, -48, -4, -8, 24, -48], "withholdReward": true, "trial_id": "mdp_621812384092", "block": "test1", "trialIndex": 15, "score": 16, "costs": -3, "simulationMode": [null, null, null], "rewards": [-2, -8, 24], "path": ["0", "0", "5", "6", "7"], "rt": [8651, 539, 272], "actions": ["right", "right", "up"], "actionTimes": [10492, 11549, 12314], "queries": {"click": {"state": {"target": ["5", "7", "6", "8", "9", "10", "12", "11", "1", "2", "4", "3"], "time": [2398, 3399, 3814, 4329, 5047, 5498, 5896, 6381, 7065, 7414, 7831, 8499]}, "edge": {"target": [], "time": []}}, "mouseover": {"state": {"target": ["5", "5", "6", "7", "6", "8", "9", "10", "12", "11", "1", "2", "4", "3"], "time": [2075, 2193, 3029, 3293, 3609, 3941, 4876, 5293, 5709, 6126, 6894, 7209, 7576, 8342]}, "edge": {"target": [], "time": []}}, "mouseout": {"state": {"target": ["9", "9", "0", "5", "5", "6", "7", "6", "8", "9", "10", "12", "10", "11", "1", "2", "4", "2", "3"], "time": [1274, 1492, 1742, 2109, 2510, 3092, 3543, 3925, 4492, 5142, 5643, 5999, 6059, 6576, 7176, 7541, 7924, 8075, 8710]}, "edge": {"target": [], "time": []}}}, "displayed_time": "12.81", "trialTime": 14338, "trial_type": "mouselab-mdp", "trial_index": 22, "time_elapsed": 747527, "internal_node_id": "0.0-4.0-1.0-13.0"}}, {"uniqueid": "w25267381:a32776331", "current_trial": 23, "dateTime": 1664555781859, "trialdata": {"revealed_states": [], "num_clicks_accrued": [0, 0, 0, 0, 0, 0, 0, 0, 0, 0, 0, 0, 0], "stateRewards": ["", -4, 8, 24, 24, 2, 4, -48, 24, -2, -4, -24, -24], "withholdReward": true, "trial_id": "mdp_752328329546", "block": "test1", "trialIndex": 16, "score": 34, "costs": -1, "simulationMode": [null, null, null], "rewards": [2, 4, 24], "path": ["0", "0", "5", "6", "8"], "rt": [4062, 466, 36], "actions": ["right", "right", "down"], "actionTimes": [9033, 10001, 10538], "queries": {"click": {"state": {"target": ["5", "6", "7", "8"], "time": [5924, 6441, 6925, 7491]}, "edge": {"target": [], "time": []}}, "mouseover": {"state": {"target": ["5", "6", "7", "8"], "time": [5703, 6201, 6718, 7250]}, "edge": {"target": [], "time": []}}, "mouseout": {"state": {"target": ["5", "0", "5", "6", "7", "6", "8"], "time": [2053, 5535, 6120, 6636, 7118, 7202, 7651]}, "edge": {"target": [], "time": []}}}, "displayed_time": "12.97", "trialTime": 14162, "trial_type": "mouselab-mdp", "trial_index": 23, "time_elapsed": 761724, "internal_node_id": "0.0-4.0-1.0-14.0"}}, {"uniqueid": "w25267381:a32776331", "current_trial": 24, "dateTime": 1664555794683, "trialdata": {"revealed_states": [], "num_clicks_accrued": [0, 0, 0, 0, 0, 0, 0, 0, 0, 0, 0, 0, 0], "stateRewards": ["", -4, 8, -24, -24, 2, 4, 48, 48, -2, 4, 24, -48], "withholdReward": true, "trial_id": "mdp_397308196941", "block": "test1", "trialIndex": 17, "score": 56.25, "costs": -2.75, "simulationMode": [null, null, null], "rewards": [2, 4, 48], "path": ["0", "0", "5", "6", "7"], "rt": [7164, 467, 309], "actions": ["right", "right", "up"], "actionTimes": [9300, 10268, 11078], "queries": {"click": {"state": {"target": ["9", "10", "12", "11", "1", "2", "4", "3", "5", "6", "7"], "time": [2875, 3307, 3741, 4291, 5558, 5925, 6291, 6808, 7341, 7824, 8374]}, "edge": {"target": [], "time": []}}, "mouseover": {"state": {"target": ["0", "9", "10", "12", "11", "1", "2", "4", "3", "5", "6", "6", "7", "7"], "time": [2267, 2651, 3000, 3485, 4152, 5319, 5717, 6068, 6468, 7120, 7450, 7634, 7984, 8202]}, "edge": {"target": [], "time": []}}, "mouseout": {"state": {"target": ["0", "0", "0", "9", "10", "12", "10", "11", "1", "2", "4", "2", "3", "5", "6", "6", "7", "7"], "time": [1718, 1952, 2585, 2968, 3434, 3834, 3952, 4469, 5685, 6034, 6418, 6452, 6969, 7427, 7467, 7950, 8017, 8552]}, "edge": {"target": [], "time": []}}}, "displayed_time": "11.57", "trialTime": 12786, "trial_type": "mouselab-mdp", "trial_index": 24, "time_elapsed": 774549, "internal_node_id": "0.0-4.0-1.0-15.0"}}, {"uniqueid": "w25267381:a32776331", "current_trial": 25, "dateTime": 1664555805732, "trialdata": {"revealed_states": [], "num_clicks_accrued": [0, 0, 0, 0, 0, 0, 0, 0, 0, 0, 0, 0, 0], "stateRewards": ["", 4, 8, -24, 48, -2, -4, 24, -24, -2, 4, 24, 24], "withholdReward": true, "trial_id": "mdp_948713805479", "block": "test1", "trialIndex": 18, "score": 62, "costs": -3, "simulationMode": [null, null, null], "rewards": [4, 8, 48], "path": ["0", "0", "1", "2", "4"], "rt": [6711, 6, 7], "actions": ["up", "up", "left"], "actionTimes": [8107, 8602, 9120], "queries": {"click": {"state": {"target": ["5", "6", "7", "8", "9", "10", "12", "11", "2", "4", "3", "1"], "time": [1819, 2201, 2568, 3001, 3585, 4051, 4485, 5266, 5969, 6318, 6818, 7285]}, "edge": {"target": [], "time": []}}, "mouseover": {"state": {"target": ["5", "6", "7", "8", "0", "9", "10", "12", "11", "11", "2", "2", "4", "3", "1"], "time": [1595, 2079, 2394, 2778, 3246, 3262, 3867, 4381, 4712, 5028, 5480, 5846, 6112, 6479, 7012]}, "edge": {"target": [], "time": []}}, "mouseout": {"state": {"target": ["6", "5", "5", "0", "5", "6", "7", "6", "8", "0", "9", "10", "12", "10", "11", "11", "2", "2", "4", "2", "3", "1"], "time": [711, 745, 998, 1529, 1946, 2329, 2697, 2745, 3179, 3261, 3744, 4196, 4577, 4679, 4761, 5396, 5630, 6038, 6401, 6446, 6963, 7412]}, "edge": {"target": [], "time": []}}}, "displayed_time": "10.40", "trialTime": 11012, "trial_type": "mouselab-mdp", "trial_index": 25, "time_elapsed": 785598, "internal_node_id": "0.0-4.0-1.0-16.0"}}, {"uniqueid": "w25267381:a32776331", "current_trial": 26, "dateTime": 1664555818399, "trialdata": {"revealed_states": [], "num_clicks_accrued": [0, 0, 0, 0, 0, 0, 0, 0, 0, 0, 0, 0, 0], "stateRewards": ["", 2, 4, -24, -48, 4, -4, 24, 48, -4, -4, -24, 48], "withholdReward": true, "trial_id": "mdp_181958792175", "block": "test1", "trialIndex": 19, "score": 50, "costs": -3, "simulationMode": [null, null, null], "rewards": [4, -4, 48], "path": ["0", "0", "5", "6", "8"], "rt": [7360, 74, 1151], "actions": ["right", "right", "down"], "actionTimes": [8559, 9122, 10765], "queries": {"click": {"state": {"target": ["5", "6", "7", "8", "9", "10", "12", "11", "2", "1", "4", "3"], "time": [1603, 2003, 2386, 2887, 3570, 4102, 4503, 4952, 5653, 5987, 6436, 7020]}, "edge": {"target": [], "time": []}}, "mouseover": {"state": {"target": ["5", "6", "7", "8", "9", "10", "12", "11", "4", "2", "1", "4", "3"], "time": [1347, 1846, 2164, 2614, 3414, 3897, 4281, 4681, 5332, 5515, 5798, 6214, 6763]}, "edge": {"target": [], "time": []}}, "mouseout": {"state": {"target": ["5", "6", "7", "6", "8", "9", "10", "12", "10", "11", "4", "2", "1", "4", "2", "3", "7"], "time": [1714, 2113, 2514, 2581, 3081, 3749, 4230, 4596, 4630, 5131, 5398, 5764, 6132, 6648, 6735, 7481, 7548]}, "edge": {"target": [], "time": []}}}, "displayed_time": "11.26", "trialTime": 12632, "trial_type": "mouselab-mdp", "trial_index": 26, "time_elapsed": 798265, "internal_node_id": "0.0-4.0-1.0-17.0"}}, {"uniqueid": "w25267381:a32776331", "current_trial": 27, "dateTime": 1664555831765, "trialdata": {"revealed_states": [], "num_clicks_accrued": [0, 0, 0, 0, 0, 0, 0, 0, 0, 0, 0, 0, 0], "stateRewards": ["", 2, -4, -48, -48, -2, -4, -24, -48, -2, 8, 24, 24], "withholdReward": true, "trial_id": "mdp_656069446729", "block": "test1", "trialIndex": 20, "score": 32, "costs": -3, "simulationMode": [null, null, null], "rewards": [-2, 8, 24], "path": ["0", "0", "9", "10", "12"], "rt": [7769, 538, 450], "actions": ["left", "left", "down"], "actionTimes": [9547, 10582, 11528], "queries": {"click": {"state": {"target": ["5", "6", "8", "7", "9", "10", "12", "11", "2", "3", "1", "4"], "time": [2567, 3350, 3699, 4182, 5016, 5467, 5900, 6683, 7366, 7716, 8149, 8583]}, "edge": {"target": [], "time": []}}, "mouseover": {"state": {"target": ["5", "6", "6", "8", "7", "1", "10", "9", "10", "12", "11", "2", "3", "1", "4"], "time": [2396, 2711, 3096, 3511, 4113, 4479, 4578, 4796, 5296, 5645, 6260, 6961, 7526, 7994, 8411]}, "edge": {"target": [], "time": []}}, "mouseout": {"state": {"target": ["6", "5", "0", "5", "6", "6", "8", "6", "7", "1", "10", "9", "10", "12", "10", "11", "2", "3", "1", "4"], "time": [978, 1045, 2163, 2678, 2878, 3478, 3829, 3878, 4445, 4494, 4746, 5162, 5612, 6004, 6079, 6880, 7493, 7877, 8276, 8759]}, "edge": {"target": [], "time": []}}}, "displayed_time": "12.03", "trialTime": 13327, "trial_type": "mouselab-mdp", "trial_index": 27, "time_elapsed": 811631, "internal_node_id": "0.0-4.0-1.0-18.0"}}, {"uniqueid": "w25267381:a32776331", "current_trial": 28, "dateTime": 1664555845490, "trialdata": {"revealed_states": [], "num_clicks_accrued": [0, 0, 0, 0, 0, 0, 0, 0, 0, 0, 0, 0, 0], "stateRewards": ["", -4, 8, 24, 24, -2, 8, -48, 48, 4, -8, 48, -48], "withholdReward": false, "trial_id": "mdp_295249220524", "block": "test1", "trialIndex": 21, "score": 56, "costs": -3, "simulationMode": [null, null, null], "rewards": [-2, 8, 48], "path": ["0", "0", "5", "6", "8"], "rt": [9089, 382, 171], "actions": ["right", "right", "down"], "actionTimes": [10267, 11145, 11817], "queries": {"click": {"state": {"target": ["1", "2", "3", "4", "9", "10", "12", "11", "5", "7", "6", "8"], "time": [1852, 2485, 3535, 4368, 5035, 5418, 5817, 6818, 7635, 8668, 9018, 9352]}, "edge": {"target": [], "time": []}}, "mouseover": {"state": {"target": ["1", "2", "3", "4", "4", "9", "10", "12", "5", "11", "0", "5", "6", "7", "6", "8"], "time": [1546, 2281, 3381, 3745, 4179, 4880, 5229, 5712, 6279, 6563, 6995, 7346, 8264, 8580, 8829, 9179]}, "edge": {"target": [], "time": []}}, "mouseout": {"state": {"target": ["1", "1", "1", "2", "3", "2", "4", "4", "9", "10", "12", "5", "11", "0", "5", "6", "7", "6"], "time": [829, 1996, 2196, 2697, 3627, 3696, 3779, 4562, 5195, 5630, 6129, 6446, 6929, 7113, 7863, 8329, 8795, 9129]}, "edge": {"target": [], "time": []}}}, "displayed_time": "12.31", "trialTime": 13688, "trial_type": "mouselab-mdp", "trial_index": 28, "time_elapsed": 825356, "internal_node_id": "0.0-4.0-1.0-19.0"}}, {"uniqueid": "w25267381:a32776331", "current_trial": 29, "dateTime": 1664555857954, "trialdata": {"revealed_states": [], "num_clicks_accrued": [0, 0, 0, 0, 0, 0, 0, 0, 0, 0, 0, 0, 0], "stateRewards": ["", -2, -8, 48, 24, 2, 4, 24, -24, -2, -4, 48, -48], "withholdReward": true, "trial_id": "mdp_411152402386", "block": "test1", "trialIndex": 22, "score": 32, "costs": -3, "simulationMode": [null, null, null], "rewards": [2, 4, 24], "path": ["0", "0", "5", "6", "7"], "rt": [6773, 134, 129], "actions": ["right", "right", "up"], "actionTimes": [9007, 9638, 10267], "queries": {"click": {"state": {"target": ["1", "2", "4", "3", "5", "6", "7", "8", "9", "10", "12", "11"], "time": [2793, 3260, 3693, 4225, 4860, 5192, 5576, 6009, 6776, 7126, 7492, 7959]}, "edge": {"target": [], "time": []}}, "mouseover": {"state": {"target": ["1", "2", "4", "3", "5", "6", "7", "8", "9", "9", "10", "12", "11"], "time": [2554, 3103, 3520, 3972, 4471, 4985, 5353, 5770, 6287, 6654, 6937, 7286, 7769]}, "edge": {"target": [], "time": []}}, "mouseout": {"state": {"target": ["8", "9", "0", "1", "2", "4", "2", "3", "5", "6", "7", "6", "8", "9", "9", "10", "12", "10", "11"], "time": [1503, 1770, 2086, 2952, 3369, 3835, 3971, 4353, 4969, 5319, 5688, 5737, 6220, 6302, 6885, 7254, 7602, 7703, 8104]}, "edge": {"target": [], "time": []}}}, "displayed_time": "10.77", "trialTime": 12426, "trial_type": "mouselab-mdp", "trial_index": 29, "time_elapsed": 837820, "internal_node_id": "0.0-4.0-1.0-20.0"}}, {"uniqueid": "w25267381:a32776331", "current_trial": 30, "dateTime": 1664555869543, "trialdata": {"revealed_states": [], "num_clicks_accrued": [0, 0, 0, 0, 0, 0, 0, 0, 0, 0, 0, 0, 0], "stateRewards": ["", -4, 4, -24, 48, -2, 8, -48, 24, 2, 4, 48, -48], "withholdReward": true, "trial_id": "mdp_366632183904", "block": "test1", "trialIndex": 23, "score": 56.5, "costs": -2.5, "simulationMode": [null, null, null], "rewards": [2, 4, 48], "path": ["0", "0", "9", "10", "11"], "rt": [6660, 528, 76], "actions": ["left", "left", "up"], "actionTimes": [8266, 9301, 9866], "queries": {"click": {"state": {"target": ["5", "6", "7", "8", "9", "10", "12", "11", "2", "3"], "time": [2196, 2563, 2996, 3729, 4812, 5195, 5562, 6076, 6946, 7429]}, "edge": {"target": [], "time": []}}, "mouseover": {"state": {"target": ["5", "6", "7", "8", "8", "9", "10", "12", "11", "2", "2", "3"], "time": [1991, 2473, 2791, 3190, 3524, 4609, 5024, 5358, 5892, 6357, 6691, 7225]}, "edge": {"target": [], "time": []}}, "mouseout": {"state": {"target": ["9", "5", "5", "6", "7", "6", "8", "8", "9", "10", "12", "10", "11", "2", "2"], "time": [1123, 1326, 2325, 2742, 3124, 3173, 3258, 3857, 4923, 5324, 5690, 5758, 6309, 6390, 7175]}, "edge": {"target": [], "time": []}}}, "displayed_time": "10.61", "trialTime": 11551, "trial_type": "mouselab-mdp", "trial_index": 30, "time_elapsed": 849409, "internal_node_id": "0.0-4.0-1.0-21.0"}}, {"uniqueid": "w25267381:a32776331", "current_trial": 31, "dateTime": 1664555881577, "trialdata": {"revealed_states": [], "num_clicks_accrued": [0, 0, 0, 0, 0, 0, 0, 0, 0, 0, 0, 0, 0], "stateRewards": ["", -2, 4, -24, 24, -4, -8, 24, -48, -4, -4, -48, -24], "withholdReward": false, "trial_id": "mdp_753137520419", "block": "test1", "trialIndex": 24, "score": 28, "costs": -3, "simulationMode": [null, null, null], "rewards": [-2, 4, 24], "path": ["0", "0", "1", "2", "4"], "rt": [7761, 23, 70], "actions": ["up", "up", "left"], "actionTimes": [9257, 9775, 10339], "queries": {"click": {"state": {"target": ["1", "2", "3", "4", "9", "10", "12", "11", "5", "6", "8", "7"], "time": [2025, 2358, 2758, 3323, 3906, 4325, 4742, 5191, 6241, 6608, 7026, 7574]}, "edge": {"target": [], "time": []}}, "mouseover": {"state": {"target": ["1", "2", "3", "4", "9", "10", "12", "11", "5", "6", "5", "6", "8", "7"], "time": [1753, 2170, 2519, 3084, 3552, 4186, 4569, 4968, 5353, 5637, 6036, 6403, 6802, 7352]}, "edge": {"target": [], "time": []}}, "mouseout": {"state": {"target": ["3", "1", "2", "3", "2", "4", "9", "10", "12", "10", "11", "5", "6", "5", "6", "8", "6"], "time": [718, 2119, 2485, 2854, 3036, 3452, 4067, 4487, 4853, 4937, 5301, 5368, 5670, 6337, 6753, 7186, 7318]}, "edge": {"target": [], "time": []}}}, "displayed_time": "10.84", "trialTime": 11997, "trial_type": "mouselab-mdp", "trial_index": 31, "time_elapsed": 861443, "internal_node_id": "0.0-4.0-1.0-22.0"}}, {"uniqueid": "w25267381:a32776331", "current_trial": 32, "dateTime": 1664555894429, "trialdata": {"revealed_states": [], "num_clicks_accrued": [0, 0, 0, 0, 0, 0, 0, 0, 0, 0, 0, 0, 0], "stateRewards": ["", -2, -4, -24, -48, -2, 8, -48, 24, 4, -4, -24, -24], "withholdReward": true, "trial_id": "mdp_915304165774", "block": "test1", "trialIndex": 25, "score": 32, "costs": -3, "simulationMode": [null, null, null], "rewards": [-2, 8, 24], "path": ["0", "0", "5", "6", "8"], "rt": [7895, 454, 1], "actions": ["right", "right", "down"], "actionTimes": [9074, 10019, 10514], "queries": {"click": {"state": {"target": ["9", "10", "12", "11", "5", "6", "7", "8", "2", "3", "4", "1"], "time": [1870, 2349, 2752, 3299, 4016, 4433, 5118, 5620, 6483, 6886, 7416, 8585]}, "edge": {"target": [], "time": []}}, "mouseover": {"state": {"target": ["9", "10", "12", "11", "5", "6", "7", "7", "8", "1", "1", "2", "3", "4", "1", "1"], "time": [1546, 2146, 2562, 3081, 3863, 4313, 4679, 4930, 5346, 5964, 6147, 6263, 6731, 7216, 7930, 8345]}, "edge": {"target": [], "time": []}}, "mouseout": {"state": {"target": ["7", "0", "9", "10", "12", "10", "11", "9", "5", "6", "7", "7", "6", "8", "1", "1", "2", "3", "2", "4", "1"], "time": [694, 1546, 2029, 2477, 2862, 2998, 3445, 3496, 4195, 4663, 4714, 5262, 5313, 5847, 5980, 6179, 6630, 7064, 7197, 7546, 7996]}, "edge": {"target": [], "time": []}}}, "displayed_time": "11.03", "trialTime": 12810, "trial_type": "mouselab-mdp", "trial_index": 32, "time_elapsed": 874295, "internal_node_id": "0.0-4.0-1.0-23.0"}}, {"uniqueid": "w25267381:a32776331", "current_trial": 33, "dateTime": 1664555905385, "trialdata": {"revealed_states": [], "num_clicks_accrued": [0, 0, 0, 0, 0, 0, 0, 0, 0, 0, 0, 0, 0], "stateRewards": ["", 4, 4, 48, -48, -2, -8, -48, -24, 2, 4, -24, -48], "withholdReward": true, "trial_id": "mdp_239929662917", "block": "test1", "trialIndex": 26, "score": 58.25, "costs": -2.75, "simulationMode": [null, null, null], "rewards": [4, 4, 48], "path": ["0", "0", "1", "2", "3"], "rt": [6497, 363, 320], "actions": ["up", "up", "right"], "actionTimes": [7588, 8443, 9251], "queries": {"click": {"state": {"target": ["5", "6", "8", "9", "10", "12", "11", "2", "1", "3", "4"], "time": [1534, 2070, 2467, 3235, 3653, 4053, 4753, 5503, 5853, 6336, 6854]}, "edge": {"target": [], "time": []}}, "mouseover": {"state": {"target": ["5", "6", "6", "8", "9", "10", "12", "11", "2", "1", "3", "4"], "time": [1298, 1714, 1882, 2297, 3080, 3380, 3814, 4614, 5331, 5663, 6080, 6596]}, "edge": {"target": [], "time": []}}, "mouseout": {"state": {"target": ["1", "0", "5", "6", "6", "8", "6", "5", "9", "10", "12", "10", "11", "2", "1", "3", "2"], "time": [765, 1231, 1699, 1748, 2213, 2579, 2679, 2730, 3332, 3763, 4247, 4549, 4965, 5631, 5997, 6496, 6563]}, "edge": {"target": [], "time": []}}}, "displayed_time": "9.75", "trialTime": 10918, "trial_type": "mouselab-mdp", "trial_index": 33, "time_elapsed": 885251, "internal_node_id": "0.0-4.0-1.0-24.0"}}, {"uniqueid": "w25267381:a32776331", "current_trial": 34, "dateTime": 1664555918952, "trialdata": {"revealed_states": [], "num_clicks_accrued": [0, 0, 0, 0, 0, 0, 0, 0, 0, 0, 0, 0, 0], "stateRewards": ["", 2, 8, -24, -48, -4, 8, -48, -48, -2, -8, -24, -24], "withholdReward": true, "trial_id": "mdp_978177451072", "block": "test1", "trialIndex": 27, "score": -12, "costs": -3, "simulationMode": [null, null, null], "rewards": [2, 8, -24], "path": ["0", "0", "1", "2", "3"], "rt": [8654, 242, 167], "actions": ["up", "up", "right"], "actionTimes": [10427, 11169, 11844], "queries": {"click": {"state": {"target": ["1", "2", "3", "4", "9", "10", "12", "11", "5", "6", "8", "7"], "time": [2463, 2899, 3398, 3966, 4582, 4949, 5466, 6065, 6699, 7016, 7348, 7815]}, "edge": {"target": [], "time": []}}, "mouseover": {"state": {"target": ["1", "2", "3", "4", "9", "10", "12", "11", "5", "6", "8", "7"], "time": [2241, 2777, 3192, 3692, 4410, 4743, 5159, 5625, 6500, 6826, 7177, 7576]}, "edge": {"target": [], "time": []}}, "mouseout": {"state": {"target": ["4", "1", "0", "0", "1", "2", "3", "2", "4", "9", "10", "12", "10", "11", "5", "6", "8", "6", "7"], "time": [694, 877, 1010, 1392, 2643, 3126, 3525, 3660, 4142, 4710, 5093, 5591, 5608, 6210, 6791, 7143, 7468, 7543, 7943]}, "edge": {"target": [], "time": []}}}, "displayed_time": "12.34", "trialTime": 13531, "trial_type": "mouselab-mdp", "trial_index": 34, "time_elapsed": 898818, "internal_node_id": "0.0-4.0-1.0-25.0"}}, {"uniqueid": "w25267381:a32776331", "current_trial": 35, "dateTime": 1664555932137, "trialdata": {"revealed_states": [], "num_clicks_accrued": [0, 0, 0, 0, 0, 0, 0, 0, 0, 0, 0, 0, 0], "stateRewards": ["", 4, 8, 24, 24, 2, -4, 48, -24, -4, 8, -24, 24], "withholdReward": false, "trial_id": "mdp_932292142091", "block": "test1", "trialIndex": 28, "score": 38, "costs": -3, "simulationMode": [null, null, null], "rewards": [4, 8, 24], "path": ["0", "0", "1", "2", "3"], "rt": [8792, 155, 112], "actions": ["up", "up", "right"], "actionTimes": [10110, 10763, 11370], "queries": {"click": {"state": {"target": ["1", "2", "3", "4", "9", "10", "12", "11", "5", "6", "8", "7"], "time": [2013, 2396, 2880, 3431, 3960, 4445, 4862, 5446, 6480, 6814, 7246, 7796]}, "edge": {"target": [], "time": []}}, "mouseover": {"state": {"target": ["1", "2", "3", "4", "9", "10", "10", "12", "11", "0", "6", "5", "5", "6", "8", "7"], "time": [1809, 2190, 2707, 3157, 3706, 4190, 4300, 4724, 5241, 5624, 5840, 5857, 6184, 6640, 7092, 7625]}, "edge": {"target": [], "time": []}}, "mouseout": {"state": {"target": ["6", "5", "1", "2", "3", "2", "4", "9", "10", "10", "12", "10", "11", "0", "6", "5", "5", "6", "8", "6", "7"], "time": [740, 773, 2123, 2641, 3006, 3091, 3573, 4156, 4257, 4574, 5024, 5091, 5574, 5640, 5856, 5942, 6591, 6991, 7373, 7457, 7973]}, "edge": {"target": [], "time": []}}}, "displayed_time": "11.86", "trialTime": 13146, "trial_type": "mouselab-mdp", "trial_index": 35, "time_elapsed": 912003, "internal_node_id": "0.0-4.0-1.0-26.0"}}, {"uniqueid": "w25267381:a32776331", "current_trial": 36, "dateTime": 1664555945528, "trialdata": {"revealed_states": [], "num_clicks_accrued": [0, 0, 0, 0, 0, 0, 0, 0, 0, 0, 0, 0, 0], "stateRewards": ["", -4, 8, 24, -48, -4, -8, -24, 24, 2, -4, -48, 24], "withholdReward": true, "trial_id": "mdp_898449441629", "block": "test1", "trialIndex": 29, "score": 30, "costs": -3, "simulationMode": [null, null, null], "rewards": [-4, 8, 24], "path": ["0", "0", "1", "2", "3"], "rt": [7429, 295, 187], "actions": ["up", "up", "right"], "actionTimes": [9931, 10719, 11394], "queries": {"click": {"state": {"target": ["1", "2", "3", "4", "9", "10", "12", "11", "5", "6", "7", "8"], "time": [3213, 3629, 4096, 4579, 5079, 5479, 5813, 6463, 7561, 7979, 8396, 8846]}, "edge": {"target": [], "time": []}}, "mouseover": {"state": {"target": ["1", "2", "3", "4", "9", "10", "12", "11", "11", "5", "5", "6", "7", "8"], "time": [3008, 3441, 3906, 4323, 4841, 5306, 5622, 6088, 6290, 6806, 7368, 7722, 8223, 8639]}, "edge": {"target": [], "time": []}}, "mouseout": {"state": {"target": ["6", "9", "0", "1", "2", "3", "2", "4", "9", "10", "12", "10", "11", "11", "5", "5", "6", "7", "6", "8"], "time": [1723, 2141, 2290, 3340, 3857, 4206, 4291, 4739, 5192, 5589, 6040, 6073, 6106, 6573, 6873, 7689, 8173, 8557, 8589, 8955]}, "edge": {"target": [], "time": []}}}, "displayed_time": "11.89", "trialTime": 13353, "trial_type": "mouselab-mdp", "trial_index": 36, "time_elapsed": 925394, "internal_node_id": "0.0-4.0-1.0-27.0"}}, {"uniqueid": "w25267381:a32776331", "current_trial": 37, "dateTime": 1664555959228, "trialdata": {"revealed_states": [], "num_clicks_accrued": [0, 0, 0, 0, 0, 0, 0, 0, 0, 0, 0, 0, 0], "stateRewards": ["", 2, 4, -48, -48, 4, 4, -48, -48, -2, -8, 48, -24], "withholdReward": false, "trial_id": "mdp_175327338412", "block": "test1", "trialIndex": 30, "score": 40, "costs": -3, "simulationMode": [null, null, null], "rewards": [-2, -8, 48], "path": ["0", "0", "9", "10", "11"], "rt": [8782, 71, 338], "actions": ["left", "left", "up"], "actionTimes": [10243, 10805, 11637], "queries": {"click": {"state": {"target": ["1", "2", "3", "4", "9", "10", "12", "11", "5", "6", "8", "7"], "time": [1871, 2621, 3105, 3654, 4222, 4671, 5022, 5521, 6188, 6571, 6905, 7705]}, "edge": {"target": [], "time": []}}, "mouseover": {"state": {"target": ["1", "2", "3", "4", "9", "10", "12", "11", "0", "5", "6", "8", "7", "7"], "time": [1682, 2465, 2916, 3381, 3998, 4532, 4831, 5315, 5698, 6047, 6349, 6714, 7181, 7482]}, "edge": {"target": [], "time": []}}, "mouseout": {"state": {"target": ["8", "1", "2", "3", "2", "4", "9", "10", "12", "10", "11", "9", "0", "5", "6", "8", "6", "7", "7"], "time": [1116, 2015, 2798, 3231, 3348, 3899, 4383, 4799, 5200, 5282, 5631, 5682, 5914, 6281, 6698, 7115, 7147, 7248, 7831]}, "edge": {"target": [], "time": []}}}, "displayed_time": "12.15", "trialTime": 13662, "trial_type": "mouselab-mdp", "trial_index": 37, "time_elapsed": 939094, "internal_node_id": "0.0-4.0-1.0-28.0"}}, {"uniqueid": "w25267381:a32776331", "current_trial": 38, "dateTime": 1664555971176, "trialdata": {"revealed_states": [], "num_clicks_accrued": [0, 0, 0, 0, 0, 0, 0, 0, 0, 0, 0, 0, 0], "stateRewards": ["", -2, 8, 24, -48, -2, -4, 24, 48, 2, 8, -48, -48], "withholdReward": false, "trial_id": "mdp_562228697607", "block": "test1", "trialIndex": 31, "score": 45, "costs": -2, "simulationMode": [null, null, null], "rewards": [-2, -4, 48], "path": ["0", "0", "5", "6", "8"], "rt": [5421, 463, 82], "actions": ["right", "right", "down"], "actionTimes": [6648, 7614, 8198], "queries": {"click": {"state": {"target": ["1", "2", "3", "4", "5", "6", "8", "7"], "time": [1889, 2272, 2806, 3390, 4072, 4406, 4939, 5389]}, "edge": {"target": [], "time": []}}, "mouseover": {"state": {"target": ["1", "2", "3", "4", "0", "5", "6", "8", "7", "9"], "time": [1750, 2050, 2481, 3200, 3733, 3832, 4232, 4766, 5201, 5699]}, "edge": {"target": [], "time": []}}, "mouseout": {"state": {"target": ["6", "5", "1", "2", "3", "2", "4", "1", "0", "5", "6", "8", "6", "7", "5", "9"], "time": [833, 848, 2000, 2448, 2933, 3050, 3584, 3666, 3817, 4182, 4734, 5035, 5100, 5583, 5667, 10151]}, "edge": {"target": [], "time": []}}}, "displayed_time": "9.23", "trialTime": 11911, "trial_type": "mouselab-mdp", "trial_index": 38, "time_elapsed": 951042, "internal_node_id": "0.0-4.0-1.0-29.0"}}, {"uniqueid": "w25267381:a32776331", "current_trial": 39, "dateTime": 1664555985087, "trialdata": {"rt": 13902, "stimulus": "<h1> End of block! </h1>\n\nYou have reached the end of the block 1/4. If you need a short break, feel free to take one now before moving on.\n\n<br><br>\nIn the next block, you will complete another 30 rounds of this game.\n\n<br><br>\n<div style='text-align: center;'>Press <code>space</code> to begin.</div>\n<br><br>\n<div style='text-align: center;'>(If the experiment doesn't continue, try clicking on the text and then pressing <code>space</code>.)</div>", "response": " ", "trial_id": "mdp_ready_2", "trial_type": "html-keyboard-response", "trial_index": 39, "time_elapsed": 964953, "internal_node_id": "0.0-4.0-2.0"}}, {"uniqueid": "w25267381:a32776331", "current_trial": 40, "dateTime": 1664555996085, "trialdata": {"revealed_states": [], "num_clicks_accrued": [0, 0, 0, 0, 0, 0, 0, 0, 0, 0, 0, 0, 0], "stateRewards": ["", -2, -8, -48, 24, 2, -4, -48, 48, 2, 4, 24, -24], "withholdReward": true, "trial_id": "mdp_849341543762", "block": "test2", "trialIndex": 32, "score": 50, "costs": -1, "simulationMode": [null, null, null], "rewards": [2, -4, 48], "path": ["0", "0", "5", "6", "8"], "rt": [3273, 191, 419], "actions": ["right", "right", "down"], "actionTimes": [4731, 5418, 6329], "queries": {"click": {"state": {"target": ["5", "6", "7", "8"], "time": [2083, 2499, 2983, 3499]}, "edge": {"target": [], "time": []}}, "mouseover": {"state": {"target": ["5", "6", "7", "8"], "time": [1827, 2244, 2761, 3244]}, "edge": {"target": [], "time": []}}, "mouseout": {"state": {"target": ["7", "5", "5", "6", "7", "6", "8"], "time": [760, 926, 2209, 2693, 3126, 3194, 3742]}, "edge": {"target": [], "time": []}}}, "displayed_time": "10.46", "trialTime": 10930, "trial_type": "mouselab-mdp", "trial_index": 40, "time_elapsed": 975951, "internal_node_id": "0.0-4.0-3.0-0.0"}}, {"uniqueid": "w25267381:a32776331", "current_trial": 41, "dateTime": 1664556007245, "trialdata": {"revealed_states": [], "num_clicks_accrued": [0, 0, 0, 0, 0, 0, 0, 0, 0, 0, 0, 0, 0], "stateRewards": ["", -2, 8, -48, -24, -2, 8, 48, -48, -4, 8, 24, 48], "withholdReward": true, "trial_id": "mdp_160707003673", "block": "test2", "trialIndex": 33, "score": -39.5, "costs": -2.5, "simulationMode": [null, null, null], "rewards": [-2, 8, -48], "path": ["0", "0", "1", "2", "3"], "rt": [6640, 655, 67], "actions": ["up", "up", "right"], "actionTimes": [7498, 8645, 9207], "queries": {"click": {"state": {"target": ["9", "5", "1", "2", "3", "4", "10", "12", "6", "8"], "time": [1245, 2428, 2812, 3278, 3745, 4278, 4862, 5196, 6181, 6578]}, "edge": {"target": [], "time": []}}, "mouseover": {"state": {"target": ["9", "0", "5", "6", "5", "1", "2", "3", "4", "10", "12", "6", "8"], "time": [1022, 1504, 1537, 1588, 2132, 2572, 3056, 3572, 4005, 4639, 5005, 5790, 6355]}, "edge": {"target": [], "time": []}}, "mouseout": {"state": {"target": ["9", "0", "5", "6", "5", "1", "2", "3", "2", "4", "10", "12", "6"], "time": [1489, 1521, 1554, 1788, 2507, 3022, 3455, 3849, 3938, 4406, 4972, 5339, 6322]}, "edge": {"target": [], "time": []}}}, "displayed_time": "9.86", "trialTime": 11120, "trial_type": "mouselab-mdp", "trial_index": 41, "time_elapsed": 987111, "internal_node_id": "0.0-4.0-3.0-1.0"}}, {"uniqueid": "w25267381:a32776331", "current_trial": 42, "dateTime": 1664556016604, "trialdata": {"revealed_states": [], "num_clicks_accrued": [0, 0, 0, 0, 0, 0, 0, 0, 0, 0, 0, 0, 0], "stateRewards": ["", -2, 4, 48, -24, 2, 8, 24, 48, 2, 4, -24, -48], "withholdReward": false, "trial_id": "mdp_892412058587", "block": "test2", "trialIndex": 34, "score": 62, "costs": -1, "simulationMode": [null, null, null], "rewards": [2, 8, 48], "path": ["0", "0", "5", "6", "8"], "rt": [2412, 140, 634], "actions": ["right", "right", "down"], "actionTimes": [3875, 4503, 5630], "queries": {"click": {"state": {"target": ["5", "6", "8", "7"], "time": [1950, 2318, 2702, 3268]}, "edge": {"target": [], "time": []}}, "mouseover": {"state": {"target": ["5", "6", "8", "7"], "time": [1680, 2113, 2580, 3080]}, "edge": {"target": [], "time": []}}, "mouseout": {"state": {"target": ["8", "0", "5", "6", "8", "6"], "time": [946, 1246, 2079, 2480, 2830, 2997]}, "edge": {"target": [], "time": []}}}, "displayed_time": "8.47", "trialTime": 9318, "trial_type": "mouselab-mdp", "trial_index": 42, "time_elapsed": 996470, "internal_node_id": "0.0-4.0-3.0-2.0"}}, {"uniqueid": "w25267381:a32776331", "current_trial": 43, "dateTime": 1664556032612, "trialdata": {"revealed_states": [], "num_clicks_accrued": [0, 0, 0, 0, 0, 0, 0, 0, 0, 0, 0, 0, 0], "stateRewards": ["", 4, -8, 48, -24, 4, -4, -48, -48, 4, -4, 24, 24], "withholdReward": false, "trial_id": "mdp_221562928904", "block": "test2", "trialIndex": 35, "score": 26, "costs": -3, "simulationMode": [null, null, null], "rewards": [4, -4, 24], "path": ["0", "0", "9", "10", "11"], "rt": [10447, 217, 178], "actions": ["left", "left", "up"], "actionTimes": [11955, 12670, 13347], "queries": {"click": {"state": {"target": ["1", "5", "9", "10", "12", "6", "8", "7", "11", "4", "2", "3"], "time": [2576, 3260, 3926, 4893, 5259, 5992, 6309, 6943, 7908, 8426, 8776, 9675]}, "edge": {"target": [], "time": []}}, "mouseover": {"state": {"target": ["1", "1", "5", "5", "0", "9", "10", "10", "10", "12", "6", "8", "7", "4", "11", "4", "2", "3"], "time": [2087, 2403, 2718, 3120, 3402, 3720, 4118, 4355, 4659, 5085, 5637, 6136, 6687, 7220, 7768, 8154, 8552, 9486]}, "edge": {"target": [], "time": []}}, "mouseout": {"state": {"target": ["7", "5", "0", "1", "1", "5", "5", "0", "9", "10", "10", "10", "12", "6", "8", "6", "7", "1", "4", "11", "4", "2", "3"], "time": [853, 1003, 1920, 2303, 2702, 2736, 3387, 3537, 4087, 4153, 4421, 5053, 5385, 6103, 6436, 6503, 7087, 7171, 7286, 8037, 8520, 8988, 9802]}, "edge": {"target": [], "time": []}}}, "displayed_time": "13.84", "trialTime": 15967, "trial_type": "mouselab-mdp", "trial_index": 43, "time_elapsed": 1012478, "internal_node_id": "0.0-4.0-3.0-3.0"}}, {"uniqueid": "w25267381:a32776331", "current_trial": 44, "dateTime": 1664556052449, "trialdata": {"revealed_states": [], "num_clicks_accrued": [0, 0, 0, 0, 0, 0, 0, 0, 0, 0, 0, 0, 0], "stateRewards": ["", 2, 8, -48, -24, 4, 4, 24, 48, 4, -4, -48, 48], "withholdReward": true, "trial_id": "mdp_665096999232", "block": "test2", "trialIndex": 36, "score": 58.5, "costs": -2.5, "simulationMode": [null, null, null], "rewards": [4, 4, 48], "path": ["0", "0", "5", "6", "8"], "rt": [6384, 64, 510], "actions": ["right", "right", "down"], "actionTimes": [14144, 14706, 15719], "queries": {"click": {"state": {"target": ["1", "2", "3", "4", "9", "10", "12", "5", "6", "8"], "time": [8415, 8931, 9383, 9995, 10648, 11065, 11448, 12181, 12849, 13165]}, "edge": {"target": [], "time": []}}, "mouseover": {"state": {"target": ["1", "2", "3", "4", "9", "10", "12", "5", "6", "6", "8"], "time": [8159, 8625, 9192, 9759, 10375, 10809, 11242, 11860, 12308, 12558, 12975]}, "edge": {"target": [], "time": []}}, "mouseout": {"state": {"target": ["0", "1", "2", "3", "2", "4", "9", "10", "12", "5", "6", "6", "8"], "time": [8092, 8574, 9074, 9525, 9692, 10291, 10775, 11193, 11592, 12291, 12342, 12942, 13358]}, "edge": {"target": [], "time": []}}}, "displayed_time": "16.76", "trialTime": 19793, "trial_type": "mouselab-mdp", "trial_index": 44, "time_elapsed": 1032315, "internal_node_id": "0.0-4.0-3.0-4.0"}}, {"uniqueid": "w25267381:a32776331", "current_trial": 45, "dateTime": 1664556065273, "trialdata": {"revealed_states": [], "num_clicks_accrued": [0, 0, 0, 0, 0, 0, 0, 0, 0, 0, 0, 0, 0], "stateRewards": ["", 2, 8, 48, 24, 2, 8, 48, 48, -2, -4, -24, -48], "withholdReward": true, "trial_id": "mdp_717636349175", "block": "test2", "trialIndex": 37, "score": 60, "costs": -3, "simulationMode": [null, null, null], "rewards": [2, 8, 48], "path": ["0", "0", "5", "6", "8"], "rt": [7092, 115, 309], "actions": ["right", "right", "down"], "actionTimes": [8348, 8955, 9766], "queries": {"click": {"state": {"target": ["5", "6", "8", "9", "10", "12", "11", "2", "4", "3", "1", "7"], "time": [1796, 2313, 2812, 3479, 3962, 4329, 4829, 5362, 5845, 6379, 6963, 7579]}, "edge": {"target": [], "time": []}}, "mouseover": {"state": {"target": ["5", "6", "8", "9", "10", "12", "11", "2", "4", "3", "1", "7"], "time": [1539, 2140, 2521, 3257, 3722, 4122, 4673, 5140, 5607, 6122, 6639, 7323]}, "edge": {"target": [], "time": []}}, "mouseout": {"state": {"target": ["9", "0", "5", "6", "8", "9", "10", "12", "10", "11", "2", "4", "2", "3", "1", "7", "8"], "time": [639, 1090, 1939, 2473, 2956, 3656, 4089, 4456, 4590, 5007, 5456, 5923, 6006, 6489, 7122, 7739, 11607]}, "edge": {"target": [], "time": []}}}, "displayed_time": "10.26", "trialTime": 12782, "trial_type": "mouselab-mdp", "trial_index": 45, "time_elapsed": 1045139, "internal_node_id": "0.0-4.0-3.0-5.0"}}, {"uniqueid": "w25267381:a32776331", "current_trial": 46, "dateTime": 1664556077849, "trialdata": {"revealed_states": [], "num_clicks_accrued": [0, 0, 0, 0, 0, 0, 0, 0, 0, 0, 0, 0, 0], "stateRewards": ["", 2, 4, -48, -24, -4, 4, -24, 24, -2, -8, -24, 24], "withholdReward": true, "trial_id": "mdp_640720803523", "block": "test2", "trialIndex": 38, "score": 26, "costs": -3, "simulationMode": [null, null, null], "rewards": [-4, 4, 24], "path": ["0", "0", "5", "6", "8"], "rt": [7570, 222, 182], "actions": ["right", "right", "down"], "actionTimes": [8936, 9655, 10332], "queries": {"click": {"state": {"target": ["1", "2", "4", "3", "5", "6", "8", "7", "9", "10", "11", "12"], "time": [2223, 2638, 3106, 3572, 4256, 4639, 5172, 5656, 6356, 7123, 7489, 8040]}, "edge": {"target": [], "time": []}}, "mouseover": {"state": {"target": ["1", "2", "4", "3", "5", "6", "8", "7", "9", "10", "11", "12"], "time": [2018, 2467, 2901, 3401, 4084, 4401, 4817, 5418, 6085, 6934, 7266, 7666]}, "edge": {"target": [], "time": []}}, "mouseout": {"state": {"target": ["0", "1", "2", "4", "2", "3", "5", "6", "8", "6", "7", "9", "10", "11", "10"], "time": [1033, 2384, 2834, 3200, 3251, 3751, 4367, 4784, 5266, 5334, 5784, 6468, 7234, 7600, 7650]}, "edge": {"target": [], "time": []}}}, "displayed_time": "10.83", "trialTime": 12535, "trial_type": "mouselab-mdp", "trial_index": 46, "time_elapsed": 1057715, "internal_node_id": "0.0-4.0-3.0-6.0"}}, {"uniqueid": "w25267381:a32776331", "current_trial": 47, "dateTime": 1664556092162, "trialdata": {"revealed_states": [], "num_clicks_accrued": [0, 0, 0, 0, 0, 0, 0, 0, 0, 0, 0, 0, 0], "stateRewards": ["", -2, -8, 24, -48, 4, 4, -24, -48, -2, -8, -48, 24], "withholdReward": true, "trial_id": "mdp_556006673466", "block": "test2", "trialIndex": 39, "score": 16, "costs": -3, "simulationMode": [null, null, null], "rewards": [-2, -8, 24], "path": ["0", "0", "9", "10", "12"], "rt": [9456, 132, 220], "actions": ["left", "left", "down"], "actionTimes": [10377, 11006, 11726], "queries": {"click": {"state": {"target": ["1", "2", "3", "4", "9", "5", "6", "10", "12", "8", "7", "11"], "time": [1479, 1879, 2279, 2761, 3329, 4162, 4612, 5395, 5762, 6396, 7029, 7880]}, "edge": {"target": [], "time": []}}, "mouseover": {"state": {"target": ["1", "2", "3", "4", "9", "6", "5", "6", "0", "10", "10", "12", "8", "7", "11"], "time": [1257, 1673, 2038, 2473, 3107, 3690, 3974, 4456, 4754, 4955, 5156, 5539, 6206, 6707, 7757]}, "edge": {"target": [], "time": []}}, "mouseout": {"state": {"target": ["12", "1", "2", "3", "2", "4", "9", "6", "5", "6", "5", "0", "9", "10", "10", "12", "8", "6", "7", "11", "10", "9"], "time": [406, 1640, 2005, 2406, 2457, 2890, 3606, 3890, 4323, 4684, 4739, 4772, 4857, 4988, 5506, 5871, 6589, 6639, 7156, 8056, 13357, 13373]}, "edge": {"target": [], "time": []}}}, "displayed_time": "12.22", "trialTime": 14270, "trial_type": "mouselab-mdp", "trial_index": 47, "time_elapsed": 1072028, "internal_node_id": "0.0-4.0-3.0-7.0"}}, {"uniqueid": "w25267381:a32776331", "current_trial": 48, "dateTime": 1664556105144, "trialdata": {"revealed_states": [], "num_clicks_accrued": [0, 0, 0, 0, 0, 0, 0, 0, 0, 0, 0, 0, 0], "stateRewards": ["", 2, 4, 48, 48, -2, 4, 48, -24, -4, 8, -48, 48], "withholdReward": true, "trial_id": "mdp_407586865939", "block": "test2", "trialIndex": 40, "score": 56.25, "costs": -2.75, "simulationMode": [null, null, null], "rewards": [2, 4, 48], "path": ["0", "0", "1", "2", "3"], "rt": [7742, 274, 339], "actions": ["up", "up", "right"], "actionTimes": [8621, 9386, 10217], "queries": {"click": {"state": {"target": ["1", "5", "9", "12", "10", "6", "8", "7", "2", "3", "4"], "time": [1834, 2399, 2917, 3449, 3901, 4817, 5217, 5800, 6449, 6884, 7884]}, "edge": {"target": [], "time": []}}, "mouseover": {"state": {"target": ["1", "5", "0", "9", "12", "10", "6", "8", "7", "2", "3", "4", "4"], "time": [1577, 2077, 2543, 2627, 3194, 3661, 4394, 5044, 5561, 6178, 6659, 7344, 7611]}, "edge": {"target": [], "time": []}}, "mouseout": {"state": {"target": ["0", "1", "5", "0", "9", "12", "10", "9", "5", "6", "8", "6", "7", "1", "2", "3", "2", "4", "4"], "time": [1328, 2027, 2528, 2576, 3010, 3576, 3993, 4026, 4261, 4962, 5361, 5477, 5945, 6111, 6610, 7162, 7311, 7377, 11160]}, "edge": {"target": [], "time": []}}}, "displayed_time": "10.71", "trialTime": 12940, "trial_type": "mouselab-mdp", "trial_index": 48, "time_elapsed": 1085009, "internal_node_id": "0.0-4.0-3.0-8.0"}}, {"uniqueid": "w25267381:a32776331", "current_trial": 49, "dateTime": 1664556115852, "trialdata": {"revealed_states": [], "num_clicks_accrued": [0, 0, 0, 0, 0, 0, 0, 0, 0, 0, 0, 0, 0], "stateRewards": ["", 2, 4, 48, 24, -4, 8, 48, 48, 2, -4, -48, -24], "withholdReward": true, "trial_id": "mdp_822099887466", "block": "test2", "trialIndex": 41, "score": 58, "costs": -1, "simulationMode": [null, null, null], "rewards": [2, 4, 48], "path": ["0", "0", "1", "2", "3"], "rt": [2985, 93, 72], "actions": ["up", "up", "right"], "actionTimes": [4174, 4758, 5318], "queries": {"click": {"state": {"target": ["1", "2", "3", "4"], "time": [1803, 2237, 2720, 3253]}, "edge": {"target": [], "time": []}}, "mouseover": {"state": {"target": ["1", "2", "3", "4"], "time": [1597, 1980, 2497, 2913]}, "edge": {"target": [], "time": []}}, "mouseout": {"state": {"target": ["0", "1", "2", "3", "2"], "time": [880, 1947, 2398, 2813, 2880]}, "edge": {"target": [], "time": []}}}, "displayed_time": "10.19", "trialTime": 10651, "trial_type": "mouselab-mdp", "trial_index": 49, "time_elapsed": 1095718, "internal_node_id": "0.0-4.0-3.0-9.0"}}, {"uniqueid": "w25267381:a32776331", "current_trial": 50, "dateTime": 1664556128586, "trialdata": {"revealed_states": [], "num_clicks_accrued": [0, 0, 0, 0, 0, 0, 0, 0, 0, 0, 0, 0, 0], "stateRewards": ["", -4, -8, 48, 24, 4, -8, 24, -48, -2, -8, 24, -48], "withholdReward": true, "trial_id": "mdp_952038635544", "block": "test2", "trialIndex": 42, "score": 38, "costs": -3, "simulationMode": [null, null, null], "rewards": [-4, -8, 48], "path": ["0", "0", "1", "2", "3"], "rt": [8573, 69, 22], "actions": ["up", "up", "right"], "actionTimes": [9674, 10233, 10753], "queries": {"click": {"state": {"target": ["1", "2", "3", "4", "9", "10", "12", "5", "6", "8", "7", "11"], "time": [1871, 2304, 2770, 3354, 3988, 4437, 4904, 5537, 5921, 6288, 6821, 7420]}, "edge": {"target": [], "time": []}}, "mouseover": {"state": {"target": ["1", "2", "3", "4", "9", "10", "12", "5", "6", "8", "7", "11"], "time": [1597, 2081, 2497, 3081, 3848, 4199, 4598, 5332, 5682, 6098, 6515, 7233]}, "edge": {"target": [], "time": []}}, "mouseout": {"state": {"target": ["4", "1", "1", "2", "3", "2", "4", "9", "10", "12", "5", "6", "8", "6", "7", "11", "9"], "time": [492, 631, 2032, 2482, 2897, 3015, 3515, 4148, 4565, 5065, 5631, 6064, 6431, 6483, 6915, 7581, 7648]}, "edge": {"target": [], "time": []}}}, "displayed_time": "11.25", "trialTime": 12687, "trial_type": "mouselab-mdp", "trial_index": 50, "time_elapsed": 1108452, "internal_node_id": "0.0-4.0-3.0-10.0"}}, {"uniqueid": "w25267381:a32776331", "current_trial": 51, "dateTime": 1664556139547, "trialdata": {"revealed_states": [], "num_clicks_accrued": [0, 0, 0, 0, 0, 0, 0, 0, 0, 0, 0, 0, 0], "stateRewards": ["", 2, -4, 48, -48, -4, -8, -48, 24, -4, 4, 48, 48], "withholdReward": false, "trial_id": "mdp_544803968425", "block": "test2", "trialIndex": 43, "score": 51, "costs": -2, "simulationMode": [null, null, null], "rewards": [-4, 4, 48], "path": ["0", "0", "9", "10", "11"], "rt": [6168, 108, 294], "actions": ["left", "left", "up"], "actionTimes": [7056, 7662, 8450], "queries": {"click": {"state": {"target": ["1", "2", "3", "4", "9", "10", "12", "11"], "time": [1776, 2177, 2626, 3160, 3944, 4310, 4760, 5191]}, "edge": {"target": [], "time": []}}, "mouseover": {"state": {"target": ["1", "2", "3", "4", "9", "10", "12", "11", "5", "5", "6"], "time": [1488, 2005, 2405, 2837, 3655, 4105, 4504, 4920, 5421, 5755, 6171]}, "edge": {"target": [], "time": []}}, "mouseout": {"state": {"target": ["0", "1", "2", "3", "2", "4", "9", "10", "12", "10", "11", "5", "5", "6"], "time": [1421, 1921, 2355, 2721, 2804, 3555, 4039, 4455, 4863, 4904, 5337, 5470, 5921, 9588]}, "edge": {"target": [], "time": []}}}, "displayed_time": "9.89", "trialTime": 10903, "trial_type": "mouselab-mdp", "trial_index": 51, "time_elapsed": 1119412, "internal_node_id": "0.0-4.0-3.0-11.0"}}, {"uniqueid": "w25267381:a32776331", "current_trial": 52, "dateTime": 1664556151470, "trialdata": {"revealed_states": [], "num_clicks_accrued": [0, 0, 0, 0, 0, 0, 0, 0, 0, 0, 0, 0, 0], "stateRewards": ["", -4, 8, -48, -48, -4, 4, -24, -48, 2, -4, -24, 24], "withholdReward": true, "trial_id": "mdp_183773275291", "block": "test2", "trialIndex": 44, "score": -46, "costs": -3, "simulationMode": [null, null, null], "rewards": [-4, 4, -48], "path": ["0", "0", "5", "6", "8"], "rt": [7367, 299, 197], "actions": ["right", "right", "down"], "actionTimes": [8675, 9472, 10170], "queries": {"click": {"state": {"target": ["9", "10", "12", "11", "2", "1", "4", "3", "6", "7", "8", "5"], "time": [2045, 2546, 2995, 3463, 4195, 4562, 5029, 5496, 6145, 6462, 6946, 7429]}, "edge": {"target": [], "time": []}}, "mouseover": {"state": {"target": ["9", "10", "12", "11", "1", "2", "1", "4", "3", "7", "6", "7", "8", "5"], "time": [1824, 2189, 2790, 3207, 3758, 3891, 4355, 4789, 5239, 5689, 5889, 6271, 6705, 7291]}, "edge": {"target": [], "time": []}}, "mouseout": {"state": {"target": ["6", "6", "5", "9", "10", "12", "10", "11", "1", "2", "1", "4", "2", "3", "7", "6", "7", "6", "8"], "time": [523, 639, 672, 2143, 2706, 3124, 3156, 3691, 3773, 4322, 4738, 5122, 5172, 5656, 5806, 6232, 6639, 6672, 7090]}, "edge": {"target": [], "time": []}}}, "displayed_time": "10.67", "trialTime": 11879, "trial_type": "mouselab-mdp", "trial_index": 52, "time_elapsed": 1131336, "internal_node_id": "0.0-4.0-3.0-12.0"}}, {"uniqueid": "w25267381:a32776331", "current_trial": 53, "dateTime": 1664556162990, "trialdata": {"revealed_states": [], "num_clicks_accrued": [0, 0, 0, 0, 0, 0, 0, 0, 0, 0, 0, 0, 0], "stateRewards": ["", -2, 4, -24, -48, -4, 8, -24, 48, 4, 4, -48, 24], "withholdReward": false, "trial_id": "mdp_341117665701", "block": "test2", "trialIndex": 45, "score": 54, "costs": -3, "simulationMode": [null, null, null], "rewards": [-4, 8, 48], "path": ["0", "0", "5", "6", "8"], "rt": [7498, 73, 91], "actions": ["right", "right", "down"], "actionTimes": [8838, 9409, 9995], "queries": {"click": {"state": {"target": ["1", "5", "6", "8", "7", "9", "10", "12", "11", "4", "2", "3"], "time": [2060, 2490, 2876, 3225, 3759, 4392, 4843, 5193, 5726, 6276, 6793, 7356]}, "edge": {"target": [], "time": []}}, "mouseover": {"state": {"target": ["1", "5", "6", "8", "7", "0", "9", "10", "12", "11", "4", "2", "3"], "time": [1837, 2253, 2635, 3002, 3536, 3987, 4151, 4620, 4986, 5570, 6003, 6553, 7003]}, "edge": {"target": [], "time": []}}, "mouseout": {"state": {"target": ["5", "5", "0", "0", "1", "5", "6", "8", "6", "7", "0", "9", "10", "12", "10", "11", "4", "2", "3"], "time": [386, 487, 620, 1704, 2187, 2602, 2985, 3352, 3420, 3902, 4118, 4520, 4952, 5319, 5421, 5920, 6386, 6970, 11402]}, "edge": {"target": [], "time": []}}}, "displayed_time": "10.49", "trialTime": 11479, "trial_type": "mouselab-mdp", "trial_index": 53, "time_elapsed": 1142856, "internal_node_id": "0.0-4.0-3.0-13.0"}}, {"uniqueid": "w25267381:a32776331", "current_trial": 54, "dateTime": 1664556174376, "trialdata": {"revealed_states": [], "num_clicks_accrued": [0, 0, 0, 0, 0, 0, 0, 0, 0, 0, 0, 0, 0], "stateRewards": ["", -4, -4, 48, 24, -4, -4, -24, -48, -4, 4, 48, -24], "withholdReward": true, "trial_id": "mdp_896503755738", "block": "test2", "trialIndex": 46, "score": 50, "costs": -3, "simulationMode": [null, null, null], "rewards": [-4, 4, 48], "path": ["0", "0", "9", "10", "11"], "rt": [7020, 45, 126], "actions": ["left", "left", "up"], "actionTimes": [7797, 8335, 8966], "queries": {"click": {"state": {"target": ["1", "2", "3", "4", "9", "10", "12", "11", "5", "6", "8", "7"], "time": [1329, 1763, 2145, 2762, 3495, 3895, 4345, 4845, 5445, 5795, 6128, 6562]}, "edge": {"target": [], "time": []}}, "mouseover": {"state": {"target": ["1", "2", "3", "4", "9", "10", "12", "11", "5", "6", "8", "7"], "time": [1105, 1554, 1990, 2454, 3206, 3723, 4089, 4622, 5055, 5572, 5922, 6338]}, "edge": {"target": [], "time": []}}, "mouseout": {"state": {"target": ["6", "5", "0", "0", "1", "2", "3", "2", "4", "9", "10", "12", "10", "11", "5", "6", "8", "6", "7"], "time": [308, 337, 388, 605, 1488, 1855, 2292, 2440, 3005, 3622, 4038, 4455, 4541, 4979, 5538, 5890, 6271, 6305, 6667]}, "edge": {"target": [], "time": []}}}, "displayed_time": "9.46", "trialTime": 11350, "trial_type": "mouselab-mdp", "trial_index": 54, "time_elapsed": 1154242, "internal_node_id": "0.0-4.0-3.0-14.0"}}, {"uniqueid": "w25267381:a32776331", "current_trial": 55, "dateTime": 1664556189923, "trialdata": {"revealed_states": [], "num_clicks_accrued": [0, 0, 0, 0, 0, 0, 0, 0, 0, 0, 0, 0, 0], "stateRewards": ["", 4, -4, 48, -48, -2, -8, -24, 48, -2, 4, 24, -24], "withholdReward": false, "trial_id": "mdp_507290896735", "block": "test2", "trialIndex": 47, "score": -46, "costs": -3, "simulationMode": [null, null, null], "rewards": [4, -4, -48], "path": ["0", "0", "1", "2", "4"], "rt": [7914, 189, 167], "actions": ["up", "up", "left"], "actionTimes": [8709, 9387, 10049], "queries": {"click": {"state": {"target": ["5", "6", "8", "7", "10", "9", "12", "11", "4", "2", "1", "3"], "time": [1337, 1720, 2170, 2653, 3969, 4337, 4770, 5353, 5870, 6303, 6671, 7054]}, "edge": {"target": [], "time": []}}, "mouseover": {"state": {"target": ["5", "6", "8", "7", "9", "10", "9", "12", "11", "11", "4", "2", "1", "3"], "time": [1098, 1581, 1863, 2432, 3524, 3679, 4113, 4514, 4913, 5148, 5614, 6063, 6429, 6831]}, "edge": {"target": [], "time": []}}, "mouseout": {"state": {"target": ["8", "0", "5", "6", "8", "7", "5", "9", "10", "9", "12", "10", "11", "11", "4", "2", "1", "3"], "time": [363, 1038, 1446, 1830, 2245, 2814, 2880, 3647, 4079, 4446, 4863, 4913, 4930, 5447, 6031, 6413, 6757, 12147]}, "edge": {"target": [], "time": []}}}, "displayed_time": "10.56", "trialTime": 15506, "trial_type": "mouselab-mdp", "trial_index": 55, "time_elapsed": 1169789, "internal_node_id": "0.0-4.0-3.0-15.0"}}, {"uniqueid": "w25267381:a32776331", "current_trial": 56, "dateTime": 1664556200410, "trialdata": {"revealed_states": [], "num_clicks_accrued": [0, 0, 0, 0, 0, 0, 0, 0, 0, 0, 0, 0, 0], "stateRewards": ["", 4, 8, -48, 24, -2, 8, -48, -48, -4, 4, 48, -48], "withholdReward": true, "trial_id": "mdp_693807815190", "block": "test2", "trialIndex": 48, "score": 50, "costs": -3, "simulationMode": [null, null, null], "rewards": [-4, 4, 48], "path": ["0", "0", "9", "10", "11"], "rt": [6839, 90, 69], "actions": ["left", "left", "up"], "actionTimes": [7722, 8308, 8871], "queries": {"click": {"state": {"target": ["1", "2", "3", "4", "9", "10", "12", "11", "5", "6", "7", "8"], "time": [1608, 2007, 2424, 2941, 3424, 3939, 4357, 4874, 5524, 5890, 6292, 6739]}, "edge": {"target": [], "time": []}}, "mouseover": {"state": {"target": ["0", "1", "2", "3", "4", "9", "10", "12", "11", "6", "5", "6", "7", "8"], "time": [1118, 1419, 1784, 2186, 2701, 3168, 3584, 4218, 4667, 5101, 5318, 5650, 6101, 6517]}, "edge": {"target": [], "time": []}}, "mouseout": {"state": {"target": ["0", "0", "1", "2", "3", "2", "4", "9", "10", "12", "10", "11", "6", "5", "6", "7", "6", "8"], "time": [685, 1318, 1750, 2152, 2534, 2567, 3067, 3550, 4102, 4484, 4617, 5000, 5284, 5620, 6017, 6417, 6485, 6854]}, "edge": {"target": [], "time": []}}}, "displayed_time": "9.88", "trialTime": 10447, "trial_type": "mouselab-mdp", "trial_index": 56, "time_elapsed": 1180276, "internal_node_id": "0.0-4.0-3.0-16.0"}}, {"uniqueid": "w25267381:a32776331", "current_trial": 57, "dateTime": 1664556215033, "trialdata": {"revealed_states": [], "num_clicks_accrued": [0, 0, 0, 0, 0, 0, 0, 0, 0, 0, 0, 0, 0], "stateRewards": ["", 4, -8, 24, 48, -2, -4, -48, 24, 2, 4, -48, -24], "withholdReward": true, "trial_id": "mdp_749974461966", "block": "test2", "trialIndex": 49, "score": 46, "costs": -3, "simulationMode": [null, null, null], "rewards": [4, -8, 48], "path": ["0", "0", "1", "2", "4"], "rt": [8170, 425, 163], "actions": ["up", "up", "left"], "actionTimes": [9316, 10237, 10891], "queries": {"click": {"state": {"target": ["5", "6", "9", "12", "10", "11", "4", "2", "1", "3", "7", "8"], "time": [2353, 2884, 3517, 4400, 4851, 5266, 5751, 6117, 6467, 6834, 7400, 7817]}, "edge": {"target": [], "time": []}}, "mouseover": {"state": {"target": ["5", "5", "6", "0", "9", "10", "12", "10", "11", "4", "4", "2", "1", "1", "3", "7", "7", "8"], "time": [1762, 2162, 2729, 3094, 3262, 3993, 4095, 4560, 4926, 5394, 5478, 5844, 6210, 6261, 6611, 6977, 7211, 7627]}, "edge": {"target": [], "time": []}}, "mouseout": {"state": {"target": ["5", "5", "5", "6", "5", "0", "9", "10", "12", "10", "11", "4", "4", "2", "1", "1", "3", "7", "7", "6", "8"], "time": [811, 1811, 2529, 2977, 3079, 3128, 3611, 4046, 4527, 4912, 5342, 5427, 5827, 6177, 6227, 6538, 6960, 6993, 7527, 7578, 7943]}, "edge": {"target": [], "time": []}}}, "displayed_time": "11.38", "trialTime": 14580, "trial_type": "mouselab-mdp", "trial_index": 57, "time_elapsed": 1194899, "internal_node_id": "0.0-4.0-3.0-17.0"}}, {"uniqueid": "w25267381:a32776331", "current_trial": 58, "dateTime": 1664556227769, "trialdata": {"revealed_states": [], "num_clicks_accrued": [0, 0, 0, 0, 0, 0, 0, 0, 0, 0, 0, 0, 0], "stateRewards": ["", 4, -8, -24, 48, -4, 8, -24, -48, -4, -4, 24, 48], "withholdReward": true, "trial_id": "mdp_282352776624", "block": "test2", "trialIndex": 50, "score": 42, "costs": -3, "simulationMode": [null, null, null], "rewards": [-4, -4, 48], "path": ["0", "0", "9", "10", "12"], "rt": [6929, 288, 383], "actions": ["left", "left", "down"], "actionTimes": [8760, 9545, 10423], "queries": {"click": {"state": {"target": ["5", "6", "8", "7", "9", "12", "10", "11", "4", "2", "1", "3"], "time": [2476, 2828, 3163, 3613, 4130, 4530, 4896, 5263, 5729, 6129, 6447, 6797]}, "edge": {"target": [], "time": []}}, "mouseover": {"state": {"target": ["5", "6", "8", "7", "9", "12", "10", "11", "4", "2", "1", "3"], "time": [2240, 2589, 2956, 3424, 3906, 4307, 4707, 5057, 5558, 5890, 6273, 6641]}, "edge": {"target": [], "time": []}}, "mouseout": {"state": {"target": ["8", "5", "0", "5", "6", "8", "6", "7", "9", "12", "10", "11", "4", "2", "1", "3", "7"], "time": [1288, 1422, 1655, 2572, 2917, 3272, 3322, 3720, 4224, 4657, 5006, 5392, 5874, 6240, 6539, 6956, 6990]}, "edge": {"target": [], "time": []}}}, "displayed_time": "11.83", "trialTime": 12695, "trial_type": "mouselab-mdp", "trial_index": 58, "time_elapsed": 1207635, "internal_node_id": "0.0-4.0-3.0-18.0"}}, {"uniqueid": "w25267381:a32776331", "current_trial": 59, "dateTime": 1664556238682, "trialdata": {"revealed_states": [], "num_clicks_accrued": [0, 0, 0, 0, 0, 0, 0, 0, 0, 0, 0, 0, 0], "stateRewards": ["", -2, -4, -24, 48, -2, -8, -48, -24, 4, 8, 48, 24], "withholdReward": true, "trial_id": "mdp_625355871626", "block": "test2", "trialIndex": 51, "score": 62, "costs": -3, "simulationMode": [null, null, null], "rewards": [4, 8, 48], "path": ["0", "0", "9", "10", "11"], "rt": [6140, 30, 602], "actions": ["left", "left", "up"], "actionTimes": [7423, 7962, 9065], "queries": {"click": {"state": {"target": ["1", "2", "3", "4", "11", "10", "12", "9", "6", "8", "5", "7"], "time": [2020, 2437, 2804, 3537, 4070, 4437, 4803, 5152, 5787, 6104, 6504, 6853]}, "edge": {"target": [], "time": []}}, "mouseover": {"state": {"target": ["1", "2", "3", "4", "4", "11", "10", "12", "9", "0", "5", "6", "8", "5", "7"], "time": [1782, 2198, 2564, 2948, 3265, 3765, 4315, 4632, 4981, 5348, 5383, 5463, 5915, 6299, 6682]}, "edge": {"target": [], "time": []}}, "mouseout": {"state": {"target": ["6", "5", "0", "1", "2", "3", "2", "4", "4", "11", "10", "12", "9", "0", "5", "6", "8", "5", "7", "6"], "time": [732, 931, 1064, 2166, 2530, 2914, 2931, 2964, 3699, 4182, 4565, 4914, 5315, 5382, 5415, 5865, 6249, 6591, 9939, 9980]}, "edge": {"target": [], "time": []}}}, "displayed_time": "10.28", "trialTime": 10865, "trial_type": "mouselab-mdp", "trial_index": 59, "time_elapsed": 1218548, "internal_node_id": "0.0-4.0-3.0-19.0"}}, {"uniqueid": "w25267381:a32776331", "current_trial": 60, "dateTime": 1664556249571, "trialdata": {"revealed_states": [], "num_clicks_accrued": [0, 0, 0, 0, 0, 0, 0, 0, 0, 0, 0, 0, 0], "stateRewards": ["", 2, -4, -48, 24, -4, 4, 24, 24, 2, -8, -24, -48], "withholdReward": true, "trial_id": "mdp_807654778305", "block": "test2", "trialIndex": 52, "score": 26.25, "costs": -2.75, "simulationMode": [null, null, null], "rewards": [-4, 4, 24], "path": ["0", "0", "5", "6", "8"], "rt": [6910, 142, 228], "actions": ["right", "right", "down"], "actionTimes": [7694, 8347, 9065], "queries": {"click": {"state": {"target": ["1", "2", "9", "4", "11", "10", "12", "5", "7", "6", "8"], "time": [1409, 1826, 2342, 2725, 3243, 3676, 4042, 4490, 4892, 5243, 5560]}, "edge": {"target": [], "time": []}}, "mouseover": {"state": {"target": ["1", "2", "9", "4", "11", "10", "12", "5", "7", "6", "8"], "time": [1187, 1637, 2086, 2504, 3003, 3403, 3852, 4236, 4652, 5035, 5369]}, "edge": {"target": [], "time": []}}, "mouseout": {"state": {"target": ["0", "1", "2", "9", "4", "11", "10", "12", "5", "7", "6", "8"], "time": [469, 1570, 1953, 2435, 2835, 3352, 3837, 4134, 4602, 5003, 5339, 5669]}, "edge": {"target": [], "time": []}}}, "displayed_time": "9.79", "trialTime": 10843, "trial_type": "mouselab-mdp", "trial_index": 60, "time_elapsed": 1229437, "internal_node_id": "0.0-4.0-3.0-20.0"}}, {"uniqueid": "w25267381:a32776331", "current_trial": 61, "dateTime": 1664556261632, "trialdata": {"revealed_states": [], "num_clicks_accrued": [0, 0, 0, 0, 0, 0, 0, 0, 0, 0, 0, 0, 0], "stateRewards": ["", 2, -4, 24, 24, 4, -4, -24, 24, -4, -4, 48, 48], "withholdReward": false, "trial_id": "mdp_566306223773", "block": "test2", "trialIndex": 53, "score": 42, "costs": -3, "simulationMode": [null, null, null], "rewards": [-4, -4, 48], "path": ["0", "0", "9", "10", "11"], "rt": [6572, 518, 490], "actions": ["left", "left", "up"], "actionTimes": [7855, 8868, 9856], "queries": {"click": {"state": {"target": ["1", "9", "5", "6", "10", "12", "11", "4", "2", "3", "7", "8"], "time": [1956, 2322, 2822, 3171, 3722, 4006, 4455, 5039, 5405, 5822, 6305, 6706]}, "edge": {"target": [], "time": []}}, "mouseover": {"state": {"target": ["1", "9", "0", "5", "6", "0", "10", "12", "11", "4", "2", "3", "7", "8"], "time": [1749, 2116, 2432, 2632, 2949, 3299, 3465, 3815, 4333, 4899, 5182, 5583, 6099, 6499]}, "edge": {"target": [], "time": []}}, "mouseout": {"state": {"target": ["8", "5", "1", "9", "0", "5", "6", "5", "0", "9", "10", "12", "10", "11", "4", "2", "3", "7", "6", "8"], "time": [466, 632, 2033, 2415, 2600, 2932, 3258, 3299, 3332, 3365, 3789, 4116, 4200, 4617, 5167, 5550, 5932, 6415, 6482, 6819]}, "edge": {"target": [], "time": []}}}, "displayed_time": "11.29", "trialTime": 12017, "trial_type": "mouselab-mdp", "trial_index": 61, "time_elapsed": 1241498, "internal_node_id": "0.0-4.0-3.0-21.0"}}, {"uniqueid": "w25267381:a32776331", "current_trial": 62, "dateTime": 1664556274502, "trialdata": {"revealed_states": [], "num_clicks_accrued": [0, 0, 0, 0, 0, 0, 0, 0, 0, 0, 0, 0, 0], "stateRewards": ["", -2, -4, -24, -48, -4, -8, -48, 24, -4, -8, -24, -48], "withholdReward": false, "trial_id": "mdp_475782454549", "block": "test2", "trialIndex": 54, "score": 14, "costs": -3, "simulationMode": [null, null, null], "rewards": [-4, -8, 24], "path": ["0", "0", "5", "6", "8"], "rt": [6617, 107, 182], "actions": ["right", "right", "down"], "actionTimes": [9339, 9944, 10620], "queries": {"click": {"state": {"target": ["1", "2", "3", "4", "9", "5", "7", "6", "8", "12", "10", "11"], "time": [3327, 3658, 4094, 4560, 4977, 5360, 5777, 6144, 6643, 7394, 7744, 8094]}, "edge": {"target": [], "time": []}}, "mouseover": {"state": {"target": ["1", "2", "3", "4", "9", "0", "5", "7", "6", "8", "12", "10", "11"], "time": [3138, 3508, 3855, 4423, 4789, 5085, 5120, 5537, 5919, 6269, 7221, 7571, 7886]}, "edge": {"target": [], "time": []}}, "mouseout": {"state": {"target": ["0", "0", "1", "2", "3", "2", "4", "9", "0", "5", "7", "6", "8", "12", "10", "11", "9"], "time": [1937, 2472, 3421, 3805, 4145, 4272, 4705, 5070, 5120, 5470, 5903, 6253, 6804, 7503, 7838, 8220, 12194]}, "edge": {"target": [], "time": []}}}, "displayed_time": "11.73", "trialTime": 12824, "trial_type": "mouselab-mdp", "trial_index": 62, "time_elapsed": 1254368, "internal_node_id": "0.0-4.0-3.0-22.0"}}, {"uniqueid": "w25267381:a32776331", "current_trial": 63, "dateTime": 1664556286628, "trialdata": {"revealed_states": [], "num_clicks_accrued": [0, 0, 0, 0, 0, 0, 0, 0, 0, 0, 0, 0, 0], "stateRewards": ["", -2, -4, -24, -48, -2, 8, -48, 24, 4, -4, -24, -24], "withholdReward": true, "trial_id": "mdp_915304165774", "block": "test2", "trialIndex": 55, "score": 32, "costs": -3, "simulationMode": [null, null, null], "rewards": [-2, 8, 24], "path": ["0", "0", "5", "6", "8"], "rt": [7689, 651, 38], "actions": ["right", "right", "down"], "actionTimes": [8759, 9908, 10445], "queries": {"click": {"state": {"target": ["6", "5", "8", "7", "9", "12", "10", "11", "4", "2", "3", "1"], "time": [2596, 3030, 3747, 4262, 5146, 5663, 6030, 6328, 6946, 7296, 7646, 8126]}, "edge": {"target": [], "time": []}}, "mouseover": {"state": {"target": ["0", "5", "6", "6", "6", "5", "8", "7", "0", "9", "9", "12", "10", "11", "4", "4", "2", "3", "1"], "time": [1123, 1718, 1773, 2235, 2405, 2739, 3423, 4024, 4507, 4740, 4924, 5474, 5839, 6156, 6557, 6723, 7073, 7406, 7924]}, "edge": {"target": [], "time": []}}, "mouseout": {"state": {"target": ["0", "0", "5", "6", "6", "6", "5", "8", "6", "7", "0", "9", "9", "12", "10", "11", "4", "4", "2", "3", "1"], "time": [906, 1356, 1757, 1840, 2288, 2690, 3141, 3855, 3940, 4407, 4573, 4773, 5307, 5780, 6110, 6507, 6573, 7021, 7382, 7840, 11323]}, "edge": {"target": [], "time": []}}}, "displayed_time": "10.94", "trialTime": 12086, "trial_type": "mouselab-mdp", "trial_index": 63, "time_elapsed": 1266493, "internal_node_id": "0.0-4.0-3.0-23.0"}}, {"uniqueid": "w25267381:a32776331", "current_trial": 64, "dateTime": 1664556298308, "trialdata": {"revealed_states": [], "num_clicks_accrued": [0, 0, 0, 0, 0, 0, 0, 0, 0, 0, 0, 0, 0], "stateRewards": ["", 4, 4, 48, -48, 4, 4, -48, 24, 2, 8, 24, -48], "withholdReward": true, "trial_id": "mdp_291674656283", "block": "test2", "trialIndex": 56, "score": 58, "costs": -3, "simulationMode": [null, null, null], "rewards": [4, 4, 48], "path": ["0", "0", "1", "2", "3"], "rt": [7249, 996, 150], "actions": ["up", "up", "right"], "actionTimes": [8164, 9649, 10302], "queries": {"click": {"state": {"target": ["1", "9", "5", "6", "10", "12", "11", "4", "2", "3", "7", "8"], "time": [1539, 1956, 2424, 2824, 3524, 3857, 4290, 4841, 5324, 5658, 6188, 7157]}, "edge": {"target": [], "time": []}}, "mouseover": {"state": {"target": ["1", "9", "0", "5", "6", "0", "10", "10", "12", "11", "4", "2", "3", "7", "8"], "time": [1317, 1718, 2101, 2201, 2585, 2920, 3001, 3285, 3719, 4101, 4552, 5168, 5484, 5868, 6768]}, "edge": {"target": [], "time": []}}, "mouseout": {"state": {"target": ["1", "9", "0", "5", "6", "5", "0", "9", "10", "10", "12", "10", "11", "4", "2", "3", "7", "6"], "time": [1634, 2068, 2134, 2535, 2909, 2919, 2951, 2985, 3034, 3618, 3946, 4035, 4485, 5036, 5451, 5785, 6385, 6751]}, "edge": {"target": [], "time": []}}}, "displayed_time": "10.80", "trialTime": 11627, "trial_type": "mouselab-mdp", "trial_index": 64, "time_elapsed": 1278173, "internal_node_id": "0.0-4.0-3.0-24.0"}}, {"uniqueid": "w25267381:a32776331", "current_trial": 65, "dateTime": 1664556308342, "trialdata": {"revealed_states": [], "num_clicks_accrued": [0, 0, 0, 0, 0, 0, 0, 0, 0, 0, 0, 0, 0], "stateRewards": ["", 2, -8, -24, -48, -2, -4, 48, 48, 4, 8, 48, 48], "withholdReward": true, "trial_id": "mdp_347285045422", "block": "test2", "trialIndex": 57, "score": 63, "costs": -2, "simulationMode": [null, null, null], "rewards": [4, 8, 48], "path": ["0", "0", "9", "10", "12"], "rt": [5568, 219, 379], "actions": ["left", "left", "down"], "actionTimes": [6698, 7418, 8296], "queries": {"click": {"state": {"target": ["1", "2", "3", "4", "9", "10", "11", "12"], "time": [1906, 2339, 2756, 3289, 4223, 4656, 5006, 5554]}, "edge": {"target": [], "time": []}}, "mouseover": {"state": {"target": ["1", "2", "3", "4", "9", "9", "10", "11", "12"], "time": [1633, 2116, 2500, 2950, 3566, 4067, 4382, 4800, 5334]}, "edge": {"target": [], "time": []}}, "mouseout": {"state": {"target": ["8", "9", "0", "1", "2", "3", "2", "4", "9", "9", "10", "11", "10"], "time": [498, 816, 1566, 2083, 2449, 2849, 2917, 3450, 3616, 4325, 4767, 5132, 5234]}, "edge": {"target": [], "time": []}}}, "displayed_time": "9.13", "trialTime": 9994, "trial_type": "mouselab-mdp", "trial_index": 65, "time_elapsed": 1288208, "internal_node_id": "0.0-4.0-3.0-25.0"}}, {"uniqueid": "w25267381:a32776331", "current_trial": 66, "dateTime": 1664556319099, "trialdata": {"revealed_states": [], "num_clicks_accrued": [0, 0, 0, 0, 0, 0, 0, 0, 0, 0, 0, 0, 0], "stateRewards": ["", 4, -8, -48, 48, -2, 8, -48, 48, -2, -4, 24, -48], "withholdReward": true, "trial_id": "mdp_400558136089", "block": "test2", "trialIndex": 58, "score": 56, "costs": -3, "simulationMode": [null, null, null], "rewards": [-2, 8, 48], "path": ["0", "0", "5", "6", "8"], "rt": [7195, 165, 509], "actions": ["right", "right", "down"], "actionTimes": [8040, 8714, 9726], "queries": {"click": {"state": {"target": ["9", "10", "12", "11", "4", "2", "1", "3", "5", "6", "7", "8"], "time": [1374, 1789, 2156, 2622, 3189, 3590, 3939, 4756, 5273, 5606, 5939, 6355]}, "edge": {"target": [], "time": []}}, "mouseover": {"state": {"target": ["9", "10", "12", "11", "4", "2", "1", "3", "3", "5", "6", "7", "8"], "time": [1118, 1517, 1933, 2517, 2901, 3435, 3767, 4118, 4496, 4984, 5400, 5733, 6167]}, "edge": {"target": [], "time": []}}, "mouseout": {"state": {"target": ["12", "0", "9", "10", "12", "10", "11", "4", "2", "1", "3", "3", "5", "6", "7", "6", "8"], "time": [455, 550, 1466, 1883, 2267, 2401, 2818, 3383, 3718, 4051, 4234, 4901, 5367, 5717, 6067, 6135, 6487]}, "edge": {"target": [], "time": []}}}, "displayed_time": "10.22", "trialTime": 10718, "trial_type": "mouselab-mdp", "trial_index": 66, "time_elapsed": 1298965, "internal_node_id": "0.0-4.0-3.0-26.0"}}, {"uniqueid": "w25267381:a32776331", "current_trial": 67, "dateTime": 1664556331205, "trialdata": {"revealed_states": [], "num_clicks_accrued": [0, 0, 0, 0, 0, 0, 0, 0, 0, 0, 0, 0, 0], "stateRewards": ["", -4, 8, 24, 24, 2, 4, -48, 24, -2, -4, -24, -24], "withholdReward": false, "trial_id": "mdp_752328329546", "block": "test2", "trialIndex": 59, "score": 32, "costs": -3, "simulationMode": [null, null, null], "rewards": [2, 4, 24], "path": ["0", "0", "5", "6", "8"], "rt": [8128, 28, 592], "actions": ["right", "right", "down"], "actionTimes": [9362, 9901, 10984], "queries": {"click": {"state": {"target": ["2", "1", "4", "3", "5", "6", "8", "7", "9", "10", "12", "11"], "time": [1846, 2163, 2662, 3262, 3813, 4429, 4879, 5429, 6046, 6430, 6846, 7346]}, "edge": {"target": [], "time": []}}, "mouseover": {"state": {"target": ["1", "2", "1", "4", "3", "5", "6", "6", "8", "7", "0", "9", "10", "12", "11"], "time": [1523, 1606, 1973, 2357, 3140, 3573, 3906, 4161, 4690, 5072, 5673, 5740, 6224, 6607, 7156]}, "edge": {"target": [], "time": []}}, "mouseout": {"state": {"target": ["5", "1", "2", "1", "4", "2", "3", "5", "6", "6", "8", "6", "7", "5", "0", "9", "10", "12", "10"], "time": [539, 1572, 1957, 2307, 2773, 2822, 3456, 3891, 3956, 4523, 5007, 5040, 5540, 5641, 5706, 6174, 6573, 6957, 7023]}, "edge": {"target": [], "time": []}}}, "displayed_time": "11.47", "trialTime": 12063, "trial_type": "mouselab-mdp", "trial_index": 67, "time_elapsed": 1311071, "internal_node_id": "0.0-4.0-3.0-27.0"}}, {"uniqueid": "w25267381:a32776331", "current_trial": 68, "dateTime": 1664556341533, "trialdata": {"revealed_states": [], "num_clicks_accrued": [0, 0, 0, 0, 0, 0, 0, 0, 0, 0, 0, 0, 0], "stateRewards": ["", 2, 8, 48, -48, -2, -4, -24, 24, 4, -4, 48, -48], "withholdReward": true, "trial_id": "mdp_105734044587", "block": "test2", "trialIndex": 60, "score": 62, "costs": -1, "simulationMode": [null, null, null], "rewards": [2, 8, 48], "path": ["0", "0", "1", "2", "3"], "rt": [3555, 148, 86], "actions": ["up", "up", "right"], "actionTimes": [4433, 5081, 5669], "queries": {"click": {"state": {"target": ["4", "2", "3", "1"], "time": [2139, 2455, 2887, 3305]}, "edge": {"target": [], "time": []}}, "mouseover": {"state": {"target": ["1", "2", "4", "2", "3", "1"], "time": [1332, 1833, 1932, 2298, 2700, 3082]}, "edge": {"target": [], "time": []}}, "mouseout": {"state": {"target": ["11", "1", "2", "4", "2", "3", "1", "0"], "time": [516, 1766, 1865, 2248, 2581, 2982, 3566, 6849]}, "edge": {"target": [], "time": []}}}, "displayed_time": "9.88", "trialTime": 10283, "trial_type": "mouselab-mdp", "trial_index": 68, "time_elapsed": 1321398, "internal_node_id": "0.0-4.0-3.0-28.0"}}, {"uniqueid": "w25267381:a32776331", "current_trial": 69, "dateTime": 1664556353883, "trialdata": {"revealed_states": [], "num_clicks_accrued": [0, 0, 0, 0, 0, 0, 0, 0, 0, 0, 0, 0, 0], "stateRewards": ["", -2, -8, 48, 24, 4, -8, 24, 48, 4, -4, 24, -48], "withholdReward": true, "trial_id": "mdp_871576155740", "block": "test2", "trialIndex": 61, "score": 46, "costs": -3, "simulationMode": [null, null, null], "rewards": [4, -8, 48], "path": ["0", "0", "5", "6", "8"], "rt": [8277, 194, 273], "actions": ["right", "right", "down"], "actionTimes": [9450, 10149, 10912], "queries": {"click": {"state": {"target": ["2", "1", "4", "3", "9", "5", "6", "7", "8", "12", "10", "11"], "time": [1861, 2228, 2711, 3211, 3777, 4312, 4694, 5060, 5545, 6163, 6478, 6811]}, "edge": {"target": [], "time": []}}, "mouseover": {"state": {"target": ["1", "2", "1", "4", "3", "9", "5", "6", "7", "8", "12", "10", "11"], "time": [1520, 1687, 2021, 2488, 2971, 3488, 4122, 4455, 4872, 5288, 5906, 6305, 6638]}, "edge": {"target": [], "time": []}}, "mouseout": {"state": {"target": ["0", "1", "2", "1", "4", "2", "3", "1", "9", "5", "6", "7", "6", "8", "12", "10", "11", "9"], "time": [689, 1637, 1988, 2321, 2854, 2922, 3337, 3439, 3888, 4404, 4804, 5171, 5255, 5656, 6271, 6590, 6988, 7289]}, "edge": {"target": [], "time": []}}}, "displayed_time": "11.41", "trialTime": 12306, "trial_type": "mouselab-mdp", "trial_index": 69, "time_elapsed": 1333749, "internal_node_id": "0.0-4.0-3.0-29.0"}}, {"uniqueid": "w25267381:a32776331", "current_trial": 70, "dateTime": 1664556356788, "trialdata": {"rt": 2896, "stimulus": "<h1> End of block! </h1>\n\nYou have reached the end of the block 2/4. If you need a short break, feel free to take one now before moving on.\n\n<br><br>\nIn the next block, you will complete another 30 rounds of this game.\n\n<br><br>\n<div style='text-align: center;'>Press <code>space</code> to begin.</div>\n<br><br>\n<div style='text-align: center;'>(If the experiment doesn't continue, try clicking on the text and then pressing <code>space</code>.)</div>", "response": " ", "trial_id": "mdp_ready_3", "trial_type": "html-keyboard-response", "trial_index": 70, "time_elapsed": 1336654, "internal_node_id": "0.0-4.0-4.0"}}, {"uniqueid": "w25267381:a32776331", "current_trial": 71, "dateTime": 1664556369049, "trialdata": {"revealed_states": [], "num_clicks_accrued": [0, 0, 0, 0, 0, 0, 0, 0, 0, 0, 0, 0, 0], "stateRewards": ["", -2, 4, -24, 48, 4, -8, 48, -48, 2, -8, 48, 24], "withholdReward": false, "trial_id": "mdp_501111216502", "block": "test3", "trialIndex": 62, "score": 52, "costs": -3, "simulationMode": [null, null, null], "rewards": [-2, 4, 48], "path": ["0", "0", "1", "2", "4"], "rt": [8180, 132, 153], "actions": ["up", "up", "left"], "actionTimes": [9277, 9899, 10553], "queries": {"click": {"state": {"target": ["2", "1", "3", "4", "9", "10", "12", "11", "5", "6", "8", "7"], "time": [2023, 2338, 2822, 3456, 4790, 5273, 5956, 6439, 7056, 7373, 7756, 8139]}, "edge": {"target": [], "time": []}}, "mouseover": {"state": {"target": ["1", "2", "1", "3", "4", "9", "10", "12", "11", "5", "6", "8", "7"], "time": [1534, 1867, 2149, 2600, 3284, 3667, 4949, 5582, 6116, 6717, 7166, 7532, 7933]}, "edge": {"target": [], "time": []}}, "mouseout": {"state": {"target": ["9", "0", "1", "2", "1", "3", "2", "4", "9", "10", "12", "11", "5", "6", "8", "6", "7", "7"], "time": [699, 1467, 1799, 2117, 2449, 2933, 3033, 3584, 4899, 5550, 6066, 6582, 7124, 7516, 7865, 7916, 11634, 11649]}, "edge": {"target": [], "time": []}}}, "displayed_time": "11.05", "trialTime": 12218, "trial_type": "mouselab-mdp", "trial_index": 71, "time_elapsed": 1348915, "internal_node_id": "0.0-4.0-5.0-0.0"}}, {"uniqueid": "w25267381:a32776331", "current_trial": 72, "dateTime": 1664556381940, "trialdata": {"revealed_states": [], "num_clicks_accrued": [0, 0, 0, 0, 0, 0, 0, 0, 0, 0, 0, 0, 0], "stateRewards": ["", -4, 4, -24, 48, 2, 4, -48, 24, 4, -8, -24, 24], "withholdReward": true, "trial_id": "mdp_740130150937", "block": "test3", "trialIndex": 63, "score": 50, "costs": -3, "simulationMode": [null, null, null], "rewards": [-4, 4, 48], "path": ["0", "0", "1", "2", "4"], "rt": [7753, 452, 403], "actions": ["up", "up", "left"], "actionTimes": [9567, 10506, 11407], "queries": {"click": {"state": {"target": ["1", "2", "4", "3", "5", "6", "7", "8", "9", "10", "11", "12"], "time": [2460, 2823, 3209, 3757, 4359, 4692, 5126, 5876, 6842, 7193, 7593, 8009]}, "edge": {"target": [], "time": []}}, "mouseover": {"state": {"target": ["1", "2", "4", "3", "5", "6", "7", "8", "9", "9", "10", "11", "12"], "time": [2236, 2586, 2936, 3470, 4137, 4520, 4919, 5703, 6354, 6657, 6986, 7437, 7836]}, "edge": {"target": [], "time": []}}, "mouseout": {"state": {"target": ["0", "1", "2", "4", "2", "3", "5", "6", "7", "6", "8", "9", "9", "10", "11", "10", "12"], "time": [2187, 2569, 2902, 3353, 3437, 4004, 4469, 4887, 5236, 5321, 6053, 6554, 6930, 7354, 7687, 7753, 8136]}, "edge": {"target": [], "time": []}}}, "displayed_time": "11.90", "trialTime": 12844, "trial_type": "mouselab-mdp", "trial_index": 72, "time_elapsed": 1361805, "internal_node_id": "0.0-4.0-5.0-1.0"}}, {"uniqueid": "w25267381:a32776331", "current_trial": 73, "dateTime": 1664556392876, "trialdata": {"revealed_states": [], "num_clicks_accrued": [0, 0, 0, 0, 0, 0, 0, 0, 0, 0, 0, 0, 0], "stateRewards": ["", -4, -4, -48, -24, 2, 8, 24, -48, 4, 4, 48, 48], "withholdReward": true, "trial_id": "mdp_693501840209", "block": "test3", "trialIndex": 64, "score": 58.25, "costs": -2.75, "simulationMode": [null, null, null], "rewards": [4, 4, 48], "path": ["0", "0", "9", "10", "12"], "rt": [7178, 67, 134], "actions": ["left", "left", "down"], "actionTimes": [8309, 8868, 9501], "queries": {"click": {"state": {"target": ["2", "4", "3", "1", "9", "10", "11", "12", "5", "6", "8"], "time": [2257, 2905, 3623, 4173, 4656, 5040, 5340, 5873, 6489, 6873, 7390]}, "edge": {"target": [], "time": []}}, "mouseover": {"state": {"target": ["2", "2", "4", "4", "3", "3", "1", "9", "10", "11", "12", "0", "5", "6", "8"], "time": [1467, 2050, 2366, 2699, 3049, 3416, 3832, 4383, 4783, 5133, 5566, 6050, 6316, 6667, 7000]}, "edge": {"target": [], "time": []}}, "mouseout": {"state": {"target": ["0", "2", "2", "4", "4", "2", "3", "3", "1", "9", "10", "11", "10", "12", "0", "5", "6"], "time": [1299, 1534, 2341, 2399, 2991, 3033, 3099, 3783, 4317, 4737, 5116, 5432, 5483, 6000, 6133, 6616, 6983]}, "edge": {"target": [], "time": []}}}, "displayed_time": "10.00", "trialTime": 10895, "trial_type": "mouselab-mdp", "trial_index": 73, "time_elapsed": 1372742, "internal_node_id": "0.0-4.0-5.0-2.0"}}, {"uniqueid": "w25267381:a32776331", "current_trial": 74, "dateTime": 1664556403612, "trialdata": {"revealed_states": [], "num_clicks_accrued": [0, 0, 0, 0, 0, 0, 0, 0, 0, 0, 0, 0, 0], "stateRewards": ["", 2, 8, 48, 24, -4, 4, -48, 24, 2, 8, 48, 48], "withholdReward": true, "trial_id": "mdp_367344599162", "block": "test3", "trialIndex": 65, "score": 62, "costs": -1, "simulationMode": [null, null, null], "rewards": [2, 8, 48], "path": ["0", "0", "9", "10", "11"], "rt": [2534, 81, 265], "actions": ["left", "left", "up"], "actionTimes": [3758, 4342, 5108], "queries": {"click": {"state": {"target": ["9", "10", "11", "12"], "time": [1700, 2067, 2483, 2982]}, "edge": {"target": [], "time": []}}, "mouseover": {"state": {"target": ["0", "9", "10", "11", "12"], "time": [1291, 1526, 1843, 2310, 2676]}, "edge": {"target": [], "time": []}}, "mouseout": {"state": {"target": ["8", "5", "0", "9", "10", "11", "10"], "time": [460, 509, 1