{"condition": 1, "counterbalance": 0, "assignmentId": "a19273721", "workerId": "w56805207", "hitId": "h21512553", "currenttrial": 143, "bonus": 0, "data": [{"uniqueid": "w56805207:a19273721", "current_trial": 0, "dateTime": 1664464156831, "trialdata": {"success": true, "trial_type": "fullscreen", "trial_index": 0, "time_elapsed": 5742, "internal_node_id": "0.0-0.0"}}, {"uniqueid": "w56805207:a19273721", "current_trial": 1, "dateTime": 1664464222447, "trialdata": {"view_history": [{"page_index": 0, "viewing_time": 65609}], "rt": 65610, "trial_id": "exp_instructions_no_distractor", "trial_type": "instructions", "trial_index": 1, "time_elapsed": 71359, "internal_node_id": "0.0-1.0"}}, {"uniqueid": "w56805207:a19273721", "current_trial": 2, "dateTime": 1664464227136, "trialdata": {"success": true, "trial_type": "fullscreen", "trial_index": 2, "time_elapsed": 76048, "internal_node_id": "0.0-2.0-0.0"}}, {"uniqueid": "w56805207:a19273721", "current_trial": 3, "dateTime": 1664464421421, "trialdata": {"view_history": [{"page_index": 0, "viewing_time": 43731}, {"page_index": 1, "viewing_time": 120903}, {"page_index": 2, "viewing_time": 9936}, {"page_index": 3, "viewing_time": 6656}, {"page_index": 4, "viewing_time": 13056}], "rt": 194282, "trial_id": "mouselab_instructions_1", "trial_type": "instructions", "trial_index": 3, "time_elapsed": 270333, "internal_node_id": "0.0-2.0-1.0"}}, {"uniqueid": "w56805207:a19273721", "current_trial": 4, "dateTime": 1664464446375, "trialdata": {"revealed_states": [], "num_clicks_accrued": [0, 0, 0, 0, 0, 0, 0, 0, 0, 0, 0, 0, 0], "stateRewards": ["", -10, 10, -10, 10, 10, 10, 10, 10, 10, 10, 10, -10], "withholdReward": false, "trial_id": "practice_1", "block": "test", "trialIndex": 0, "score": 11.5, "costs": -0.5, "simulationMode": [null, null, null], "rewards": [10, 10, -10], "path": ["0", "0", "9", "10", "12"], "rt": [9528, 2488, 2705], "actions": ["left", "left", "down"], "actionTimes": [10844, 13842, 17058], "queries": {"click": {"state": {"target": ["5", "10"], "time": [4270, 8134]}, "edge": {"target": [], "time": []}}, "mouseover": {"state": {"target": ["0", "5", "5", "6", "10", "10", "10", "9", "8"], "time": [1615, 1638, 3322, 4602, 6368, 7018, 7551, 8351, 8485]}, "edge": {"target": [], "time": []}}, "mouseout": {"state": {"target": ["0", "9", "10", "9", "0", "8", "5", "0", "0", "5", "5", "6", "10", "10", "10", "9", "8"], "time": [null, null, null, null, null, null, null, 133, 1622, 1654, 4586, 4619, 6385, 7036, 8334, 8402, 8501]}, "edge": {"target": [], "time": []}}}, "displayed_time": "17.57", "trialTime": 21522, "trial_type": "mouselab-mdp", "trial_index": 4, "time_elapsed": 295286, "internal_node_id": "0.0-2.0-2.0-0.0"}}, {"uniqueid": "w56805207:a19273721", "current_trial": 5, "dateTime": 1664464496629, "trialdata": {"revealed_states": [], "num_clicks_accrued": [0, 0, 0, 0, 0, 0, 0, 0, 0, 0, 0, 0, 0], "stateRewards": ["", -10, 10, -10, -10, 10, -10, -10, -10, 10, -10, -10, -10], "withholdReward": false, "trial_id": "practice_2", "block": "test", "trialIndex": 1, "score": -8.5, "costs": -0.5, "simulationMode": [null, null, null], "rewards": [-10, 10, -10], "path": ["0", "0", "1", "2", "3"], "rt": [41884, 667, 580], "actions": ["up", "up", "right"], "actionTimes": [44047, 45230, 46326], "queries": {"click": {"state": {"target": ["2", "6"], "time": [38435, 42618]}, "edge": {"target": [], "time": []}}, "mouseover": {"state": {"target": ["1", "2", "7", "6", "5", "1", "5", "6"], "time": [37865, 38229, 39448, 39548, 39780, 40146, 40664, 40914]}, "edge": {"target": [], "time": []}}, "mouseout": {"state": {"target": ["8", "0", "1", "2", "7", "6", "5", "1", "5", "6"], "time": [1625, 2376, 37947, 38749, 39480, 39763, 39813, 40413, 40814, 42929]}, "edge": {"target": [], "time": []}}}, "displayed_time": "46.85", "trialTime": 50175, "trial_type": "mouselab-mdp", "trial_index": 5, "time_elapsed": 345541, "internal_node_id": "0.0-2.0-2.0-1.0"}}, {"uniqueid": "w56805207:a19273721", "current_trial": 6, "dateTime": 1664464534044, "trialdata": {"view_history": [{"page_index": 0, "viewing_time": 19346}, {"page_index": 1, "viewing_time": 12784}, {"page_index": 2, "viewing_time": 5280}], "rt": 37410, "trial_id": "mouselab_instructions_2_scarce", "trial_type": "instructions", "trial_index": 6, "time_elapsed": 382956, "internal_node_id": "0.0-2.0-3.0"}}, {"uniqueid": "w56805207:a19273721", "current_trial": 7, "dateTime": 1664464568077, "trialdata": {"rt": 34028, "response": {"Q0": "$-48 to $48", "Q1": "The cost is always $0.25.", "Q2": "I will receive a $1 bonus if I perform well, otherwise I will receive no bonus.", "Q3": "No, the amount of cash at each node of the web may be different each time.", "Q4": "The values of the nodes walked through from start to finish.", "Q5": "No, the score will only be displayed once at the end of the game."}, "question_order": [0, 1, 2, 3, 4, 5], "correct": {"Q0": "$-48 to $48", "Q1": "The cost is always $0.25.", "Q2": "The better I perform the higher my bonus will be.", "Q3": "No, the amount of cash at each node of the web may be different each time.", "Q4": "The values of the nodes walked through from start to finish.", "Q5": "No, the spider might forget to count the money on some rounds."}, "trial_id": "mouselab_quiz_scarce", "trial_type": "survey-multi-choice", "trial_index": 7, "time_elapsed": 416989, "internal_node_id": "0.0-2.0-4.0"}}, {"uniqueid": "w56805207:a19273721", "current_trial": 8, "dateTime": 1664464577149, "trialdata": {"success": true, "trial_type": "fullscreen", "trial_index": 8, "time_elapsed": 426061, "internal_node_id": "0.0-2.1-0.1"}}, {"uniqueid": "w56805207:a19273721", "current_trial": 9, "dateTime": 1664464749226, "trialdata": {"view_history": [{"page_index": 0, "viewing_time": 109542}, {"page_index": 1, "viewing_time": 9509}, {"page_index": 2, "viewing_time": 13760}, {"page_index": 3, "viewing_time": 4552}, {"page_index": 4, "viewing_time": 34712}], "rt": 172075, "trial_id": "mouselab_instructions_1", "trial_type": "instructions", "trial_index": 9, "time_elapsed": 598138, "internal_node_id": "0.0-2.1-1.1"}}, {"uniqueid": "w56805207:a19273721", "current_trial": 10, "dateTime": 1664464768626, "trialdata": {"revealed_states": [], "num_clicks_accrued": [0, 0, 0, 0, 0, 0, 0, 0, 0, 0, 0, 0, 0], "stateRewards": ["", -10, 10, -10, 10, 10, 10, 10, 10, 10, 10, 10, -10], "withholdReward": false, "trial_id": "practice_1", "block": "test", "trialIndex": 2, "score": 31.25, "costs": -0.75, "simulationMode": [null, null, null], "rewards": [10, 10, 10], "path": ["0", "0", "5", "6", "8"], "rt": [4661, 302, 111], "actions": ["right", "right", "down"], "actionTimes": [6024, 6848, 7472], "queries": {"click": {"state": {"target": ["5", "6", "8"], "time": [2755, 3867, 4883]}, "edge": {"target": [], "time": []}}, "mouseover": {"state": {"target": ["0", "5", "6", "6", "8"], "time": [1914, 2162, 2962, 3462, 4761]}, "edge": {"target": [], "time": []}}, "mouseout": {"state": {"target": ["5", "0", "9", "9", "0", "5", "6", "6", "8"], "time": [95, 162, 211, 895, 2129, 2928, 2994, 4061, 5061]}, "edge": {"target": [], "time": []}}}, "displayed_time": "7.98", "trialTime": 19344, "trial_type": "mouselab-mdp", "trial_index": 10, "time_elapsed": 617538, "internal_node_id": "0.0-2.1-2.1-0.1"}}, {"uniqueid": "w56805207:a19273721", "current_trial": 11, "dateTime": 1664464781986, "trialdata": {"revealed_states": [], "num_clicks_accrued": [0, 0, 0, 0, 0, 0, 0, 0, 0, 0, 0, 0, 0], "stateRewards": ["", -10, 10, -10, -10, 10, -10, -10, -10, 10, -10, -10, -10], "withholdReward": false, "trial_id": "practice_2", "block": "test", "trialIndex": 3, "score": -9, "costs": -1, "simulationMode": [null, null, null], "rewards": [10, -10, -10], "path": ["0", "0", "5", "6", "8"], "rt": [5017, 432, 308], "actions": ["right", "right", "down"], "actionTimes": [6316, 7259, 8083], "queries": {"click": {"state": {"target": ["9", "10", "12", "11"], "time": [2151, 2727, 3311, 4167]}, "edge": {"target": [], "time": []}}, "mouseover": {"state": {"target": ["9", "10", "12", "11", "5"], "time": [1944, 2493, 3110, 3909, 4494]}, "edge": {"target": [], "time": []}}, "mouseout": {"state": {"target": ["0", "9", "10", "12", "10", "11", "5"], "time": [1912, 2343, 3009, 3860, 3894, 4410, 4526]}, "edge": {"target": [], "time": []}}}, "displayed_time": "8.59", "trialTime": 13291, "trial_type": "mouselab-mdp", "trial_index": 11, "time_elapsed": 630897, "internal_node_id": "0.0-2.1-2.1-1.1"}}, {"uniqueid": "w56805207:a19273721", "current_trial": 12, "dateTime": 1664464826753, "trialdata": {"view_history": [{"page_index": 0, "viewing_time": 37996}, {"page_index": 1, "viewing_time": 5488}, {"page_index": 2, "viewing_time": 1280}], "rt": 44764, "trial_id": "mouselab_instructions_2_scarce", "trial_type": "instructions", "trial_index": 12, "time_elapsed": 675665, "internal_node_id": "0.0-2.1-3.1"}}, {"uniqueid": "w56805207:a19273721", "current_trial": 13, "dateTime": 1664464868681, "trialdata": {"rt": 41925, "response": {"Q0": "$-48 to $48", "Q1": "The cost is always $0.25.", "Q2": "The better I perform the higher my bonus will be.", "Q3": "No, the amount of cash at each node of the web may be different each time.", "Q4": "The values of the nodes walked through from start to finish.", "Q5": "No, the spider might forget to count the money on some rounds."}, "question_order": [0, 1, 2, 3, 4, 5], "correct": {"Q0": "$-48 to $48", "Q1": "The cost is always $0.25.", "Q2": "The better I perform the higher my bonus will be.", "Q3": "No, the amount of cash at each node of the web may be different each time.", "Q4": "The values of the nodes walked through from start to finish.", "Q5": "No, the spider might forget to count the money on some rounds."}, "trial_id": "mouselab_quiz_scarce", "trial_type": "survey-multi-choice", "trial_index": 13, "time_elapsed": 717593, "internal_node_id": "0.0-2.1-4.1"}}, {"uniqueid": "w56805207:a19273721", "current_trial": 14, "dateTime": 1664464877579, "trialdata": {"rt": 8887, "stimulus": "\n<h1> Get ready to start the game! </h1>\n\nThank you for reading the instructions. Get ready start with the first of 4 block(s) of this game.\n<br><br>\nIn this first block, you will complete 30 rounds of this game before moving on.\n<br><br>\nRemember, the more money the spider gets, the bigger your bonus will be!\n<br><br>\n<div style='text-align: center;'>Press <code>space</code> to begin.</div>\n\n<br><br>\n(If, at any point, the <code>space</code> key does not take you to the next page, click once on the text and try again.)", "response": " ", "trial_id": "mdp_ready_1", "trial_type": "html-keyboard-response", "trial_index": 14, "time_elapsed": 726491, "internal_node_id": "0.0-4.0-0.0"}}, {"uniqueid": "w56805207:a19273721", "current_trial": 15, "dateTime": 1664464894178, "trialdata": {"revealed_states": [], "num_clicks_accrued": [0, 0, 0, 0, 0, 0, 0, 0, 0, 0, 0, 0, 0], "stateRewards": ["", -2, -4, -24, 24, -2, 4, -24, -24, -4, 4, 24, -24], "withholdReward": false, "trial_id": "mdp_999419261719", "block": "test1", "trialIndex": 4, "score": -26.25, "costs": -1.25, "simulationMode": [null, null, null], "rewards": [-2, -4, -24], "path": ["0", "0", "1", "2", "3"], "rt": [9869, 115, 164], "actions": ["up", "up", "right"], "actionTimes": [11578, 12201, 12881], "queries": {"click": {"state": {"target": ["1", "9", "5", "6", "7"], "time": [5117, 6405, 7325, 8509, 9068]}, "edge": {"target": [], "time": []}}, "mouseover": {"state": {"target": ["9", "1", "9", "9", "10", "6", "6", "5", "6", "6", "7"], "time": [2770, 4437, 5703, 6220, 6702, 6853, 7035, 7169, 7503, 7751, 8918]}, "edge": {"target": [], "time": []}}, "mouseout": {"state": {"target": ["6", "5", "0", "9", "1", "9", "9", "10", "6", "6", "5", "6", "6", "7"], "time": [1119, 1335, 1586, 4337, 5336, 5785, 6636, 6802, 6868, 7085, 7452, 7535, 8734, 9267]}, "edge": {"target": [], "time": []}}}, "displayed_time": "13.40", "trialTime": 16529, "trial_type": "mouselab-mdp", "trial_index": 15, "time_elapsed": 743089, "internal_node_id": "0.0-4.0-1.0-0.0"}}, {"uniqueid": "w56805207:a19273721", "current_trial": 16, "dateTime": 1664464948018, "trialdata": {"revealed_states": [], "num_clicks_accrued": [0, 0, 0, 0, 0, 0, 0, 0, 0, 0, 0, 0, 0], "stateRewards": ["", -4, 8, -24, -24, 2, 4, 48, 48, -2, 4, 24, -48], "withholdReward": true, "trial_id": "mdp_397308196941", "block": "test1", "trialIndex": 5, "score": 30, "costs": -1, "simulationMode": [null, null, null], "rewards": [-2, 4, 24], "path": ["0", "0", "9", "10", "11"], "rt": [4441, 743, 284], "actions": ["left", "left", "up"], "actionTimes": [6396, 7660, 8452], "queries": {"click": {"state": {"target": ["11", "12", "9", "10"], "time": [3288, 3901, 4672, 5104]}, "edge": {"target": [], "time": []}}, "mouseover": {"state": {"target": ["9", "10", "11", "10", "12", "9", "10", "0", "5", "6"], "time": [2483, 2717, 3101, 3466, 3717, 4416, 4951, 5549, 5616, 5635]}, "edge": {"target": [], "time": []}}, "mouseout": {"state": {"target": ["8", "9", "0", "9", "10", "11", "10", "12", "9", "10", "9", "0", "5", "6"], "time": [869, 1167, 2352, 2650, 2917, 3433, 3484, 4350, 4849, 5500, 5533, 5600, 5633, 5667]}, "edge": {"target": [], "time": []}}}, "displayed_time": "10.96", "trialTime": 53772, "trial_type": "mouselab-mdp", "trial_index": 16, "time_elapsed": 796929, "internal_node_id": "0.0-4.0-1.0-1.0"}}, {"uniqueid": "w56805207:a19273721", "current_trial": 17, "dateTime": 1664464970129, "trialdata": {"revealed_states": [], "num_clicks_accrued": [0, 0, 0, 0, 0, 0, 0, 0, 0, 0, 0, 0, 0], "stateRewards": ["", -4, 8, -48, -48, -4, 4, -24, -48, 2, -4, -24, 24], "withholdReward": false, "trial_id": "mdp_183773275291", "block": "test1", "trialIndex": 6, "score": 24.25, "costs": -2.75, "simulationMode": [null, null, null], "rewards": [2, -4, 24], "path": ["0", "0", "9", "10", "12"], "rt": [14140, 174, 179], "actions": ["left", "left", "down"], "actionTimes": [16678, 17358, 18046], "queries": {"click": {"state": {"target": ["2", "3", "4", "1", "6", "8", "7", "5", "11", "10", "12"], "time": [4154, 4898, 5890, 6490, 7320, 8834, 9729, 10394, 13106, 13569, 14330]}, "edge": {"target": [], "time": []}}, "mouseover": {"state": {"target": ["1", "2", "3", "1", "4", "1", "5", "6", "8", "7", "5", "0", "9", "10", "11", "10", "12"], "time": [3553, 3737, 4619, 5136, 5619, 6269, 6685, 7035, 7603, 9568, 10168, 10535, 10584, 10834, 11317, 13335, 14100]}, "edge": {"target": [], "time": []}}, "mouseout": {"state": {"target": ["1", "9", "0", "1", "2", "3", "1", "4", "1", "5", "6", "8", "8", "6", "7", "6", "5", "0", "9", "10", "11", "10", "12"], "time": [1687, 1936, 2436, 3587, 4570, 5069, 5552, 6035, 6635, 6851, 7469, 9002, 9271, 9451, 9884, 10151, 10519, 10551, 10802, 11051, 13300, 13800, 14583]}, "edge": {"target": [], "time": []}}}, "displayed_time": "18.57", "trialTime": 22038, "trial_type": "mouselab-mdp", "trial_index": 17, "time_elapsed": 819041, "internal_node_id": "0.0-4.0-1.0-2.0"}}, {"uniqueid": "w56805207:a19273721", "current_trial": 18, "dateTime": 1664464985401, "trialdata": {"revealed_states": [], "num_clicks_accrued": [0, 0, 0, 0, 0, 0, 0, 0, 0, 0, 0, 0, 0], "stateRewards": ["", -4, -8, -48, 24, -4, -4, -24, -48, 2, -8, -24, -48], "withholdReward": true, "trial_id": "mdp_628181832088", "block": "test1", "trialIndex": 7, "score": 15.5, "costs": -1.5, "simulationMode": [null, null, null], "rewards": [-4, -8, 24], "path": ["0", "0", "1", "2", "4"], "rt": [9677, 82, 161], "actions": ["up", "up", "left"], "actionTimes": [11601, 12200, 12880], "queries": {"click": {"state": {"target": ["7", "8", "4", "3", "2", "1"], "time": [3212, 3827, 4996, 5580, 7076, 9587]}, "edge": {"target": [], "time": []}}, "mouseover": {"state": {"target": ["0", "8", "7", "6", "8", "8", "1", "4", "4", "2", "3", "2", "5", "1"], "time": [2386, 2636, 3069, 3353, 3404, 3669, 4369, 4403, 4752, 5152, 5303, 6435, 8884, 9467]}, "edge": {"target": [], "time": []}}, "mouseout": {"state": {"target": ["8", "0", "8", "7", "6", "8", "8", "1", "4", "4", "2", "3", "3", "2", "3", "5", "1"], "time": [1323, 2404, 2654, 3318, 3386, 3469, 4286, 4387, 4435, 5135, 5185, 5752, 5968, 7336, 7386, 8917, 10284]}, "edge": {"target": [], "time": []}}}, "displayed_time": "13.40", "trialTime": 15200, "trial_type": "mouselab-mdp", "trial_index": 18, "time_elapsed": 834313, "internal_node_id": "0.0-4.0-1.0-3.0"}}, {"uniqueid": "w56805207:a19273721", "current_trial": 19, "dateTime": 1664464996872, "trialdata": {"revealed_states": [], "num_clicks_accrued": [0, 0, 0, 0, 0, 0, 0, 0, 0, 0, 0, 0, 0], "stateRewards": ["", 4, -8, 24, 48, 2, 4, 48, 48, 2, 8, -48, -48], "withholdReward": true, "trial_id": "mdp_783704746330", "block": "test1", "trialIndex": 8, "score": 58, "costs": -1, "simulationMode": [null, null, null], "rewards": [2, 4, 48], "path": ["0", "0", "5", "6", "8"], "rt": [4151, 95, 31], "actions": ["right", "right", "down"], "actionTimes": [5457, 6073, 6625], "queries": {"click": {"state": {"target": ["11", "8", "6", "5"], "time": [2140, 3404, 3981, 4412]}, "edge": {"target": [], "time": []}}, "mouseover": {"state": {"target": ["9", "11", "8", "8", "6", "5"], "time": [1827, 1960, 2560, 3237, 3826, 4276]}, "edge": {"target": [], "time": []}}, "mouseout": {"state": {"target": ["0", "9", "11", "8", "8", "6", "5", "6"], "time": [1794, 1860, 2293, 2577, 3776, 4243, 4577, 4611]}, "edge": {"target": [], "time": []}}}, "displayed_time": "9.31", "trialTime": 11401, "trial_type": "mouselab-mdp", "trial_index": 19, "time_elapsed": 845784, "internal_node_id": "0.0-4.0-1.0-4.0"}}, {"uniqueid": "w56805207:a19273721", "current_trial": 20, "dateTime": 1664465012408, "trialdata": {"revealed_states": [], "num_clicks_accrued": [0, 0, 0, 0, 0, 0, 0, 0, 0, 0, 0, 0, 0], "stateRewards": ["", -4, 4, -24, 24, 2, 4, -24, 48, -4, 8, -48, 48], "withholdReward": true, "trial_id": "mdp_422109108860", "block": "test1", "trialIndex": 9, "score": 28, "costs": -1, "simulationMode": [null, null, null], "rewards": [-4, 4, 24], "path": ["0", "0", "1", "2", "4"], "rt": [4206, 70, 119], "actions": ["up", "up", "left"], "actionTimes": [8530, 9122, 9754], "queries": {"click": {"state": {"target": ["4", "3", "1", "2"], "time": [5558, 6141, 6781, 7101]}, "edge": {"target": [], "time": []}}, "mouseover": {"state": {"target": ["9", "10", "11", "4", "2", "3", "3", "2", "1", "2", "7"], "time": [4751, 4968, 5068, 5184, 5751, 5771, 5935, 6467, 6634, 6950, 7567]}, "edge": {"target": [], "time": []}}, "mouseout": {"state": {"target": ["6", "5", "0", "0", "9", "10", "11", "4", "2", "3", "3", "2", "1", "2", "3", "7"], "time": [2851, 3068, 3788, 4217, 4818, 4984, 5117, 5717, 5769, 5802, 6434, 6486, 6917, 7434, 7500, 7585]}, "edge": {"target": [], "time": []}}}, "displayed_time": "12.32", "trialTime": 15466, "trial_type": "mouselab-mdp", "trial_index": 20, "time_elapsed": 861320, "internal_node_id": "0.0-4.0-1.0-5.0"}}, {"uniqueid": "w56805207:a19273721", "current_trial": 21, "dateTime": 1664465066888, "trialdata": {"revealed_states": [], "num_clicks_accrued": [0, 0, 0, 0, 0, 0, 0, 0, 0, 0, 0, 0, 0], "stateRewards": ["", -2, 8, -24, 24, 2, -8, 48, -24, 2, 8, -24, -24], "withholdReward": true, "trial_id": "mdp_674708270444", "block": "test1", "trialIndex": 10, "score": 46, "costs": -1, "simulationMode": [null, null, null], "rewards": [2, -8, 48], "path": ["0", "0", "5", "6", "7"], "rt": [46638, 123, 74], "actions": ["right", "right", "up"], "actionTimes": [50125, 50756, 51340], "queries": {"click": {"state": {"target": ["8", "7", "6", "5"], "time": [4369, 4952, 6008, 6335]}, "edge": {"target": [], "time": []}}, "mouseover": {"state": {"target": ["0", "5", "6", "8", "6", "7", "1", "5", "6", "6", "5"], "time": [3781, 3829, 3896, 4180, 4696, 4762, 5296, 5545, 5565, 5895, 6147]}, "edge": {"target": [], "time": []}}, "mouseout": {"state": {"target": ["6", "5", "0", "0", "0", "5", "6", "8", "6", "7", "1", "5", "6", "6", "5", "6"], "time": [2180, 2429, 2898, 3314, 3797, 3863, 3978, 4678, 4729, 5212, 5313, 5563, 5579, 6128, 6562, 6628]}, "edge": {"target": [], "time": []}}}, "displayed_time": "51.85", "trialTime": 54411, "trial_type": "mouselab-mdp", "trial_index": 21, "time_elapsed": 915800, "internal_node_id": "0.0-4.0-1.0-6.0"}}, {"uniqueid": "w56805207:a19273721", "current_trial": 22, "dateTime": 1664465080023, "trialdata": {"revealed_states": [], "num_clicks_accrued": [0, 0, 0, 0, 0, 0, 0, 0, 0, 0, 0, 0, 0], "stateRewards": ["", 4, -8, 48, -24, 4, -4, -48, -48, 4, -4, 24, 24], "withholdReward": true, "trial_id": "mdp_221562928904", "block": "test1", "trialIndex": 11, "score": 28, "costs": -1, "simulationMode": [null, null, null], "rewards": [4, -4, 24], "path": ["0", "0", "9", "10", "12"], "rt": [4486, 915, 153], "actions": ["left", "left", "down"], "actionTimes": [5541, 6973, 7645], "queries": {"click": {"state": {"target": ["11", "12", "10", "9"], "time": [2169, 2694, 3800, 4297]}, "edge": {"target": [], "time": []}}, "mouseover": {"state": {"target": ["0", "0", "1", "11", "10", "12", "10", "9", "10", "9"], "time": [1294, 1641, 1691, 2024, 2358, 2474, 3288, 3424, 3592, 4140]}, "edge": {"target": [], "time": []}}, "mouseout": {"state": {"target": ["5", "0", "0", "1", "11", "10", "12", "10", "9", "10", "9"], "time": [775, 1325, 1658, 1709, 2341, 2408, 2974, 3325, 3559, 4008, 4440]}, "edge": {"target": [], "time": []}}}, "displayed_time": "10.05", "trialTime": 13061, "trial_type": "mouselab-mdp", "trial_index": 22, "time_elapsed": 928935, "internal_node_id": "0.0-4.0-1.0-7.0"}}, {"uniqueid": "w56805207:a19273721", "current_trial": 23, "dateTime": 1664465091695, "trialdata": {"revealed_states": [], "num_clicks_accrued": [0, 0, 0, 0, 0, 0, 0, 0, 0, 0, 0, 0, 0], "stateRewards": ["", 2, 4, -24, -48, 4, -4, 24, 48, -4, -4, -24, 48], "withholdReward": true, "trial_id": "mdp_181958792175", "block": "test1", "trialIndex": 12, "score": 52, "costs": -1, "simulationMode": [null, null, null], "rewards": [4, -4, 48], "path": ["0", "0", "5", "6", "8"], "rt": [6858, 256, 210], "actions": ["right", "right", "down"], "actionTimes": [7977, 8745, 9465], "queries": {"click": {"state": {"target": ["3", "8", "6", "5"], "time": [1980, 2852, 3412, 3748]}, "edge": {"target": [], "time": []}}, "mouseover": {"state": {"target": ["0", "3", "6", "8", "6", "5"], "time": [1688, 1788, 2489, 2688, 3289, 3588]}, "edge": {"target": [], "time": []}}, "mouseout": {"state": {"target": ["0", "0", "3", "6", "8", "6", "5", "6"], "time": [1204, 1705, 2155, 2556, 3256, 3572, 4021, 4054]}, "edge": {"target": [], "time": []}}}, "displayed_time": "10.12", "trialTime": 11600, "trial_type": "mouselab-mdp", "trial_index": 23, "time_elapsed": 940607, "internal_node_id": "0.0-4.0-1.0-8.0"}}, {"uniqueid": "w56805207:a19273721", "current_trial": 24, "dateTime": 1664465106103, "trialdata": {"revealed_states": [], "num_clicks_accrued": [0, 0, 0, 0, 0, 0, 0, 0, 0, 0, 0, 0, 0], "stateRewards": ["", -2, -4, -24, -24, 4, 8, 24, 24, -2, 8, 48, 48], "withholdReward": true, "trial_id": "mdp_620787912291", "block": "test1", "trialIndex": 13, "score": 58, "costs": -1, "simulationMode": [null, null, null], "rewards": [-2, 8, 48], "path": ["0", "0", "9", "10", "11"], "rt": [3836, 375, 668], "actions": ["left", "left", "up"], "actionTimes": [5412, 6308, 7484], "queries": {"click": {"state": {"target": ["11", "12", "9", "10"], "time": [2735, 3319, 3791, 4047]}, "edge": {"target": [], "time": []}}, "mouseover": {"state": {"target": ["8", "9", "11", "10", "12", "9", "10"], "time": [1898, 2366, 2599, 2882, 3015, 3615, 3932]}, "edge": {"target": [], "time": []}}, "mouseout": {"state": {"target": ["6", "5", "0", "8", "9", "11", "10", "12", "9", "10"], "time": [1249, 1331, 1767, 2115, 2399, 2864, 2915, 3547, 3902, 4230]}, "edge": {"target": [], "time": []}}}, "displayed_time": "11.58", "trialTime": 14339, "trial_type": "mouselab-mdp", "trial_index": 24, "time_elapsed": 955015, "internal_node_id": "0.0-4.0-1.0-9.0"}}, {"uniqueid": "w56805207:a19273721", "current_trial": 25, "dateTime": 1664465149415, "trialdata": {"revealed_states": [], "num_clicks_accrued": [0, 0, 0, 0, 0, 0, 0, 0, 0, 0, 0, 0, 0], "stateRewards": ["", -4, -4, -48, -24, 2, 8, 24, -48, 4, 4, 48, 48], "withholdReward": true, "trial_id": "mdp_693501840209", "block": "test1", "trialIndex": 14, "score": 59.5, "costs": -1.5, "simulationMode": [null, null, null], "rewards": [4, 4, 48], "path": ["0", "0", "9", "10", "12"], "rt": [37595, 403, 493], "actions": ["left", "left", "down"], "actionTimes": [39311, 40230, 41238], "queries": {"click": {"state": {"target": ["3", "4", "12", "11", "10", "9"], "time": [2506, 3034, 3833, 4376, 4818, 5226]}, "edge": {"target": [], "time": []}}, "mouseover": {"state": {"target": ["3", "2", "4", "10", "12", "10", "11", "10", "9", "0"], "time": [2405, 2722, 2772, 3539, 3672, 4156, 4222, 4723, 5105, 5505]}, "edge": {"target": [], "time": []}}, "mouseout": {"state": {"target": ["6", "5", "0", "3", "2", "4", "10", "12", "10", "11", "10", "9", "0"], "time": [1489, 1523, 2139, 2689, 2740, 3222, 3639, 4138, 4189, 4555, 5021, 5474, 5522]}, "edge": {"target": [], "time": []}}}, "displayed_time": "41.74", "trialTime": 43230, "trial_type": "mouselab-mdp", "trial_index": 25, "time_elapsed": 998326, "internal_node_id": "0.0-4.0-1.0-10.0"}}, {"uniqueid": "w56805207:a19273721", "current_trial": 26, "dateTime": 1664465161951, "trialdata": {"revealed_states": [], "num_clicks_accrued": [0, 0, 0, 0, 0, 0, 0, 0, 0, 0, 0, 0, 0], "stateRewards": ["", 4, 4, 48, -48, -2, -8, -48, -24, 2, 4, -24, -48], "withholdReward": true, "trial_id": "mdp_239929662917", "block": "test1", "trialIndex": 15, "score": 59.5, "costs": -1.5, "simulationMode": [null, null, null], "rewards": [4, 4, 48], "path": ["0", "0", "1", "2", "3"], "rt": [5673, 310, 445], "actions": ["up", "up", "right"], "actionTimes": [8410, 9234, 10186], "queries": {"click": {"state": {"target": ["7", "8", "6", "11", "3", "1"], "time": [3374, 3846, 4341, 5182, 6270, 6917]}, "edge": {"target": [], "time": []}}, "mouseover": {"state": {"target": ["5", "7", "6", "8", "6", "5", "9", "10", "11", "10", "12", "3", "2", "1", "2", "2"], "time": [3075, 3159, 3559, 3610, 4175, 4607, 4807, 4859, 5042, 5356, 5475, 6157, 6556, 6823, 7124, 7408]}, "edge": {"target": [], "time": []}}, "mouseout": {"state": {"target": ["10", "9", "5", "0", "5", "7", "6", "8", "6", "5", "9", "10", "11", "10", "12", "3", "2", "1", "2", "2", "3"], "time": [2290, 2324, 2508, 3054, 3108, 3541, 3592, 4091, 4509, 4692, 4841, 4957, 5325, 5390, 5861, 6524, 6646, 7091, 7223, 7423, 7707]}, "edge": {"target": [], "time": []}}}, "displayed_time": "10.74", "trialTime": 12466, "trial_type": "mouselab-mdp", "trial_index": 26, "time_elapsed": 1010862, "internal_node_id": "0.0-4.0-1.0-11.0"}}, {"uniqueid": "w56805207:a19273721", "current_trial": 27, "dateTime": 1664465175727, "trialdata": {"revealed_states": [], "num_clicks_accrued": [0, 0, 0, 0, 0, 0, 0, 0, 0, 0, 0, 0, 0], "stateRewards": ["", 4, -4, 48, -48, 2, 8, -48, 24, -2, -4, -24, 48], "withholdReward": true, "trial_id": "mdp_937564992306", "block": "test1", "trialIndex": 16, "score": 52, "costs": -1, "simulationMode": [null, null, null], "rewards": [4, -4, 48], "path": ["0", "0", "1", "2", "3"], "rt": [5367, 1182, 949], "actions": ["up", "up", "right"], "actionTimes": [8551, 10247, 11711], "queries": {"click": {"state": {"target": ["3", "4", "1", "2"], "time": [5123, 6083, 6634, 7178]}, "edge": {"target": [], "time": []}}, "mouseover": {"state": {"target": ["1", "3", "4", "1", "2"], "time": [3998, 4954, 5798, 6554, 7047]}, "edge": {"target": [], "time": []}}, "mouseout": {"state": {"target": ["5", "0", "1", "3", "4", "1", "2", "3"], "time": [1814, 3966, 4132, 5482, 6315, 6980, 7381, 7397]}, "edge": {"target": [], "time": []}}}, "displayed_time": "12.23", "trialTime": 13703, "trial_type": "mouselab-mdp", "trial_index": 27, "time_elapsed": 1024638, "internal_node_id": "0.0-4.0-1.0-12.0"}}, {"uniqueid": "w56805207:a19273721", "current_trial": 28, "dateTime": 1664465192647, "trialdata": {"revealed_states": [], "num_clicks_accrued": [0, 0, 0, 0, 0, 0, 0, 0, 0, 0, 0, 0, 0], "stateRewards": ["", 4, 4, -48, -48, 4, 4, -24, -24, -4, 8, -48, 24], "withholdReward": false, "trial_id": "mdp_669785455541", "block": "test1", "trialIndex": 17, "score": 31.5, "costs": -1.5, "simulationMode": [null, null, null], "rewards": [-4, 8, 24], "path": ["0", "0", "9", "10", "12"], "rt": [6450, 497, 121], "actions": ["left", "left", "down"], "actionTimes": [9615, 10623, 11263], "queries": {"click": {"state": {"target": ["11", "12", "8", "7", "10", "9"], "time": [4026, 4538, 6594, 7130, 8146, 8507]}, "edge": {"target": [], "time": []}}, "mouseover": {"state": {"target": ["9", "10", "11", "10", "12", "8", "5", "0", "9", "5", "6", "8", "6", "7", "6", "5", "9", "10", "9", "0", "6"], "time": [3393, 3411, 3909, 4192, 4325, 4776, 5242, 5342, 5730, 6159, 6308, 6375, 6774, 6959, 7441, 7725, 7840, 7907, 8375, 8660, 8692]}, "edge": {"target": [], "time": []}}, "mouseout": {"state": {"target": ["6", "0", "9", "10", "11", "10", "12", "8", "5", "0", "9", "5", "6", "8", "6", "7", "6", "5", "9", "10", "9", "0", "6"], "time": [1692, 3360, 3409, 3426, 4174, 4242, 4710, 4792, 5276, 5458, 6124, 6175, 6360, 6741, 6859, 7324, 7690, 7758, 7875, 8310, 8657, 8674, 8707]}, "edge": {"target": [], "time": []}}}, "displayed_time": "11.78", "trialTime": 16839, "trial_type": "mouselab-mdp", "trial_index": 28, "time_elapsed": 1041559, "internal_node_id": "0.0-4.0-1.0-13.0"}}, {"uniqueid": "w56805207:a19273721", "current_trial": 29, "dateTime": 1664465213854, "trialdata": {"revealed_states": [], "num_clicks_accrued": [0, 0, 0, 0, 0, 0, 0, 0, 0, 0, 0, 0, 0], "stateRewards": ["", -4, -8, -24, -48, -2, -8, 24, -48, -4, -8, 24, -48], "withholdReward": true, "trial_id": "mdp_621812384092", "block": "test1", "trialIndex": 18, "score": 16.5, "costs": -2.5, "simulationMode": [null, null, null], "rewards": [-2, -8, 24], "path": ["0", "0", "5", "6", "7"], "rt": [13756, 164, 297], "actions": ["right", "right", "up"], "actionTimes": [16412, 17091, 17908], "queries": {"click": {"state": {"target": ["3", "4", "11", "12", "9", "7", "8", "6", "10", "5"], "time": [3976, 4855, 5360, 5856, 6399, 7911, 8463, 9864, 14240, 15191]}, "edge": {"target": [], "time": []}}, "mouseover": {"state": {"target": ["9", "11", "2", "3", "2", "4", "11", "10", "12", "9", "10", "10", "10", "5", "7", "6", "8", "6", "5", "5", "6", "5", "2", "5", "10", "5"], "time": [2979, 3130, 3496, 3681, 4131, 4631, 5197, 5547, 5646, 6280, 6529, 6896, 7261, 7512, 7730, 8180, 8260, 9111, 9261, 9529, 9662, 10577, 11045, 11661, 14109, 15043]}, "edge": {"target": [], "time": []}}, "mouseout": {"state": {"target": ["2", "1", "0", "9", "11", "2", "3", "2", "4", "11", "10", "12", "9", "10", "10", "9", "10", "9", "5", "7", "6", "8", "6", "5", "5", "6", "6", "5", "2", "5", "6", "7", "9", "10", "6", "6", "5"], "time": [1698, 1962, 2931, 3014, 3446, 3579, 4112, 4180, 5063, 5529, 5595, 6146, 6501, 6546, 6928, 7179, 7446, 7462, 7595, 8111, 8227, 8610, 9212, 9329, 9644, 9994, 10310, 10629, 11545, 11945, 11960, 13660, 14077, 14427, 14493, 14926, 15307]}, "edge": {"target": [], "time": []}}}, "displayed_time": "18.43", "trialTime": 21139, "trial_type": "mouselab-mdp", "trial_index": 29, "time_elapsed": 1062766, "internal_node_id": "0.0-4.0-1.0-14.0"}}, {"uniqueid": "w56805207:a19273721", "current_trial": 30, "dateTime": 1664465288686, "trialdata": {"revealed_states": [], "num_clicks_accrued": [0, 0, 0, 0, 0, 0, 0, 0, 0, 0, 0, 0, 0], "stateRewards": ["", 2, -4, 48, -48, -2, 8, -48, 24, -2, -8, 48, 48], "withholdReward": false, "trial_id": "mdp_949326095747", "block": "test1", "trialIndex": 19, "score": 42, "costs": -1, "simulationMode": [null, null, null], "rewards": [-2, -8, 48], "path": ["0", "0", "9", "10", "12"], "rt": [5376, 211, 118], "actions": ["left", "left", "down"], "actionTimes": [66177, 66897, 67537], "queries": {"click": {"state": {"target": ["7", "8", "11", "12"], "time": [61917, 62420, 63213, 63756]}, "edge": {"target": [], "time": []}}, "mouseover": {"state": {"target": ["5", "6", "7", "7", "6", "8", "11", "10", "12", "9"], "time": [61120, 61334, 61518, 61756, 62068, 62101, 63069, 63368, 63602, 64218]}, "edge": {"target": [], "time": []}}, "mouseout": {"state": {"target": ["7", "5", "6", "7", "7", "6", "8", "11", "10", "12", "9"], "time": [60269, 61253, 61486, 61551, 62052, 62085, 62551, 63334, 63401, 64085, 64368]}, "edge": {"target": [], "time": []}}}, "displayed_time": "68.80", "trialTime": 74753, "trial_type": "mouselab-mdp", "trial_index": 30, "time_elapsed": 1137598, "internal_node_id": "0.0-4.0-1.0-15.0"}}, {"uniqueid": "w56805207:a19273721", "current_trial": 31, "dateTime": 1664465304725, "trialdata": {"revealed_states": [], "num_clicks_accrued": [0, 0, 0, 0, 0, 0, 0, 0, 0, 0, 0, 0, 0], "stateRewards": ["", -2, -4, -24, -48, 2, -8, -24, -24, 4, -8, 48, 48], "withholdReward": true, "trial_id": "mdp_950599994674", "block": "test1", "trialIndex": 20, "score": 47.75, "costs": -1.25, "simulationMode": [null, null, null], "rewards": [4, -8, 48], "path": ["0", "0", "9", "10", "11"], "rt": [6253, 247, 199], "actions": ["left", "left", "up"], "actionTimes": [11824, 12592, 13312], "queries": {"click": {"state": {"target": ["3", "7", "11", "9", "10"], "time": [6715, 8043, 9283, 10252, 10611]}, "edge": {"target": [], "time": []}}, "mouseover": {"state": {"target": ["5", "7", "3", "2", "7", "6", "8", "9", "11", "10", "12", "12", "9", "10", "0", "5", "6"], "time": [6029, 6267, 6545, 6862, 7713, 8261, 8361, 8744, 9128, 9461, 9594, 9810, 10112, 10511, 10798, 10814, 10830]}, "edge": {"target": [], "time": []}}, "mouseout": {"state": {"target": ["0", "5", "7", "3", "2", "7", "6", "8", "9", "11", "10", "12", "12", "9", "10", "9", "0", "5", "6", "8"], "time": [4315, 6046, 6412, 6845, 6911, 8228, 8311, 8661, 8761, 9428, 9528, 9627, 9962, 10394, 10761, 10795, 10811, 10828, 10845, 14692]}, "edge": {"target": [], "time": []}}}, "displayed_time": "13.83", "trialTime": 15960, "trial_type": "mouselab-mdp", "trial_index": 31, "time_elapsed": 1153637, "internal_node_id": "0.0-4.0-1.0-16.0"}}, {"uniqueid": "w56805207:a19273721", "current_trial": 32, "dateTime": 1664465317077, "trialdata": {"revealed_states": [], "num_clicks_accrued": [0, 0, 0, 0, 0, 0, 0, 0, 0, 0, 0, 0, 0], "stateRewards": ["", -2, -8, -24, -24, 4, -4, -48, 48, 2, 8, 48, -48], "withholdReward": true, "trial_id": "mdp_498095124548", "block": "test1", "trialIndex": 21, "score": 62, "costs": -1, "simulationMode": [null, null, null], "rewards": [2, 8, 48], "path": ["0", "0", "9", "10", "11"], "rt": [5239, 137, 231], "actions": ["left", "left", "up"], "actionTimes": [6618, 7274, 8018], "queries": {"click": {"state": {"target": ["7", "11", "9", "10"], "time": [2517, 3741, 5213, 5645]}, "edge": {"target": [], "time": []}}, "mouseover": {"state": {"target": ["7", "6", "8", "9", "10", "11", "10", "12", "9", "10"], "time": [2321, 2654, 2770, 3369, 3403, 3603, 3886, 4019, 5069, 5368]}, "edge": {"target": [], "time": []}}, "mouseout": {"state": {"target": ["0", "7", "6", "8", "9", "10", "11", "10", "12", "9", "10", "7", "6", "6", "7", "6"], "time": [2037, 2636, 2703, 3308, 3386, 3519, 3869, 3919, 4452, 5335, 5787, 10783, 10817, 11717, 12016, 12116]}, "edge": {"target": [], "time": []}}}, "displayed_time": "10.38", "trialTime": 12274, "trial_type": "mouselab-mdp", "trial_index": 32, "time_elapsed": 1165989, "internal_node_id": "0.0-4.0-1.0-17.0"}}, {"uniqueid": "w56805207:a19273721", "current_trial": 33, "dateTime": 1664465351655, "trialdata": {"revealed_states": [], "num_clicks_accrued": [0, 0, 0, 0, 0, 0, 0, 0, 0, 0, 0, 0, 0], "stateRewards": ["", -4, 4, -24, 24, -2, -4, 48, 24, 2, 8, -48, 24], "withholdReward": true, "trial_id": "mdp_150340189492", "block": "test1", "trialIndex": 22, "score": 45.75, "costs": -1.25, "simulationMode": [null, null, null], "rewards": [-2, -4, 48], "path": ["0", "0", "5", "6", "7"], "rt": [4542, 322, 192], "actions": ["right", "right", "up"], "actionTimes": [29521, 30361, 31065], "queries": {"click": {"state": {"target": ["11", "7", "8", "6", "5"], "time": [25676, 26940, 27580, 27964, 28300]}, "edge": {"target": [], "time": []}}, "mouseover": {"state": {"target": ["0", "9", "11", "7", "6", "8", "8", "6", "5"], "time": [25238, 25322, 25555, 26732, 27139, 27271, 27475, 27821, 28119]}, "edge": {"target": [], "time": []}}, "mouseout": {"state": {"target": ["8", "6", "5", "0", "9", "11", "7", "6", "8", "8", "6", "5", "6"], "time": [462, 23939, 23988, 25255, 25373, 25827, 27106, 27222, 27354, 27771, 28086, 28504, 28587]}, "edge": {"target": [], "time": []}}}, "displayed_time": "32.98", "trialTime": 34498, "trial_type": "mouselab-mdp", "trial_index": 33, "time_elapsed": 1200567, "internal_node_id": "0.0-4.0-1.0-18.0"}}, {"uniqueid": "w56805207:a19273721", "current_trial": 34, "dateTime": 1664465371253, "trialdata": {"revealed_states": [], "num_clicks_accrued": [0, 0, 0, 0, 0, 0, 0, 0, 0, 0, 0, 0, 0], "stateRewards": ["", 2, -8, 24, 24, 4, -4, -24, -48, 4, 8, 24, 24], "withholdReward": true, "trial_id": "mdp_249803813713", "block": "test1", "trialIndex": 23, "score": 39.25, "costs": -1.75, "simulationMode": [null, null, null], "rewards": [4, 8, 24], "path": ["0", "0", "9", "10", "11"], "rt": [5820, 198, 177], "actions": ["left", "left", "up"], "actionTimes": [14805, 15517, 16213], "queries": {"click": {"state": {"target": ["11", "3", "4", "1", "2", "10", "9"], "time": [10017, 10784, 11448, 12056, 12400, 13216, 13608]}, "edge": {"target": [], "time": []}}, "mouseover": {"state": {"target": ["9", "11", "2", "3", "2", "4", "1", "2", "7", "10", "9", "0"], "time": [9403, 9919, 10386, 10552, 11085, 11285, 11919, 12251, 12851, 13051, 13401, 13751]}, "edge": {"target": [], "time": []}}, "mouseout": {"state": {"target": ["0", "9", "11", "2", "3", "2", "4", "1", "2", "3", "7", "11", "10", "9", "0"], "time": [9385, 9436, 10248, 10435, 11051, 11223, 11751, 12218, 12634, 12668, 12868, 12951, 13368, 13733, 13768]}, "edge": {"target": [], "time": []}}}, "displayed_time": "17.99", "trialTime": 19517, "trial_type": "mouselab-mdp", "trial_index": 34, "time_elapsed": 1220165, "internal_node_id": "0.0-4.0-1.0-19.0"}}, {"uniqueid": "w56805207:a19273721", "current_trial": 35, "dateTime": 1664465383182, "trialdata": {"revealed_states": [], "num_clicks_accrued": [0, 0, 0, 0, 0, 0, 0, 0, 0, 0, 0, 0, 0], "stateRewards": ["", -4, -8, -48, 48, -2, -8, -48, -24, 4, 8, 24, -48], "withholdReward": true, "trial_id": "mdp_509977295685", "block": "test1", "trialIndex": 24, "score": 39, "costs": -2, "simulationMode": [null, null, null], "rewards": [-4, -8, 48], "path": ["0", "0", "1", "2", "4"], "rt": [6647, 293, 29], "actions": ["up", "up", "left"], "actionTimes": [8510, 9318, 9870], "queries": {"click": {"state": {"target": ["7", "11", "12", "8", "3", "4", "1", "2"], "time": [2777, 3481, 4065, 4753, 5529, 5993, 6884, 7329]}, "edge": {"target": [], "time": []}}, "mouseover": {"state": {"target": ["5", "6", "7", "7", "1", "11", "10", "12", "8", "5", "3", "2", "4", "2", "1", "2"], "time": [2107, 2142, 2424, 2624, 3007, 3374, 3707, 3939, 4656, 5057, 5439, 5724, 5873, 6372, 6655, 7189]}, "edge": {"target": [], "time": []}}, "mouseout": {"state": {"target": ["5", "0", "5", "6", "7", "7", "1", "11", "10", "12", "8", "5", "3", "2", "4", "2", "1", "2"], "time": [1274, 2074, 2124, 2157, 2457, 2940, 3041, 3656, 3857, 4207, 5023, 5073, 5689, 5822, 6324, 6405, 7022, 7523]}, "edge": {"target": [], "time": []}}}, "displayed_time": "10.44", "trialTime": 11854, "trial_type": "mouselab-mdp", "trial_index": 35, "time_elapsed": 1232093, "internal_node_id": "0.0-4.0-1.0-20.0"}}, {"uniqueid": "w56805207:a19273721", "current_trial": 36, "dateTime": 1664465396653, "trialdata": {"revealed_states": [], "num_clicks_accrued": [0, 0, 0, 0, 0, 0, 0, 0, 0, 0, 0, 0, 0], "stateRewards": ["", -4, -4, 24, 48, 4, -4, -24, 24, -4, -4, 24, 24], "withholdReward": false, "trial_id": "mdp_357725458160", "block": "test1", "trialIndex": 25, "score": 42.75, "costs": -2.25, "simulationMode": [null, null, null], "rewards": [-4, -4, 48], "path": ["0", "0", "1", "2", "4"], "rt": [7433, 102, 182], "actions": ["up", "up", "left"], "actionTimes": [10275, 10899, 11595], "queries": {"click": {"state": {"target": ["7", "11", "12", "9", "10", "3", "4", "2", "1"], "time": [4558, 5254, 5750, 6430, 6678, 7550, 7942, 8405, 9222]}, "edge": {"target": [], "time": []}}, "mouseover": {"state": {"target": ["1", "2", "3", "3", "7", "11", "10", "12", "9", "10", "1", "2", "3", "2", "4", "2", "1"], "time": [3647, 3763, 3847, 4029, 4430, 5129, 5446, 5528, 6146, 6564, 7111, 7178, 7345, 7660, 7794, 8262, 9061]}, "edge": {"target": [], "time": []}}, "mouseout": {"state": {"target": ["8", "0", "1", "2", "3", "3", "7", "11", "10", "12", "9", "10", "9", "1", "2", "3", "2", "4", "2", "3", "7", "1", "7"], "time": [2396, 2712, 3664, 3814, 3897, 4080, 4781, 5429, 5480, 6079, 6545, 6911, 6995, 7162, 7285, 7644, 7693, 8144, 8546, 8594, 8795, 9310, 9361]}, "edge": {"target": [], "time": []}}}, "displayed_time": "12.11", "trialTime": 13402, "trial_type": "mouselab-mdp", "trial_index": 36, "time_elapsed": 1245565, "internal_node_id": "0.0-4.0-1.0-21.0"}}, {"uniqueid": "w56805207:a19273721", "current_trial": 37, "dateTime": 1664465409054, "trialdata": {"revealed_states": [], "num_clicks_accrued": [0, 0, 0, 0, 0, 0, 0, 0, 0, 0, 0, 0, 0], "stateRewards": ["", 2, 4, 48, 48, -2, 4, 48, -24, -4, 8, -48, 48], "withholdReward": true, "trial_id": "mdp_407586865939", "block": "test1", "trialIndex": 26, "score": 53.5, "costs": -1.5, "simulationMode": [null, null, null], "rewards": [-2, 4, 48], "path": ["0", "0", "5", "6", "7"], "rt": [4380, 197, 209], "actions": ["right", "right", "up"], "actionTimes": [7340, 8043, 8771], "queries": {"click": {"state": {"target": ["9", "11", "7", "8", "6", "5"], "time": [3575, 4167, 5022, 5526, 5974, 6278]}, "edge": {"target": [], "time": []}}, "mouseover": {"state": {"target": ["9", "10", "11", "7", "7", "6", "8", "6", "5"], "time": [3362, 3847, 3996, 4495, 4862, 5179, 5313, 5812, 6127]}, "edge": {"target": [], "time": []}}, "mouseout": {"state": {"target": ["6", "5", "0", "9", "10", "11", "7", "7", "6", "8", "6", "5"], "time": [2213, 2312, 3329, 3813, 3946, 4329, 4595, 5162, 5229, 5745, 6094, 6427]}, "edge": {"target": [], "time": []}}}, "displayed_time": "10.96", "trialTime": 12325, "trial_type": "mouselab-mdp", "trial_index": 37, "time_elapsed": 1257966, "internal_node_id": "0.0-4.0-1.0-22.0"}}, {"uniqueid": "w56805207:a19273721", "current_trial": 38, "dateTime": 1664465421725, "trialdata": {"revealed_states": [], "num_clicks_accrued": [0, 0, 0, 0, 0, 0, 0, 0, 0, 0, 0, 0, 0], "stateRewards": ["", -2, 4, -24, -24, -2, 4, 48, 24, -4, -8, 24, -48], "withholdReward": false, "trial_id": "mdp_191839460481", "block": "test1", "trialIndex": 27, "score": 53, "costs": -2, "simulationMode": [null, null, null], "rewards": [-2, 4, 48], "path": ["0", "0", "5", "6", "7"], "rt": [5416, 53, 110], "actions": ["right", "right", "up"], "actionTimes": [6419, 6987, 7611], "queries": {"click": {"state": {"target": ["3", "4", "11", "12", "7", "8", "6", "5"], "time": [1798, 2247, 2790, 3262, 4022, 4422, 4910, 5486]}, "edge": {"target": [], "time": []}}, "mouseover": {"state": {"target": ["1", "3", "2", "4", "11", "10", "12", "6", "7", "6", "8", "6", "5", "5"], "time": [1384, 1702, 2001, 2034, 2569, 2934, 3117, 3667, 3900, 4167, 4250, 4783, 5032, 5282]}, "edge": {"target": [], "time": []}}, "mouseout": {"state": {"target": ["0", "1", "3", "2", "4", "11", "10", "12", "6", "7", "6", "8", "6", "5", "5"], "time": [1333, 1417, 1985, 2019, 2517, 2899, 2969, 3484, 3833, 4133, 4200, 4750, 5017, 5067, 5598]}, "edge": {"target": [], "time": []}}}, "displayed_time": "10.00", "trialTime": 12587, "trial_type": "mouselab-mdp", "trial_index": 38, "time_elapsed": 1270636, "internal_node_id": "0.0-4.0-1.0-23.0"}}, {"uniqueid": "w56805207:a19273721", "current_trial": 39, "dateTime": 1664465434548, "trialdata": {"revealed_states": [], "num_clicks_accrued": [0, 0, 0, 0, 0, 0, 0, 0, 0, 0, 0, 0, 0], "stateRewards": ["", 4, -8, 24, 48, -2, -4, -48, 24, 2, 4, -48, -24], "withholdReward": false, "trial_id": "mdp_749974461966", "block": "test1", "trialIndex": 28, "score": 47.5, "costs": -1.5, "simulationMode": [null, null, null], "rewards": [4, -8, 48], "path": ["0", "0", "1", "2", "4"], "rt": [5858, 201, 76], "actions": ["up", "up", "left"], "actionTimes": [7978, 8690, 9282], "queries": {"click": {"state": {"target": ["7", "11", "12", "3", "4", "1"], "time": [2966, 4077, 4632, 5373, 5821, 6838]}, "edge": {"target": [], "time": []}}, "mouseover": {"state": {"target": ["0", "7", "7", "6", "8", "11", "10", "12", "9", "1", "3", "3", "2", "4", "2", "1"], "time": [2493, 2656, 2838, 3172, 3706, 3839, 4239, 4356, 4873, 4905, 4957, 5238, 5506, 5655, 5989, 6338]}, "edge": {"target": [], "time": []}}, "mouseout": {"state": {"target": ["5", "9", "0", "0", "7", "7", "6", "8", "11", "10", "12", "9", "1", "3", "3", "2", "4", "2", "1", "0", "9"], "time": [1739, 1907, 2261, 2506, 2723, 3139, 3639, 3772, 4205, 4305, 4855, 4889, 4924, 4990, 5488, 5622, 5973, 6272, 7038, 10171, 10204]}, "edge": {"target": [], "time": []}}}, "displayed_time": "11.12", "trialTime": 12754, "trial_type": "mouselab-mdp", "trial_index": 39, "time_elapsed": 1283460, "internal_node_id": "0.0-4.0-1.0-24.0"}}, {"uniqueid": "w56805207:a19273721", "current_trial": 40, "dateTime": 1664465448813, "trialdata": {"revealed_states": [], "num_clicks_accrued": [0, 0, 0, 0, 0, 0, 0, 0, 0, 0, 0, 0, 0], "stateRewards": ["", 2, 8, 48, 24, 2, 8, 48, 48, -2, -4, -24, -48], "withholdReward": false, "trial_id": "mdp_717636349175", "block": "test1", "trialIndex": 29, "score": 62.75, "costs": -0.25, "simulationMode": [null, null, null], "rewards": [2, 8, 48], "path": ["0", "0", "5", "6", "7"], "rt": [2440, 85, 142], "actions": ["right", "right", "up"], "actionTimes": [3692, 4292, 4948], "queries": {"click": {"state": {"target": ["7"], "time": [2255]}, "edge": {"target": [], "time": []}}, "mouseover": {"state": {"target": ["5", "7"], "time": [1722, 2072]}, "edge": {"target": [], "time": []}}, "mouseout": {"state": {"target": ["0", "5", "7", "7"], "time": [1711, 1738, 2390, 6705]}, "edge": {"target": [], "time": []}}}, "displayed_time": "9.25", "trialTime": 14188, "trial_type": "mouselab-mdp", "trial_index": 40, "time_elapsed": 1297725, "internal_node_id": "0.0-4.0-1.0-25.0"}}, {"uniqueid": "w56805207:a19273721", "current_trial": 41, "dateTime": 1664465458628, "trialdata": {"revealed_states": [], "num_clicks_accrued": [0, 0, 0, 0, 0, 0, 0, 0, 0, 0, 0, 0, 0], "stateRewards": ["", 2, 4, 48, -48, 2, -4, 48, 24, -2, -8, -24, 48], "withholdReward": true, "trial_id": "mdp_962424406744", "block": "test1", "trialIndex": 30, "score": 42, "costs": -1, "simulationMode": [null, null, null], "rewards": [-2, -8, 48], "path": ["0", "0", "9", "10", "12"], "rt": [4447, 137, 511], "actions": ["left", "left", "down"], "actionTimes": [5456, 6104, 7128], "queries": {"click": {"state": {"target": ["11", "12", "9", "10"], "time": [2011, 2507, 3748, 4019]}, "edge": {"target": [], "time": []}}, "mouseover": {"state": {"target": ["1", "1", "11", "10", "12", "7", "5", "9", "9", "10"], "time": [1433, 1684, 1866, 2232, 2317, 2833, 3267, 3300, 3615, 3899]}, "edge": {"target": [], "time": []}}, "mouseout": {"state": {"target": ["0", "1", "1", "11", "10", "12", "7", "5", "9", "9", "10"], "time": [1399, 1484, 1699, 2199, 2283, 2699, 3232, 3282, 3333, 3883, 4197]}, "edge": {"target": [], "time": []}}}, "displayed_time": "8.01", "trialTime": 9736, "trial_type": "mouselab-mdp", "trial_index": 41, "time_elapsed": 1307540, "internal_node_id": "0.0-4.0-1.0-26.0"}}, {"uniqueid": "w56805207:a19273721", "current_trial": 42, "dateTime": 1664465537828, "trialdata": {"revealed_states": [], "num_clicks_accrued": [0, 0, 0, 0, 0, 0, 0, 0, 0, 0, 0, 0, 0], "stateRewards": ["", 4, -4, 48, -48, -2, -8, -24, 48, -2, 4, 24, -24], "withholdReward": true, "trial_id": "mdp_507290896735", "block": "test1", "trialIndex": 31, "score": 51.75, "costs": -1.25, "simulationMode": [null, null, null], "rewards": [4, -4, 48], "path": ["0", "0", "1", "2", "3"], "rt": [4634, 103, 191], "actions": ["up", "up", "right"], "actionTimes": [7380, 8004, 8708], "queries": {"click": {"state": {"target": ["7", "11", "12", "3", "4"], "time": [3785, 4558, 5079, 5887, 6175]}, "edge": {"target": [], "time": []}}, "mouseover": {"state": {"target": ["5", "6", "7", "7", "6", "8", "11", "10", "12", "1", "2", "3", "2", "4", "2"], "time": [2901, 2951, 3085, 3671, 4034, 4133, 4266, 4733, 4884, 5533, 5617, 5733, 5999, 6032, 6417]}, "edge": {"target": [], "time": []}}, "mouseout": {"state": {"target": ["8", "0", "5", "6", "7", "7", "6", "8", "11", "10", "12", "1", "2", "3", "2", "4", "2", "7", "6", "8", "8", "5", "0", "7", "8"], "time": [1785, 2885, 2933, 3018, 3251, 4000, 4085, 4166, 4666, 4766, 5399, 5566, 5666, 5982, 6015, 6383, 6449, 6516, 10649, 40538, 40771, 41506, 41689, 49186, 49319]}, "edge": {"target": [], "time": []}}}, "displayed_time": "11.75", "trialTime": 79124, "trial_type": "mouselab-mdp", "trial_index": 42, "time_elapsed": 1386740, "internal_node_id": "0.0-4.0-1.0-27.0"}}, {"uniqueid": "w56805207:a19273721", "current_trial": 43, "dateTime": 1664465552204, "trialdata": {"revealed_states": [], "num_clicks_accrued": [0, 0, 0, 0, 0, 0, 0, 0, 0, 0, 0, 0, 0], "stateRewards": ["", 4, -8, -48, 24, 4, 4, -24, -24, 2, 4, -48, 24], "withholdReward": true, "trial_id": "mdp_626971397185", "block": "test1", "trialIndex": 32, "score": 34, "costs": -1, "simulationMode": [null, null, null], "rewards": [2, 4, 24], "path": ["0", "0", "9", "10", "12"], "rt": [4807, 143, 102], "actions": ["left", "left", "down"], "actionTimes": [10203, 10858, 11482], "queries": {"click": {"state": {"target": ["7", "8", "11", "12"], "time": [6653, 7317, 7893, 8693]}, "edge": {"target": [], "time": []}}, "mouseover": {"state": {"target": ["0", "6", "7", "6", "8", "9", "11", "10", "12", "12", "9", "1", "3"], "time": [5547, 6213, 6465, 6814, 6948, 7513, 7580, 8081, 8180, 8479, 8846, 8897, 9214]}, "edge": {"target": [], "time": []}}, "mouseout": {"state": {"target": ["7", "0", "0", "6", "7", "6", "8", "9", "11", "10", "12", "12", "9", "1"], "time": [3764, 4931, 5582, 6231, 6798, 6864, 7412, 7546, 8048, 8129, 8197, 8811, 8863, 8930]}, "edge": {"target": [], "time": []}}}, "displayed_time": "13.40", "trialTime": 14290, "trial_type": "mouselab-mdp", "trial_index": 43, "time_elapsed": 1401115, "internal_node_id": "0.0-4.0-1.0-28.0"}}, {"uniqueid": "w56805207:a19273721", "current_trial": 44, "dateTime": 1664465566475, "trialdata": {"revealed_states": [], "num_clicks_accrued": [0, 0, 0, 0, 0, 0, 0, 0, 0, 0, 0, 0, 0], "stateRewards": ["", -2, 8, -48, -24, -2, 8, 48, -48, -4, 8, 24, 48], "withholdReward": true, "trial_id": "mdp_160707003673", "block": "test1", "trialIndex": 33, "score": 58.75, "costs": -0.25, "simulationMode": [null, null, null], "rewards": [-2, 8, 48], "path": ["0", "0", "5", "6", "7"], "rt": [2121, 32, 602], "actions": ["right", "right", "up"], "actionTimes": [5922, 6465, 7585], "queries": {"click": {"state": {"target": ["7"], "time": [4797]}, "edge": {"target": [], "time": []}}, "mouseover": {"state": {"target": ["5", "6", "7", "6", "8"], "time": [4366, 4385, 4599, 4982, 5050]}, "edge": {"target": [], "time": []}}, "mouseout": {"state": {"target": ["3", "0", "5", "6", "7", "6", "8", "6", "5"], "time": [3035, 4350, 4383, 4416, 4934, 5033, 9430, 10197, 13180]}, "edge": {"target": [], "time": []}}}, "displayed_time": "12.80", "trialTime": 14185, "trial_type": "mouselab-mdp", "trial_index": 44, "time_elapsed": 1415387, "internal_node_id": "0.0-4.0-1.0-29.0"}}, {"uniqueid": "w56805207:a19273721", "current_trial": 45, "dateTime": 1664465739733, "trialdata": {"rt": 173251, "stimulus": "<h1> End of block! </h1>\n\nYou have reached the end of the block 1/4. If you need a short break, feel free to take one now before moving on.\n\n<br><br>\nIn the next block, you will complete another 30 rounds of this game.\n\n<br><br>\n<div style='text-align: center;'>Press <code>space</code> to begin.</div>\n<br><br>\n<div style='text-align: center;'>(If the experiment doesn't continue, try clicking on the text and then pressing <code>space</code>.)</div>", "response": " ", "trial_id": "mdp_ready_2", "trial_type": "html-keyboard-response", "trial_index": 45, "time_elapsed": 1588645, "internal_node_id": "0.0-4.0-2.0"}}, {"uniqueid": "w56805207:a19273721", "current_trial": 46, "dateTime": 1664465757434, "trialdata": {"revealed_states": [], "num_clicks_accrued": [0, 0, 0, 0, 0, 0, 0, 0, 0, 0, 0, 0, 0], "stateRewards": ["", -2, 8, -24, 48, -4, 4, -48, 24, 4, -8, 48, -24], "withholdReward": false, "trial_id": "mdp_425320427962", "block": "test2", "trialIndex": 34, "score": 48.5, "costs": -0.5, "simulationMode": [null, null, null], "rewards": [4, -8, 48], "path": ["0", "0", "9", "10", "11"], "rt": [3436, 107, 324], "actions": ["left", "left", "up"], "actionTimes": [6975, 7591, 8423], "queries": {"click": {"state": {"target": ["7", "11"], "time": [4506, 5826]}, "edge": {"target": [], "time": []}}, "mouseover": {"state": {"target": ["7", "8", "10", "11", "11", "10", "12"], "time": [4433, 5033, 5349, 5431, 5664, 6014, 6114]}, "edge": {"target": [], "time": []}}, "mouseout": {"state": {"target": ["2", "0", "7", "8", "10", "11", "11", "10", "12"], "time": [2864, 3998, 4814, 5098, 5399, 5448, 5981, 6065, 6314]}, "edge": {"target": [], "time": []}}}, "displayed_time": "11.54", "trialTime": 17623, "trial_type": "mouselab-mdp", "trial_index": 46, "time_elapsed": 1606346, "internal_node_id": "0.0-4.0-3.0-0.0"}}, {"uniqueid": "w56805207:a19273721", "current_trial": 47, "dateTime": 1664465771618, "trialdata": {"revealed_states": [], "num_clicks_accrued": [0, 0, 0, 0, 0, 0, 0, 0, 0, 0, 0, 0, 0], "stateRewards": ["", 2, 8, 48, -24, -4, 4, 48, 24, -2, 8, 24, 24], "withholdReward": false, "trial_id": "mdp_123436106791", "block": "test2", "trialIndex": 35, "score": 52.75, "costs": -0.25, "simulationMode": [null, null, null], "rewards": [-4, 4, 48], "path": ["0", "0", "5", "6", "7"], "rt": [3103, 106, 99], "actions": ["right", "right", "up"], "actionTimes": [4830, 5454, 6061], "queries": {"click": {"state": {"target": ["7"], "time": [2313]}, "edge": {"target": [], "time": []}}, "mouseover": {"state": {"target": ["7", "6"], "time": [2080, 2447]}, "edge": {"target": [], "time": []}}, "mouseout": {"state": {"target": ["0", "7", "6"], "time": [2017, 2429, 2479]}, "edge": {"target": [], "time": []}}}, "displayed_time": "9.73", "trialTime": 14110, "trial_type": "mouselab-mdp", "trial_index": 47, "time_elapsed": 1620530, "internal_node_id": "0.0-4.0-3.0-1.0"}}, {"uniqueid": "w56805207:a19273721", "current_trial": 48, "dateTime": 1664465786810, "trialdata": {"revealed_states": [], "num_clicks_accrued": [0, 0, 0, 0, 0, 0, 0, 0, 0, 0, 0, 0, 0], "stateRewards": ["", 2, 8, -48, 48, -4, -8, 24, 24, -2, -8, 24, -24], "withholdReward": true, "trial_id": "mdp_910248289075", "block": "test2", "trialIndex": 36, "score": 62, "costs": -1, "simulationMode": [null, null, null], "rewards": [2, 8, 48], "path": ["0", "0", "1", "2", "4"], "rt": [8321, 40, 837], "actions": ["up", "up", "left"], "actionTimes": [11436, 11995, 13356], "queries": {"click": {"state": {"target": ["3", "12", "11", "4"], "time": [3703, 4775, 5406, 6038]}, "edge": {"target": [], "time": []}}, "mouseover": {"state": {"target": ["1", "3", "4", "11", "10", "12", "10", "11", "4", "6"], "time": [3422, 3488, 4088, 4321, 4372, 4587, 5138, 5205, 5805, 6205]}, "edge": {"target": [], "time": []}}, "mouseout": {"state": {"target": ["0", "1", "3", "4", "11", "10", "12", "10", "11", "4", "6"], "time": [2923, 3440, 3855, 4105, 4356, 4421, 5071, 5189, 5572, 6153, 6254]}, "edge": {"target": [], "time": []}}}, "displayed_time": "13.87", "trialTime": 15115, "trial_type": "mouselab-mdp", "trial_index": 48, "time_elapsed": 1635721, "internal_node_id": "0.0-4.0-3.0-2.0"}}, {"uniqueid": "w56805207:a19273721", "current_trial": 49, "dateTime": 1664465799114, "trialdata": {"revealed_states": [], "num_clicks_accrued": [0, 0, 0, 0, 0, 0, 0, 0, 0, 0, 0, 0, 0], "stateRewards": ["", -4, 8, -24, 24, -2, -8, 24, -24, 4, -4, -48, 48], "withholdReward": true, "trial_id": "mdp_297684722007", "block": "test2", "trialIndex": 37, "score": 18.75, "costs": -0.25, "simulationMode": [null, null, null], "rewards": [-2, -8, 24], "path": ["0", "0", "5", "6", "7"], "rt": [2344, 125, 362], "actions": ["right", "right", "up"], "actionTimes": [3836, 4476, 5348], "queries": {"click": {"state": {"target": ["7"], "time": [2159]}, "edge": {"target": [], "time": []}}, "mouseover": {"state": {"target": ["7"], "time": [1986]}, "edge": {"target": [], "time": []}}, "mouseout": {"state": {"target": ["6", "5", "0", "7"], "time": [1117, 1269, 1784, 2318]}, "edge": {"target": [], "time": []}}}, "displayed_time": "10.49", "trialTime": 12220, "trial_type": "mouselab-mdp", "trial_index": 49, "time_elapsed": 1648026, "internal_node_id": "0.0-4.0-3.0-3.0"}}, {"uniqueid": "w56805207:a19273721", "current_trial": 50, "dateTime": 1664465878561, "trialdata": {"revealed_states": [], "num_clicks_accrued": [0, 0, 0, 0, 0, 0, 0, 0, 0, 0, 0, 0, 0], "stateRewards": ["", 2, -8, 24, -24, -2, 8, -48, -48, 2, -8, -24, -48], "withholdReward": true, "trial_id": "mdp_744278669205", "block": "test2", "trialIndex": 38, "score": 21.5, "costs": -1.5, "simulationMode": [null, null, null], "rewards": [2, -8, 24], "path": ["0", "0", "1", "2", "3"], "rt": [5389, 115, 114], "actions": ["up", "up", "right"], "actionTimes": [75427, 76059, 76691], "queries": {"click": {"state": {"target": ["7", "11", "12", "8", "3", "4"], "time": [70679, 71494, 72110, 73118, 73998, 74446]}, "edge": {"target": [], "time": []}}, "mouseover": {"state": {"target": ["0", "7", "1", "11", "12", "12", "8", "5", "3", "2", "4", "2"], "time": [70328, 70477, 70993, 71345, 71793, 71993, 72822, 73577, 73843, 74144, 74277, 74595]}, "edge": {"target": [], "time": []}}, "mouseout": {"state": {"target": ["8", "0", "0", "7", "1", "11", "12", "12", "8", "5", "3", "2", "4", "2", "3", "8"], "time": [69644, 70212, 70344, 70894, 71029, 71677, 71811, 72260, 73560, 73595, 74126, 74176, 74593, 74610, 74627, 78409]}, "edge": {"target": [], "time": []}}}, "displayed_time": "78.04", "trialTime": 79371, "trial_type": "mouselab-mdp", "trial_index": 50, "time_elapsed": 1727473, "internal_node_id": "0.0-4.0-3.0-4.0"}}, {"uniqueid": "w56805207:a19273721", "current_trial": 51, "dateTime": 1664465888881, "trialdata": {"revealed_states": [], "num_clicks_accrued": [0, 0, 0, 0, 0, 0, 0, 0, 0, 0, 0, 0, 0], "stateRewards": ["", 2, 4, -48, 48, -4, 8, -48, -24, -4, -4, 48, 48], "withholdReward": true, "trial_id": "mdp_613582696541", "block": "test2", "trialIndex": 39, "score": 44.75, "costs": -0.25, "simulationMode": [null, null, null], "rewards": [-4, -4, 48], "path": ["0", "0", "9", "10", "11"], "rt": [2445, 405, 135], "actions": ["left", "left", "up"], "actionTimes": [4404, 5316, 5964], "queries": {"click": {"state": {"target": ["11"], "time": [2551]}, "edge": {"target": [], "time": []}}, "mouseover": {"state": {"target": ["11", "5", "6"], "time": [2444, 3011, 3029]}, "edge": {"target": [], "time": []}}, "mouseout": {"state": {"target": ["11", "5", "6"], "time": [2695, 3027, 3060]}, "edge": {"target": [], "time": []}}}, "displayed_time": "8.96", "trialTime": 10244, "trial_type": "mouselab-mdp", "trial_index": 51, "time_elapsed": 1737793, "internal_node_id": "0.0-4.0-3.0-5.0"}}, {"uniqueid": "w56805207:a19273721", "current_trial": 52, "dateTime": 1664465900441, "trialdata": {"revealed_states": [], "num_clicks_accrued": [0, 0, 0, 0, 0, 0, 0, 0, 0, 0, 0, 0, 0], "stateRewards": ["", 4, 4, 48, -48, -2, -8, -48, -24, 2, 4, -24, -48], "withholdReward": true, "trial_id": "mdp_239929662917", "block": "test2", "trialIndex": 40, "score": 59.5, "costs": -1.5, "simulationMode": [null, null, null], "rewards": [4, 4, 48], "path": ["0", "0", "1", "2", "3"], "rt": [4581, 88, 183], "actions": ["up", "up", "right"], "actionTimes": [5908, 6508, 7204], "queries": {"click": {"state": {"target": ["7", "11", "12", "8", "3", "4"], "time": [1944, 2679, 3119, 3887, 4583, 5127]}, "edge": {"target": [], "time": []}}, "mouseover": {"state": {"target": ["7", "6", "4", "11", "12", "8", "3", "2", "4", "2"], "time": [1721, 2187, 2371, 2553, 2969, 3736, 4470, 4722, 4886, 5269]}, "edge": {"target": [], "time": []}}, "mouseout": {"state": {"target": ["6", "5", "7", "6", "4", "11", "12", "8", "3", "2", "4", "2", "3", "5"], "time": [870, 1119, 2136, 2253, 2437, 2836, 3369, 4137, 4720, 4753, 5235, 5303, 9933, 9984]}, "edge": {"target": [], "time": []}}}, "displayed_time": "10.33", "trialTime": 11484, "trial_type": "mouselab-mdp", "trial_index": 52, "time_elapsed": 1749352, "internal_node_id": "0.0-4.0-3.0-6.0"}}, {"uniqueid": "w56805207:a19273721", "current_trial": 53, "dateTime": 1664465910553, "trialdata": {"revealed_states": [], "num_clicks_accrued": [0, 0, 0, 0, 0, 0, 0, 0, 0, 0, 0, 0, 0], "stateRewards": ["", -2, 4, -48, -48, 4, 4, 48, -48, 2, 8, 24, 48], "withholdReward": false, "trial_id": "mdp_686771069745", "block": "test2", "trialIndex": 41, "score": 62, "costs": -1, "simulationMode": [null, null, null], "rewards": [2, 8, 48], "path": ["0", "0", "9", "10", "12"], "rt": [5334, 176, 275], "actions": ["left", "left", "down"], "actionTimes": [6481, 7161, 7945], "queries": {"click": {"state": {"target": ["11", "3", "4", "12"], "time": [1748, 4164, 4788, 5620]}, "edge": {"target": [], "time": []}}, "mouseover": {"state": {"target": ["9", "11", "5", "12", "12", "8", "6", "7", "3", "2", "4", "1", "10", "12"], "time": [1235, 1603, 2070, 2369, 2719, 3003, 3119, 3319, 4068, 4420, 4587, 5168, 5286, 5452]}, "edge": {"target": [], "time": []}}, "mouseout": {"state": {"target": ["0", "9", "11", "5", "12", "12", "8", "6", "7", "3", "2", "4", "1", "10", "12"], "time": [1202, 1287, 1886, 2119, 2387, 2819, 3103, 3154, 3786, 4402, 4501, 4936, 5219, 5419, 5734]}, "edge": {"target": [], "time": []}}}, "displayed_time": "9.15", "trialTime": 10033, "trial_type": "mouselab-mdp", "trial_index": 53, "time_elapsed": 1759464, "internal_node_id": "0.0-4.0-3.0-7.0"}}, {"uniqueid": "w56805207:a19273721", "current_trial": 54, "dateTime": 1664465925536, "trialdata": {"revealed_states": [], "num_clicks_accrued": [0, 0, 0, 0, 0, 0, 0, 0, 0, 0, 0, 0, 0], "stateRewards": ["", 4, -4, 48, -48, 4, -4, 24, -24, 4, 8, -24, -48], "withholdReward": false, "trial_id": "mdp_433630527224", "block": "test2", "trialIndex": 42, "score": 28.25, "costs": -0.75, "simulationMode": [null, null, null], "rewards": [4, -4, 24], "path": ["0", "0", "5", "6", "7"], "rt": [3708, 92, 137], "actions": ["right", "right", "up"], "actionTimes": [5136, 5744, 6391], "queries": {"click": {"state": {"target": ["11", "7", "8"], "time": [2819, 3595, 4091]}, "edge": {"target": [], "time": []}}, "mouseover": {"state": {"target": ["11", "11", "10", "12", "5", "7", "6", "8"], "time": [2336, 2636, 3086, 3169, 3303, 3353, 3836, 3919]}, "edge": {"target": [], "time": []}}, "mouseout": {"state": {"target": ["0", "11", "11", "10", "12", "5", "7", "6", "8"], "time": [1836, 2387, 2987, 3136, 3219, 3319, 3786, 3869, 4302]}, "edge": {"target": [], "time": []}}}, "displayed_time": "10.43", "trialTime": 14904, "trial_type": "mouselab-mdp", "trial_index": 54, "time_elapsed": 1774448, "internal_node_id": "0.0-4.0-3.0-8.0"}}, {"uniqueid": "w56805207:a19273721", "current_trial": 55, "dateTime": 1664465937265, "trialdata": {"revealed_states": [], "num_clicks_accrued": [0, 0, 0, 0, 0, 0, 0, 0, 0, 0, 0, 0, 0], "stateRewards": ["", 2, 4, -48, -24, -4, 4, -24, 24, -2, -8, -24, 24], "withholdReward": false, "trial_id": "mdp_640720803523", "block": "test2", "trialIndex": 43, "score": 18.5, "costs": -0.5, "simulationMode": [null, null, null], "rewards": [-2, -8, 24], "path": ["0", "0", "9", "10", "12"], "rt": [2681, 97, 81], "actions": ["left", "left", "down"], "actionTimes": [4071, 4679, 5279], "queries": {"click": {"state": {"target": ["3", "12"], "time": [1947, 3018]}, "edge": {"target": [], "time": []}}, "mouseover": {"state": {"target": ["3", "2", "4", "11", "10", "12"], "time": [1881, 2230, 2346, 2697, 2747, 2830]}, "edge": {"target": [], "time": []}}, "mouseout": {"state": {"target": ["8", "0", "3", "2", "4", "11", "10", "12"], "time": [948, 1648, 2129, 2279, 2630, 2715, 2798, 3369]}, "edge": {"target": [], "time": []}}}, "displayed_time": "10.39", "trialTime": 11647, "trial_type": "mouselab-mdp", "trial_index": 55, "time_elapsed": 1786176, "internal_node_id": "0.0-4.0-3.0-9.0"}}, {"uniqueid": "w56805207:a19273721", "current_trial": 56, "dateTime": 1664465958945, "trialdata": {"revealed_states": [], "num_clicks_accrued": [0, 0, 0, 0, 0, 0, 0, 0, 0, 0, 0, 0, 0], "stateRewards": ["", 4, -8, -24, 48, -4, 8, -24, -48, -4, -4, 24, 48], "withholdReward": true, "trial_id": "mdp_282352776624", "block": "test2", "trialIndex": 44, "score": 44.25, "costs": -0.75, "simulationMode": [null, null, null], "rewards": [-4, -4, 48], "path": ["0", "0", "9", "10", "12"], "rt": [2938, 145, 206], "actions": ["left", "left", "down"], "actionTimes": [5656, 6320, 7048], "queries": {"click": {"state": {"target": ["7", "11", "12"], "time": [3302, 4123, 4659]}, "edge": {"target": [], "time": []}}, "mouseover": {"state": {"target": ["5", "7", "6", "8", "11", "10", "12"], "time": [2974, 3174, 3475, 3559, 3992, 4258, 4540]}, "edge": {"target": [], "time": []}}, "mouseout": {"state": {"target": ["7", "3", "5", "7", "6", "8", "11", "10", "12"], "time": [2073, 2240, 2992, 3457, 3522, 3690, 4241, 4290, 4808]}, "edge": {"target": [], "time": []}}}, "displayed_time": "11.72", "trialTime": 21592, "trial_type": "mouselab-mdp", "trial_index": 56, "time_elapsed": 1807856, "internal_node_id": "0.0-4.0-3.0-10.0"}}, {"uniqueid": "w56805207:a19273721", "current_trial": 57, "dateTime": 1664465970681, "trialdata": {"revealed_states": [], "num_clicks_accrued": [0, 0, 0, 0, 0, 0, 0, 0, 0, 0, 0, 0, 0], "stateRewards": ["", -4, 4, 48, 24, -4, 4, -24, 48, -2, -8, 24, -48], "withholdReward": true, "trial_id": "mdp_261501605436", "block": "test2", "trialIndex": 45, "score": 52, "costs": -1, "simulationMode": [null, null, null], "rewards": [-4, 4, 48], "path": ["0", "0", "5", "6", "8"], "rt": [4473, 183, 155], "actions": ["right", "right", "down"], "actionTimes": [6805, 7501, 8173], "queries": {"click": {"state": {"target": ["7", "11", "12", "8"], "time": [2824, 3768, 4248, 5072]}, "edge": {"target": [], "time": []}}, "mouseover": {"state": {"target": ["5", "7", "1", "11", "10", "12", "8"], "time": [2451, 2684, 3150, 3650, 4000, 4133, 4917]}, "edge": {"target": [], "time": []}}, "mouseout": {"state": {"target": ["5", "5", "7", "1", "11", "10", "12", "8"], "time": [2033, 2500, 3117, 3168, 3967, 4050, 4518, 5234]}, "edge": {"target": [], "time": []}}}, "displayed_time": "10.33", "trialTime": 11645, "trial_type": "mouselab-mdp", "trial_index": 57, "time_elapsed": 1819592, "internal_node_id": "0.0-4.0-3.0-11.0"}}, {"uniqueid": "w56805207:a19273721", "current_trial": 58, "dateTime": 1664465981528, "trialdata": {"revealed_states": [], "num_clicks_accrued": [0, 0, 0, 0, 0, 0, 0, 0, 0, 0, 0, 0, 0], "stateRewards": ["", -4, -4, -24, 48, 2, 4, -24, -48, -2, 4, 24, 24], "withholdReward": true, "trial_id": "mdp_360934723192", "block": "test2", "trialIndex": 46, "score": 44.25, "costs": -0.75, "simulationMode": [null, null, null], "rewards": [-4, -4, 48], "path": ["0", "0", "1", "2", "4"], "rt": [3407, 171, 257], "actions": ["up", "up", "left"], "actionTimes": [4868, 5556, 6324], "queries": {"click": {"state": {"target": ["11", "3", "4"], "time": [2223, 2927, 3503]}, "edge": {"target": [], "time": []}}, "mouseover": {"state": {"target": ["11", "3", "2", "4", "10"], "time": [2084, 2870, 3185, 3334, 3751]}, "edge": {"target": [], "time": []}}, "mouseout": {"state": {"target": ["6", "5", "0", "11", "3", "2", "4", "11", "10"], "time": [933, 1183, 1836, 2431, 3169, 3234, 3666, 3734, 3901]}, "edge": {"target": [], "time": []}}}, "displayed_time": "9.46", "trialTime": 10764, "trial_type": "mouselab-mdp", "trial_index": 58, "time_elapsed": 1830440, "internal_node_id": "0.0-4.0-3.0-12.0"}}, {"uniqueid": "w56805207:a19273721", "current_trial": 59, "dateTime": 1664465993591, "trialdata": {"revealed_states": [], "num_clicks_accrued": [0, 0, 0, 0, 0, 0, 0, 0, 0, 0, 0, 0, 0], "stateRewards": ["", 2, 4, 24, 48, -2, 8, 24, -24, -4, -4, 48, 48], "withholdReward": true, "trial_id": "mdp_753439303214", "block": "test2", "trialIndex": 47, "score": 34.25, "costs": -0.75, "simulationMode": [null, null, null], "rewards": [-2, 8, 24], "path": ["0", "0", "5", "6", "7"], "rt": [3099, 104, 249], "actions": ["right", "right", "up"], "actionTimes": [5160, 5777, 6536], "queries": {"click": {"state": {"target": ["7", "8", "3"], "time": [2716, 3460, 4156]}, "edge": {"target": [], "time": []}}, "mouseover": {"state": {"target": ["5", "6", "7", "6", "8", "3"], "time": [2273, 2338, 2670, 3187, 3254, 3922]}, "edge": {"target": [], "time": []}}, "mouseout": {"state": {"target": ["5", "0", "5", "6", "7", "6", "8", "7", "3"], "time": [1837, 1887, 2321, 2404, 2819, 3219, 3653, 3904, 4288]}, "edge": {"target": [], "time": []}}}, "displayed_time": "10.06", "trialTime": 11984, "trial_type": "mouselab-mdp", "trial_index": 59, "time_elapsed": 1842503, "internal_node_id": "0.0-4.0-3.0-13.0"}}, {"uniqueid": "w56805207:a19273721", "current_trial": 60, "dateTime": 1664466023039, "trialdata": {"revealed_states": [], "num_clicks_accrued": [0, 0, 0, 0, 0, 0, 0, 0, 0, 0, 0, 0, 0], "stateRewards": ["", -4, 8, -48, -48, -2, -8, -24, -48, 2, -4, -48, 24], "withholdReward": true, "trial_id": "mdp_743906784415", "block": "test2", "trialIndex": 48, "score": 25.5, "costs": -1.5, "simulationMode": [null, null, null], "rewards": [2, -4, 24], "path": ["0", "0", "9", "10", "12"], "rt": [7709, 141, 19], "actions": ["left", "left", "down"], "actionTimes": [26215, 26871, 27399], "queries": {"click": {"state": {"target": ["3", "12", "11", "8", "7", "4"], "time": [19530, 20522, 21418, 22562, 23130, 23954]}, "edge": {"target": [], "time": []}}, "mouseover": {"state": {"target": ["3", "3", "3", "12", "8", "9", "11", "5", "6", "8", "6", "7", "4", "4", "5"], "time": [18696, 19047, 19379, 20295, 20861, 20995, 21145, 21628, 21913, 22295, 22862, 22911, 23561, 23802, 24444]}, "edge": {"target": [], "time": []}}, "mouseout": {"state": {"target": ["7", "3", "1", "3", "3", "3", "12", "8", "9", "11", "5", "6", "8", "6", "7", "7", "4", "4", "5", "8"], "time": [17781, 17912, 18045, 18812, 19096, 19779, 20680, 20880, 21045, 21562, 21645, 22045, 22811, 22895, 23328, 23511, 23645, 24129, 24462, 24761]}, "edge": {"target": [], "time": []}}}, "displayed_time": "27.93", "trialTime": 29367, "trial_type": "mouselab-mdp", "trial_index": 60, "time_elapsed": 1871951, "internal_node_id": "0.0-4.0-3.0-14.0"}}, {"uniqueid": "w56805207:a19273721", "current_trial": 61, "dateTime": 1664466034391, "trialdata": {"revealed_states": [], "num_clicks_accrued": [0, 0, 0, 0, 0, 0, 0, 0, 0, 0, 0, 0, 0], "stateRewards": ["", 2, -4, 48, 24, 2, 8, 24, 24, -2, 4, 24, 24], "withholdReward": false, "trial_id": "mdp_813974524300", "block": "test2", "trialIndex": 49, "score": 50.75, "costs": -0.25, "simulationMode": [null, null, null], "rewards": [2, -4, 48], "path": ["0", "0", "1", "2", "3"], "rt": [1924, 152, 69], "actions": ["up", "up", "right"], "actionTimes": [3761, 4433, 5017], "queries": {"click": {"state": {"target": ["3"], "time": [2372]}, "edge": {"target": [], "time": []}}, "mouseover": {"state": {"target": ["3", "1"], "time": [2195, 2661]}, "edge": {"target": [], "time": []}}, "mouseout": {"state": {"target": ["8", "5", "3", "1"], "time": [1062, 1162, 2612, 2712]}, "edge": {"target": [], "time": []}}}, "displayed_time": "10.84", "trialTime": 11273, "trial_type": "mouselab-mdp", "trial_index": 61, "time_elapsed": 1883303, "internal_node_id": "0.0-4.0-3.0-15.0"}}, {"uniqueid": "w56805207:a19273721", "current_trial": 62, "dateTime": 1664466044687, "trialdata": {"revealed_states": [], "num_clicks_accrued": [0, 0, 0, 0, 0, 0, 0, 0, 0, 0, 0, 0, 0], "stateRewards": ["", -2, -4, -24, -48, -2, 8, -48, 24, 4, -4, -24, -24], "withholdReward": true, "trial_id": "mdp_915304165774", "block": "test2", "trialIndex": 50, "score": 34, "costs": -1, "simulationMode": [null, null, null], "rewards": [-2, 8, 24], "path": ["0", "0", "5", "6", "8"], "rt": [3738, 97, 425], "actions": ["right", "right", "down"], "actionTimes": [5088, 5703, 6648], "queries": {"click": {"state": {"target": ["12", "3", "8", "11"], "time": [1939, 2699, 3339, 4034]}, "edge": {"target": [], "time": []}}, "mouseover": {"state": {"target": ["9", "12", "3", "7", "6", "8", "11", "11", "1"], "time": [1623, 1738, 2555, 3055, 3088, 3123, 3588, 3906, 4170]}, "edge": {"target": [], "time": []}}, "mouseout": {"state": {"target": ["0", "9", "12", "3", "7", "6", "8", "11", "11", "1"], "time": [1222, 1690, 2089, 2956, 3072, 3105, 3490, 3605, 4137, 4187]}, "edge": {"target": [], "time": []}}}, "displayed_time": "9.35", "trialTime": 10216, "trial_type": "mouselab-mdp", "trial_index": 62, "time_elapsed": 1893599, "internal_node_id": "0.0-4.0-3.0-16.0"}}, {"uniqueid": "w56805207:a19273721", "current_trial": 63, "dateTime": 1664466057407, "trialdata": {"revealed_states": [], "num_clicks_accrued": [0, 0, 0, 0, 0, 0, 0, 0, 0, 0, 0, 0, 0], "stateRewards": ["", 4, 4, 24, -48, 2, -8, -24, -48, 4, 8, 48, 48], "withholdReward": true, "trial_id": "mdp_592471239511", "block": "test2", "trialIndex": 51, "score": 64.75, "costs": -0.25, "simulationMode": [null, null, null], "rewards": [4, 8, 48], "path": ["0", "0", "9", "10", "11"], "rt": [1830, 154, 488], "actions": ["left", "left", "up"], "actionTimes": [3216, 3880, 4881], "queries": {"click": {"state": {"target": ["11"], "time": [1972]}, "edge": {"target": [], "time": []}}, "mouseover": {"state": {"target": ["11", "9"], "time": [1842, 2373]}, "edge": {"target": [], "time": []}}, "mouseout": {"state": {"target": ["6", "5", "5", "11", "9"], "time": [906, 973, 1189, 2125, 2507]}, "edge": {"target": [], "time": []}}}, "displayed_time": "11.39", "trialTime": 12641, "trial_type": "mouselab-mdp", "trial_index": 63, "time_elapsed": 1906319, "internal_node_id": "0.0-4.0-3.0-17.0"}}, {"uniqueid": "w56805207:a19273721", "current_trial": 64, "dateTime": 1664466068312, "trialdata": {"revealed_states": [], "num_clicks_accrued": [0, 0, 0, 0, 0, 0, 0, 0, 0, 0, 0, 0, 0], "stateRewards": ["", 4, -4, 48, -48, -2, -8, -24, 48, -2, 4, 24, -24], "withholdReward": false, "trial_id": "mdp_507290896735", "block": "test2", "trialIndex": 52, "score": 42.75, "costs": -0.25, "simulationMode": [null, null, null], "rewards": [-2, -8, 48], "path": ["0", "0", "5", "6", "8"], "rt": [1829, 83, 260], "actions": ["right", "right", "down"], "actionTimes": [3174, 3773, 4550], "queries": {"click": {"state": {"target": ["8"], "time": [1937]}, "edge": {"target": [], "time": []}}, "mouseover": {"state": {"target": ["5", "6", "8", "6"], "time": [1488, 1607, 1756, 2438]}, "edge": {"target": [], "time": []}}, "mouseout": {"state": {"target": ["0", "5", "6", "8", "8", "6"], "time": [1471, 1521, 1712, 2122, 2290, 2455]}, "edge": {"target": [], "time": []}}}, "displayed_time": "9.35", "trialTime": 10814, "trial_type": "mouselab-mdp", "trial_index": 64, "time_elapsed": 1917223, "internal_node_id": "0.0-4.0-3.0-18.0"}}, {"uniqueid": "w56805207:a19273721", "current_trial": 65, "dateTime": 1664466081751, "trialdata": {"revealed_states": [], "num_clicks_accrued": [0, 0, 0, 0, 0, 0, 0, 0, 0, 0, 0, 0, 0], "stateRewards": ["", 2, -8, 48, -24, 2, 8, 24, -24, 4, -4, -48, -48], "withholdReward": true, "trial_id": "mdp_130946197263", "block": "test2", "trialIndex": 53, "score": 46.75, "costs": -0.25, "simulationMode": [null, null, null], "rewards": [2, -8, 48], "path": ["0", "0", "1", "2", "3"], "rt": [1960, 115, 98], "actions": ["up", "up", "right"], "actionTimes": [4010, 4634, 5250], "queries": {"click": {"state": {"target": ["3"], "time": [2677]}, "edge": {"target": [], "time": []}}, "mouseover": {"state": {"target": ["1", "3", "7"], "time": [2368, 2584, 3250]}, "edge": {"target": [], "time": []}}, "mouseout": {"state": {"target": ["6", "5", "1", "3"], "time": [967, 1002, 2416, 2851]}, "edge": {"target": [], "time": []}}}, "displayed_time": "11.05", "trialTime": 13369, "trial_type": "mouselab-mdp", "trial_index": 65, "time_elapsed": 1930663, "internal_node_id": "0.0-4.0-3.0-19.0"}}, {"uniqueid": "w56805207:a19273721", "current_trial": 66, "dateTime": 1664466094519, "trialdata": {"revealed_states": [], "num_clicks_accrued": [0, 0, 0, 0, 0, 0, 0, 0, 0, 0, 0, 0, 0], "stateRewards": ["", 2, -4, 24, -24, 2, -8, 48, 48, 4, -4, 24, 48], "withholdReward": true, "trial_id": "mdp_947836623875", "block": "test2", "trialIndex": 54, "score": 52.75, "costs": -0.25, "simulationMode": [null, null, null], "rewards": [4, -4, 48], "path": ["0", "0", "9", "10", "12"], "rt": [1773, 86, 38], "actions": ["left", "left", "down"], "actionTimes": [3166, 3766, 4318], "queries": {"click": {"state": {"target": ["12"], "time": [1930]}, "edge": {"target": [], "time": []}}, "mouseover": {"state": {"target": ["12"], "time": [1880]}, "edge": {"target": [], "time": []}}, "mouseout": {"state": {"target": ["7", "0", "12"], "time": [828, 1580, 2185]}, "edge": {"target": [], "time": []}}}, "displayed_time": "10.39", "trialTime": 12687, "trial_type": "mouselab-mdp", "trial_index": 66, "time_elapsed": 1943431, "internal_node_id": "0.0-4.0-3.0-20.0"}}, {"uniqueid": "w56805207:a19273721", "current_trial": 67, "dateTime": 1664466106151, "trialdata": {"revealed_states": [], "num_clicks_accrued": [0, 0, 0, 0, 0, 0, 0, 0, 0, 0, 0, 0, 0], "stateRewards": ["", 2, -4, 24, 24, 4, -4, -24, 24, -4, -4, 48, 48], "withholdReward": true, "trial_id": "mdp_566306223773", "block": "test2", "trialIndex": 55, "score": 44.25, "costs": -0.75, "simulationMode": [null, null, null], "rewards": [-4, -4, 48], "path": ["0", "0", "9", "10", "12"], "rt": [3497, 229, 11], "actions": ["left", "left", "down"], "actionTimes": [5139, 5883, 6417], "queries": {"click": {"state": {"target": ["8", "7", "12"], "time": [2342, 2918, 3774]}, "edge": {"target": [], "time": []}}, "mouseover": {"state": {"target": ["5", "6", "8", "6", "7", "1", "10", "12"], "time": [1987, 2019, 2204, 2586, 2837, 3219, 3436, 3636]}, "edge": {"target": [], "time": []}}, "mouseout": {"state": {"target": ["0", "0", "5", "6", "8", "6", "7", "1", "10", "12"], "time": [1342, 1958, 2004, 2154, 2536, 2604, 3086, 3253, 3470, 3936]}, "edge": {"target": [], "time": []}}}, "displayed_time": "10.64", "trialTime": 11547, "trial_type": "mouselab-mdp", "trial_index": 67, "time_elapsed": 1955063, "internal_node_id": "0.0-4.0-3.0-21.0"}}, {"uniqueid": "w56805207:a19273721", "current_trial": 68, "dateTime": 1664466116703, "trialdata": {"revealed_states": [], "num_clicks_accrued": [0, 0, 0, 0, 0, 0, 0, 0, 0, 0, 0, 0, 0], "stateRewards": ["", 4, 4, 48, -24, 2, -4, 48, 24, -4, -4, -48, 24], "withholdReward": true, "trial_id": "mdp_496003763005", "block": "test2", "trialIndex": 56, "score": 60.75, "costs": -0.25, "simulationMode": [null, null, null], "rewards": [4, 4, 48], "path": ["0", "0", "1", "2", "3"], "rt": [2781, 73, 154], "actions": ["up", "up", "right"], "actionTimes": [4108, 4700, 5364], "queries": {"click": {"state": {"target": ["3"], "time": [1896]}, "edge": {"target": [], "time": []}}, "mouseover": {"state": {"target": ["3", "6", "8"], "time": [1760, 2176, 2343]}, "edge": {"target": [], "time": []}}, "mouseout": {"state": {"target": ["1", "3", "6", "8"], "time": [893, 2059, 2261, 2359]}, "edge": {"target": [], "time": []}}}, "displayed_time": "9.33", "trialTime": 10476, "trial_type": "mouselab-mdp", "trial_index": 68, "time_elapsed": 1965614, "internal_node_id": "0.0-4.0-3.0-22.0"}}, {"uniqueid": "w56805207:a19273721", "current_trial": 69, "dateTime": 1664466129887, "trialdata": {"revealed_states": [], "num_clicks_accrued": [0, 0, 0, 0, 0, 0, 0, 0, 0, 0, 0, 0, 0], "stateRewards": ["", -4, -4, -24, 48, -4, -8, -24, 48, 2, 4, 48, 48], "withholdReward": true, "trial_id": "mdp_810954007398", "block": "test2", "trialIndex": 57, "score": 58.75, "costs": -0.25, "simulationMode": [null, null, null], "rewards": [2, 4, 48], "path": ["0", "0", "9", "10", "12"], "rt": [2373, 57, 27], "actions": ["left", "left", "down"], "actionTimes": [5612, 6188, 6724], "queries": {"click": {"state": {"target": ["12"], "time": [3879]}, "edge": {"target": [], "time": []}}, "mouseover": {"state": {"target": ["0", "12", "10"], "time": [3413, 3762, 4080]}, "edge": {"target": [], "time": []}}, "mouseout": {"state": {"target": ["11", "0", "0", "12", "10"], "time": [2278, 3111, 3430, 4062, 4096]}, "edge": {"target": [], "time": []}}}, "displayed_time": "12.24", "trialTime": 13100, "trial_type": "mouselab-mdp", "trial_index": 69, "time_elapsed": 1978798, "internal_node_id": "0.0-4.0-3.0-23.0"}}, {"uniqueid": "w56805207:a19273721", "current_trial": 70, "dateTime": 1664466140543, "trialdata": {"revealed_states": [], "num_clicks_accrued": [0, 0, 0, 0, 0, 0, 0, 0, 0, 0, 0, 0, 0], "stateRewards": ["", 4, -4, 48, -48, -4, -4, 48, -48, 4, 4, -48, -24], "withholdReward": true, "trial_id": "mdp_490058671112", "block": "test2", "trialIndex": 58, "score": 44.75, "costs": -0.25, "simulationMode": [null, null, null], "rewards": [-4, -4, 48], "path": ["0", "0", "5", "6", "7"], "rt": [2180, 114, 113], "actions": ["right", "right", "up"], "actionTimes": [3484, 4116, 4748], "queries": {"click": {"state": {"target": ["7"], "time": [1759]}, "edge": {"target": [], "time": []}}, "mouseover": {"state": {"target": ["7", "6"], "time": [1568, 2184]}, "edge": {"target": [], "time": []}}, "mouseout": {"state": {"target": ["6", "5", "0", "7", "6"], "time": [932, 1084, 1382, 2055, 2216]}, "edge": {"target": [], "time": []}}}, "displayed_time": "9.30", "trialTime": 10564, "trial_type": "mouselab-mdp", "trial_index": 70, "time_elapsed": 1989454, "internal_node_id": "0.0-4.0-3.0-24.0"}}, {"uniqueid": "w56805207:a19273721", "current_trial": 71, "dateTime": 1664466152591, "trialdata": {"revealed_states": [], "num_clicks_accrued": [0, 0, 0, 0, 0, 0, 0, 0, 0, 0, 0, 0, 0], "stateRewards": ["", -2, 4, -24, -24, -2, 4, 48, 24, -4, -8, 24, -48], "withholdReward": true, "trial_id": "mdp_191839460481", "block": "test2", "trialIndex": 59, "score": 54.25, "costs": -0.75, "simulationMode": [null, null, null], "rewards": [-2, 4, 48], "path": ["0", "0", "5", "6", "7"], "rt": [3939, 803, 206], "actions": ["right", "right", "up"], "actionTimes": [5535, 6847, 7567], "queries": {"click": {"state": {"target": ["3", "12", "7"], "time": [2498, 3290, 4274]}, "edge": {"target": [], "time": []}}, "mouseover": {"state": {"target": ["1", "3", "9", "10", "12", "8", "6", "7", "6"], "time": [1910, 2377, 2994, 3027, 3176, 3776, 3942, 4142, 4576]}, "edge": {"target": [], "time": []}}, "mouseout": {"state": {"target": ["6", "5", "1", "3", "9", "10", "12", "8", "6", "7", "6"], "time": [1176, 1410, 1927, 2776, 3011, 3059, 3459, 3909, 4026, 4542, 4693]}, "edge": {"target": [], "time": []}}}, "displayed_time": "10.60", "trialTime": 11959, "trial_type": "mouselab-mdp", "trial_index": 71, "time_elapsed": 2001502, "internal_node_id": "0.0-4.0-3.0-25.0"}}, {"uniqueid": "w56805207:a19273721", "current_trial": 72, "dateTime": 1664466163190, "trialdata": {"revealed_states": [], "num_clicks_accrued": [0, 0, 0, 0, 0, 0, 0, 0, 0, 0, 0, 0, 0], "stateRewards": ["", -4, -4, -48, 48, -4, -8, -24, -48, -2, 8, 48, 24], "withholdReward": true, "trial_id": "mdp_365393526663", "block": "test2", "trialIndex": 60, "score": 44, "costs": -1, "simulationMode": [null, null, null], "rewards": [-4, -4, 48], "path": ["0", "0", "1", "2", "4"], "rt": [4118, 208, 68], "actions": ["up", "up", "left"], "actionTimes": [5629, 6357, 6933], "queries": {"click": {"state": {"target": ["7", "12", "3", "4"], "time": [2320, 3048, 4048, 4704]}, "edge": {"target": [], "time": []}}, "mouseover": {"state": {"target": ["7", "0", "12", "9", "11", "2", "3", "2", "4"], "time": [2317, 2732, 2946, 3430, 3546, 3713, 3947, 4496, 4547]}, "edge": {"target": [], "time": []}}, "mouseout": {"state": {"target": ["6", "11", "9", "0", "7", "0", "12", "9", "11", "2", "3", "2", "4"], "time": [664, 1081, 1163, 2315, 2688, 2748, 3363, 3463, 3663, 3747, 4347, 4530, 4881]}, "edge": {"target": [], "time": []}}}, "displayed_time": "9.51", "trialTime": 10517, "trial_type": "mouselab-mdp", "trial_index": 72, "time_elapsed": 2012102, "internal_node_id": "0.0-4.0-3.0-26.0"}}, {"uniqueid": "w56805207:a19273721", "current_trial": 73, "dateTime": 1664466175807, "trialdata": {"revealed_states": [], "num_clicks_accrued": [0, 0, 0, 0, 0, 0, 0, 0, 0, 0, 0, 0, 0], "stateRewards": ["", 2, 8, -48, 24, -4, 8, 48, -24, 2, 8, 24, 24], "withholdReward": true, "trial_id": "mdp_175372499314", "block": "test2", "trialIndex": 61, "score": 56.25, "costs": -0.75, "simulationMode": [null, null, null], "rewards": [-4, 8, 48], "path": ["0", "0", "5", "6", "7"], "rt": [3029, 68, 686], "actions": ["right", "right", "up"], "actionTimes": [4418, 4994, 6194], "queries": {"click": {"state": {"target": ["8", "11", "7"], "time": [1925, 2701, 3468]}, "edge": {"target": [], "time": []}}, "mouseover": {"state": {"target": ["0", "8", "9", "11", "1", "7"], "time": [1549, 1857, 2373, 2575, 3058, 3308]}, "edge": {"target": [], "time": []}}, "mouseout": {"state": {"target": ["0", "0", "8", "9", "11", "1", "7"], "time": [1258, 1574, 2223, 2407, 2991, 3073, 3823]}, "edge": {"target": [], "time": []}}}, "displayed_time": "10.39", "trialTime": 12530, "trial_type": "mouselab-mdp", "trial_index": 73, "time_elapsed": 2024718, "internal_node_id": "0.0-4.0-3.0-27.0"}}, {"uniqueid": "w56805207:a19273721", "current_trial": 74, "dateTime": 1664466200671, "trialdata": {"revealed_states": [], "num_clicks_accrued": [0, 0, 0, 0, 0, 0, 0, 0, 0, 0, 0, 0, 0], "stateRewards": ["", -2, 4, -24, 24, -4, -8, 24, -48, -4, -4, -48, -24], "withholdReward": true, "trial_id": "mdp_753137520419", "block": "test2", "trialIndex": 62, "score": 16.5, "costs": -0.5, "simulationMode": [null, null, null], "rewards": [-4, -8, 24], "path": ["0", "0", "5", "6", "7"], "rt": [3026, 60, 263], "actions": ["right", "right", "up"], "actionTimes": [4894, 5462, 6246], "queries": {"click": {"state": {"target": ["12", "7"], "time": [2433, 3903]}, "edge": {"target": [], "time": []}}, "mouseover": {"state": {"target": ["0", "12", "9", "11", "1", "7", "6", "8", "6", "7", "6"], "time": [2033, 2316, 2884, 3001, 3066, 3233, 3316, 3433, 3650, 3715, 4166]}, "edge": {"target": [], "time": []}}, "mouseout": {"state": {"target": ["5", "0", "12", "9", "11", "1", "7", "6", "8", "6", "7", "6"], "time": [1066, 2051, 2617, 2916, 3033, 3084, 3267, 3382, 3632, 3682, 4133, 4215]}, "edge": {"target": [], "time": []}}}, "displayed_time": "9.87", "trialTime": 24774, "trial_type": "mouselab-mdp", "trial_index": 74, "time_elapsed": 2049582, "internal_node_id": "0.0-4.0-3.0-28.0"}}, {"uniqueid": "w56805207:a19273721", "current_trial": 75, "dateTime": 1664466213982, "trialdata": {"revealed_states": [], "num_clicks_accrued": [0, 0, 0, 0, 0, 0, 0, 0, 0, 0, 0, 0, 0], "stateRewards": ["", 2, 4, 48, -24, 2, -8, -24, -24, 2, -8, -24, -48], "withholdReward": false, "trial_id": "mdp_274832552938", "block": "test2", "trialIndex": 63, "score": 57.75, "costs": -1.25, "simulationMode": [null, null, null], "rewards": [2, 4, 48], "path": ["0", "0", "1", "2", "3"], "rt": [5304, 60, 872], "actions": ["up", "up", "right"], "actionTimes": [9485, 10061, 11436], "queries": {"click": {"state": {"target": ["12", "7", "8", "11", "3"], "time": [4824, 5632, 6584, 7272, 8192]}, "edge": {"target": [], "time": []}}, "mouseover": {"state": {"target": ["12", "7", "8", "9", "10", "11", "1", "3", "3", "2", "4", "2"], "time": [4702, 5466, 6501, 6918, 6967, 7182, 7584, 7701, 8017, 8449, 8548, 8881]}, "edge": {"target": [], "time": []}}, "mouseout": {"state": {"target": ["0", "12", "7", "8", "9", "10", "11", "1", "3", "3", "2", "4", "2"], "time": [4416, 5016, 5816, 6767, 6934, 7000, 7500, 7599, 7800, 8399, 8500, 8865, 8898]}, "edge": {"target": [], "time": []}}}, "displayed_time": "12.18", "trialTime": 13228, "trial_type": "mouselab-mdp", "trial_index": 75, "time_elapsed": 2062894, "internal_node_id": "0.0-4.0-3.0-29.0"}}, {"uniqueid": "w56805207:a19273721", "current_trial": 76, "dateTime": 1664466220807, "trialdata": {"rt": 6818, "stimulus": "<h1> End of block! </h1>\n\nYou have reached the end of the block 2/4. If you need a short break, feel free to take one now before moving on.\n\n<br><br>\nIn the next block, you will complete another 30 rounds of this game.\n\n<br><br>\n<div style='text-align: center;'>Press <code>space</code> to begin.</div>\n<br><br>\n<div style='text-align: center;'>(If the experiment doesn't continue, try clicking on the text and then pressing <code>space</code>.)</div>", "response": " ", "trial_id": "mdp_ready_3", "trial_type": "html-keyboard-response", "trial_index": 76, "time_elapsed": 2069719, "internal_node_id": "0.0-4.0-4.0"}}, {"uniqueid": "w56805207:a19273721", "current_trial": 77, "dateTime": 1664466232254, "trialdata": {"revealed_states": [], "num_clicks_accrued": [0, 0, 0, 0, 0, 0, 0, 0, 0, 0, 0, 0, 0], "stateRewards": ["", 2, 8, -48, 24, -4, 8, 48, -24, 2, 8, 24, 24], "withholdReward": true, "trial_id": "mdp_175372499314", "block": "test3", "trialIndex": 64, "score": 38.75, "costs": -0.25, "simulationMode": [null, null, null], "rewards": [2, 8, 24], "path": ["0", "0", "9", "10", "11"], "rt": [1773, 199, 100], "actions": ["left", "left", "up"], "actionTimes": [3958, 4671, 5286], "queries": {"click": {"state": {"target": ["11"], "time": [2833]}, "edge": {"target": [], "time": []}}, "mouseover": {"state": {"target": ["11"], "time": [2586]}, "edge": {"target": [], "time": []}}, "mouseout": {"state": {"target": ["12", "9", "11"], "time": [1719, 1968, 3003]}, "edge": {"target": [], "time": []}}}, "displayed_time": "10.19", "trialTime": 11358, "trial_type": "mouselab-mdp", "trial_index": 77, "time_elapsed": 2081165, "internal_node_id": "0.0-4.0-5.0-0.0"}}, {"uniqueid": "w56805207:a19273721", "current_trial": 78, "dateTime": 1664466244038, "trialdata": {"revealed_states": [], "num_clicks_accrued": [0, 0, 0, 0, 0, 0, 0, 0, 0, 0, 0, 0, 0], "stateRewards": ["", -2, 4, -48, 24, -4, 8, 48, 24, -2, 4, -48, -24], "withholdReward": false, "trial_id": "mdp_740882974347", "block": "test3", "trialIndex": 65, "score": 56.75, "costs": -0.25, "simulationMode": [null, null, null], "rewards": [-4, 8, 48], "path": ["0", "0", "5", "6", "7"], "rt": [2259, 8, 108], "actions": ["right", "right", "up"], "actionTimes": [3606, 4134, 4766], "queries": {"click": {"state": {"target": ["7"], "time": [2448]}, "edge": {"target": [], "time": []}}, "mouseover": {"state": {"target": ["7", "7", "6", "8"], "time": [1525, 2276, 2708, 2791]}, "edge": {"target": [], "time": []}}, "mouseout": {"state": {"target": ["11", "7", "7", "6", "8"], "time": [691, 1558, 2658, 2757, 9057]}, "edge": {"target": [], "time": []}}}, "displayed_time": "9.35", "trialTime": 11702, "trial_type": "mouselab-mdp", "trial_index": 78, "time_elapsed": 2092950, "internal_node_id": "0.0-4.0-5.0-1.0"}}, {"uniqueid": "w56805207:a19273721", "current_trial": 79, "dateTime": 1664466255846, "trialdata": {"revealed_states": [], "num_clicks_accrued": [0, 0, 0, 0, 0, 0, 0, 0, 0, 0, 0, 0, 0], "stateRewards": ["", 2, -8, 24, 24, 2, 4, -48, -48, 4, 4, -24, 48], "withholdReward": true, "trial_id": "mdp_985707010949", "block": "test3", "trialIndex": 66, "score": 22.25, "costs": -0.75, "simulationMode": [null, null, null], "rewards": [2, -8, 24], "path": ["0", "0", "1", "2", "3"], "rt": [2798, 67, 69], "actions": ["up", "up", "right"], "actionTimes": [4007, 4591, 5175], "queries": {"click": {"state": {"target": ["11", "3", "8"], "time": [1658, 2322, 3090]}, "edge": {"target": [], "time": []}}, "mouseover": {"state": {"target": ["11", "1", "3", "6", "8"], "time": [1557, 1922, 2105, 2722, 2772]}, "edge": {"target": [], "time": []}}, "mouseout": {"state": {"target": ["5", "0", "11", "1", "3", "6", "8"], "time": [822, 1290, 1822, 2005, 2490, 2739, 8674]}, "edge": {"target": [], "time": []}}}, "displayed_time": "10.21", "trialTime": 11711, "trial_type": "mouselab-mdp", "trial_index": 79, "time_elapsed": 2104758, "internal_node_id": "0.0-4.0-5.0-2.0"}}, {"uniqueid": "w56805207:a19273721", "current_trial": 80, "dateTime": 1664466275998, "trialdata": {"revealed_states": [], "num_clicks_accrued": [0, 0, 0, 0, 0, 0, 0, 0, 0, 0, 0, 0, 0], "stateRewards": ["", 2, -4, 48, -24, 4, -8, -24, 48, -2, -4, 24, -48], "withholdReward": true, "trial_id": "mdp_357328205509", "block": "test3", "trialIndex": 67, "score": 48, "costs": -1, "simulationMode": [null, null, null], "rewards": [4, -8, 48], "path": ["0", "0", "5", "6", "8"], "rt": [3645, 514, 361], "actions": ["right", "right", "down"], "actionTimes": [4922, 5946, 6826], "queries": {"click": {"state": {"target": ["11", "12", "7", "8"], "time": [1965, 2645, 3285, 3741]}, "edge": {"target": [], "time": []}}, "mouseover": {"state": {"target": ["11", "12", "6", "7", "6", "8", "5", "5", "6"], "time": [1848, 2429, 2980, 3063, 3463, 3529, 4196, 4330, 4348]}, "edge": {"target": [], "time": []}}, "mouseout": {"state": {"target": ["9", "0", "11", "12", "6", "7", "6", "8", "8", "5", "5", "6"], "time": [863, 1549, 2147, 2796, 3029, 3444, 3496, 3753, 4144, 4212, 4346, 4362]}, "edge": {"target": [], "time": []}}}, "displayed_time": "11.28", "trialTime": 20058, "trial_type": "mouselab-mdp", "trial_index": 80, "time_elapsed": 2124909, "internal_node_id": "0.0-4.0-5.0-3.0"}}, {"uniqueid": "w56805207:a19273721", "current_trial": 81, "dateTime": 1664466293997, "trialdata": {"revealed_states": [], "num_clicks_accrued": [0, 0, 0, 0, 0, 0, 0, 0, 0, 0, 0, 0, 0], "stateRewards": ["", 4, -8, 48, -24, -4, 4, 24, 24, -2, -4, 24, 24], "withholdReward": true, "trial_id": "mdp_542168715839", "block": "test3", "trialIndex": 68, "score": 48.25, "costs": -0.75, "simulationMode": [null, null, null], "rewards": [4, -8, 48], "path": ["0", "0", "1", "2", "3"], "rt": [4176, 98, 184], "actions": ["up", "up", "right"], "actionTimes": [13663, 14271, 14975], "queries": {"click": {"state": {"target": ["7", "12", "3"], "time": [10147, 11675, 12602]}, "edge": {"target": [], "time": []}}, "mouseover": {"state": {"target": ["7", "7", "8", "12", "12", "9", "1", "3", "2", "4", "2"], "time": [9758, 10041, 11125, 11274, 11490, 12256, 12290, 12323, 12791, 12873, 13073]}, "edge": {"target": [], "time": []}}, "mouseout": {"state": {"target": ["6", "5", "1", "7", "7", "8", "12", "12", "9", "1", "3", "2", "4", "2"], "time": [8291, 8308, 8325, 9776, 10291, 11207, 11291, 11958, 12274, 12307, 12772, 12823, 13056, 13090]}, "edge": {"target": [], "time": []}}}, "displayed_time": "17.49", "trialTime": 17911, "trial_type": "mouselab-mdp", "trial_index": 81, "time_elapsed": 2142908, "internal_node_id": "0.0-4.0-5.0-4.0"}}, {"uniqueid": "w56805207:a19273721", "current_trial": 82, "dateTime": 1664466304637, "trialdata": {"revealed_states": [], "num_clicks_accrued": [0, 0, 0, 0, 0, 0, 0, 0, 0, 0, 0, 0, 0], "stateRewards": ["", -2, 8, -24, 24, 2, -8, 48, -24, 2, 8, -24, -24], "withholdReward": true, "trial_id": "mdp_674708270444", "block": "test3", "trialIndex": 69, "score": 45.75, "costs": -1.25, "simulationMode": [null, null, null], "rewards": [2, -8, 48], "path": ["0", "0", "5", "6", "7"], "rt": [4962, 1126, 363], "actions": ["right", "right", "up"], "actionTimes": [6073, 7712, 8584], "queries": {"click": {"state": {"target": ["11", "3", "8", "12", "7"], "time": [2051, 2692, 3515, 4251, 4939]}, "edge": {"target": [], "time": []}}, "mouseover": {"state": {"target": ["9", "11", "11", "2", "3", "7", "6", "8", "12", "5", "7", "1"], "time": [1288, 1439, 1705, 2355, 2389, 3039, 3058, 3387, 4154, 4571, 4805, 5138]}, "edge": {"target": [], "time": []}}, "mouseout": {"state": {"target": ["9", "11", "11", "2", "3", "7", "6", "8", "12", "5", "7", "1"], "time": [1340, 1454, 2221, 2372, 2971, 3056, 3071, 3671, 4421, 4653, 5087, 5187]}, "edge": {"target": [], "time": []}}}, "displayed_time": "10.11", "trialTime": 10552, "trial_type": "mouselab-mdp", "trial_index": 82, "time_elapsed": 2153548, "internal_node_id": "0.0-4.0-5.0-5.0"}}, {"uniqueid": "w56805207:a19273721", "current_trial": 83, "dateTime": 1664466314917, "trialdata": {"revealed_states": [], "num_clicks_accrued": [0, 0, 0, 0, 0, 0, 0, 0, 0, 0, 0, 0, 0], "stateRewards": ["", -4, -4, -24, -24, -2, 4, 48, -24, -2, -4, -24, 48], "withholdReward": false, "trial_id": "mdp_855903341564", "block": "test3", "trialIndex": 70, "score": 46.25, "costs": -0.75, "simulationMode": [null, null, null], "rewards": [-2, -4, 48], "path": ["0", "0", "9", "10", "12"], "rt": [3409, 110, 37], "actions": ["left", "left", "down"], "actionTimes": [5029, 5653, 6213], "queries": {"click": {"state": {"target": ["3", "8", "12"], "time": [2249, 3044, 3864]}, "edge": {"target": [], "time": []}}, "mouseover": {"state": {"target": ["3", "6", "8", "8", "12", "12", "10", "0"], "time": [1925, 2641, 2875, 3024, 3441, 3723, 4039, 4560]}, "edge": {"target": [], "time": []}}, "mouseout": {"state": {"target": ["3", "6", "8", "8", "12", "12", "10", "0"], "time": [2457, 2674, 2925, 3340, 3507, 4022, 4090, 4591]}, "edge": {"target": [], "time": []}}}, "displayed_time": "9.62", "trialTime": 10205, "trial_type": "mouselab-mdp", "trial_index": 83, "time_elapsed": 2163828, "internal_node_id": "0.0-4.0-5.0-6.0"}}, {"uniqueid": "w56805207:a19273721", "current_trial": 84, "dateTime": 1664466327492, "trialdata": {"revealed_states": [], "num_clicks_accrued": [0, 0, 0, 0, 0, 0, 0, 0, 0, 0, 0, 0, 0], "stateRewards": ["", 2, -4, -24, -24, -2, -8, -48, 24, -4, -8, 24, 24], "withholdReward": true, "trial_id": "mdp_521351546461", "block": "test3", "trialIndex": 71, "score": 16.25, "costs": -0.75, "simulationMode": [null, null, null], "rewards": [-4, -8, 24], "path": ["0", "0", "9", "10", "11"], "rt": [8441, 76, 117], "actions": ["left", "left", "up"], "actionTimes": [9717, 10309, 10933], "queries": {"click": {"state": {"target": ["7", "12", "11"], "time": [1880, 6257, 6992]}, "edge": {"target": [], "time": []}}, "mouseover": {"state": {"target": ["7", "9", "12", "12", "10", "11", "6"], "time": [1799, 5848, 5982, 6167, 6731, 6899, 7431]}, "edge": {"target": [], "time": []}}, "mouseout": {"state": {"target": ["0", "7", "9", "12", "12", "10", "11", "6"], "time": [1550, 3192, 5865, 6031, 6715, 6797, 7397, 7448]}, "edge": {"target": [], "time": []}}}, "displayed_time": "11.45", "trialTime": 12493, "trial_type": "mouselab-mdp", "trial_index": 84, "time_elapsed": 2176404, "internal_node_id": "0.0-4.0-5.0-7.0"}}, {"uniqueid": "w56805207:a19273721", "current_trial": 85, "dateTime": 1664466338156, "trialdata": {"revealed_states": [], "num_clicks_accrued": [0, 0, 0, 0, 0, 0, 0, 0, 0, 0, 0, 0, 0], "stateRewards": ["", 2, 8, 24, -48, 4, 8, 24, 24, 4, -8, 48, 48], "withholdReward": true, "trial_id": "mdp_646103824875", "block": "test3", "trialIndex": 72, "score": 48.5, "costs": -0.5, "simulationMode": [null, null, null], "rewards": [4, -8, 48], "path": ["0", "0", "9", "10", "12"], "rt": [2247, 39, 17], "actions": ["left", "left", "down"], "actionTimes": [4136, 4696, 5240], "queries": {"click": {"state": {"target": ["7", "12"], "time": [2403, 3130]}, "edge": {"target": [], "time": []}}, "mouseover": {"state": {"target": ["5", "7", "9", "12", "12"], "time": [2089, 2223, 2722, 2772, 3039]}, "edge": {"target": [], "time": []}}, "mouseout": {"state": {"target": ["10", "9", "5", "7", "9", "12", "12"], "time": [1422, 1723, 2155, 2573, 2739, 2822, 3306]}, "edge": {"target": [], "time": []}}}, "displayed_time": "9.89", "trialTime": 10584, "trial_type": "mouselab-mdp", "trial_index": 85, "time_elapsed": 2187068, "internal_node_id": "0.0-4.0-5.0-8.0"}}, {"uniqueid": "w56805207:a19273721", "current_trial": 86, "dateTime": 1664466349789, "trialdata": {"revealed_states": [], "num_clicks_accrued": [0, 0, 0, 0, 0, 0, 0, 0, 0, 0, 0, 0, 0], "stateRewards": ["", -2, 8, 48, -24, 2, 4, -48, -24, -4, 8, -48, -48], "with