{"condition": 1, "counterbalance": 0, "assignmentId": "a66752777", "workerId": "w33873282", "hitId": "h61454408", "currenttrial": 137, "bonus": 0, "data": [{"uniqueid": "w33873282:a66752777", "current_trial": 0, "dateTime": 1664463923492, "trialdata": {"success": true, "trial_type": "fullscreen", "trial_index": 0, "time_elapsed": 16711, "internal_node_id": "0.0-0.0"}}, {"uniqueid": "w33873282:a66752777", "current_trial": 1, "dateTime": 1664463951228, "trialdata": {"view_history": [{"page_index": 0, "viewing_time": 27732}], "rt": 27733, "trial_id": "exp_instructions_no_distractor", "trial_type": "instructions", "trial_index": 1, "time_elapsed": 44448, "internal_node_id": "0.0-1.0"}}, {"uniqueid": "w33873282:a66752777", "current_trial": 2, "dateTime": 1664463956694, "trialdata": {"success": true, "trial_type": "fullscreen", "trial_index": 2, "time_elapsed": 49914, "internal_node_id": "0.0-2.0-0.0"}}, {"uniqueid": "w33873282:a66752777", "current_trial": 3, "dateTime": 1664464108036, "trialdata": {"view_history": [{"page_index": 0, "viewing_time": 80705}, {"page_index": 1, "viewing_time": 32600}, {"page_index": 2, "viewing_time": 18298}, {"page_index": 3, "viewing_time": 5295}, {"page_index": 4, "viewing_time": 14444}], "rt": 151342, "trial_id": "mouselab_instructions_1", "trial_type": "instructions", "trial_index": 3, "time_elapsed": 201256, "internal_node_id": "0.0-2.0-1.0"}}, {"uniqueid": "w33873282:a66752777", "current_trial": 4, "dateTime": 1664464134698, "trialdata": {"revealed_states": [], "num_clicks_accrued": [0, 0, 0, 0, 0, 0, 0, 0, 0, 0, 0, 0, 0], "stateRewards": ["", 10, -10, -10, -10, 10, 10, 10, 10, -10, -10, -10, -10], "withholdReward": false, "trial_id": "practice_1", "block": "test", "trialIndex": 0, "score": 30.5, "costs": -1.5, "simulationMode": [null, null, null], "rewards": [10, 10, 10], "path": ["0", "0", "5", "6", "8"], "rt": [19786, 269, 253], "actions": ["right", "right", "down"], "actionTimes": [22282, 23049, 23817], "queries": {"click": {"state": {"target": ["5", "6", "8", "7", "10", "2"], "time": [8843, 10306, 11116, 13639, 16892, 19311]}, "edge": {"target": [], "time": []}}, "mouseover": {"state": {"target": ["0", "5", "6", "8", "7", "7", "10", "1", "2", "1", "0"], "time": [2680, 8680, 9430, 10713, 11614, 13263, 15213, 19047, 19080, 19480, 19513]}, "edge": {"target": [], "time": []}}, "mouseout": {"state": {"target": ["0", "0", "0", "5", "6", "8", "6", "7", "7", "6", "8", "10", "1", "2", "1", "0"], "time": [863, 2164, 2730, 9096, 10530, 11497, 11580, 12413, 13780, 13814, 13847, 17097, 19063, 19463, 19497, 19530]}, "edge": {"target": [], "time": []}}}, "displayed_time": "24.32", "trialTime": 26153, "trial_type": "mouselab-mdp", "trial_index": 4, "time_elapsed": 227918, "internal_node_id": "0.0-2.0-2.0-0.0"}}, {"uniqueid": "w33873282:a66752777", "current_trial": 5, "dateTime": 1664464264201, "trialdata": {"revealed_states": [], "num_clicks_accrued": [0, 0, 0, 0, 0, 0, 0, 0, 0, 0, 0, 0, 0], "stateRewards": ["", 10, 10, -10, -10, 10, -10, 10, -10, -10, 10, 10, -10], "withholdReward": false, "trial_id": "practice_2", "block": "test", "trialIndex": 1, "score": 9, "costs": -3, "simulationMode": [null, null, null], "rewards": [10, 10, -10], "path": ["0", "0", "1", "2", "3"], "rt": [65184, 758, 692], "actions": ["up", "up", "right"], "actionTimes": [68082, 69338, 70522], "queries": {"click": {"state": {"target": ["6", "2", "1", "3", "4", "10", "11", "12", "5", "7", "8", "9"], "time": [4161, 6780, 26396, 26796, 27558, 45799, 46962, 47329, 48083, 48505, 48915, 49418]}, "edge": {"target": [], "time": []}}, "mouseover": {"state": {"target": ["5", "6", "2", "1", "1", "4", "3", "1", "3", "4", "4", "10", "11", "12", "9", "0", "5", "7", "8", "9"], "time": [3447, 3497, 5014, 7013, 13614, 14764, 25931, 26247, 26647, 27047, 27413, 45597, 46680, 47230, 47730, 47814, 48014, 48380, 48813, 49213]}, "edge": {"target": [], "time": []}}, "mouseout": {"state": {"target": ["8", "5", "5", "6", "2", "1", "1", "4", "2", "3", "1", "3", "2", "4", "4", "2", "1", "10", "11", "10", "12", "9", "0", "5", "6", "7", "6", "8", "9", "10", "11", "9", "8"], "time": [2397, 2480, 3480, 4330, 6997, 7047, 13763, 25897, 25930, 25947, 26548, 26964, 27014, 27114, 27713, 27747, 45363, 46530, 47113, 47180, 47480, 47797, 47880, 48297, 48330, 48730, 48780, 49063, 49564, 50797, 51030, 51097, 51280]}, "edge": {"target": [], "time": []}}}, "displayed_time": "71.03", "trialTime": 129474, "trial_type": "mouselab-mdp", "trial_index": 5, "time_elapsed": 357421, "internal_node_id": "0.0-2.0-2.0-1.0"}}, {"uniqueid": "w33873282:a66752777", "current_trial": 6, "dateTime": 1664464416274, "trialdata": {"view_history": [{"page_index": 0, "viewing_time": 60383}, {"page_index": 1, "viewing_time": 80550}, {"page_index": 2, "viewing_time": 11138}], "rt": 152071, "trial_id": "mouselab_instructions_2_scarce", "trial_type": "instructions", "trial_index": 6, "time_elapsed": 509493, "internal_node_id": "0.0-2.0-3.0"}}, {"uniqueid": "w33873282:a66752777", "current_trial": 7, "dateTime": 1664464459116, "trialdata": {"rt": 42839, "response": {"Q0": "$-48 to $48", "Q1": "The cost is always $0.25.", "Q2": "The better I perform the higher my bonus will be.", "Q3": "No, the amount of cash at each node of the web may be different each time.", "Q4": "The values of the nodes walked through from start to finish.", "Q5": "No, the spider might forget to count the money on some rounds."}, "question_order": [0, 1, 2, 3, 4, 5], "correct": {"Q0": "$-48 to $48", "Q1": "The cost is always $0.25.", "Q2": "The better I perform the higher my bonus will be.", "Q3": "No, the amount of cash at each node of the web may be different each time.", "Q4": "The values of the nodes walked through from start to finish.", "Q5": "No, the spider might forget to count the money on some rounds."}, "trial_id": "mouselab_quiz_scarce", "trial_type": "survey-multi-choice", "trial_index": 7, "time_elapsed": 552336, "internal_node_id": "0.0-2.0-4.0"}}, {"uniqueid": "w33873282:a66752777", "current_trial": 8, "dateTime": 1664464476265, "trialdata": {"rt": 17142, "stimulus": "\n<h1> Get ready to start the game! </h1>\n\nThank you for reading the instructions. Get ready start with the first of 4 block(s) of this game.\n<br><br>\nIn this first block, you will complete 30 rounds of this game before moving on.\n<br><br>\nRemember, the more money the spider gets, the bigger your bonus will be!\n<br><br>\n<div style='text-align: center;'>Press <code>space</code> to begin.</div>\n\n<br><br>\n(If, at any point, the <code>space</code> key does not take you to the next page, click once on the text and try again.)", "response": " ", "trial_id": "mdp_ready_1", "trial_type": "html-keyboard-response", "trial_index": 8, "time_elapsed": 569485, "internal_node_id": "0.0-4.0-0.0"}}, {"uniqueid": "w33873282:a66752777", "current_trial": 9, "dateTime": 1664464505956, "trialdata": {"revealed_states": [], "num_clicks_accrued": [0, 0, 0, 0, 0, 0, 0, 0, 0, 0, 0, 0, 0], "stateRewards": ["", 2, 4, 48, 48, 4, -8, 24, -48, -4, -8, -24, -48], "withholdReward": false, "trial_id": "mdp_343818007251", "block": "test1", "trialIndex": 2, "score": 57.75, "costs": -1.25, "simulationMode": [null, null, null], "rewards": [2, 4, 48], "path": ["0", "0", "1", "2", "3"], "rt": [19368, 362, 505], "actions": ["up", "up", "right"], "actionTimes": [23255, 24119, 25111], "queries": {"click": {"state": {"target": ["10", "2", "6", "1", "3"], "time": [8296, 9000, 9642, 14832, 22052]}, "edge": {"target": [], "time": []}}, "mouseover": {"state": {"target": ["0", "10", "9", "1", "2", "5", "6", "8", "1", "4", "1", "3"], "time": [4140, 5272, 8605, 8689, 8739, 9322, 9522, 11422, 11672, 11855, 13472, 18905]}, "edge": {"target": [], "time": []}}, "mouseout": {"state": {"target": ["0", "0", "10", "9", "1", "2", "5", "6", "8", "1", "4", "1", "3"], "time": [1389, 4189, 8572, 8622, 8705, 9222, 9339, 9789, 11439, 11788, 13439, 15122, 22188]}, "edge": {"target": [], "time": []}}}, "displayed_time": "25.61", "trialTime": 29655, "trial_type": "mouselab-mdp", "trial_index": 9, "time_elapsed": 599176, "internal_node_id": "0.0-4.0-1.0-0.0"}}, {"uniqueid": "w33873282:a66752777", "current_trial": 10, "dateTime": 1664464531839, "trialdata": {"revealed_states": [], "num_clicks_accrued": [0, 0, 0, 0, 0, 0, 0, 0, 0, 0, 0, 0, 0], "stateRewards": ["", -2, -4, -24, 24, -2, 4, -24, -24, -4, 4, 24, -24], "withholdReward": true, "trial_id": "mdp_999419261719", "block": "test1", "trialIndex": 3, "score": -18.25, "costs": -1.25, "simulationMode": [null, null, null], "rewards": [-2, 4, -24], "path": ["0", "0", "5", "6", "8"], "rt": [17944, 629, 249], "actions": ["right", "right", "down"], "actionTimes": [20596, 21716, 22452], "queries": {"click": {"state": {"target": ["10", "2", "6", "9", "5"], "time": [10835, 11602, 12662, 16471, 17363]}, "edge": {"target": [], "time": []}}, "mouseover": {"state": {"target": ["9", "10", "2", "6", "9", "11", "11", "9", "0", "5"], "time": [10586, 10652, 11369, 12019, 13553, 13786, 15536, 16036, 17069, 17136]}, "edge": {"target": [], "time": []}}, "mouseout": {"state": {"target": ["7", "9", "10", "2", "6", "9", "10", "11", "11", "9", "0", "5"], "time": [2236, 10636, 11219, 11819, 12819, 13586, 13652, 15019, 16003, 17019, 17102, 17502]}, "edge": {"target": [], "time": []}}}, "displayed_time": "22.95", "trialTime": 25853, "trial_type": "mouselab-mdp", "trial_index": 10, "time_elapsed": 625059, "internal_node_id": "0.0-4.0-1.0-1.0"}}, {"uniqueid": "w33873282:a66752777", "current_trial": 11, "dateTime": 1664464544296, "trialdata": {"revealed_states": [], "num_clicks_accrued": [0, 0, 0, 0, 0, 0, 0, 0, 0, 0, 0, 0, 0], "stateRewards": ["", 2, 4, 48, 48, -2, 4, 48, -24, -4, 8, -48, 48], "withholdReward": true, "trial_id": "mdp_407586865939", "block": "test1", "trialIndex": 4, "score": 55.75, "costs": -1.25, "simulationMode": [null, null, null], "rewards": [-4, 8, 48], "path": ["0", "0", "9", "10", "12"], "rt": [8740, 239, 225], "actions": ["left", "left", "down"], "actionTimes": [9741, 10477, 11213], "queries": {"click": {"state": {"target": ["10", "2", "6", "11", "12"], "time": [2192, 2674, 3441, 7284, 8554]}, "edge": {"target": [], "time": []}}, "mouseover": {"state": {"target": ["1", "10", "2", "6", "5", "9", "11", "12", "12"], "time": [1638, 1988, 2422, 2972, 5772, 6055, 6638, 7638, 8472]}, "edge": {"target": [], "time": []}}, "mouseout": {"state": {"target": ["0", "1", "10", "2", "6", "6", "5", "9", "11", "10", "12", "12"], "time": [938, 1738, 2288, 2855, 3572, 5738, 5788, 6572, 7455, 7505, 8188, 8705]}, "edge": {"target": [], "time": []}}}, "displayed_time": "11.72", "trialTime": 12429, "trial_type": "mouselab-mdp", "trial_index": 11, "time_elapsed": 637516, "internal_node_id": "0.0-4.0-1.0-2.0"}}, {"uniqueid": "w33873282:a66752777", "current_trial": 12, "dateTime": 1664464556786, "trialdata": {"revealed_states": [], "num_clicks_accrued": [0, 0, 0, 0, 0, 0, 0, 0, 0, 0, 0, 0, 0], "stateRewards": ["", 2, 8, 24, -48, 4, 8, 24, 48, 2, -8, -24, 24], "withholdReward": false, "trial_id": "mdp_939899431582", "block": "test1", "trialIndex": 5, "score": 40, "costs": -1, "simulationMode": [null, null, null], "rewards": [4, 8, 24], "path": ["0", "0", "5", "6", "7"], "rt": [7204, 496, 984], "actions": ["right", "right", "up"], "actionTimes": [7884, 8876, 10348], "queries": {"click": {"state": {"target": ["2", "10", "6", "7"], "time": [1475, 2065, 2693, 5393]}, "edge": {"target": [], "time": []}}, "mouseover": {"state": {"target": ["1", "2", "10", "9", "6", "7", "8"], "time": [1114, 1297, 1814, 2264, 2614, 4630, 5864]}, "edge": {"target": [], "time": []}}, "mouseout": {"state": {"target": ["0", "1", "2", "10", "9", "6", "7", "6", "8"], "time": [597, 1164, 1613, 2247, 2280, 2847, 5614, 5647, 6814]}, "edge": {"target": [], "time": []}}}, "displayed_time": "10.85", "trialTime": 12460, "trial_type": "mouselab-mdp", "trial_index": 12, "time_elapsed": 650006, "internal_node_id": "0.0-4.0-1.0-3.0"}}, {"uniqueid": "w33873282:a66752777", "current_trial": 13, "dateTime": 1664464616264, "trialdata": {"revealed_states": [], "num_clicks_accrued": [0, 0, 0, 0, 0, 0, 0, 0, 0, 0, 0, 0, 0], "stateRewards": ["", -2, 8, 24, -48, -2, -4, 24, 48, 2, 8, -48, -48], "withholdReward": true, "trial_id": "mdp_562228697607", "block": "test1", "trialIndex": 6, "score": 32.75, "costs": -2.25, "simulationMode": [null, null, null], "rewards": [-2, 8, 24], "path": ["0", "0", "1", "2", "3"], "rt": [20409, 921, 34348], "actions": ["up", "up", "right"], "actionTimes": [21054, 22462, 57306], "queries": {"click": {"state": {"target": ["10", "2", "6", "9", "1", "12", "11", "3", "4"], "time": [5108, 5759, 6372, 11576, 12113, 13673, 14284, 18539, 19944]}, "edge": {"target": [], "time": []}}, "mouseover": {"state": {"target": ["0", "9", "10", "2", "6", "1", "3", "1", "9", "1", "12", "11", "3", "4", "7"], "time": [808, 1058, 1258, 5508, 6124, 7541, 7725, 8175, 10274, 11924, 13141, 13991, 16991, 19674, 20108]}, "edge": {"target": [], "time": []}}, "mouseout": {"state": {"target": ["8", "0", "0", "9", "10", "2", "6", "1", "2", "3", "2", "2", "1", "10", "9", "1", "9", "12", "10", "11", "1", "3", "4", "2", "7"], "time": [308, 574, 841, 1124, 5308, 5925, 6491, 7558, 7725, 7841, 7874, 8141, 8474, 10108, 11824, 12258, 12891, 13791, 13891, 14474, 16758, 18758, 20058, 20074, 20124]}, "edge": {"target": [], "time": []}}}, "displayed_time": "57.81", "trialTime": 59450, "trial_type": "mouselab-mdp", "trial_index": 13, "time_elapsed": 709484, "internal_node_id": "0.0-4.0-1.0-4.0"}}, {"uniqueid": "w33873282:a66752777", "current_trial": 14, "dateTime": 1664464649988, "trialdata": {"revealed_states": [], "num_clicks_accrued": [0, 0, 0, 0, 0, 0, 0, 0, 0, 0, 0, 0, 0], "stateRewards": ["", -4, -4, -24, -48, -4, 8, -24, -48, 4, -8, 24, -24], "withholdReward": true, "trial_id": "mdp_924927483179", "block": "test1", "trialIndex": 7, "score": 22, "costs": -3, "simulationMode": [null, null, null], "rewards": [4, -8, 24], "path": ["0", "0", "9", "10", "11"], "rt": [17655, 11045, 247], "actions": ["left", "left", "up"], "actionTimes": [19889, 31419, 32155], "queries": {"click": {"state": {"target": ["10", "2", "6", "5", "7", "8", "1", "3", "4", "9", "11", "12"], "time": [3202, 3866, 4362, 7420, 9670, 10310, 12792, 13595, 14217, 16069, 16866, 18759]}, "edge": {"target": [], "time": []}}, "mouseover": {"state": {"target": ["0", "0", "9", "10", "1", "2", "6", "7", "5", "7", "8", "1", "9", "1", "3", "4", "0", "9", "12", "9", "11", "12"], "time": [2641, 2857, 2924, 3091, 3407, 3507, 4124, 4958, 5458, 8190, 10107, 11574, 12283, 12707, 13407, 14107, 14424, 14907, 15207, 15941, 16690, 17074]}, "edge": {"target": [], "time": []}}, "mouseout": {"state": {"target": ["6", "5", "0", "0", "9", "10", "1", "2", "6", "7", "5", "7", "6", "8", "6", "1", "9", "1", "5", "6", "7", "3", "1", "4", "0", "9", "10", "12", "9", "10", "11", "10", "12"], "time": [1857, 2024, 2674, 2891, 2974, 3341, 3457, 4024, 4491, 5357, 7591, 9824, 9891, 10424, 11107, 11924, 12458, 12940, 12974, 13007, 13341, 13724, 13907, 14324, 14441, 15057, 15174, 15790, 16224, 16607, 16990, 17040, 18857]}, "edge": {"target": [], "time": []}}}, "displayed_time": "32.64", "trialTime": 33691, "trial_type": "mouselab-mdp", "trial_index": 14, "time_elapsed": 743208, "internal_node_id": "0.0-4.0-1.0-5.0"}}, {"uniqueid": "w33873282:a66752777", "current_trial": 15, "dateTime": 1664464668662, "trialdata": {"revealed_states": [], "num_clicks_accrued": [0, 0, 0, 0, 0, 0, 0, 0, 0, 0, 0, 0, 0], "stateRewards": ["", 2, 8, -48, -24, 2, -4, -48, 24, 2, -4, -24, -24], "withholdReward": true, "trial_id": "mdp_954659099093", "block": "test1", "trialIndex": 8, "score": 24, "costs": -3, "simulationMode": [null, null, null], "rewards": [2, -4, 24], "path": ["0", "0", "5", "6", "8"], "rt": [14222, 188, 217], "actions": ["right", "right", "down"], "actionTimes": [16206, 16910, 17622], "queries": {"click": {"state": {"target": ["10", "2", "6", "1", "4", "3", "9", "11", "12", "5", "7", "8"], "time": [2915, 3502, 4091, 5705, 6370, 6726, 8952, 9759, 10546, 11235, 14601, 15066]}, "edge": {"target": [], "time": []}}, "mouseover": {"state": {"target": ["0", "0", "10", "4", "2", "6", "8", "5", "1", "4", "3", "5", "0", "11", "9", "11", "12", "5", "7", "8"], "time": [2088, 2488, 2855, 3138, 3388, 4005, 4655, 4721, 4888, 6205, 6638, 7305, 7405, 7938, 8405, 9555, 10488, 11038, 13105, 14905]}, "edge": {"target": [], "time": []}}, "mouseout": {"state": {"target": ["0", "0", "0", "10", "4", "2", "6", "8", "5", "1", "4", "2", "3", "6", "5", "0", "10", "11", "9", "9", "11", "12", "5", "6", "6", "6", "7", "6", "8"], "time": [1921, 2121, 2521, 3055, 3172, 3638, 4255, 4671, 4771, 6171, 6538, 6605, 6871, 7255, 7355, 7488, 7838, 8155, 9088, 9521, 9921, 10671, 11388, 11788, 12505, 13021, 14805, 14871, 15238]}, "edge": {"target": [], "time": []}}}, "displayed_time": "18.12", "trialTime": 18646, "trial_type": "mouselab-mdp", "trial_index": 15, "time_elapsed": 761882, "internal_node_id": "0.0-4.0-1.0-6.0"}}, {"uniqueid": "w33873282:a66752777", "current_trial": 16, "dateTime": 1664464702666, "trialdata": {"revealed_states": [], "num_clicks_accrued": [0, 0, 0, 0, 0, 0, 0, 0, 0, 0, 0, 0, 0], "stateRewards": ["", 2, 4, -24, -48, 4, -4, 24, 48, -4, -4, -24, 48], "withholdReward": false, "trial_id": "mdp_181958792175", "block": "test1", "trialIndex": 9, "score": 50.5, "costs": -2.5, "simulationMode": [null, null, null], "rewards": [4, -4, 48], "path": ["0", "0", "5", "6", "8"], "rt": [18199, 1909, 7326], "actions": ["right", "right", "down"], "actionTimes": [18990, 21391, 29207], "queries": {"click": {"state": {"target": ["10", "2", "6", "1", "4", "3", "9", "5", "7", "8"], "time": [2239, 2806, 3419, 7799, 8788, 9238, 14341, 15662, 17358, 17957]}, "edge": {"target": [], "time": []}}, "mouseover": {"state": {"target": ["1", "10", "1", "2", "6", "5", "1", "4", "1", "7", "4", "3", "9", "9", "0", "5", "5", "7", "8"], "time": [1414, 2147, 2464, 2597, 3131, 4447, 4564, 6497, 7598, 8447, 8547, 9097, 11497, 11781, 14581, 15414, 15514, 17214, 17614]}, "edge": {"target": [], "time": []}}, "mouseout": {"state": {"target": ["8", "5", "1", "10", "1", "2", "6", "6", "5", "1", "4", "1", "7", "4", "3", "2", "1", "9", "9", "0", "5", "5", "5", "7", "6", "8"], "time": [497, 697, 1531, 2397, 2497, 3014, 3548, 4431, 4464, 6447, 7531, 7931, 8464, 8931, 9381, 11464, 11481, 11531, 14547, 14747, 15431, 15814, 17031, 17497, 17564, 18081]}, "edge": {"target": [], "time": []}}}, "displayed_time": "29.70", "trialTime": 33976, "trial_type": "mouselab-mdp", "trial_index": 16, "time_elapsed": 795886, "internal_node_id": "0.0-4.0-1.0-7.0"}}, {"uniqueid": "w33873282:a66752777", "current_trial": 17, "dateTime": 1664464723260, "trialdata": {"revealed_states": [], "num_clicks_accrued": [0, 0, 0, 0, 0, 0, 0, 0, 0, 0, 0, 0, 0], "stateRewards": ["", -4, 8, -48, -48, -2, -8, -24, -48, 2, -4, -48, 24], "withholdReward": true, "trial_id": "mdp_743906784415", "block": "test1", "trialIndex": 10, "score": 24, "costs": -3, "simulationMode": [null, null, null], "rewards": [2, -4, 24], "path": ["0", "0", "9", "10", "12"], "rt": [16929, 219, 271], "actions": ["left", "left", "down"], "actionTimes": [17940, 18644, 19412], "queries": {"click": {"state": {"target": ["10", "2", "6", "1", "4", "3", "5", "9", "11", "12", "8", "7"], "time": [2269, 2799, 3275, 5619, 8556, 9043, 10383, 11426, 12621, 13319, 16459, 16907]}, "edge": {"target": [], "time": []}}, "mouseover": {"state": {"target": ["10", "10", "4", "2", "7", "6", "8", "1", "4", "1", "4", "3", "7", "5", "0", "9", "0", "8", "8", "0", "11", "12", "8", "8", "8", "7"], "time": [1841, 2125, 2508, 2675, 2975, 3141, 3841, 4008, 4358, 4808, 5958, 8825, 9875, 10158, 11141, 11391, 11608, 11758, 12075, 12141, 12225, 12891, 13875, 16008, 16308, 16825]}, "edge": {"target": [], "time": []}}, "mouseout": {"state": {"target": ["6", "5", "0", "10", "10", "4", "2", "7", "6", "8", "1", "4", "1", "4", "2", "3", "6", "7", "5", "6", "6", "5", "0", "9", "0", "8", "8", "0", "11", "10", "12", "8", "8", "8", "6", "7"], "time": [741, 791, 1508, 1925, 2391, 2525, 2941, 3008, 3441, 3858, 4159, 4758, 5892, 8725, 8791, 9258, 9775, 10025, 10508, 10558, 11075, 11108, 11258, 11575, 11625, 11808, 12108, 12158, 12775, 12858, 13441, 13925, 16058, 16575, 16708, 17075]}, "edge": {"target": [], "time": []}}}, "displayed_time": "19.91", "trialTime": 20564, "trial_type": "mouselab-mdp", "trial_index": 17, "time_elapsed": 816480, "internal_node_id": "0.0-4.0-1.0-8.0"}}, {"uniqueid": "w33873282:a66752777", "current_trial": 18, "dateTime": 1664464735302, "trialdata": {"revealed_states": [], "num_clicks_accrued": [0, 0, 0, 0, 0, 0, 0, 0, 0, 0, 0, 0, 0], "stateRewards": ["", 2, -4, 24, -24, 2, -8, 48, 48, 4, -4, 24, 48], "withholdReward": true, "trial_id": "mdp_947836623875", "block": "test1", "trialIndex": 11, "score": 51.25, "costs": -1.75, "simulationMode": [null, null, null], "rewards": [4, -4, 48], "path": ["0", "0", "9", "10", "12"], "rt": [8450, 187, 240], "actions": ["left", "left", "down"], "actionTimes": [9582, 10254, 10991], "queries": {"click": {"state": {"target": ["2", "10", "6", "1", "9", "11", "12"], "time": [1747, 2197, 2831, 5248, 5772, 7747, 8283]}, "edge": {"target": [], "time": []}}, "mouseover": {"state": {"target": ["1", "2", "9", "10", "9", "0", "5", "6", "6", "8", "5", "1", "4", "4", "1", "0", "9", "11", "12"], "time": [1417, 1617, 1917, 2167, 2417, 2450, 2467, 2484, 2767, 3350, 3867, 3900, 3950, 4150, 4817, 5534, 5600, 6784, 8184]}, "edge": {"target": [], "time": []}}, "mouseout": {"state": {"target": ["0", "1", "2", "9", "10", "9", "0", "5", "6", "6", "8", "5", "1", "4", "4", "1", "0", "9", "9", "11", "12"], "time": [1353, 1484, 1850, 1950, 2400, 2434, 2467, 2484, 2500, 3050, 3400, 3884, 3917, 3967, 4767, 5450, 5567, 5917, 6617, 7883, 8617]}, "edge": {"target": [], "time": []}}}, "displayed_time": "11.48", "trialTime": 12015, "trial_type": "mouselab-mdp", "trial_index": 18, "time_elapsed": 828522, "internal_node_id": "0.0-4.0-1.0-9.0"}}, {"uniqueid": "w33873282:a66752777", "current_trial": 19, "dateTime": 1664464744743, "trialdata": {"revealed_states": [], "num_clicks_accrued": [0, 0, 0, 0, 0, 0, 0, 0, 0, 0, 0, 0, 0], "stateRewards": ["", -4, 4, -24, 48, -2, 8, -48, 24, 2, 4, 48, -48], "withholdReward": true, "trial_id": "mdp_366632183904", "block": "test1", "trialIndex": 12, "score": 33.5, "costs": -1.5, "simulationMode": [null, null, null], "rewards": [-2, 8, 24], "path": ["0", "0", "5", "6", "8"], "rt": [6407, 222, 177], "actions": ["right", "right", "down"], "actionTimes": [7074, 7810, 8482], "queries": {"click": {"state": {"target": ["10", "2", "6", "7", "5", "8"], "time": [1145, 1697, 2277, 2929, 3772, 4973]}, "edge": {"target": [], "time": []}}, "mouseover": {"state": {"target": ["10", "4", "2", "6", "7", "5", "8"], "time": [988, 1338, 1537, 2088, 2805, 3638, 3971]}, "edge": {"target": [], "time": []}}, "mouseout": {"state": {"target": ["0", "10", "4", "2", "6", "7", "5", "8"], "time": [871, 1238, 1355, 1904, 2738, 3071, 3921, 5171]}, "edge": {"target": [], "time": []}}}, "displayed_time": "8.99", "trialTime": 9410, "trial_type": "mouselab-mdp", "trial_index": 19, "time_elapsed": 837963, "internal_node_id": "0.0-4.0-1.0-10.0"}}, {"uniqueid": "w33873282:a66752777", "current_trial": 20, "dateTime": 1664464756624, "trialdata": {"revealed_states": [], "num_clicks_accrued": [0, 0, 0, 0, 0, 0, 0, 0, 0, 0, 0, 0, 0], "stateRewards": ["", 2, 8, 48, -24, -4, 4, 48, 24, -2, 8, 24, 24], "withholdReward": true, "trial_id": "mdp_123436106791", "block": "test1", "trialIndex": 13, "score": 61.25, "costs": -1.75, "simulationMode": [null, null, null], "rewards": [2, 8, 48], "path": ["0", "0", "1", "2", "3"], "rt": [8858, 139, 178], "actions": ["up", "up", "right"], "actionTimes": [9548, 10188, 10860], "queries": {"click": {"state": {"target": ["2", "10", "6", "9", "1", "4", "3"], "time": [1325, 1980, 2592, 5690, 6008, 7523, 8385]}, "edge": {"target": [], "time": []}}, "mouseover": {"state": {"target": ["1", "2", "10", "9", "0", "5", "6", "8", "9", "11", "9", "1", "4", "4", "3", "3", "0"], "time": [965, 1198, 1932, 2182, 2232, 2282, 2449, 2782, 3382, 3632, 5565, 5849, 6748, 7465, 7832, 8298, 8882]}, "edge": {"target": [], "time": []}}, "mouseout": {"state": {"target": ["1", "2", "10", "9", "0", "5", "6", "8", "9", "11", "9", "1", "4", "4", "2", "3", "3", "1", "0"], "time": [1015, 1465, 2149, 2215, 2249, 2366, 2748, 2848, 3482, 5499, 5798, 6149, 7065, 7665, 7815, 7882, 8615, 8698, 8915]}, "edge": {"target": [], "time": []}}}, "displayed_time": "11.37", "trialTime": 11852, "trial_type": "mouselab-mdp", "trial_index": 20, "time_elapsed": 849844, "internal_node_id": "0.0-4.0-1.0-11.0"}}, {"uniqueid": "w33873282:a66752777", "current_trial": 21, "dateTime": 1664464767289, "trialdata": {"revealed_states": [], "num_clicks_accrued": [0, 0, 0, 0, 0, 0, 0, 0, 0, 0, 0, 0, 0], "stateRewards": ["", 4, 8, -24, 48, 4, -8, -48, 48, -4, 8, -24, -48], "withholdReward": true, "trial_id": "mdp_376126356841", "block": "test1", "trialIndex": 14, "score": 63.5, "costs": -1.5, "simulationMode": [null, null, null], "rewards": [4, 8, 48], "path": ["0", "0", "1", "2", "4"], "rt": [5979, 128, 230], "actions": ["up", "up", "left"], "actionTimes": [6571, 7211, 7947], "queries": {"click": {"state": {"target": ["2", "10", "6", "9", "1", "4"], "time": [1082, 1525, 2013, 3572, 3890, 4964]}, "edge": {"target": [], "time": []}}, "mouseover": {"state": {"target": ["1", "2", "10", "9", "0", "5", "6", "9", "1", "4", "3"], "time": [817, 1000, 1416, 1683, 1716, 1750, 1983, 2768, 3816, 4750, 5150]}, "edge": {"target": [], "time": []}}, "mouseout": {"state": {"target": ["1", "2", "10", "9", "0", "5", "6", "10", "9", "1", "4", "2", "3"], "time": [917, 1217, 1650, 1700, 1733, 1800, 2300, 2733, 3683, 4167, 5083, 5133, 9000]}, "edge": {"target": [], "time": []}}}, "displayed_time": "9.59", "trialTime": 10635, "trial_type": "mouselab-mdp", "trial_index": 21, "time_elapsed": 860509, "internal_node_id": "0.0-4.0-1.0-12.0"}}, {"uniqueid": "w33873282:a66752777", "current_trial": 22, "dateTime": 1664464776258, "trialdata": {"revealed_states": [], "num_clicks_accrued": [0, 0, 0, 0, 0, 0, 0, 0, 0, 0, 0, 0, 0], "stateRewards": ["", 2, 4, -48, 24, -4, -4, -24, 24, 2, -4, 24, -24], "withholdReward": true, "trial_id": "mdp_163600331068", "block": "test1", "trialIndex": 15, "score": 33.5, "costs": -1.5, "simulationMode": [null, null, null], "rewards": [2, 4, 24], "path": ["0", "0", "1", "2", "4"], "rt": [6056, 165, 218], "actions": ["up", "up", "left"], "actionTimes": [6795, 7467, 8204], "queries": {"click": {"state": {"target": ["2", "10", "6", "1", "4", "3"], "time": [1232, 1674, 2108, 4587, 5322, 5937]}, "edge": {"target": [], "time": []}}, "mouseover": {"state": {"target": ["1", "2", "11", "10", "9", "5", "6", "8", "8", "5", "1", "4", "1", "9", "4", "3"], "time": [968, 1118, 1401, 1635, 1801, 1851, 1901, 2335, 2485, 2601, 2668, 3018, 4435, 4835, 5135, 5835]}, "edge": {"target": [], "time": []}}, "mouseout": {"state": {"target": ["0", "1", "2", "11", "10", "9", "5", "6", "8", "8", "5", "1", "4", "1", "9", "4", "1", "3"], "time": [918, 1002, 1351, 1435, 1785, 1818, 1885, 2318, 2351, 2535, 2618, 2751, 4351, 4768, 5068, 5468, 5585, 6051]}, "edge": {"target": [], "time": []}}}, "displayed_time": "8.74", "trialTime": 8939, "trial_type": "mouselab-mdp", "trial_index": 22, "time_elapsed": 869478, "internal_node_id": "0.0-4.0-1.0-13.0"}}, {"uniqueid": "w33873282:a66752777", "current_trial": 23, "dateTime": 1664464792300, "trialdata": {"revealed_states": [], "num_clicks_accrued": [0, 0, 0, 0, 0, 0, 0, 0, 0, 0, 0, 0, 0], "stateRewards": ["", -2, -4, 48, -24, -4, -4, -24, -24, -2, 4, -48, -24], "withholdReward": true, "trial_id": "mdp_410467837196", "block": "test1", "trialIndex": 16, "score": 44.75, "costs": -2.25, "simulationMode": [null, null, null], "rewards": [-2, -4, 48], "path": ["0", "0", "1", "2", "3"], "rt": [12332, 144, 230], "actions": ["up", "up", "right"], "actionTimes": [13418, 14058, 14794], "queries": {"click": {"state": {"target": ["2", "10", "6", "9", "11", "12", "1", "5", "3"], "time": [1634, 2034, 2857, 4471, 4955, 5527, 8208, 10855, 11839]}, "edge": {"target": [], "time": []}}, "mouseover": {"state": {"target": ["1", "2", "10", "9", "0", "5", "6", "6", "8", "0", "9", "11", "11", "11", "9", "11", "12", "1", "4", "1", "5", "8", "3"], "time": [1364, 1530, 1864, 2164, 2197, 2231, 2297, 2797, 3264, 3314, 3347, 3597, 3814, 4064, 4347, 4714, 5430, 6097, 6547, 6931, 8514, 11047, 11697]}, "edge": {"target": [], "time": []}}, "mouseout": {"state": {"target": ["5", "1", "2", "10", "9", "0", "5", "6", "6", "8", "0", "9", "11", "11", "11", "9", "11", "10", "12", "1", "4", "1", "5", "8", "6", "3", "1", "1"], "time": [997, 1430, 1747, 2147, 2181, 2214, 2247, 2447, 2997, 3280, 3330, 3464, 3614, 3931, 4297, 4680, 5297, 5414, 5730, 6230, 6797, 8347, 10980, 11514, 11547, 11997, 12180, 12680]}, "edge": {"target": [], "time": []}}}, "displayed_time": "15.30", "trialTime": 16010, "trial_type": "mouselab-mdp", "trial_index": 23, "time_elapsed": 885520, "internal_node_id": "0.0-4.0-1.0-14.0"}}, {"uniqueid": "w33873282:a66752777", "current_trial": 24, "dateTime": 1664464804630, "trialdata": {"revealed_states": [], "num_clicks_accrued": [0, 0, 0, 0, 0, 0, 0, 0, 0, 0, 0, 0, 0], "stateRewards": ["", 4, -8, -24, 24, 2, -4, 24, 24, 2, -4, 48, 48], "withholdReward": false, "trial_id": "mdp_457607480918", "block": "test1", "trialIndex": 17, "score": 49.25, "costs": -1.75, "simulationMode": [null, null, null], "rewards": [2, -4, 48], "path": ["0", "0", "9", "10", "11"], "rt": [9054, 118, 141], "actions": ["left", "left", "up"], "actionTimes": [10286, 10894, 11534], "queries": {"click": {"state": {"target": ["10", "2", "6", "5", "9", "7", "11"], "time": [1769, 2683, 3252, 4876, 5219, 6055, 8939]}, "edge": {"target": [], "time": []}}, "mouseover": {"state": {"target": ["10", "2", "2", "5", "6", "5", "5", "9", "7", "11", "8", "11", "12"], "time": [1726, 2143, 2576, 2877, 3193, 3643, 4676, 5043, 5893, 6609, 7110, 8593, 9126]}, "edge": {"target": [], "time": []}}, "mouseout": {"state": {"target": ["1", "1", "10", "2", "2", "5", "6", "6", "5", "6", "5", "9", "6", "7", "5", "9", "11", "9", "8", "9", "10", "11", "10", "12"], "time": [159, 492, 1892, 2393, 2826, 2893, 3393, 3593, 4043, 4226, 4993, 5376, 5843, 6193, 6243, 6409, 7009, 7059, 8159, 8259, 8276, 9059, 9110, 9159]}, "edge": {"target": [], "time": []}}}, "displayed_time": "12.03", "trialTime": 12302, "trial_type": "mouselab-mdp", "trial_index": 24, "time_elapsed": 897850, "internal_node_id": "0.0-4.0-1.0-15.0"}}, {"uniqueid": "w33873282:a66752777", "current_trial": 25, "dateTime": 1664464814975, "trialdata": {"revealed_states": [], "num_clicks_accrued": [0, 0, 0, 0, 0, 0, 0, 0, 0, 0, 0, 0, 0], "stateRewards": ["", 4, 4, 48, -48, -2, 4, 48, -48, -4, 4, -24, -24], "withholdReward": true, "trial_id": "mdp_753324812898", "block": "test1", "trialIndex": 18, "score": 54, "costs": -1, "simulationMode": [null, null, null], "rewards": [-2, 4, 48], "path": ["0", "0", "5", "6", "7"], "rt": [4270, 139, 193], "actions": ["right", "right", "up"], "actionTimes": [5024, 5664, 6368], "queries": {"click": {"state": {"target": ["10", "2", "6", "7"], "time": [1280, 1712, 2403, 3103]}, "edge": {"target": [], "time": []}}, "mouseover": {"state": {"target": ["9", "10", "2", "7", "6", "7", "5"], "time": [1108, 1141, 1541, 1941, 2341, 2974, 3824]}, "edge": {"target": [], "time": []}}, "mouseout": {"state": {"target": ["0", "9", "10", "2", "7", "6", "7", "5"], "time": [1091, 1124, 1391, 1891, 1958, 2591, 3641, 4358]}, "edge": {"target": [], "time": []}}}, "displayed_time": "9.76", "trialTime": 10312, "trial_type": "mouselab-mdp", "trial_index": 25, "time_elapsed": 908195, "internal_node_id": "0.0-4.0-1.0-16.0"}}, {"uniqueid": "w33873282:a66752777", "current_trial": 26, "dateTime": 1664464825160, "trialdata": {"revealed_states": [], "num_clicks_accrued": [0, 0, 0, 0, 0, 0, 0, 0, 0, 0, 0, 0, 0], "stateRewards": ["", -4, -4, -48, -24, 2, 8, 24, -48, 4, 4, 48, 48], "withholdReward": true, "trial_id": "mdp_693501840209", "block": "test1", "trialIndex": 19, "score": 37.5, "costs": -1.5, "simulationMode": [null, null, null], "rewards": [2, 8, 24], "path": ["0", "0", "5", "6", "7"], "rt": [7418, 111, 127], "actions": ["right", "right", "up"], "actionTimes": [8032, 8640, 9256], "queries": {"click": {"state": {"target": ["10", "2", "6", "5", "7", "8"], "time": [1156, 1652, 2490, 3830, 6407, 7209]}, "edge": {"target": [], "time": []}}, "mouseover": {"state": {"target": ["10", "2", "6", "5", "8", "7", "8"], "time": [1112, 1512, 2413, 3446, 5629, 5796, 6713]}, "edge": {"target": [], "time": []}}, "mouseout": {"state": {"target": ["0", "10", "2", "6", "5", "8", "6", "7", "6"], "time": [879, 1279, 1796, 2696, 3963, 5646, 5729, 6546, 6646]}, "edge": {"target": [], "time": []}}}, "displayed_time": "9.75", "trialTime": 10152, "trial_type": "mouselab-mdp", "trial_index": 26, "time_elapsed": 918380, "internal_node_id": "0.0-4.0-1.0-17.0"}}, {"uniqueid": "w33873282:a66752777", "current_trial": 27, "dateTime": 1664464837578, "trialdata": {"revealed_states": [], "num_clicks_accrued": [0, 0, 0, 0, 0, 0, 0, 0, 0, 0, 0, 0, 0], "stateRewards": ["", 4, 4, 48, -48, -2, -8, -48, -24, 2, 4, -24, -48], "withholdReward": true, "trial_id": "mdp_239929662917", "block": "test1", "trialIndex": 20, "score": 59.25, "costs": -1.75, "simulationMode": [null, null, null], "rewards": [4, 4, 48], "path": ["0", "0", "1", "2", "3"], "rt": [9157, 219, 382], "actions": ["up", "up", "right"], "actionTimes": [9796, 10500, 11396], "queries": {"click": {"state": {"target": ["2", "10", "6", "9", "1", "4", "3"], "time": [1601, 2161, 3141, 5738, 6608, 8216, 8764]}, "edge": {"target": [], "time": []}}, "mouseover": {"state": {"target": ["1", "2", "9", "10", "9", "0", "5", "6", "6", "5", "9", "11", "9", "1", "0", "0", "4", "3"], "time": [831, 980, 1864, 2081, 2631, 2648, 2681, 2698, 3047, 3697, 3747, 3980, 5397, 6364, 6847, 7531, 7797, 8647]}, "edge": {"target": [], "time": []}}, "mouseout": {"state": {"target": ["8", "0", "1", "2", "9", "10", "9", "0", "5", "6", "6", "5", "9", "11", "9", "1", "0", "0", "4", "2"], "time": [297, 547, 914, 1747, 1931, 2614, 2647, 2664, 2697, 2730, 3664, 3714, 3764, 5347, 5930, 6798, 6864, 7564, 8430, 8530]}, "edge": {"target": [], "time": []}}}, "displayed_time": "11.90", "trialTime": 12388, "trial_type": "mouselab-mdp", "trial_index": 27, "time_elapsed": 930798, "internal_node_id": "0.0-4.0-1.0-18.0"}}, {"uniqueid": "w33873282:a66752777", "current_trial": 28, "dateTime": 1664464847444, "trialdata": {"revealed_states": [], "num_clicks_accrued": [0, 0, 0, 0, 0, 0, 0, 0, 0, 0, 0, 0, 0], "stateRewards": ["", 2, -4, 48, -48, 2, 4, -24, 24, -4, -8, 24, -48], "withholdReward": true, "trial_id": "mdp_238810765895", "block": "test1", "trialIndex": 21, "score": 33.5, "costs": -1.5, "simulationMode": [null, null, null], "rewards": [2, 4, 24], "path": ["0", "0", "5", "6", "8"], "rt": [5970, 117, 124], "actions": ["right", "right", "down"], "actionTimes": [6540, 7148, 7788], "queries": {"click": {"state": {"target": ["10", "2", "6", "5", "8", "7"], "time": [1174, 1746, 2338, 4151, 5003, 5720]}, "edge": {"target": [], "time": []}}, "mouseover": {"state": {"target": ["0", "0", "9", "10", "2", "1", "5", "6", "7", "5", "8", "7"], "time": [813, 930, 980, 1013, 1681, 1964, 2047, 2280, 3714, 4013, 4880, 5463]}, "edge": {"target": [], "time": []}}, "mouseout": {"state": {"target": ["3", "1", "0", "0", "9", "10", "2", "1", "5", "6", "7", "5", "8", "6", "7"], "time": [413, 530, 847, 963, 997, 1297, 1931, 1981, 2097, 2514, 3947, 4280, 5214, 5363, 5847]}, "edge": {"target": [], "time": []}}}, "displayed_time": "9.57", "trialTime": 9837, "trial_type": "mouselab-mdp", "trial_index": 28, "time_elapsed": 940664, "internal_node_id": "0.0-4.0-1.0-19.0"}}, {"uniqueid": "w33873282:a66752777", "current_trial": 29, "dateTime": 1664464857116, "trialdata": {"revealed_states": [], "num_clicks_accrued": [0, 0, 0, 0, 0, 0, 0, 0, 0, 0, 0, 0, 0], "stateRewards": ["", -2, 4, -24, 24, -4, -8, 24, -48, -4, -4, -48, -24], "withholdReward": true, "trial_id": "mdp_753137520419", "block": "test1", "trialIndex": 22, "score": 29.5, "costs": -1.5, "simulationMode": [null, null, null], "rewards": [-2, 4, 24], "path": ["0", "0", "1", "2", "4"], "rt": [5524, 154, 208], "actions": ["up", "up", "left"], "actionTimes": [5993, 6633, 7336], "queries": {"click": {"state": {"target": ["10", "2", "6", "1", "4", "3"], "time": [885, 1364, 1913, 3095, 3787, 4645]}, "edge": {"target": [], "time": []}}, "mouseover": {"state": {"target": ["9", "10", "2", "6", "5", "1", "1", "0", "0", "4", "0", "3"], "time": [662, 729, 1279, 1829, 2395, 2495, 2962, 3295, 3495, 3595, 3995, 4312]}, "edge": {"target": [], "time": []}}, "mouseout": {"state": {"target": ["0", "9", "10", "2", "6", "5", "1", "1", "0", "0", "4", "0", "3"], "time": [579, 695, 995, 1512, 2079, 2412, 2529, 3245, 3329, 3512, 3912, 4079, 4762]}, "edge": {"target": [], "time": []}}}, "displayed_time": "9.47", "trialTime": 9640, "trial_type": "mouselab-mdp", "trial_index": 29, "time_elapsed": 950336, "internal_node_id": "0.0-4.0-1.0-20.0"}}, {"uniqueid": "w33873282:a66752777", "current_trial": 30, "dateTime": 1664464866853, "trialdata": {"revealed_states": [], "num_clicks_accrued": [0, 0, 0, 0, 0, 0, 0, 0, 0, 0, 0, 0, 0], "stateRewards": ["", 2, 4, -24, -24, 4, 8, -48, 48, 2, 4, -24, -48], "withholdReward": false, "trial_id": "mdp_565165082781", "block": "test1", "trialIndex": 23, "score": 63.5, "costs": -1.5, "simulationMode": [null, null, null], "rewards": [4, 8, 48], "path": ["0", "0", "5", "6", "8"], "rt": [5574, 59, 100], "actions": ["right", "right", "down"], "actionTimes": [6123, 6667, 7275], "queries": {"click": {"state": {"target": ["10", "2", "6", "5", "7", "8"], "time": [1101, 1633, 2194, 3426, 4322, 4956]}, "edge": {"target": [], "time": []}}, "mouseover": {"state": {"target": ["0", "9", "10", "2", "5", "6", "6", "8", "8", "5", "5", "8", "7", "8", "8"], "time": [692, 741, 1025, 1492, 1875, 1941, 2041, 2342, 2808, 2975, 3325, 3592, 4092, 4491, 4808]}, "edge": {"target": [], "time": []}}, "mouseout": {"state": {"target": ["0", "0", "9", "10", "2", "5", "6", "6", "8", "8", "5", "5", "8", "6", "7", "6", "8", "8"], "time": [508, 725, 791, 1208, 1775, 1908, 1958, 2325, 2358, 2825, 3058, 3575, 3625, 4075, 4441, 4475, 4525, 5058]}, "edge": {"target": [], "time": []}}}, "displayed_time": "9.55", "trialTime": 9708, "trial_type": "mouselab-mdp", "trial_index": 30, "time_elapsed": 960073, "internal_node_id": "0.0-4.0-1.0-21.0"}}, {"uniqueid": "w33873282:a66752777", "current_trial": 31, "dateTime": 1664464876910, "trialdata": {"revealed_states": [], "num_clicks_accrued": [0, 0, 0, 0, 0, 0, 0, 0, 0, 0, 0, 0, 0], "stateRewards": ["", 2, -4, 48, 24, 2, 8, 24, 24, -2, 4, 24, 24], "withholdReward": false, "trial_id": "mdp_813974524300", "block": "test1", "trialIndex": 24, "score": 37.75, "costs": -1.25, "simulationMode": [null, null, null], "rewards": [2, 8, 24], "path": ["0", "0", "5", "6", "8"], "rt": [7039, 298, 163], "actions": ["right", "right", "down"], "actionTimes": [7624, 8425, 9073], "queries": {"click": {"state": {"target": ["10", "2", "6", "5", "8"], "time": [1106, 1636, 2169, 5639, 6366]}, "edge": {"target": [], "time": []}}, "mouseover": {"state": {"target": ["9", "10", "2", "6", "7", "5", "8"], "time": [860, 993, 1493, 1943, 4243, 5076, 6276]}, "edge": {"target": [], "time": []}}, "mouseout": {"state": {"target": ["0", "9", "10", "2", "6", "7", "5", "8"], "time": [826, 910, 1259, 1793, 2360, 4976, 5793, 6493]}, "edge": {"target": [], "time": []}}}, "displayed_time": "9.58", "trialTime": 10033, "trial_type": "mouselab-mdp", "trial_index": 31, "time_elapsed": 970130, "internal_node_id": "0.0-4.0-1.0-22.0"}}, {"uniqueid": "w33873282:a66752777", "current_trial": 32, "dateTime": 1664464887439, "trialdata": {"revealed_states": [], "num_clicks_accrued": [0, 0, 0, 0, 0, 0, 0, 0, 0, 0, 0, 0, 0], "stateRewards": ["", -4, -4, -24, 24, 4, 4, -24, -24, -4, 4, 24, 24], "withholdReward": true, "trial_id": "mdp_787781487383", "block": "test1", "trialIndex": 25, "score": -12.5, "costs": -1.5, "simulationMode": [null, null, null], "rewards": [4, 4, -24], "path": ["0", "0", "5", "6", "8"], "rt": [5691, 112, 184], "actions": ["right", "right", "down"], "actionTimes": [6855, 7463, 8135], "queries": {"click": {"state": {"target": ["10", "2", "6", "5", "9", "7"], "time": [1709, 2274, 2754, 3881, 4481, 5544]}, "edge": {"target": [], "time": []}}, "mouseover": {"state": {"target": ["10", "1", "2", "6", "5", "0", "9", "7", "8"], "time": [1617, 1917, 2201, 2650, 3784, 4067, 4184, 5334, 5734]}, "edge": {"target": [], "time": []}}, "mouseout": {"state": {"target": ["0", "10", "1", "2", "6", "5", "0", "9", "7", "6", "8"], "time": [1384, 1867, 1951, 2434, 2917, 4051, 4100, 4617, 5667, 5700, 5767]}, "edge": {"target": [], "time": []}}}, "displayed_time": "10.16", "trialTime": 10503, "trial_type": "mouselab-mdp", "trial_index": 32, "time_elapsed": 980659, "internal_node_id": "0.0-4.0-1.0-23.0"}}, {"uniqueid": "w33873282:a66752777", "current_trial": 33, "dateTime": 1664464900057, "trialdata": {"revealed_states": [], "num_clicks_accrued": [0, 0, 0, 0, 0, 0, 0, 0, 0, 0, 0, 0, 0], "stateRewards": ["", 4, -4, 24, 48, 4, 8, -24, -24, -2, 4, 48, 48], "withholdReward": false, "trial_id": "mdp_624998450453", "block": "test1", "trialIndex": 26, "score": 53, "costs": -2, "simulationMode": [null, null, null], "rewards": [-2, 4, 48], "path": ["0", "0", "9", "10", "11"], "rt": [9608, 86, 142], "actions": ["left", "left", "up"], "actionTimes": [10410, 10986, 11626], "queries": {"click": {"state": {"target": ["10", "2", "6", "5", "7", "8", "9", "11"], "time": [1289, 1788, 2279, 3636, 4493, 5165, 7637, 9051]}, "edge": {"target": [], "time": []}}, "mouseover": {"state": {"target": ["10", "1", "2", "6", "8", "5", "5", "7", "8", "8", "11", "9", "11", "12"], "time": [1216, 1516, 1683, 2016, 2433, 3066, 3516, 4400, 4650, 4983, 7083, 7550, 8916, 9283]}, "edge": {"target": [], "time": []}}, "mouseout": {"state": {"target": ["0", "10", "1", "2", "6", "8", "5", "5", "7", "6", "8", "8", "10", "11", "9", "9", "11", "10", "12"], "time": [967, 1450, 1583, 1916, 2400, 2450, 3350, 3766, 4616, 4650, 4683, 5316, 7000, 7466, 7766, 8866, 9200, 9250, 9616]}, "edge": {"target": [], "time": []}}}, "displayed_time": "12.13", "trialTime": 12586, "trial_type": "mouselab-mdp", "trial_index": 33, "time_elapsed": 993277, "internal_node_id": "0.0-4.0-1.0-24.0"}}, {"uniqueid": "w33873282:a66752777", "current_trial": 34, "dateTime": 1664464909826, "trialdata": {"revealed_states": [], "num_clicks_accrued": [0, 0, 0, 0, 0, 0, 0, 0, 0, 0, 0, 0, 0], "stateRewards": ["", 2, 8, 48, -48, -2, -4, -24, 24, 4, -4, 48, -48], "withholdReward": true, "trial_id": "mdp_105734044587", "block": "test1", "trialIndex": 27, "score": 61.5, "costs": -1.5, "simulationMode": [null, null, null], "rewards": [2, 8, 48], "path": ["0", "0", "1", "2", "3"], "rt": [5860, 81, 169], "actions": ["up", "up", "right"], "actionTimes": [6755, 7331, 8003], "queries": {"click": {"state": {"target": ["10", "2", "6", "1", "4", "3"], "time": [1659, 2204, 2689, 4178, 4809, 5606]}, "edge": {"target": [], "time": []}}, "mouseover": {"state": {"target": ["9", "10", "2", "6", "5", "1", "4", "1", "9", "4", "4", "9", "3"], "time": [1384, 1584, 2050, 2600, 3284, 3317, 3367, 4067, 4384, 4617, 4734, 5117, 5451]}, "edge": {"target": [], "time": []}}, "mouseout": {"state": {"target": ["9", "9", "10", "2", "6", "5", "1", "4", "1", "9", "4", "4", "9", "3"], "time": [734, 1484, 1800, 2317, 2850, 3300, 3334, 4034, 4317, 4550, 4650, 5050, 5301, 5700]}, "edge": {"target": [], "time": []}}}, "displayed_time": "8.90", "trialTime": 9739, "trial_type": "mouselab-mdp", "trial_index": 34, "time_elapsed": 1003046, "internal_node_id": "0.0-4.0-1.0-25.0"}}, {"uniqueid": "w33873282:a66752777", "current_trial": 35, "dateTime": 1664464923779, "trialdata": {"revealed_states": [], "num_clicks_accrued": [0, 0, 0, 0, 0, 0, 0, 0, 0, 0, 0, 0, 0], "stateRewards": ["", 4, -4, 48, -48, -4, -4, 48, -48, 4, 4, -48, -24], "withholdReward": true, "trial_id": "mdp_490058671112", "block": "test1", "trialIndex": 28, "score": 50.5, "costs": -2.5, "simulationMode": [null, null, null], "rewards": [4, -4, 48], "path": ["0", "0", "1", "2", "3"], "rt": [11417, 52, 143], "actions": ["up", "up", "right"], "actionTimes": [11941, 12485, 13125], "queries": {"click": {"state": {"target": ["10", "2", "6", "9", "11", "12", "1", "5", "4", "3"], "time": [1190, 1716, 2260, 3587, 4407, 5006, 7549, 9093, 9971, 10727]}, "edge": {"target": [], "time": []}}, "mouseover": {"state": {"target": ["9", "10", "2", "1", "5", "6", "11", "9", "11", "12", "12", "1", "5", "1", "1", "4", "5", "0", "4", "3", "7"], "time": [1016, 1099, 1599, 1916, 1966, 2149, 3065, 3282, 4065, 4566, 4849, 6999, 7032, 7249, 7499, 8099, 8882, 9632, 9766, 10599, 11265]}, "edge": {"target": [], "time": []}}, "mouseout": {"state": {"target": ["0", "9", "10", "2", "1", "5", "6", "10", "11", "9", "11", "10", "12", "12", "2", "1", "5", "1", "1", "1", "4", "1", "5", "0", "4", "3", "5", "6", "7"], "time": [949, 1082, 1332, 1899, 1932, 1999, 2399, 2949, 3199, 3732, 4532, 4566, 4599, 5115, 6999, 7015, 7232, 7265, 7699, 7865, 8815, 8849, 9215, 9649, 10082, 10865, 10965, 11249, 11282]}, "edge": {"target": [], "time": []}}}, "displayed_time": "13.62", "trialTime": 13925, "trial_type": "mouselab-mdp", "trial_index": 35, "time_elapsed": 1016999, "internal_node_id": "0.0-4.0-1.0-26.0"}}, {"uniqueid": "w33873282:a66752777", "current_trial": 36, "dateTime": 1664464934220, "trialdata": {"revealed_states": [], "num_clicks_accrued": [0, 0, 0, 0, 0, 0, 0, 0, 0, 0, 0, 0, 0], "stateRewards": ["", -2, -8, 48, 24, 4, -8, 24, 48, 4, -4, 24, -48], "withholdReward": true, "trial_id": "mdp_871576155740", "block": "test1", "trialIndex": 29, "score": 27.5, "costs": -1.5, "simulationMode": [null, null, null], "rewards": [4, -4, 24], "path": ["0", "0", "9", "10", "11"], "rt": [5724, 107, 116], "actions": ["left", "left", "up"], "actionTimes": [6831, 7439, 8047], "queries": {"click": {"state": {"target": ["10", "2", "6", "11", "9", "12"], "time": [1490, 1842, 2362, 3827, 4793, 5886]}, "edge": {"target": [], "time": []}}, "mouseover": {"state": {"target": ["9", "10", "2", "6", "0", "11", "9", "12"], "time": [1264, 1331, 1698, 2331, 3264, 3731, 4631, 5731]}, "edge": {"target": [], "time": []}}, "mouseout": {"state": {"target": ["7", "6", "0", "9", "9", "9", "10", "2", "6", "0", "10", "11", "10", "9", "12"], "time": [198, 264, 414, 764, 964, 1298, 1598, 1981, 2564, 3281, 3664, 3998, 4348, 5031, 5964]}, "edge": {"target": [], "time": []}}}, "displayed_time": "10.11", "trialTime": 10415, "trial_type": "mouselab-mdp", "trial_index": 36, "time_elapsed": 1027440, "internal_node_id": "0.0-4.0-1.0-27.0"}}, {"uniqueid": "w33873282:a66752777", "current_trial": 37, "dateTime": 1664464951734, "trialdata": {"revealed_states": [], "num_clicks_accrued": [0, 0, 0, 0, 0, 0, 0, 0, 0, 0, 0, 0, 0], "stateRewards": ["", -4, -4, 24, -24, 4, 4, 24, 48, 4, -4, 48, -48], "withholdReward": false, "trial_id": "mdp_522385334882", "block": "test1", "trialIndex": 30, "score": 59.5, "costs": -1.5, "simulationMode": [null, null, null], "rewards": [4, 4, 48], "path": ["0", "0", "5", "6", "8"], "rt": [5954, 141, 196], "actions": ["right", "right", "down"], "actionTimes": [6374, 7014, 7718], "queries": {"click": {"state": {"target": ["10", "2", "6", "5", "7", "8"], "time": [1440, 2110, 2925, 3553, 4540, 5424]}, "edge": {"target": [], "time": []}}, "mouseover": {"state": {"target": ["10", "1", "2", "5", "6", "5", "7", "8"], "time": [1422, 1722, 2056, 2339, 2637, 3305, 4422, 5272]}, "edge": {"target": [], "time": []}}, "mouseout": {"state": {"target": ["0", "10", "1", "2", "5", "6", "5", "6", "7", "6", "8"], "time": [289, 1622, 1739, 2222, 2389, 3256, 3722, 4289, 4639, 4689, 5522]}, "edge": {"target": [], "time": []}}}, "displayed_time": "9.42", "trialTime": 17487, "trial_type": "mouselab-mdp", "trial_index": 37, "time_elapsed": 1044954, "internal_node_id": "0.0-4.0-1.0-28.0"}}, {"uniqueid": "w33873282:a66752777", "current_trial": 38, "dateTime": 1664464962783, "trialdata": {"revealed_states": [], "num_clicks_accrued": [0, 0, 0, 0, 0, 0, 0, 0, 0, 0, 0, 0, 0], "stateRewards": ["", -2, -8, 48, 24, 2, 4, 24, -24, -2, -4, 48, -48], "withholdReward": true, "trial_id": "mdp_411152402386", "block": "test1", "trialIndex": 31, "score": 33.25, "costs": -1.75, "simulationMode": [null, null, null], "rewards": [2, 4, 24], "path": ["0", "0", "5", "6", "7"], "rt": [6643, 85, 133], "actions": ["right", "right", "up"], "actionTimes": [8134, 8710, 9358], "queries": {"click": {"state": {"target": ["9", "10", "6", "2", "5", "7", "8"], "time": [2128, 2770, 3723, 4418, 5758, 6322, 7325]}, "edge": {"target": [], "time": []}}, "mouseover": {"state": {"target": ["9", "10", "6", "5", "2", "1", "7", "5", "7", "8", "8"], "time": [1908, 2591, 3625, 4008, 4375, 4608, 5242, 5708, 6241, 6541, 7191]}, "edge": {"target": [], "time": []}}, "mouseout": {"state": {"target": ["8", "5", "9", "10", "6", "5", "2", "1", "6", "7", "5", "6", "7", "6", "8"], "time": [1258, 1325, 2458, 2958, 3925, 4091, 4575, 4641, 5209, 5608, 5992, 6175, 6441, 6525, 6608]}, "edge": {"target": [], "time": []}}}, "displayed_time": "10.49", "trialTime": 11022, "trial_type": "mouselab-mdp", "trial_index": 38, "time_elapsed": 1056003, "internal_node_id": "0.0-4.0-1.0-29.0"}}, {"uniqueid": "w33873282:a66752777", "current_trial": 39, "dateTime": 1664464969057, "trialdata": {"rt": 6271, "stimulus": "<h1> End of block! </h1>\n\nYou have reached the end of the block 1/4. If you need a short break, feel free to take one now before moving on.\n\n<br><br>\nIn the next block, you will complete another 30 rounds of this game.\n\n<br><br>\n<div style='text-align: center;'>Press <code>space</code> to begin.</div>\n<br><br>\n<div style='text-align: center;'>(If the experiment doesn't continue, try clicking on the text and then pressing <code>space</code>.)</div>", "response": " ", "trial_id": "mdp_ready_2", "trial_type": "html-keyboard-response", "trial_index": 39, "time_elapsed": 1062277, "internal_node_id": "0.0-4.0-2.0"}}, {"uniqueid": "w33873282:a66752777", "current_trial": 40, "dateTime": 1664464981866, "trialdata": {"revealed_states": [], "num_clicks_accrued": [0, 0, 0, 0, 0, 0, 0, 0, 0, 0, 0, 0, 0], "stateRewards": ["", -2, -8, 48, 24, -2, 8, -48, -24, -2, 4, -48, 48], "withholdReward": true, "trial_id": "mdp_295220852217", "block": "test2", "trialIndex": 32, "score": 52.75, "costs": -2.25, "simulationMode": [null, null, null], "rewards": [-2, 4, 48], "path": ["0", "0", "9", "10", "12"], "rt": [9385, 149, 524], "actions": ["left", "left", "down"], "actionTimes": [10058, 10698, 11722], "queries": {"click": {"state": {"target": ["10", "2", "6", "5", "8", "7", "9", "11", "12"], "time": [1349, 2087, 2593, 4678, 5239, 5757, 7753, 8315, 8801]}, "edge": {"target": [], "time": []}}, "mouseover": {"state": {"target": ["9", "10", "9", "1", "2", "6", "8", "5", "5", "8", "7", "11", "9", "1", "9", "11", "12"], "time": [1031, 1264, 1531, 1598, 2014, 2364, 2731, 3331, 3731, 4848, 5631, 6498, 7165, 7415, 7731, 8148, 8698]}, "edge": {"target": [], "time": []}}, "mouseout": {"state": {"target": ["0", "9", "10", "9", "1", "2", "6", "8", "5", "5", "8", "6", "7", "11", "9", "1", "9", "10", "11", "10", "12"], "time": [1015, 1081, 1498, 1548, 1681, 2248, 2715, 2798, 3348, 4815, 5581, 5615, 5898, 6965, 7298, 7581, 7882, 8131, 8598, 8665, 8964]}, "edge": {"target": [], "time": []}}}, "displayed_time": "12.21", "trialTime": 12778, "trial_type": "mouselab-mdp", "trial_index": 40, "time_elapsed": 1075086, "internal_node_id": "0.0-4.0-3.0-0.0"}}, {"uniqueid": "w33873282:a66752777", "current_trial": 41, "dateTime": 1664464994316, "trialdata": {"revealed_states": [], "num_clicks_accrued": [0, 0, 0, 0, 0, 0, 0, 0, 0, 0, 0, 0, 0], "stateRewards": ["", -4, 8, -48, -48, -2, -8, -24, -48, 2, -4, -48, 24], "withholdReward": true, "trial_id": "mdp_743906784415", "block": "test2", "trialIndex": 33, "score": 24.75, "costs": -2.25, "simulationMode": [null, null, null], "rewards": [2, -4, 24], "path": ["0", "0", "9", "10", "12"], "rt": [8521, 43, 165], "actions": ["left", "left", "down"], "actionTimes": [10342, 10886, 11558], "queries": {"click": {"state": {"target": ["10", "2", "6", "4", "1", "3", "9", "11", "12"], "time": [2260, 2817, 3335, 4630, 5104, 5799, 8158, 8807, 9169]}, "edge": {"target": [], "time": []}}, "mouseover": {"state": {"target": ["9", "10", "2", "6", "12", "4", "1", "3", "7", "5", "0", "9", "9", "12", "11", "12"], "time": [1976, 2093, 2643, 3076, 3793, 4476, 4876, 5610, 7343, 7576, 7876, 7893, 8043, 8493, 8659, 9026]}, "edge": {"target": [], "time": []}}, "mouseout": {"state": {"target": ["0", "0", "9", "0", "9", "10", "2", "6", "12", "10", "4", "1", "3", "7", "5", "0", "9", "9", "12", "10", "11", "10", "12"], "time": [1359, 1526, 1693, 1943, 1993, 2376, 2976, 3476, 3810, 4043, 4843, 5409, 6059, 7359, 7860, 7893, 7926, 8260, 8509, 8576, 8926, 8993, 9326]}, "edge": {"target": [], "time": []}}}, "displayed_time": "12.06", "trialTime": 12423, "trial_type": "mouselab-mdp", "trial_index": 41, "time_elapsed": 1087536, "internal_node_id": "0.0-4.0-3.0-1.0"}}, {"uniqueid": "w33873282:a66752777", "current_trial": 42, "dateTime": 1664465006709, "trialdata": {"revealed_states": [], "num_clicks_accrued": [0, 0, 0, 0, 0, 0, 0, 0, 0, 0, 0, 0, 0], "stateRewards": ["", -4, 8, -24, -24, 2, 4, 48, 48, -2, 4, 24, -48], "withholdReward": true, "trial_id": "mdp_397308196941", "block": "test2", "trialIndex": 34, "score": 57, "costs": -2, "simulationMode": [null, null, null], "rewards": [2, 4, 48], "path": ["0", "0", "5", "6", "7"], "rt": [9288, 46, 88], "actions": ["right", "right", "up"], "actionTimes": [10435, 10978, 11587], "queries": {"click": {"state": {"target": ["10", "6", "2", "4", "3", "1", "7", "5"], "time": [1621, 2130, 2607, 3683, 4534, 5530, 6773, 9073]}, "edge": {"target": [], "time": []}}, "mouseover": {"state": {"target": ["9", "10", "9", "0", "5", "6", "2", "1", "0", "0", "1", "4", "1", "3", "1", "1", "5", "7", "5", "8"], "time": [1315, 1349, 1765, 1799, 1832, 1998, 2432, 2749, 2798, 3115, 3332, 3532, 4298, 4432, 4782, 4948, 6382, 6615, 7582, 9548]}, "edge": {"target": [], "time": []}}, "mouseout": {"state": {"target": ["0", "0", "9", "10", "9", "0", "5", "6", "2", "1", "0", "0", "1", "4", "1", "3", "1", "1", "5", "7", "6", "5", "8"], "time": [698, 1282, 1332, 1749, 1799, 1815, 1849, 2265, 2732, 2765, 2832, 3132, 3432, 3799, 4315, 4665, 4799, 5682, 6449, 6899, 6932, 9515, 9582]}, "edge": {"target": [], "time": []}}}, "displayed_time": "12.10", "trialTime": 12355, "trial_type": "mouselab-mdp", "trial_index": 42, "time_elapsed": 1099929, "internal_node_id": "0.0-4.0-3.0-2.0"}}, {"uniqueid": "w33873282:a66752777", "current_trial": 43, "dateTime": 1664465019518, "trialdata": {"revealed_states": [], "num_clicks_accrued": [0, 0, 0, 0, 0, 0, 0, 0, 0, 0, 0, 0, 0], "stateRewards": ["", -2, -8, -24, -24, 4, -4, -48, 48, 2, 8, 48, -48], "withholdReward": true, "trial_id": "mdp_498095124548", "block": "test2", "trialIndex": 35, "score": 61.75, "costs": -1.25, "simulationMode": [null, null, null], "rewards": [2, 8, 48], "path": ["0", "0", "9", "10", "11"], "rt": [4882, 151, 156], "actions": ["left", "left", "up"], "actionTimes": [8076, 8716, 9388], "queries": {"click": {"state": {"target": ["10", "2", "6", "11", "9"], "time": [3664, 4261, 5104, 6253, 6989]}, "edge": {"target": [], "time": []}}, "mouseover": {"state": {"target": ["0", "9", "10", "9", "2", "5", "6", "12", "11", "9"], "time": [3381, 3481, 3614, 3881, 4181, 4398, 4781, 5431, 5714, 6848]}, "edge": {"target": [], "time": []}}, "mouseout": {"state": {"target": ["0", "0", "9", "10", "9", "2", "5", "6", "12", "11", "9"], "time": [2964, 3414, 3564, 3864, 3914, 4364, 4414, 5231, 5448, 6381, 7098]}, "edge": {"target": [], "time": []}}}, "displayed_time": "12.19", "trialTime": 12780, "trial_type": "mouselab-mdp", "trial_index": 43, "time_elapsed": 1112738, "internal_node_id": "0.0-4.0-3.0-3.0"}}, {"uniqueid": "w33873282:a66752777", "current_trial": 44, "dateTime": 1664465033256, "trialdata": {"revealed_states": [], "num_clicks_accrued": [0, 0, 0, 0, 0, 0, 0, 0, 0, 0, 0, 0, 0], "stateRewards": ["", -4, 8, 24, 24, -2, 8, -48, 48, 4, -8, 48, -48], "withholdReward": true, "trial_id": "mdp_295249220524", "block": "test2", "trialIndex": 36, "score": 57.25, "costs": -1.75, "simulationMode": [null, null, null], "rewards": [-2, 8, 48], "path": ["0", "0", "5", "6", "8"], "rt": [10294, 526, 309], "actions": ["right", "right", "down"], "actionTimes": [10920, 11944, 12745], "queries": {"click": {"state": {"target": ["10", "2", "6", "1", "5", "7", "8"], "time": [2292, 2932, 3658, 6996, 7440, 9474, 10025]}, "edge": {"target": [], "time": []}}, "mouseover": {"state": {"target": ["0", "10", "1", "2", "1", "5", "6", "5", "1", "5", "8", "7", "8"], "time": [751, 1485, 2568, 2701, 3168, 3351, 3468, 4785, 4951, 7351, 8801, 9085, 9785]}, "edge": {"target": [], "time": []}}, "mouseout": {"state": {"target": ["0", "0", "10", "1", "2", "1", "5", "6", "5", "1", "5", "8", "6", "7", "6"], "time": [518, 768, 2485, 2585, 3118, 3235, 3418, 3785, 4852, 7101, 7585, 8818, 8918, 9668, 9751]}, "edge": {"target": [], "time": []}}}, "displayed_time": "13.23", "trialTime": 13705, "trial_type": "mouselab-mdp", "trial_index": 44, "time_elapsed": 1126476, "internal_node_id": "0.0-4.0-3.0-4.0"}}, {"uniqueid": "w33873282:a66752777", "current_trial": 45, "dateTime": 1664465054835, "trialdata": {"revealed_states": [], "num_clicks_accrued": [0, 0, 0, 0, 0, 0, 0, 0, 0, 0, 0, 0, 0], "stateRewards": ["", 2, 8, -24, -48, -4, 8, -48, -48, -2, -8, -24, -24], "withholdReward": false, "trial_id": "mdp_978177451072", "block": "test2", "trialIndex": 37, "score": -12, "costs": -3, "simulationMode": [null, null, null], "rewards": [2, 8, -24], "path": ["0", "0", "1", "2", "3"], "rt": [18781, 144, 183], "actions": ["up", "up", "right"], "actionTimes": [19403, 20042, 20715], "queries": {"click": {"state": {"target": ["10", "2", "6", "1", "5", "4", "3", "7", "8", "9", "11", "12"], "time": [1056, 1524, 2359, 3575, 3840, 5157, 5836, 6617, 7164, 9825, 10303, 10627]}, "edge": {"target": [], "time": []}}, "mouseover": {"state": {"target": ["0", "9", "10", "2", "6", "6", "5", "1", "5", "4", "3", "7", "8", "9", "9", "11", "12"], "time": [814, 864, 998, 1449, 1831, 2331, 3248, 3448, 3731, 4648, 5665, 6532, 6815, 8598, 9115, 10148, 10565]}, "edge": {"target": [], "time": []}}, "mouseout": {"state": {"target": ["8", "0", "0", "9", "10", "2", "6", "6", "5", "1", "5", "1", "4", "3", "7", "6", "8", "9", "10", "10", "9", "10", "11", "10", "12"], "time": [264, 431, 831, 931, 1181, 1731, 1915, 2798, 3315, 3698, 3965, 4615, 5265, 5915, 6732, 6798, 8348, 8615, 8665, 9082, 9981, 10065, 10431, 10515, 10798]}, "edge": {"target": [], "time": []}}}, "displayed_time": "21.21", "trialTime": 21546, "trial_type": "mouselab-mdp", "trial_index": 45, "time_elapsed": 1148055, "internal_node_id": "0.0-4.0-3.0-5.0"}}, {"uniqueid": "w33873282:a66752777", "current_trial": 46, "dateTime": 1664465064596, "trialdata": {"revealed_states": [], "num_clicks_accrued": [0, 0, 0, 0, 0, 0, 0, 0, 0, 0, 0, 0, 0], "stateRewards": ["", -2, -8, 48, 24, 2, 8, -48, 24, -4, 8, 48, 48], "withholdReward": true, "trial_id": "mdp_875436109858", "block": "test2", "trialIndex": 38, "score": 55.75, "costs": -1.25, "simulationMode": [null, null, null], "rewards": [-4, 8, 48], "path": ["0", "0", "9", "10", "11"], "rt": [4707, 100, 171], "actions": ["left", "left", "up"], "actionTimes": [5343, 5951, 6623], "queries": {"click": {"state": {"target": ["10", "2", "6", "11", "9"], "time": [1509, 1924, 2391, 3033, 3986]}, "edge": {"target": [], "time": []}}, "mouseover": {"state": {"target": ["0", "9", "10", "2", "5", "6", "9", "11", "9"], "time": [1068, 1218, 1351, 1818, 2168, 2301, 2751, 2834, 3884]}, "edge": {"target": [], "time": []}}, "mouseout": {"state": {"target": ["0", "0", "9", "10", "2", "5", "6", "9", "11", "10", "9"], "time": [885, 1135, 1301, 1635, 2068, 2185, 2551, 2768, 3151, 3201, 4101]}, "edge": {"target": [], "time": []}}}, "displayed_time": "9.64", "trialTime": 9728, "trial_type": "mouselab-mdp", "trial_index": 46, "time_elapsed": 1157816, "internal_node_id": "0.0-4.0-3.0-6.0"}}, {"uniqueid": "w33873282:a66752777", "current_trial": 47, "dateTime": 1664465074493, "trialdata": {"revealed_states": [], "num_clicks_accrued": [0, 0, 0, 0, 0, 0, 0, 0, 0, 0, 0, 0, 0], "stateRewards": ["", 2, 4, -48, -48, 2, 4, 48, -24, -2, 8, 48, -48], "withholdReward": true, "trial_id": "mdp_258528916140", "block": "test2", "trialIndex": 39, "score": 57.75, "costs": -1.25, "simulationMode": [null, null, null], "rewards": [-2, 8, 48], "path": ["0", "0", "9", "10", "11"], "rt": [5571, 149, 187], "actions": ["left", "left", "up"], "actionTimes": [6183, 6823, 7528], "queries": {"click": {"state": {"target": ["10", "2", "6", "9", "11"], "time": [967, 1532, 2058, 3523, 4811]}, "edge": {"target": [], "time": []}}, "mouseover": {"state": {"target": ["0", "9", "10", "2", "6", "8", "11", "9", "9", "11"], "time": [707, 774, 890, 1440, 1924, 2223, 2673, 3074, 3473, 4574]}, "edge": {"target": [], "time": []}}, "mouseout": {"state": {"target": ["0", "0", "9", "10", "2", "6", "8", "10", "11", "9", "9", "9", "11", "9"], "time": [523, 757, 807, 1123, 1740, 2190, 2307, 2574, 3040, 3107, 3674, 4507, 4923, 4973]}, "edge": {"target": [], "time": []}}}, "displayed_time": "9.61", "trialTime": 9864, "trial_type": "mouselab-mdp", "trial_index": 47, "time_elapsed": 1167713, "internal_node_id": "0.0-4.0-3.0-7.0"}}, {"uniqueid": "w33873282:a66752777", "current_trial": 48, "dateTime": 1664465084190, "trialdata": {"revealed_states": [], "num_clicks_accrued": [0, 0, 0, 0, 0, 0, 0, 0, 0, 0, 0, 0, 0], "stateRewards": ["", 2, -8, 48, -24, 2, 8, 24, -24, 4, -4, -48, -48], "withholdReward": true, "trial_id": "mdp_130946197263", "block": "test2", "trialIndex": 40, "score": 37.5, "costs": -1.5, "simulationMode": [null, null, null], "rewards": [2, 8, 24], "path": ["0", "0", "5", "6", "7"], "rt": [5996, 114, 218], "actions": ["right", "right", "up"], "actionTimes": [6400, 7008, 7712], "queries": {"click": {"state": {"target": ["10", "2", "6", "5", "7", "8"], "time": [1931, 2430, 2934, 3848, 4730, 5515]}, "edge": {"target": [], "time": []}}, "mouseover": {"state": {"target": ["9", "10", "10", "10", "2", "5", "6", "8", "5", "7", "8", "8"], "time": [593, 1060, 1560, 1843, 2293, 2660, 2860, 3110, 3777, 4660, 4976, 5243]}, "edge": {"target": [], "time": []}}, "mouseout": {"state": {"target": ["0", "9", "10", "10", "10", "2", "5", "6", "8", "6", "5", "6", "7", "6", "8", "8"], "time": [560, 660, 1093, 1643, 2076, 2543, 2710, 3060, 3296, 3743, 3993, 4560, 4876, 4960, 5027, 5693]}, "edge": {"target": [], "time": []}}}, "displayed_time": "9.40", "trialTime": 9664, "trial_type": "mouselab-mdp", "trial_index": 48, "time_elapsed": 1177410, "internal_node_id": "0.0-4.0-3.0-8.0"}}, {"uniqueid": "w33873282:a66752777", "current_trial": 49, "dateTime": 1664465094055, "trialdata": {"revealed_states": [], "num_clicks_accrued": [0, 0, 0, 0, 0, 0, 0, 0, 0, 0, 0, 0, 0], "stateRewards": ["", -2, 8, -48, 48, -4, -8, 24, 24, -2, -4, 48, -48], "withholdReward": true, "trial_id": "mdp_867247318592", "block": "test2", "trialIndex": 41, "score": 57.75, "costs": -1.25, "simulationMode": [null, null, null], "rewards": [-2, 8, 48], "path": ["0", "0", "1", "2", "4"], "rt": [4232, 186, 238], "actions": ["up", "up", "left"], "actionTimes": [4744, 5417, 6153], "queries": {"click": {"state": {"target": ["10", "2", "6", "1", "4"], "time": [951, 1387, 1990, 2790, 3446]}, "edge": {"target": [], "time": []}}, "mouseover": {"state": {"target": ["9", "10", "2", "6", "5", "1", "4", "4", "1", "4"], "time": [797, 880, 1214, 1897, 2264, 2297, 2347, 2581, 2697, 3364]}, "edge": {"target": [], "time": []}}, "mouseout": {"state": {"target": ["0", "9", "10", "2", "6", "5", "1", "4", "4", "1", "4", "1"], "time": [764, 847, 1114, 1514, 2230, 2280, 2314, 2364, 2631, 2964, 3547, 4014]}, "edge": {"target": [], "time": []}}}, "displayed_time": "9.51", "trialTime": 9833, "trial_type": "mouselab-mdp", "trial_index": 49, "time_elapsed": 1187275, "internal_node_id": "0.0-4.0-3.0-9.0"}}, {"uniqueid": "w33873282:a66752777", "current_trial": 50, "dateTime": 1664465106352, "trialdata": {"revealed_states": [], "num_clicks_accrued": [0, 0, 0, 0, 0, 0, 0, 0, 0, 0, 0, 0, 0], "stateRewards": ["", 2, 4, 48, 24, -2, -8, 24, 24, -2, 4, -48, 24], "withholdReward": false, "trial_id": "mdp_130849500124", "block": "test2", "trialIndex": 42, "score": 56.75, "costs": -2.25, "simulationMode": [null, null, null], "rewards": [2, 4, 48], "path": ["0", "0", "1", "2", "3"], "rt": [9494, 178, 215], "actions": ["up", "up", "right"], "actionTimes": [9925, 10597, 11301], "queries": {"click": {"state": {"target": ["10", "2", "5", "6", "11", "9", "1", "4", "3"], "time": [745, 1186, 1604, 2270, 4855, 5617, 6375, 7281, 8319]}, "edge": {"target": [], "time": []}}, "mouseover": {"state": {"target": ["9", "10", "2", "5", "6", "11", "9", "1", "0", "4", "3", "0"], "time": [602, 702, 1086, 1569, 1802, 4320, 5519, 6252, 6486, 7170, 8219, 8969]}, "edge": {"target": [], "time": []}}, "mouseout": {"state": {"target": ["0", "9", "10", "2", "5", "6", "11", "9", "1", "0", "9", "4", "3"], "time": [586, 636, 903, 1319, 1669, 2486, 4969, 5736, 6469, 6503, 6920, 7369, 8419]}, "edge": {"target": [], "time": []}}}, "displayed_time": "11.79", "trialTime": 12269, "trial_type": "mouselab-mdp", "trial_index": 50, "time_elapsed": 1199572, "internal_node_id": "0.0-4.0-3.0-10.0"}}, {"uniqueid": "w33873282:a66752777", "current_trial": 51, "dateTime": 1664465116657, "trialdata": {"revealed_states": [], "num_clicks_accrued": [0, 0, 0, 0, 0, 0, 0, 0, 0, 0, 0, 0, 0], "stateRewards": ["", -2, 4, -24, -24, -2, 4, 48, 24, -4, -8, 24, -48], "withholdReward": true, "trial_id": "mdp_191839460481", "block": "test2", "trialIndex": 43, "score": 53.25, "costs": -1.75, "simulationMode": [null, null, null], "rewards": [-2, 4, 48], "path": ["0", "0", "5", "6", "7"], "rt": [6864, 244, 247], "actions": ["right", "right", "up"], "actionTimes": [7813, 8549, 9285], "queries": {"click": {"state": {"target": ["10", "2", "6", "5", "1", "3", "7"], "time": [1534, 1961, 2774, 4160, 4613, 5340, 6167]}, "edge": {"target": [], "time": []}}, "mouseover": {"state": {"target": ["0", "9", "10", "2", "1", "5", "6", "5", "1", "3", "7"], "time": [1222, 1289, 1322, 1839, 2105, 2189, 2689, 3439, 4355, 5205, 5989]}, "edge": {"target": [], "time": []}}, "mouseout": {"state": {"target": ["0", "0", "0", "9", "10", "2", "1", "5", "6", "5", "1", "3", "5", "7", "6", "5", "6"], "time": [639, 888, 1272, 1306, 1622, 2089, 2122, 2222, 2905, 4322, 4739, 5455, 5539, 6322, 6359, 6672, 6956]}, "edge": {"target": [], "time": []}}}, "displayed_time": "9.95", "trialTime": 10277, "trial_type": "mouselab-mdp", "trial_index": 51, "time_elapsed": 1209877, "internal_node_id": "0.0-4.0-3.0-11.0"}}, {"uniqueid": "w33873282:a66752777", "current_trial": 52, "dateTime": 1664465133787, "trialdata": {"revealed_states": [], "num_clicks_accrued": [0, 0, 0, 0, 0, 0, 0, 0, 0, 0, 0, 0, 0], "stateRewards": ["", 2, -4, -48, -48, -2, -4, -24, -48, -2, 8, 24, 24], "withholdReward": false, "trial_id": "mdp_656069446729", "block": "test2", "trialIndex": 44, "score": 32.75, "costs": -2.25, "simulationMode": [null, null, null], "rewards": [-2, 8, 24], "path": ["0", "0", "9", "10", "12"], "rt": [14018, 180, 217], "actions": ["left", "left", "down"], "actionTimes": [14537, 15209, 15913], "queries": {"click": {"state": {"target": ["10", "2", "6", "11", "12", "9", "1", "4", "3"], "time": [884, 1530, 2090, 3186, 4223, 5868, 8949, 9504, 10302]}, "edge": {"target": [], "time": []}}, "mouseover": {"state": {"target": ["9", "10", "2", "1", "5", "6", "9", "11", "12", "9", "1", "4", "3", "0"], "time": [662, 728, 1312, 1729, 1812, 1845, 2712, 2862, 4062, 5045, 8862, 9179, 10062, 10512]}, "edge": {"target": [], "time": []}}, "mouseout": {"state": {"target": ["6", "0", "9", "10", "2", "1", "5", "6", "9", "11", "12", "9", "1", "4", "3", "0", "12", "12"], "time": [212, 645, 695, 995, 1712, 1762, 1829, 2279, 2729, 3295, 4345, 6078, 9096, 9695, 10412, 10528, 10628, 11645]}, "edge": {"target": [], "time": []}}}, "displayed_time": "16.41", "trialTime": 17097, "trial_type": "mouselab-mdp", "trial_index": 52, "time_elapsed": 1227007, "internal_node_id": "0.0-4.0-3.0-12.0"}}, {"uniqueid": "w33873282:a66752777", "current_trial": 53, "dateTime": 1664465144253, "trialdata": {"revealed_states": [], "num_clicks_accrued": [0, 0, 0, 0, 0, 0, 0, 0, 0, 0, 0, 0, 0], "stateRewards": ["", 2, -4, -24, 24, 2, 8, 48, 48, 2, -8, 48, -24], "withholdReward": true, "trial_id": "mdp_330392242530", "block": "test2", "trialIndex": 45, "score": 61.75, "costs": -1.25, "simulationMode": [null, null, null], "rewards": [2, 8, 48], "path": ["0", "0", "5", "6", "7"], "rt": [4700, 110, 198], "actions": ["right", "right", "up"], "actionTimes": [5571, 6179, 6883], "queries": {"click": {"state": {"target": ["10", "2", "6", "5", "7"], "time": [1483, 1927, 2574, 3370, 4121]}, "edge": {"target": [], "time": []}}, "mouseover": {"state": {"target": ["9", "10", "2", "1", "5", "6", "5", "7", "8"], "time": [1035, 1168, 1751, 2151, 2251, 2518, 3119, 4018, 4368]}, "edge": {"target": [], "time": []}}, "mouseout": {"state": {"target": ["9", "0", "9", "10", "2", "1", "5", "6", "5", "6", "7", "6", "8"], "time": [368, 818, 1085, 1602, 2118, 2185, 2335, 3018, 3918, 3968, 4251, 4335, 4868]}, "edge": {"target": [], "time": []}}}, "displayed_time": "8.87", "trialTime": 10435, "trial_type": "mouselab-mdp", "trial_index": 53, "time_elapsed": 1237472, "internal_node_id": "0.0-4.0-3.0-13.0"}}, {"uniqueid": "w33873282:a66752777", "current_trial": 54, "dateTime": 1664465176465, "trialdata": {"revealed_states": [], "num_clicks_accrued": [0, 0, 0, 0, 0, 0, 0, 0, 0, 0, 0, 0, 0], "stateRewards": ["", 2, -4, 48, -48, 2, 4, -24, 24, -4, -8, 24, -48], "withholdReward": true, "trial_id": "mdp_238810765895", "block": "test2", "trialIndex": 46, "score": 33.5, "costs": -1.5, "simulationMode": [null, null, null], "rewards": [2, 4, 24], "path": ["0", "0", "5", "6", "8"], "rt": [5686, 256, 1426], "actions": ["right", "right", "down"], "actionTimes": [7699, 8443, 10364], "queries": {"click": {"state": {"target": ["10", "2", "6", "5", "7", "8"], "time": [2510, 2942, 3372, 3985, 4622, 5411]}, "edge": {"target": [], "time": []}}, "mouseover": {"state": {"target": ["0", "10", "2", "6", "8", "5", "8", "7", "8", "8"], "time": [2187, 2470, 2771, 3320, 3570, 3804, 4320, 4587, 4787, 5337]}, "edge": {"target": [], "time": []}}, "mouseout": {"state": {"target": ["0", "0", "10", "2", "6", "8", "5", "8", "6", "6", "7", "6", "8", "8", "5", "5"], "time": [1937, 2204, 2654, 3054, 3520, 3754, 4104, 4337, 4387, 4437, 4737, 4770, 4820, 5870, 31221, 31504]}, "edge": {"target": [], "time": []}}}, "displayed_time": "10.85", "trialTime": 32166, "trial_type": "mouselab-mdp", "trial_index": 54, "time_elapsed": 1269684, "internal_node_id": "0.0-4.0-3.0-14.0"}}, {"uniqueid": "w33873282:a66752777", "current_trial": 55, "dateTime": 1664465186962, "trialdata": {"revealed_states": [], "num_clicks_accrued": [0, 0, 0, 0, 0, 0, 0, 0, 0, 0, 0, 0, 0], "stateRewards": ["", 4, -4, 48, -48, 4, -4, 24, -24, 4, 8, -24, -48], "withholdReward": true, "trial_id": "mdp_433630527224", "block": "test2", "trialIndex": 47, "score": 50.75, "costs": -2.25, "simulationMode": [null, null, null], "rewards": [4, -4, 48], "path": ["0", "0", "1", "2", "3"], "rt": [7374, 173, 211], "actions": ["up", "up", "right"], "actionTimes": [8254, 8927, 9631], "queries": {"click": {"state": {"target": ["10", "2", "6", "9", "11", "12", "4", "1", "3"], "time": [1287, 1916, 2350, 3276, 3761, 4203, 5806, 6339, 6977]}, "edge": {"target": [], "time": []}}, "mouseover": {"state": {"target": ["9", "10", "4", "2", "6", "9", "11", "9", "11", "12", "1", "4", "1", "3"], "time": [1086, 1186, 1470, 1720, 2153, 2653, 2820, 3203, 3586, 4003, 4820, 5320, 6203, 6920]}, "edge": {"target": [], "time": []}}, "mouseout": {"state": {"target": ["0", "9", "10", "4", "2", "6", "9", "11", "9", "11", "10", "12", "9", "1", "4", "1", "3"], "time": [1070, 1120, 1420, 1486, 2036, 2520, 2670, 3153, 3520, 3886, 3953, 4353, 4737, 5220, 6020, 6836, 7086]}, "edge": {"target": [], "time": []}}}, "displayed_time": "10.12", "trialTime": 10463, "trial_type": "mouselab-mdp", "trial_index": 55, "time_elapsed": 1280182, "internal_node_id": "0.0-4.0-3.0-15.0"}}, {"uniqueid": "w33873282:a66752777", "current_trial": 56, "dateTime": 1664465197587, "trialdata": {"revealed_states": [], "num_clicks_accrued": [0, 0, 0, 0, 0, 0, 0, 0, 0, 0, 0, 0, 0], "stateRewards": ["", -4, -4, 24, -48, -2, 8, -24, -48, -4, 4, 24, -48], "withholdReward": true, "trial_id": "mdp_934626330092", "block": "test2", "trialIndex": 48, "score": 26.75, "costs": -2.25, "simulationMode": [null, null, null], "rewards": [-4, 4, 24], "path": ["0", "0", "9", "10", "11"], "rt": [7390, 378, 231], "actions": ["left", "left", "up"], "actionTimes": [7871, 8735, 9471], "queries": {"click": {"state": {"target": ["10", "2", "6", "5", "8", "7", "11", "9", "12"], "time": [931, 1356, 1812, 2557, 2995, 4010, 5454, 5945, 6800]}, "edge": {"target": [], "time": []}}, "mouseover": {"state": {"target": ["9", "10", "2", "6", "5", "8", "7", "1", "4", "11", "9", "12"], "time": [689, 806, 1273, 1689, 2423, 2922, 3939, 4623, 4772, 5373, 5906, 6522]}, "edge": {"target": [], "time": []}}, "mouseout": {"state": {"target": ["9", "10", "2", "6", "5", "8", "6", "7", "1", "4", "10", "11", "10", "9", "12"], "time": [739, 1039, 1522, 2389, 2739, 3489, 3556, 4206, 4673, 5056, 5339, 5556, 5789, 6123, 6906]}, "edge": {"target": [], "time": []}}}, "displayed_time": "9.96", "trialTime": 10591, "trial_type": "mouselab-mdp", "trial_index": 56, "time_elapsed": 1290807, "internal_node_id": "0.0-4.0-3.0-16.0"}}, {"uniqueid": "w33873282:a66752777", "current_trial": 57, "dateTime": 1664465218749, "trialdata": {"revealed_states": [], "num_clicks_accrued": [0, 0, 0, 0, 0, 0, 0, 0, 0, 0, 0, 0, 0], "stateRewards": ["", -4, -4, -24, 24, -4, 4, -24, 48, -2, 4, 48, -48], "withholdReward": true, "trial_id": "mdp_774757609669", "block": "test2", "trialIndex": 49, "score": 53.5, "costs": -1.5, "simulationMode": [null, null, null], "rewards": [-2, 4, 48], "path": ["0", "0", "9", "10", "11"], "rt": [5171, 91, 148], "actions": ["left", "left", "up"], "actionTimes": [17094, 17670, 18310], "queries": {"click": {"state": {"target": ["10", "2", "6", "5", "9", "11"], "time": [12420, 12931, 13434, 14411, 14942, 15567]}, "edge": {"target": [], "time": []}}, "mouseover": {"state": {"target": ["9", "10", "2", "6", "5", "0", "0", "5", "0", "9", "11", "12"], "time": [12179, 12279, 12845, 13229, 13779, 13812, 14062, 14096, 14729, 14879, 15445, 16162]}, "edge": {"target": [], "time": []}}, "mouseout": {"state": {"target": ["9", "0", "9", "10", "2", "6", "5", "0", "0", "5", "0", "9", "9", "11", "12"], "time": [11662, 12129, 12229, 12529, 13095, 13762, 13796, 13862, 14079, 14712, 14779, 15162, 15412, 15745, 16257]}, "edge": {"target": [], "time": []}}}, "displayed_time": "19.92", "trialTime": 21126, "trial_type": "mouselab-mdp", "trial_index": 57, "time_elapsed": 1311969, "internal_node_id": "0.0-4.0-3.0-17.0"}}, {"uniqueid": "w33873282:a66752777", "current_trial": 58, "dateTime": 1664465232935, "trialdata": {"revealed_states": [], "num_clicks_accrued": [0, 0, 0, 0, 0, 0, 0, 0, 0, 0, 0, 0, 0], "stateRewards": ["", 2, 8, -48, 24, -4, 8, 48, -24, 2, 8, 24, 24], "withholdReward": false, "trial_id": "mdp_175372499314", "block": "test2", "trialIndex": 50, "score": 36.5, "costs": -2.5, "simulationMode": [null, null, null], "rewards": [2, 8, 24], "path": ["0", "0", "1", "2", "4"], "rt": [10531, 185, 302], "actions": ["up", "up", "left"], "actionTimes": [11819, 12491, 13292], "queries": {"click": {"state": {"target": ["10", "2", "6", "9", "1", "5", "11", "4", "3", "12"], "time": [1675, 2093, 2724, 3772, 4928, 5448, 6533, 8595, 9409, 10023]}, "edge": {"target": [], "time": []}}, "mouseover": {"state": {"target": ["9", "10", "2", "6", "5", "12", "11", "9", "1", "5", "5", "11", "12", "4", "3", "0", "12"], "time": [1456, 1523, 1923, 2556, 2939, 3073, 3489, 3672, 4856, 5172, 5339, 6356, 7939, 8489, 9206, 9606, 10006]}, "edge": {"target": [], "time": []}}, "mouseout": {"state": {"target": ["9", "0", "0", "9", "10", "2", "6", "5", "12", "11", "9", "1", "5", "5", "10", "11", "10", "1", "9", "12", "9", "4", "1", "3", "0", "12", "10"], "time": [122, 672, 1439, 1489, 1789, 2206, 2906, 2956, 3089, 3606, 3939, 5089, 5206, 5606, 6323, 6672, 6722, 7156, 7439, 8223, 8272, 8689, 9172, 9539, 9622, 10223, 10372]}, "edge": {"target": [], "time": []}}}, "displayed_time": "13.79", "trialTime": 14156, "trial_type": "mouselab-mdp", "trial_index": 58, "time_elapsed": 1326155, "internal_node_id": "0.0-4.0-3.0-18.0"}}, {"uniqueid": "w33873282:a66752777", "current_trial": 59, "dateTime": 1664465249585, "trialdata": {"revealed_states": [], "num_clicks_accrued": [0, 0, 0, 0, 0, 0, 0, 0, 0, 0, 0, 0, 0], "stateRewards": ["", 2, 8, -48, 24, -2, 4, 48, 48, -2, -8, 48, 24], "withholdReward": false, "trial_id": "mdp_157355418411", "block": "test2", "trialIndex": 51, "score": 37.5, "costs": -1.5, "simulationMode": [null, null, null], "rewards": [2, 8, 24], "path": ["0", "0", "1", "2", "4"], "rt": [5062, 79, 136], "actions": ["up", "up", "left"], "actionTimes": [13317, 13893, 14533], "queries": {"click": {"state": {"target": ["10", "2", "6", "4", "1", "3"], "time": [9161, 9610, 10081, 10903, 11530, 12101]}, "edge": {"target": [], "time": []}}, "mouseover": {"state": {"target": ["0", "10", "2", "6", "1", "4", "1", "1", "3", "5", "5"], "time": [8547, 9097, 9464, 9847, 10631, 10781, 11130, 11447, 11980, 12330, 12514]}, "edge": {"target": [], "time": []}}, "mouseout": {"state": {"target": ["10", "9", "0", "10", "2", "6", "1", "4", "1", "1", "3", "5", "5", "0"], "time": [7897, 8164, 8597, 9280, 9730, 10514, 10664, 11080, 11180, 11697, 12247, 12364, 12530, 16097]}, "edge": {"target": [], "time": []}}}, "displayed_time": "16.26", "trialTime": 16614, "trial_type": "mouselab-mdp", "trial_index": 59, "time_elapsed": 1342805, "internal_node_id": "0.0-4.0-3.0-19.0"}}, {"uniqueid": "w33873282:a66752777", "current_trial": 60, "dateTime": 1664465259290, "trialdata": {"revealed_states": [], "num_clicks_accrued": [0, 0, 0, 0, 0, 0, 0, 0, 0, 0, 0, 0, 0], "stateRewards": ["", 4, -8, 24, 48, -2, -4, -48, 24, 2, 4, -48, -24], "withholdReward": true, "trial_id": "mdp_749974461966", "block": "test2", "trialIndex": 52, "score": 47, "costs": -2, "simulationMode": [null, null, null], "rewards": [4, -8, 48], "path": ["0", "0", "1", "2", "4"], "rt": [6250, 155, 265], "actions": ["up", "up", "left"], "actionTimes": [6814, 7454, 8231], "queries": {"click": {"state": {"target": ["10", "2", "6", "9", "11", "12", "4", "1"], "time": [941, 1425, 1859, 3157, 3587, 4123, 5035, 5684]}, "edge": {"target": [], "time": []}}, "mouseover": {"state": {"target": ["9", "10", "2", "6", "5", "0", "9", "11", "9", "11", "12", "4", "1"], "time": [733, 932, 1299, 1835, 2249, 2282, 2300, 2516, 3117, 3449, 3882, 4899, 5199]}, "edge": {"target": [], "time": []}}, "mouseout": {"state": {"target": ["0", "9", "10", "2", "6", "5", "0", "9", "10", "11", "9", "11", "10", "12", "2", "4", "1"], "time": [516, 766, 1099, 1566, 2232, 2266, 2299, 2316, 2466, 2849, 3332, 3749, 3832, 4332, 4799, 5132, 5899]}, "edge": {"target": [], "time": []}}}, "displayed_time": "9.56", "trialTime": 9671, "trial_type": "mouselab-mdp", "trial_index": 60, "time_elapsed": 1352510, "internal_node_id": "0.0-4.0-3.0-20.0"}}, {"uniqueid": "w33873282:a66752777", "current_trial": 61, "dateTime": 1664465272891, "trialdata": {"revealed_states": [], "num_clicks_accrued": [0, 0, 0, 0, 0, 0, 0, 0, 0, 0, 0, 0, 0], "stateRewards": ["", 2, -8, -48, 24, 4, 8, 48, -48, 2, -4, 24, 24], "withholdReward": false, "trial_id": "mdp_130475327289", "block": "test2", "trialIndex": 53, "score": 62.75, "costs": -2.25, "simulationMode": [null, null, null], "rewards": [4, 8, 48], "path": ["0", "0", "5", "6", "7"], "rt": [10668, 149, 235], "actions": ["right", "right", "up"], "actionTimes": [11103, 11743, 12479], "queries": {"click": {"state": {"target": ["10", "2", "6", "4", "3", "1", "7", "8", "5"], "time": [1709, 2345, 2838, 4332, 5251, 7377, 7973, 8672, 9752]}, "edge": {"target": [], "time": []}}, "mouseover": {"state": {"target": ["0", "0", "9", "10", "9", "1", "2", "6", "8", "1", "4", "1", "3", "7", "1", "7", "8", "8", "5"], "time": [711, 927, 1494, 1611, 1911, 1961, 2277, 2627, 3028, 3644, 3860, 4944, 5045, 6994, 7311, 7827, 8161, 8544, 9611]}, "edge": {"target": [], "time": []}}, "mouseout": {"state": {"target": ["0", "0", "0", "9", "10", "9", "1", "2", "6", "8", "1", "4", "1", "3", "7", "1", "7", "6", "8", "8", "7", "5"], "time": [344, 727, 1427, 1544, 1877, 1927, 1994, 2494, 2978, 3544, 3711, 4477, 4961, 5361, 7094, 7510, 8077, 8144, 8210, 9378, 9494, 9877]}, "edge": {"target": [], "time": []}}}, "displayed_time": "12.98", "trialTime": 13567, "trial_type": "mouselab-mdp", "trial_index": 61, "time_elapsed": 1366111, "internal_node_id": "0.0-4.0-3.0-21.0"}}, {"uniqueid": "w33873282:a66752777", "current_trial": 62, "dateTime": 1664465282725, "trialdata": {"revealed_states": [], "num_clicks_accrued": [0, 0, 0, 0, 0, 0, 0, 0, 0, 0, 0, 0, 0], "stateRewards": ["", -4, 4, -24, 48, 2, 4, -48, 24, 4, -8, -24, 24], "withholdReward": true, "trial_id": "mdp_740130150937", "block": "test2", "trialIndex": 54, "score": 50.75, "costs": -2.25, "simulationMode": [null, null, null], "rewards": [-4, 4, 48], "path": ["0", "0", "1", "2", "4"], "rt": [6785, 142, 277], "actions": ["up", "up", "left"], "actionTimes": [7294, 7934, 8702], "queries": {"click": {"state": {"target": ["10", "2", "6", "5", "1", "7", "8", "3", "4"], "time": [998, 1661, 2320, 3577, 3876, 4555, 5076, 5583, 6187]}, "edge": {"target": [], "time": []}}, "mouseover": {"state": {"target": ["9", "10", "2", "6", "5", "1", "7", "8", "3", "4"], "time": [725, 942, 1542, 2209, 3225, 3825, 4409, 4759, 5409, 6125]}, "edge": {"target": [], "time": []}}, "mouseout": {"state": {"target": ["0", "9", "10", "2", "6", "5", "1", "5", "7", "6", "8", "6", "3", "2", "4", "1"], "time": [442, 808, 1109, 1792, 2692, 3725, 4009, 4325, 4675, 4725, 5309, 5342, 5709, 5775, 6375, 6442]}, "edge": {"target": [], "time": []}}}, "displayed_time": "9.19", "trialTime": 9798, "trial_type": "mouselab-mdp", "trial_index": 62, "time_elapsed": 1375945, "internal_node_id": "0.0-4.0-3.0-22.0"}}, {"uniqueid": "w33873282:a66752777", "current_trial": 63, "dateTime": 1664465292038, "trialdata": {"revealed_states": [], "num_clicks_accrued": [0, 0, 0, 0, 0, 0, 0, 0, 0, 0, 0, 0, 0], "stateRewards": ["", -2, -8, -24, -48, 4, -8, 48, 24, 2, 4, -48, -48], "withholdReward": true, "trial_id": "mdp_898082967464", "block": "test2", "trialIndex": 55, "score": 47.5, "costs": -1.5, "simulationMode": [null, null, null], "rewards": [4, -8, 48], "path": ["0", "0", "5", "6", "7"], "rt": [4836, 152, 206], "actions": ["right", "right", "up"], "actionTimes": [5439, 6079, 6783], "queries": {"click": {"state": {"target": ["4", "3", "11", "12", "8", "7"], "time": [1086, 1663, 2564, 3091, 3592, 4312]}, "edge": {"target": [], "time": []}}, "mouseover": {"state": {"target": ["1", "4", "2", "3", "9", "10", "11", "10", "12", "8", "6", "7", "6"], "time": [827, 993, 1277, 1560, 2077, 2443, 2493, 2727, 2843, 3476, 3926, 4244, 4460]}, "edge": {"target": [], "time": []}}, "mouseout": {"state": {"target": ["1", "4", "2", "3", "9", "10", "11", "10", "12", "8", "6", "7", "6", "8"], "time": [843, 1210, 1377, 1776, 2210, 2460, 2693, 2777, 3293, 3893, 3960, 4426, 4493, 7760]}, "edge": {"target": [], "time": []}}}, "displayed_time": "8.60", "trialTime": 9279, "trial_type": "mouselab-mdp", "trial_index": 63, "time_elapsed": 1385258, "internal_node_id": "0.0-4.0-3.0-23.0"}}, {"uniqueid": "w33873282:a66752777", "current_trial": 64, "dateTime": 1664465301831, "trialdata": {"revealed_states": [], "num_clicks_accrued": [0, 0, 0, 0, 0, 0, 0, 0, 0, 0, 0, 0, 0], "stateRewards": ["", -2, -4, -24, 48, -4, 8, 48, 48, 2, 8, -48, -24], "withholdReward": false, "trial_id": "mdp_136376573354", "block": "test2", "trialIndex": 56, "score": 46, "costs": -1, "simulationMode": [null, null, null], "rewards": [-2, -4, 48], "path": ["0", "0", "1", "2", "4"], "rt": [5372, 117, 188], "actions": ["up", "up", "left"], "actionTimes": [5826, 6434, 7138], "queries": {"click": {"state": {"target": ["10", "11", "12", "4"], "time": [1482, 3078, 3619, 4462]}, "edge": {"target": [], "time": []}}, "mouseover": {"state": {"target": ["9", "10", "10", "10", "2", "4", "11", "12", "9", "4"], "time": [816, 883, 1100, 1450, 1866, 2300, 2883, 3350, 4117, 4400]}, "edge": {"target": [], "time": []}}, "mouseout": {"state": {"target": ["0", "9", "10", "10", "10", "2", "4", "11", "10", "12", "9", "4"], "time": [435, 850, 983, 1166, 1617, 2234, 2800, 3183, 3283, 3816, 4233, 4567]}, "edge": {"target": [], "time": []}}}, "displayed_time": "9.46", "trialTime": 9763, "trial_type": "mouselab-mdp", "trial_index": 64, "time_elapsed": 1395051, "internal_node_id": "0.0-4.0-3.0-24.0"}}, {"uniqueid": "w33873282:a66752777", "current_trial": 65, "dateTime": 1664465313392, "trialdata": {"revealed_states": [], "num_clicks_accrued": [0, 0, 0, 0, 0, 0, 0, 0, 0, 0, 0, 0, 0], "stateRewards": ["", 2, -4, 48, -48, -4, -8, -48, 24, -4, 4, 48, 48], "withholdReward": true, "trial_id": "mdp_544803968425", "block": "test2", "trialIndex": 57, "score": 52.25, "costs": -0.75, "simulationMode": [null, null, null], "rewards": [-4, 4, 48], "path": ["0", "0", "9", "10", "11"], "rt": [3275, 154, 192], "actions": ["left", "left", "up"], "actionTimes": [5534, 6174, 6878], "queries": {"click": {"state": {"target": ["11", "10", "9"], "time": [2762, 4216, 4461]}, "edge": {"target": [], "time": []}}, "mouseover": {"state": {"target": ["9", "11", "10", "9"], "time": [2520, 2719, 4053, 4353]}, "edge": {"target": [], "time": []}}, "mouseout": {"state": {"target": ["0", "9", "9", "9", "11", "10", "9"], "time": [903, 1019, 2119, 2536, 2886, 4303, 4603]}, "edge": {"target": [], "time": []}}}, "displayed_time": "11.26", "trialTime": 11527, "trial_type": "mouselab-mdp", "trial_index": 65, "time_elapsed": 1406612, "internal_node_id": "0.0-4.0-3.0-25.0"}}, {"uniqueid": "w33873282:a66752777", "current_trial": 66, "dateTime": 1664465325521, "trialdata": {"revealed_states": [], "num_clicks_accrued": [0, 0, 0, 0, 0, 0, 0, 0, 0, 0, 0, 0, 0], "stateRewards": ["", -4, 4, 24, 24, -2, 8, 24, -48, 4, -8, -24, -48], "withholdReward": true, "trial_id": "mdp_651542905861", "block": "test2", "trialIndex": 58, "score": 26.75, "costs": -2.25, "simulationMode": [null, null, null], "rewards": [-4, 4, 24], "path": ["0", "0", "1", "2", "4"], "rt": [9331, 110, 214], "actions": ["up", "up", "left"], "actionTimes": [9732, 10340, 11044], "queries": {"click": {"state": {"target": ["10", "4", "7", "8", "3", "12", "11", "1", "2"], "time": [807, 2191, 3566, 4414, 5012, 6263, 7073, 8698, 8929]}, "edge": {"target": [], "time": []}}, "mouseover": {"state": {"target": ["9", "10", "11", "4", "4", "1", "3", "7", "6", "8", "5", "3", "5", "12", "11", "9", "1", "2"], "time": [647, 763, 1363, 1797, 2113, 2363, 3080, 3347, 3680, 3780, 4763, 4913, 5163, 6213, 7013, 7564, 7847, 8881]}, "edge": {"target": [], "time": []}}, "mouseout": {"state": {"target": ["0", "9", "10", "11", "4", "4", "1", "3", "7", "6", "8", "5", "3", "5", "10", "12", "10", "11", "10", "9", "1", "2", "1"], "time": [614, 730, 1280, 1680, 1830, 2297, 2398, 3263, 3663, 3730, 4513, 4780, 5113, 5197, 6180, 6614, 6663, 7180, 7263, 7597, 8847, 9080, 9147]}, "edge": {"target": [], "time": []}}}, "displayed_time": "11.55", "trialTime": 12100, "trial_type": "mouselab-mdp", "trial_index": 66, "time_elapsed": 1418741, "internal_node_id": "0.0-4.0-3.0-26.0"}}, {"uniqueid": "w33873282:a66752777", "current_trial": 67, "dateTime": 1664465345308, "trialdata": {"revealed_states": [], "num_clicks_accrued": [0, 0, 0, 0, 0, 0, 0, 0, 0, 0, 0, 0, 0], "stateRewards": ["", 2, -8, 24, -24, -2, 8, -48, -48, 2, -8, -24, -48], "withholdReward": false, "trial_id": "mdp_744278669205", "block": "test2", "trialIndex": 59, "score": 20, "costs": -3, "simulationMode": [null, null, null], "rewards": [2, -8, 24], "path": ["0", "0", "1", "2", "3"], "rt": [15544, 186, 175], "actions": ["up", "up", "right"], "actionTimes": [16964, 17636, 18308], "queries": {"click": {"state": {"target": ["11", "4", "7", "8", "3", "12", "2", "6", "10", "1", "9", "5"], "time": [2045, 2961, 3670, 4387, 5095, 5656, 7188, 8304, 11185, 12560, 13027, 13393]}, "edge": {"target": [], "time": []}}, "mouseover": {"state": {"target": ["0", "9", "10", "11", "10", "12", "4", "6", "7", "6", "8", "8", "5", "3", "0", "12", "10", "1", "2", "1", "0", "5", "6", "9", "10", "9", "9", "10", "9", "1", "9", "0", "5"], "time": [1600, 1633, 1700, 2020, 2200, 2300, 2800, 3417, 3533, 3767, 3817, 4250, 4800, 5017, 5250, 5600, 6333, 6817, 7050, 7333, 7433, 7983, 8050, 8800, 8950, 9200, 11033, 11133, 11633, 12067, 12883, 13250, 13316]}, "edge": {"target": [], "time": []}}, "mouseout": {"state": {"target": ["5", "5", "0", "0", "9", "10", "11", "10", "12", "4", "6", "7", "6", "8", "8", "5", "3", "0", "12", "10", "1", "2", "1", "0", "5", "6", "9", "10", "9", "9", "10", "10", "9", "1", "9", "0", "5"], "time": [317, 516, 833, 1617, 1667, 1717, 2167, 2250, 2700, 3067, 3467, 3750, 3800, 3867, 4483, 4817, 5200, 5267, 5767, 6717, 6850, 7300, 7383, 7950, 8017, 8467, 8883, 9167, 9233, 11067, 11201, 11483, 11933, 12800, 13233, 13283, 13583]}, "edge": {"target": [], "time": []}}}, "displayed_time": "18.80", "trialTime": 19756, "trial_type": "mouselab-mdp", "trial_index": 67, "time_elapsed": 1438528, "internal_node_id": "0.0-4.0-3.0-27.0"}}, {"uniqueid": "w33873282:a66752777", "current_trial": 68, "dateTime": 1664465354461, "trialdata": {"revealed_states": [], "num_clicks_accrued": [0, 0, 0, 0, 0, 0, 0, 0, 0, 0, 0, 0, 0], "stateRewards": ["", -4, -4, 48, 24, -4, -4, -24, -48, -4, 4, 48, -24], "withholdReward": true, "trial_id": "mdp_896503755738", "block": "test2", "trialIndex": 60, "score": 52.25, "costs": -0.75, "simulationMode": [null, null, null], "rewards": [-4, 4, 48], "path": ["0", "0", "9", "10", "11"], "rt": [5454, 246, 249], "actions": ["left", "left", "up"], "actionTimes": [5888, 6624, 7361], "queries": {"click": {"state": {"target": ["10", "2", "11"], "time": [2354, 3065, 4384]}, "edge": {"target": [], "time": []}}, "mouseover": {"state": {"target": ["9", "10", "11", "10", "9", "9", "1", "2", "1", "5", "6", "5", "11"], "time": [694, 912, 1511, 2178, 2611, 2644, 2711, 2794, 3261, 3494, 3528, 3878, 4128]}, "edge": {"target": [], "time": []}}, "mouseout": {"state": {"target": ["0", "9", "10", "11", "10", "9", "9", "1", "2", "1", "5", "6", "5", "11", "9"], "time": [661, 777, 1087, 2127, 2594, 2628, 2661, 2761, 3227, 3377, 3511, 3861, 3894, 4611, 8928]}, "edge": {"target": [], "time": []}}}, "displayed_time": "8.44", "trialTime": 9120, "trial_type": "mouselab-mdp", "trial_index": 68, "time_elapsed": 1447681, "internal_node_id": "0.0-4.0-3.0-28.0"}}, {"uniqueid": "w33873282:a66752777", "current_trial": 69, "dateTime": 1664465364990, "trialdata": {"revealed_states": [], "num_clicks_accrued": [0, 0, 0, 0, 0, 0, 0, 0, 0, 0, 0, 0, 0], "stateRewards": ["", -2, 4, -48, 24, -4, 8, 48, 24, -2, 4, -48, -24], "withholdReward": true, "trial_id": "mdp_740882974347", "block": "test2", "trialIndex": 61, "score": 56.5, "costs": -0.5, "simulationMode": [null, null, null], "rewards": [-4, 8, 48], "path": ["0", "0", "5", "6", "7"], "rt": [2646, 144, 183], "actions": ["right", "right", "up"], "actionTimes": [3713, 4353, 5025], "queries": {"click": {"state": {"target": ["11", "7"], "time": [1524, 2500]}, "edge": {"target": [], "time": []}}, "mouseover": {"state": {"target": ["9", "11", "10", "5", "6", "7", "6", "8"], "time": [1326, 1409, 1675, 2259, 2292, 2409, 2626, 2675]}, "edge": {"target": [], "time": []}}, "mouseout": {"state": {"target": ["9", "10", "9", "9", "11", "10", "5", "6", "7", "6", "8"], "time": [709, 909, 959, 1359, 1659, 1742, 2276, 2326, 2609, 2659, 2692]}, "edge": {"target": [], "time": []}}}, "displayed_time": "10.07", "trialTime": 10498, "trial_type": "mouselab-mdp", "trial_index": 69, "time_elapsed": 1458210, "internal_node_id": "0.0-4.0-3.0-29.0"}}, {"uniqueid": "w33873282:a66752777", "current_trial": 70, "dateTime": 1664465366495, "trialdata": {"rt": 1502, "stimulus": "<h1> End of block! </h1>\n\nYou have reached the end of the block 2/4. If you need a short break, feel free to take one now before moving on.\n\n<br><br>\nIn the next block, you will complete another 30 rounds of this game.\n\n<br><br>\n<div style='text-align: center;'>Press <code>space</code> to begin.</div>\n<br><br>\n<div style='text-align: center;'>(If the experiment doesn't continue, try clicking on the text and then pressing <code>space</code>.)</div>", "response": " ", "trial_id": "mdp_ready_3", "trial_type": "html-keyboard-response", "trial_index": 70, "time_elapsed": 1459714, "internal_node_id": "0.0-4.0-4.0"}}, {"uniqueid": "w33873282:a66752777", "current_trial": 71, "dateTime": 1664465376839, "trialdata": {"revealed_states": [], "num_clicks_accrued": [0, 0, 0, 0, 0, 0, 0, 0, 0, 0, 0, 0, 0], "stateRewards": ["", 2, 4, -48, -24, 2, 8, 24, 48, -2, 4, 48, -48], "withholdReward": true, "trial_id": "mdp_551894842204", "block": "test3", "trialIndex": 62, "score": 54.75, "costs": -0.25, "simulationMode": [null, null, null], "rewards": [-2, 4, 48], "path": ["0", "0", "9", "10", "11"], "rt": [2361, 171, 192], "actions": ["left", "left", "up"], "actionTimes": [4041, 4713, 5418], "queries": {"click": {"state": {"target": ["11"], "time": [2683]}, "edge": {"target": [], "time": []}}, "mouseover": {"state": {"target": ["9", "11", "11", "11", "9"], "time": [1992, 2042, 2459, 2559, 2909]}, "edge": {"target": [], "time": []}}, "mouseout": {"state": {"target": ["2", "1", "9", "9", "11", "11", "11", "9", "1", "6"], "time": [559, 692, 1226, 2009, 2109, 2476, 2860, 2959, 6726, 6826]}, "edge": {"target": [], "time": []}}}, "displayed_time": "9.68", "trialTime": 10314, "trial_type": "mouselab-mdp", "trial_index": 71, "time_elapsed": 1470059, "internal_node_id": "0.0-4.0-5.0-0.0"}}, {"uniqueid": "w33873282:a66752777", "current_trial": 72, "dateTime": 1664465403347, "trialdata": {"revealed_states": [], "num_clicks_accrued": [0, 0, 0, 0, 0, 0, 0, 0, 0, 0, 0, 0, 0], "stateRewards": ["", -4, -8, 48, -24, 4, -8, 48, 48, -2, 4, -48, -24], "withholdReward": true, "trial_id": "mdp_925905402462", "block": "test3", "trialIndex": 63, "score": 47.75, "costs": -1.25, "simulationMode": [null, null, null], "rewards": [4, -8, 48], "path": ["0", "0", "5", "6", "7"], "rt": [4495, 38, 160], "actions": ["right", "right", "up"], "actionTimes": [6242, 6786, 7458], "queries": {"click": {"state": {"target": ["10", "11", "12", "4", "7"], "time": [2152, 2783, 3290, 4068, 5068]}, "edge": {"target": [], "time": []}}, "mouseover": {"state": {"target": ["9", "10", "11", "12", "0", "2", "4", "7", "5", "8"], "time": [1981, 2047, 2714, 3197, 3697, 3897, 3964, 4981, 5247, 5581]}, "edge": {"target": [], "time": []}}, "mouseout": {"state": {"target": ["6", "10", "10", "9", "9", "10", "11", "12", "0", "2", "4", "7", "5", "8", "8", "3"], "time": [714, 814, 1164, 1297, 2014, 2364, 2931, 3497, 3714, 3947, 4197, 5181, 5264, 5635, 8564, 8664]}, "edge": {"target": [], "time": []}}}, "displayed_time": "9.75", "trialTime": 26476, "trial_type": "mouselab-mdp", "trial_index": 72, "time_elapsed": 1496566, "internal_node_id": "0.0-4.0-5.0-1.0"}}, {"uniqueid": "w33873282:a66752777", "current_trial": 73, "dateTime": 1664465414068, "trialdata": {"revealed_states": [], "num_clicks_accrued": [0, 0, 0, 0, 0, 0, 0, 0, 0, 0, 0, 0, 0], "stateRewards": ["", 4, -8, -48, -24, 2, -8, -48, 48, -4, 8, 48, -48], "withholdReward": true, "trial_id": "mdp_605757196263", "block": "test3", "trialIndex": 64, "score": 56.5, "costs": -0.5, "simulationMode": [null, null, null], "rewards": [-4, 8, 48], "path": ["0", "0", "9", "10", "11"], "rt": [2794, 198, 394], "actions": ["left", "left", "up"], "actionTimes": [4410, 5114, 6010], "queries": {"click": {"state": {"target": ["10", "11"], "time": [2140, 3025]}, "edge": {"target": [], "time": []}}, "mouseover": {"state": {"target": ["9", "10", "11", "12", "9"], "time": [1816, 2099, 2982, 3249, 3515]}, "edge": {"target": [], "time": []}}, "mouseout": {"state": {"target": ["5", "0", "9", "0", "9", "10", "11", "10", "12", "9", "10", "11"], "time": [865, 1199, 1499, 1549, 1899, 2299, 3149, 3215, 3449, 3615, 7399, 7416]}, "edge": {"target": [], "time": []}}}, "displayed_time": "9.62", "trialTime": 10682, "trial_type": "mouselab-mdp", "trial_index": 73, "time_elapsed": 1507287, "internal_node_id": "0.0-4.0-5.0-2.0"}}, {"uniqueid": "w33873282:a66752777", "current_trial": 74, "dateTime": 1664465425245, "trialdata": {"revealed_states": [], "num_clicks_accrued": [0, 0, 0, 0, 0, 0, 0, 0, 0, 0, 0, 0, 0], "stateRewards": ["", 2, 8, 24, -48, 4, 8, 24, 48, 2, -8, -24, 24], "withholdReward": true, "trial_id": "mdp_939899431582", "block": "test3", "trialIndex": 65, "score": 63.5, "costs": -1.5, "simulationMode": [null, null, null], "rewards": [4, 8, 48], "path": ["0", "0", "5", "6", "8"], "rt": [5807, 313, 281], "actions": ["right", "right", "down"], "actionTimes": [6659, 7459, 8227], "queries": {"click": {"state": {"target": ["11", "7", "3", "4", "12", "8"], "time": [1649, 2300, 3050, 3870, 4758, 5452]}, "edge": {"target": [], "time": []}}, "mouseover": {"state": {"target": ["11", "9", "0", "5", "7", "6", "3", "5", "1", "4", "0", "12", "8"], "time": [1129, 1829, 2029, 2062, 2162, 2445, 2845, 3229, 3562, 3779, 4062, 4745, 5329]}, "edge": {"target": [], "time": []}}, "mouseout": {"state": {"target": ["3", "0", "11", "9", "0", "5", "7", "6", "3", "5", "1", "4", "0", "12", "8"], "time": [162, 1012, 1779, 2012, 2046, 2079, 2412, 2495, 3146, 3462, 3662, 3962, 4129, 4962, 5845]}, "edge": {"target": [], "time": []}}}, "displayed_time": "9.85", "trialTime": 11140, "trial_type": "mouselab-mdp", "trial_index": 74, "time_elapsed": 1518465, "internal_node_id": "0.0-4.0-5.0-3.0"}}, {"uniqueid": "w33873282:a66752777", "current_trial": 75, "dateTime": 1664465436582, "trialdata": {"revealed_states": [], "num_clicks_accrued": [0, 0, 0, 0, 0, 0, 0, 0, 0, 0, 0, 0, 0], "stateRewards": ["", -4, 4, -24, -24, -4, -8, 24, 48, 4, -4, 24, 48], "withholdReward": true, "trial_id": "mdp_175395325183", "block": "test3", "trialIndex": 66, "score": 52, "costs": -1, "simulationMode": [null, null, null], "rewards": [4, -4, 48], "path": ["0", "0", "9", "10", "12"], "rt": [3552, 271, 313], "actions": ["left", "left", "down"], "actionTimes": [6550, 7318, 8126], "queries": {"click": {"state": {"target": ["11", "12", "10", "9"], "time": [3467, 4268, 5372, 5654]}, "edge": {"target": [], "time": []}}, "mouseover": {"state": {"target": ["9", "11", "10", "12", "12", "8", "9", "10", "9"], "time": [3163, 3380, 3630, 3697, 4230, 4613, 5097, 5263, 5513]}, "edge": {"target": [], "time": []}}, "mouseout": {"state": {"target": ["9", "9", "9", "11", "10", "12", "12", "8", "9", "10", "9"], "time": [1113, 2830, 3197, 3597, 3663, 3747, 4447, 4897, 5197, 5480, 5780]}, "edge": {"target": [], "time": []}}}, "displayed_time": "11.00", "trialTime": 11295, "trial_type": "mouselab-mdp", "trial_index": 75, "time_elapsed": 1529802, "internal_node_id": "0.0-4.0-5.0-4.0"}}, {"uniqueid": "w33873282:a66752777", "current_trial": 76, "dateTime": 1664465446407, "trialdata": {"revealed_states": [], "num_clicks_accrued": [0, 0, 0, 0, 0, 0, 0, 0, 0, 0, 0, 0, 0], "stateRewards": ["", 4, -4, 48, 24, 2, 4, 24, -24, 2, 4, 24, 48], "withholdReward": true, "trial_id": 