{"condition": 0, "counterbalance": 0, "assignmentId": "a73659602", "workerId": "w53293719", "hitId": "h60254404", "currenttrial": 965, "bonus": 0, "data": [{"uniqueid": "w53293719:a73659602", "current_trial": 0, "dateTime": 1664463995986, "trialdata": {"success": true, "trial_type": "fullscreen", "trial_index": 0, "time_elapsed": 12436, "internal_node_id": "0.0-0.0"}}, {"uniqueid": "w53293719:a73659602", "current_trial": 1, "dateTime": 1664464047157, "trialdata": {"view_history": [{"page_index": 0, "viewing_time": 51163}], "rt": 51165, "trial_id": "exp_instructions_distractor", "trial_type": "instructions", "trial_index": 1, "time_elapsed": 63608, "internal_node_id": "0.0-1.0"}}, {"uniqueid": "w53293719:a73659602", "current_trial": 2, "dateTime": 1664464087419, "trialdata": {"view_history": [{"page_index": 0, "viewing_time": 40258}], "rt": 40259, "trial_id": "color_game_instructions", "trial_type": "instructions", "trial_index": 2, "time_elapsed": 103869, "internal_node_id": "0.0-2.0"}}, {"uniqueid": "w53293719:a73659602", "current_trial": 3, "dateTime": 1664464105836, "trialdata": {"rt": 18414, "stimulus": "<h1> Get ready to start the game! </h1>\n\nThank you for reading the instructions. Get ready start with the first of 5 block(s) of this game.\n<br><br>\nIn this first block, you will complete 90 rounds of this game before moving on.\n<br><br>\nRemember, the better you perform, the bigger your bonus will be!\n<br><br>\n<div style='text-align: center;'>Press <code>space</code> to begin.</div>", "response": " ", "trial_id": "stroop_1_ready_1", "trial_type": "html-keyboard-response", "trial_index": 3, "time_elapsed": 122287, "internal_node_id": "0.0-3.0"}}, {"uniqueid": "w53293719:a73659602", "current_trial": 4, "dateTime": 1664464108149, "trialdata": {"rt": 2306, "stimulus": "<p id='stroop-text' class='stroop-yellow'>GREEN</p>", "response": "y", "stimulus-type": "incongruent", "word": "green", "color": "yellow", "correct_response": "y", "trial_id": "stroop-trial-1-incongruent-21", "trial_type": "html-keyboard-response", "trial_index": 4, "time_elapsed": 124600, "internal_node_id": "0.0-4.0-0.0"}}, {"uniqueid": "w53293719:a73659602", "current_trial": 5, "dateTime": 1664464109910, "trialdata": {"rt": 1258, "stimulus": "<p id='stroop-text' class='stroop-green'>GREEN</p>", "response": "g", "stimulus-type": "congruent", "word": "green", "color": "green", "correct_response": "g", "trial_id": "stroop-trial-1-congruent-4", "trial_type": "html-keyboard-response", "trial_index": 5, "time_elapsed": 126361, "internal_node_id": "0.0-4.0-1.0"}}, {"uniqueid": "w53293719:a73659602", "current_trial": 6, "dateTime": 1664464111858, "trialdata": {"rt": 1444, "stimulus": "<p id='stroop-text' class='stroop-green'>YELLOW</p>", "response": "g", "stimulus-type": "incongruent", "word": "yellow", "color": "green", "correct_response": "g", "trial_id": "stroop-trial-1-incongruent-30", "trial_type": "html-keyboard-response", "trial_index": 6, "time_elapsed": 128309, "internal_node_id": "0.0-4.0-2.0"}}, {"uniqueid": "w53293719:a73659602", "current_trial": 7, "dateTime": 1664464113908, "trialdata": {"rt": 1546, "stimulus": "<p id='stroop-text' class='stroop-blue'>MONKEY</p>", "response": "b", "stimulus-type": "unrelated", "word": "MONKEY", "color": "blue", "correct_response": "b", "trial_id": "stroop-trial-1-unrelated-2", "trial_type": "html-keyboard-response", "trial_index": 7, "time_elapsed": 130359, "internal_node_id": "0.0-4.0-3.0"}}, {"uniqueid": "w53293719:a73659602", "current_trial": 8, "dateTime": 1664464116115, "trialdata": {"rt": 1704, "stimulus": "<p id='stroop-text' class='stroop-yellow'>YELLOW</p>", "response": "y", "stimulus-type": "congruent", "word": "yellow", "color": "yellow", "correct_response": "y", "trial_id": "stroop-trial-1-congruent-16", "trial_type": "html-keyboard-response", "trial_index": 8, "time_elapsed": 132565, "internal_node_id": "0.0-4.0-4.0"}}, {"uniqueid": "w53293719:a73659602", "current_trial": 9, "dateTime": 1664464117516, "trialdata": {"rt": 898, "stimulus": "<p id='stroop-text' class='stroop-blue'>BLUE</p>", "response": "b", "stimulus-type": "congruent", "word": "blue", "color": "blue", "correct_response": "b", "trial_id": "stroop-trial-1-congruent-17", "trial_type": "html-keyboard-response", "trial_index": 9, "time_elapsed": 133967, "internal_node_id": "0.0-4.0-5.0"}}, {"uniqueid": "w53293719:a73659602", "current_trial": 10, "dateTime": 1664464119284, "trialdata": {"rt": 1265, "stimulus": "<p id='stroop-text' class='stroop-green'>WINDOW</p>", "response": "g", "stimulus-type": "unrelated", "word": "WINDOW", "color": "green", "correct_response": "g", "trial_id": "stroop-trial-1-unrelated-24", "trial_type": "html-keyboard-response", "trial_index": 10, "time_elapsed": 135735, "internal_node_id": "0.0-4.0-6.0"}}, {"uniqueid": "w53293719:a73659602", "current_trial": 11, "dateTime": 1664464120820, "trialdata": {"rt": 1031, "stimulus": "<p id='stroop-text' class='stroop-blue'>BLUE</p>", "response": "b", "stimulus-type": "congruent", "word": "blue", "color": "blue", "correct_response": "b", "trial_id": "stroop-trial-1-congruent-19", "trial_type": "html-keyboard-response", "trial_index": 11, "time_elapsed": 137271, "internal_node_id": "0.0-4.0-7.0"}}, {"uniqueid": "w53293719:a73659602", "current_trial": 12, "dateTime": 1664464122599, "trialdata": {"rt": 1275, "stimulus": "<p id='stroop-text' class='stroop-green'>CHAIR</p>", "response": "g", "stimulus-type": "unrelated", "word": "CHAIR", "color": "green", "correct_response": "g", "trial_id": "stroop-trial-1-unrelated-18", "trial_type": "html-keyboard-response", "trial_index": 12, "time_elapsed": 139049, "internal_node_id": "0.0-4.0-8.0"}}, {"uniqueid": "w53293719:a73659602", "current_trial": 13, "dateTime": 1664464124463, "trialdata": {"rt": 1362, "stimulus": "<p id='stroop-text' class='stroop-red'>FORK</p>", "response": "r", "stimulus-type": "unrelated", "word": "FORK", "color": "red", "correct_response": "r", "trial_id": "stroop-trial-1-unrelated-28", "trial_type": "html-keyboard-response", "trial_index": 13, "time_elapsed": 140913, "internal_node_id": "0.0-4.0-9.0"}}, {"uniqueid": "w53293719:a73659602", "current_trial": 14, "dateTime": 1664464126018, "trialdata": {"rt": 1052, "stimulus": "<p id='stroop-text' class='stroop-yellow'>WINDOW</p>", "response": "y", "stimulus-type": "unrelated", "word": "WINDOW", "color": "yellow", "correct_response": "y", "trial_id": "stroop-trial-1-unrelated-29", "trial_type": "html-keyboard-response", "trial_index": 14, "time_elapsed": 142469, "internal_node_id": "0.0-4.0-10.0"}}, {"uniqueid": "w53293719:a73659602", "current_trial": 15, "dateTime": 1664464127537, "trialdata": {"rt": 1014, "stimulus": "<p id='stroop-text' class='stroop-yellow'>RED</p>", "response": "y", "stimulus-type": "incongruent", "word": "red", "color": "yellow", "correct_response": "y", "trial_id": "stroop-trial-1-incongruent-15", "trial_type": "html-keyboard-response", "trial_index": 15, "time_elapsed": 143988, "internal_node_id": "0.0-4.0-11.0"}}, {"uniqueid": "w53293719:a73659602", "current_trial": 16, "dateTime": 1664464129013, "trialdata": {"rt": 974, "stimulus": "<p id='stroop-text' class='stroop-green'>GREEN</p>", "response": "g", "stimulus-type": "congruent", "word": "green", "color": "green", "correct_response": "g", "trial_id": "stroop-trial-1-congruent-25", "trial_type": "html-keyboard-response", "trial_index": 16, "time_elapsed": 145464, "internal_node_id": "0.0-4.0-12.0"}}, {"uniqueid": "w53293719:a73659602", "current_trial": 17, "dateTime": 1664464130858, "trialdata": {"rt": 1342, "stimulus": "<p id='stroop-text' class='stroop-red'>BLUE</p>", "response": "r", "stimulus-type": "incongruent", "word": "blue", "color": "red", "correct_response": "r", "trial_id": "stroop-trial-1-incongruent-7", "trial_type": "html-keyboard-response", "trial_index": 17, "time_elapsed": 147309, "internal_node_id": "0.0-4.0-13.0"}}, {"uniqueid": "w53293719:a73659602", "current_trial": 18, "dateTime": 1664464132412, "trialdata": {"rt": 1050, "stimulus": "<p id='stroop-text' class='stroop-green'>WINDOW</p>", "response": "g", "stimulus-type": "unrelated", "word": "WINDOW", "color": "green", "correct_response": "g", "trial_id": "stroop-trial-1-unrelated-12", "trial_type": "html-keyboard-response", "trial_index": 18, "time_elapsed": 148863, "internal_node_id": "0.0-4.0-14.0"}}, {"uniqueid": "w53293719:a73659602", "current_trial": 19, "dateTime": 1664464134181, "trialdata": {"rt": 1267, "stimulus": "<p id='stroop-text' class='stroop-blue'>GREEN</p>", "response": "b", "stimulus-type": "incongruent", "word": "green", "color": "blue", "correct_response": "b", "trial_id": "stroop-trial-1-incongruent-25", "trial_type": "html-keyboard-response", "trial_index": 19, "time_elapsed": 150632, "internal_node_id": "0.0-4.0-15.0"}}, {"uniqueid": "w53293719:a73659602", "current_trial": 20, "dateTime": 1664464136174, "trialdata": {"rt": 1490, "stimulus": "<p id='stroop-text' class='stroop-red'>GREEN</p>", "response": "r", "stimulus-type": "incongruent", "word": "green", "color": "red", "correct_response": "r", "trial_id": "stroop-trial-1-incongruent-18", "trial_type": "html-keyboard-response", "trial_index": 20, "time_elapsed": 152625, "internal_node_id": "0.0-4.0-16.0"}}, {"uniqueid": "w53293719:a73659602", "current_trial": 21, "dateTime": 1664464137839, "trialdata": {"rt": 1161, "stimulus": "<p id='stroop-text' class='stroop-yellow'>STONE</p>", "response": "y", "stimulus-type": "unrelated", "word": "STONE", "color": "yellow", "correct_response": "y", "trial_id": "stroop-trial-1-unrelated-9", "trial_type": "html-keyboard-response", "trial_index": 21, "time_elapsed": 154289, "internal_node_id": "0.0-4.0-17.0"}}, {"uniqueid": "w53293719:a73659602", "current_trial": 22, "dateTime": 1664464139396, "trialdata": {"rt": 1054, "stimulus": "<p id='stroop-text' class='stroop-red'>BOAT</p>", "response": "r", "stimulus-type": "unrelated", "word": "BOAT", "color": "red", "correct_response": "r", "trial_id": "stroop-trial-1-unrelated-22", "trial_type": "html-keyboard-response", "trial_index": 22, "time_elapsed": 155846, "internal_node_id": "0.0-4.0-18.0"}}, {"uniqueid": "w53293719:a73659602", "current_trial": 23, "dateTime": 1664464140935, "trialdata": {"rt": 1036, "stimulus": "<p id='stroop-text' class='stroop-yellow'>BRAIN</p>", "response": "y", "stimulus-type": "unrelated", "word": "BRAIN", "color": "yellow", "correct_response": "y", "trial_id": "stroop-trial-1-unrelated-10", "trial_type": "html-keyboard-response", "trial_index": 23, "time_elapsed": 157385, "internal_node_id": "0.0-4.0-19.0"}}, {"uniqueid": "w53293719:a73659602", "current_trial": 24, "dateTime": 1664464142428, "trialdata": {"rt": 991, "stimulus": "<p id='stroop-text' class='stroop-blue'>BLUE</p>", "response": "b", "stimulus-type": "congruent", "word": "blue", "color": "blue", "correct_response": "b", "trial_id": "stroop-trial-1-congruent-27", "trial_type": "html-keyboard-response", "trial_index": 24, "time_elapsed": 158878, "internal_node_id": "0.0-4.0-20.0"}}, {"uniqueid": "w53293719:a73659602", "current_trial": 25, "dateTime": 1664464143804, "trialdata": {"rt": 874, "stimulus": "<p id='stroop-text' class='stroop-blue'>RED</p>", "response": "b", "stimulus-type": "incongruent", "word": "red", "color": "blue", "correct_response": "b", "trial_id": "stroop-trial-1-incongruent-6", "trial_type": "html-keyboard-response", "trial_index": 25, "time_elapsed": 160255, "internal_node_id": "0.0-4.0-21.0"}}, {"uniqueid": "w53293719:a73659602", "current_trial": 26, "dateTime": 1664464145195, "trialdata": {"rt": 889, "stimulus": "<p id='stroop-text' class='stroop-yellow'>YELLOW</p>", "response": "y", "stimulus-type": "congruent", "word": "yellow", "color": "yellow", "correct_response": "y", "trial_id": "stroop-trial-1-congruent-6", "trial_type": "html-keyboard-response", "trial_index": 26, "time_elapsed": 161646, "internal_node_id": "0.0-4.0-22.0"}}, {"uniqueid": "w53293719:a73659602", "current_trial": 27, "dateTime": 1664464146547, "trialdata": {"rt": 848, "stimulus": "<p id='stroop-text' class='stroop-yellow'>FORK</p>", "response": "y", "stimulus-type": "unrelated", "word": "FORK", "color": "yellow", "correct_response": "y", "trial_id": "stroop-trial-1-unrelated-13", "trial_type": "html-keyboard-response", "trial_index": 27, "time_elapsed": 162998, "internal_node_id": "0.0-4.0-23.0"}}, {"uniqueid": "w53293719:a73659602", "current_trial": 28, "dateTime": 1664464147845, "trialdata": {"rt": 795, "stimulus": "<p id='stroop-text' class='stroop-yellow'>GREEN</p>", "response": "y", "stimulus-type": "incongruent", "word": "green", "color": "yellow", "correct_response": "y", "trial_id": "stroop-trial-1-incongruent-27", "trial_type": "html-keyboard-response", "trial_index": 28, "time_elapsed": 164295, "internal_node_id": "0.0-4.0-24.0"}}, {"uniqueid": "w53293719:a73659602", "current_trial": 29, "dateTime": 1664464149357, "trialdata": {"rt": 1010, "stimulus": "<p id='stroop-text' class='stroop-blue'>BRIDGE</p>", "response": "b", "stimulus-type": "unrelated", "word": "BRIDGE", "color": "blue", "correct_response": "b", "trial_id": "stroop-trial-1-unrelated-4", "trial_type": "html-keyboard-response", "trial_index": 29, "time_elapsed": 165808, "internal_node_id": "0.0-4.0-25.0"}}, {"uniqueid": "w53293719:a73659602", "current_trial": 30, "dateTime": 1664464150608, "trialdata": {"rt": 746, "stimulus": "<p id='stroop-text' class='stroop-blue'>YELLOW</p>", "response": "b", "stimulus-type": "incongruent", "word": "yellow", "color": "blue", "correct_response": "b", "trial_id": "stroop-trial-1-incongruent-10", "trial_type": "html-keyboard-response", "trial_index": 30, "time_elapsed": 167058, "internal_node_id": "0.0-4.0-26.0"}}, {"uniqueid": "w53293719:a73659602", "current_trial": 31, "dateTime": 1664464151954, "trialdata": {"rt": 843, "stimulus": "<p id='stroop-text' class='stroop-yellow'>YELLOW</p>", "response": "y", "stimulus-type": "congruent", "word": "yellow", "color": "yellow", "correct_response": "y", "trial_id": "stroop-trial-1-congruent-1", "trial_type": "html-keyboard-response", "trial_index": 31, "time_elapsed": 168405, "internal_node_id": "0.0-4.0-27.0"}}, {"uniqueid": "w53293719:a73659602", "current_trial": 32, "dateTime": 1664464153349, "trialdata": {"rt": 892, "stimulus": "<p id='stroop-text' class='stroop-red'>YELLOW</p>", "response": "r", "stimulus-type": "incongruent", "word": "yellow", "color": "red", "correct_response": "r", "trial_id": "stroop-trial-1-incongruent-20", "trial_type": "html-keyboard-response", "trial_index": 32, "time_elapsed": 169799, "internal_node_id": "0.0-4.0-28.0"}}, {"uniqueid": "w53293719:a73659602", "current_trial": 33, "dateTime": 1664464154690, "trialdata": {"rt": 838, "stimulus": "<p id='stroop-text' class='stroop-red'>YELLOW</p>", "response": "r", "stimulus-type": "incongruent", "word": "yellow", "color": "red", "correct_response": "r", "trial_id": "stroop-trial-1-incongruent-23", "trial_type": "html-keyboard-response", "trial_index": 33, "time_elapsed": 171141, "internal_node_id": "0.0-4.0-29.0"}}, {"uniqueid": "w53293719:a73659602", "current_trial": 34, "dateTime": 1664464156177, "trialdata": {"rt": 984, "stimulus": "<p id='stroop-text' class='stroop-green'>DOG</p>", "response": "g", "stimulus-type": "unrelated", "word": "DOG", "color": "green", "correct_response": "g", "trial_id": "stroop-trial-1-unrelated-25", "trial_type": "html-keyboard-response", "trial_index": 34, "time_elapsed": 172628, "internal_node_id": "0.0-4.0-30.0"}}, {"uniqueid": "w53293719:a73659602", "current_trial": 35, "dateTime": 1664464157446, "trialdata": {"rt": 767, "stimulus": "<p id='stroop-text' class='stroop-green'>GREEN</p>", "response": "g", "stimulus-type": "congruent", "word": "green", "color": "green", "correct_response": "g", "trial_id": "stroop-trial-1-congruent-13", "trial_type": "html-keyboard-response", "trial_index": 35, "time_elapsed": 173897, "internal_node_id": "0.0-4.0-31.0"}}, {"uniqueid": "w53293719:a73659602", "current_trial": 36, "dateTime": 1664464158785, "trialdata": {"rt": 835, "stimulus": "<p id='stroop-text' class='stroop-blue'>BLUE</p>", "response": "b", "stimulus-type": "congruent", "word": "blue", "color": "blue", "correct_response": "b", "trial_id": "stroop-trial-1-congruent-30", "trial_type": "html-keyboard-response", "trial_index": 36, "time_elapsed": 175235, "internal_node_id": "0.0-4.0-32.0"}}, {"uniqueid": "w53293719:a73659602", "current_trial": 37, "dateTime": 1664464160406, "trialdata": {"rt": 1119, "stimulus": "<p id='stroop-text' class='stroop-green'>MONKEY</p>", "response": "g", "stimulus-type": "unrelated", "word": "MONKEY", "color": "green", "correct_response": "g", "trial_id": "stroop-trial-1-unrelated-14", "trial_type": "html-keyboard-response", "trial_index": 37, "time_elapsed": 176856, "internal_node_id": "0.0-4.0-33.0"}}, {"uniqueid": "w53293719:a73659602", "current_trial": 38, "dateTime": 1664464161758, "trialdata": {"rt": 849, "stimulus": "<p id='stroop-text' class='stroop-green'>GREEN</p>", "response": "g", "stimulus-type": "congruent", "word": "green", "color": "green", "correct_response": "g", "trial_id": "stroop-trial-1-congruent-9", "trial_type": "html-keyboard-response", "trial_index": 38, "time_elapsed": 178209, "internal_node_id": "0.0-4.0-34.0"}}, {"uniqueid": "w53293719:a73659602", "current_trial": 39, "dateTime": 1664464163015, "trialdata": {"rt": 754, "stimulus": "<p id='stroop-text' class='stroop-blue'>BLUE</p>", "response": "b", "stimulus-type": "congruent", "word": "blue", "color": "blue", "correct_response": "b", "trial_id": "stroop-trial-1-congruent-14", "trial_type": "html-keyboard-response", "trial_index": 39, "time_elapsed": 179466, "internal_node_id": "0.0-4.0-35.0"}}, {"uniqueid": "w53293719:a73659602", "current_trial": 40, "dateTime": 1664464164452, "trialdata": {"rt": 933, "stimulus": "<p id='stroop-text' class='stroop-green'>GREEN</p>", "response": "g", "stimulus-type": "congruent", "word": "green", "color": "green", "correct_response": "g", "trial_id": "stroop-trial-1-congruent-29", "trial_type": "html-keyboard-response", "trial_index": 40, "time_elapsed": 180903, "internal_node_id": "0.0-4.0-36.0"}}, {"uniqueid": "w53293719:a73659602", "current_trial": 41, "dateTime": 1664464165895, "trialdata": {"rt": 940, "stimulus": "<p id='stroop-text' class='stroop-green'>BRAIN</p>", "response": "g", "stimulus-type": "unrelated", "word": "BRAIN", "color": "green", "correct_response": "g", "trial_id": "stroop-trial-1-unrelated-1", "trial_type": "html-keyboard-response", "trial_index": 41, "time_elapsed": 182345, "internal_node_id": "0.0-4.0-37.0"}}, {"uniqueid": "w53293719:a73659602", "current_trial": 42, "dateTime": 1664464167338, "trialdata": {"rt": 940, "stimulus": "<p id='stroop-text' class='stroop-red'>BLUE</p>", "response": "r", "stimulus-type": "incongruent", "word": "blue", "color": "red", "correct_response": "r", "trial_id": "stroop-trial-1-incongruent-22", "trial_type": "html-keyboard-response", "trial_index": 42, "time_elapsed": 183788, "internal_node_id": "0.0-4.0-38.0"}}, {"uniqueid": "w53293719:a73659602", "current_trial": 43, "dateTime": 1664464168814, "trialdata": {"rt": 973, "stimulus": "<p id='stroop-text' class='stroop-blue'>GREEN</p>", "response": "b", "stimulus-type": "incongruent", "word": "green", "color": "blue", "correct_response": "b", "trial_id": "stroop-trial-1-incongruent-3", "trial_type": "html-keyboard-response", "trial_index": 43, "time_elapsed": 185265, "internal_node_id": "0.0-4.0-39.0"}}, {"uniqueid": "w53293719:a73659602", "current_trial": 44, "dateTime": 1664464170161, "trialdata": {"rt": 844, "stimulus": "<p id='stroop-text' class='stroop-blue'>BLUE</p>", "response": "b", "stimulus-type": "congruent", "word": "blue", "color": "blue", "correct_response": "b", "trial_id": "stroop-trial-1-congruent-23", "trial_type": "html-keyboard-response", "trial_index": 44, "time_elapsed": 186612, "internal_node_id": "0.0-4.0-40.0"}}, {"uniqueid": "w53293719:a73659602", "current_trial": 45, "dateTime": 1664464171489, "trialdata": {"rt": 825, "stimulus": "<p id='stroop-text' class='stroop-red'>GREEN</p>", "response": "r", "stimulus-type": "incongruent", "word": "green", "color": "red", "correct_response": "r", "trial_id": "stroop-trial-1-incongruent-14", "trial_type": "html-keyboard-response", "trial_index": 45, "time_elapsed": 187940, "internal_node_id": "0.0-4.0-41.0"}}, {"uniqueid": "w53293719:a73659602", "current_trial": 46, "dateTime": 1664464172966, "trialdata": {"rt": 973, "stimulus": "<p id='stroop-text' class='stroop-yellow'>YELLOW</p>", "response": "y", "stimulus-type": "congruent", "word": "yellow", "color": "yellow", "correct_response": "y", "trial_id": "stroop-trial-1-congruent-24", "trial_type": "html-keyboard-response", "trial_index": 46, "time_elapsed": 189417, "internal_node_id": "0.0-4.0-42.0"}}, {"uniqueid": "w53293719:a73659602", "current_trial": 47, "dateTime": 1664464174193, "trialdata": {"rt": 724, "stimulus": "<p id='stroop-text' class='stroop-yellow'>YELLOW</p>", "response": "y", "stimulus-type": "congruent", "word": "yellow", "color": "yellow", "correct_response": "y", "trial_id": "stroop-trial-1-congruent-15", "trial_type": "html-keyboard-response", "trial_index": 47, "time_elapsed": 190644, "internal_node_id": "0.0-4.0-43.0"}}, {"uniqueid": "w53293719:a73659602", "current_trial": 48, "dateTime": 1664464175649, "trialdata": {"rt": 953, "stimulus": "<p id='stroop-text' class='stroop-red'>RED</p>", "response": "r", "stimulus-type": "congruent", "word": "red", "color": "red", "correct_response": "r", "trial_id": "stroop-trial-1-congruent-3", "trial_type": "html-keyboard-response", "trial_index": 48, "time_elapsed": 192100, "internal_node_id": "0.0-4.0-44.0"}}, {"uniqueid": "w53293719:a73659602", "current_trial": 49, "dateTime": 1664464176890, "trialdata": {"rt": 738, "stimulus": "<p id='stroop-text' class='stroop-red'>BLUE</p>", "response": "r", "stimulus-type": "incongruent", "word": "blue", "color": "red", "correct_response": "r", "trial_id": "stroop-trial-1-incongruent-24", "trial_type": "html-keyboard-response", "trial_index": 49, "time_elapsed": 193340, "internal_node_id": "0.0-4.0-45.0"}}, {"uniqueid": "w53293719:a73659602", "current_trial": 50, "dateTime": 1664464178229, "trialdata": {"rt": 836, "stimulus": "<p id='stroop-text' class='stroop-red'>BOAT</p>", "response": "r", "stimulus-type": "unrelated", "word": "BOAT", "color": "red", "correct_response": "r", "trial_id": "stroop-trial-1-unrelated-5", "trial_type": "html-keyboard-response", "trial_index": 50, "time_elapsed": 194679, "internal_node_id": "0.0-4.0-46.0"}}, {"uniqueid": "w53293719:a73659602", "current_trial": 51, "dateTime": 1664464179659, "trialdata": {"rt": 927, "stimulus": "<p id='stroop-text' class='stroop-blue'>MONKEY</p>", "response": "b", "stimulus-type": "unrelated", "word": "MONKEY", "color": "blue", "correct_response": "b", "trial_id": "stroop-trial-1-unrelated-11", "trial_type": "html-keyboard-response", "trial_index": 51, "time_elapsed": 196109, "internal_node_id": "0.0-4.0-47.0"}}, {"uniqueid": "w53293719:a73659602", "current_trial": 52, "dateTime": 1664464181108, "trialdata": {"rt": 946, "stimulus": "<p id='stroop-text' class='stroop-green'>WINDOW</p>", "response": "g", "stimulus-type": "unrelated", "word": "WINDOW", "color": "green", "correct_response": "g", "trial_id": "stroop-trial-1-unrelated-7", "trial_type": "html-keyboard-response", "trial_index": 52, "time_elapsed": 197559, "internal_node_id": "0.0-4.0-48.0"}}, {"uniqueid": "w53293719:a73659602", "current_trial": 53, "dateTime": 1664464182488, "trialdata": {"rt": 876, "stimulus": "<p id='stroop-text' class='stroop-yellow'>WINDOW</p>", "response": "y", "stimulus-type": "unrelated", "word": "WINDOW", "color": "yellow", "correct_response": "y", "trial_id": "stroop-trial-1-unrelated-16", "trial_type": "html-keyboard-response", "trial_index": 53, "time_elapsed": 198938, "internal_node_id": "0.0-4.0-49.0"}}, {"uniqueid": "w53293719:a73659602", "current_trial": 54, "dateTime": 1664464183832, "trialdata": {"rt": 832, "stimulus": "<p id='stroop-text' class='stroop-blue'>BLUE</p>", "response": "b", "stimulus-type": "congruent", "word": "blue", "color": "blue", "correct_response": "b", "trial_id": "stroop-trial-1-congruent-12", "trial_type": "html-keyboard-response", "trial_index": 54, "time_elapsed": 200283, "internal_node_id": "0.0-4.0-50.0"}}, {"uniqueid": "w53293719:a73659602", "current_trial": 55, "dateTime": 1664464185225, "trialdata": {"rt": 890, "stimulus": "<p id='stroop-text' class='stroop-blue'>BLUE</p>", "response": "b", "stimulus-type": "congruent", "word": "blue", "color": "blue", "correct_response": "b", "trial_id": "stroop-trial-1-congruent-18", "trial_type": "html-keyboard-response", "trial_index": 55, "time_elapsed": 201676, "internal_node_id": "0.0-4.0-51.0"}}, {"uniqueid": "w53293719:a73659602", "current_trial": 56, "dateTime": 1664464186527, "trialdata": {"rt": 798, "stimulus": "<p id='stroop-text' class='stroop-yellow'>YELLOW</p>", "response": "y", "stimulus-type": "congruent", "word": "yellow", "color": "yellow", "correct_response": "y", "trial_id": "stroop-trial-1-congruent-5", "trial_type": "html-keyboard-response", "trial_index": 56, "time_elapsed": 202978, "internal_node_id": "0.0-4.0-52.0"}}, {"uniqueid": "w53293719:a73659602", "current_trial": 57, "dateTime": 1664464188017, "trialdata": {"rt": 987, "stimulus": "<p id='stroop-text' class='stroop-red'>GREEN</p>", "response": "r", "stimulus-type": "incongruent", "word": "green", "color": "red", "correct_response": "r", "trial_id": "stroop-trial-1-incongruent-4", "trial_type": "html-keyboard-response", "trial_index": 57, "time_elapsed": 204468, "internal_node_id": "0.0-4.0-53.0"}}, {"uniqueid": "w53293719:a73659602", "current_trial": 58, "dateTime": 1664464189265, "trialdata": {"rt": 745, "stimulus": "<p id='stroop-text' class='stroop-red'>RED</p>", "response": "r", "stimulus-type": "congruent", "word": "red", "color": "red", "correct_response": "r", "trial_id": "stroop-trial-1-congruent-10", "trial_type": "html-keyboard-response", "trial_index": 58, "time_elapsed": 205716, "internal_node_id": "0.0-4.0-54.0"}}, {"uniqueid": "w53293719:a73659602", "current_trial": 59, "dateTime": 1664464190759, "trialdata": {"rt": 991, "stimulus": "<p id='stroop-text' class='stroop-yellow'>YELLOW</p>", "response": "y", "stimulus-type": "congruent", "word": "yellow", "color": "yellow", "correct_response": "y", "trial_id": "stroop-trial-1-congruent-28", "trial_type": "html-keyboard-response", "trial_index": 59, "time_elapsed": 207210, "internal_node_id": "0.0-4.0-55.0"}}, {"uniqueid": "w53293719:a73659602", "current_trial": 60, "dateTime": 1664464192236, "trialdata": {"rt": 973, "stimulus": "<p id='stroop-text' class='stroop-red'>BOTTLE</p>", "response": "r", "stimulus-type": "unrelated", "word": "BOTTLE", "color": "red", "correct_response": "r", "trial_id": "stroop-trial-1-unrelated-27", "trial_type": "html-keyboard-response", "trial_index": 60, "time_elapsed": 208687, "internal_node_id": "0.0-4.0-56.0"}}, {"uniqueid": "w53293719:a73659602", "current_trial": 61, "dateTime": 1664464193457, "trialdata": {"rt": 718, "stimulus": "<p id='stroop-text' class='stroop-blue'>GREEN</p>", "response": "b", "stimulus-type": "incongruent", "word": "green", "color": "blue", "correct_response": "b", "trial_id": "stroop-trial-1-incongruent-28", "trial_type": "html-keyboard-response", "trial_index": 61, "time_elapsed": 209908, "internal_node_id": "0.0-4.0-57.0"}}, {"uniqueid": "w53293719:a73659602", "current_trial": 62, "dateTime": 1664464194998, "trialdata": {"rt": 1024, "stimulus": "<p id='stroop-text' class='stroop-green'>GREEN</p>", "response": "g", "stimulus-type": "congruent", "word": "green", "color": "green", "correct_response": "g", "trial_id": "stroop-trial-1-congruent-26", "trial_type": "html-keyboard-response", "trial_index": 62, "time_elapsed": 211449, "internal_node_id": "0.0-4.0-58.0"}}, {"uniqueid": "w53293719:a73659602", "current_trial": 63, "dateTime": 1664464197464, "trialdata": {"rt": 1962, "stimulus": "<p id='stroop-text' class='stroop-green'>RED</p>", "response": "g", "stimulus-type": "incongruent", "word": "red", "color": "green", "correct_response": "g", "trial_id": "stroop-trial-1-incongruent-9", "trial_type": "html-keyboard-response", "trial_index": 63, "time_elapsed": 213915, "internal_node_id": "0.0-4.0-59.0"}}, {"uniqueid": "w53293719:a73659602", "current_trial": 64, "dateTime": 1664464198838, "trialdata": {"rt": 871, "stimulus": "<p id='stroop-text' class='stroop-green'>GREEN</p>", "response": "g", "stimulus-type": "congruent", "word": "green", "color": "green", "correct_response": "g", "trial_id": "stroop-trial-1-congruent-21", "trial_type": "html-keyboard-response", "trial_index": 64, "time_elapsed": 215289, "internal_node_id": "0.0-4.0-60.0"}}, {"uniqueid": "w53293719:a73659602", "current_trial": 65, "dateTime": 1664464200259, "trialdata": {"rt": 917, "stimulus": "<p id='stroop-text' class='stroop-yellow'>BOTTLE</p>", "response": "y", "stimulus-type": "unrelated", "word": "BOTTLE", "color": "yellow", "correct_response": "y", "trial_id": "stroop-trial-1-unrelated-26", "trial_type": "html-keyboard-response", "trial_index": 65, "time_elapsed": 216709, "internal_node_id": "0.0-4.0-61.0"}}, {"uniqueid": "w53293719:a73659602", "current_trial": 66, "dateTime": 1664464201920, "trialdata": {"rt": 1158, "stimulus": "<p id='stroop-text' class='stroop-green'>BLUE</p>", "response": "g", "stimulus-type": "incongruent", "word": "blue", "color": "green", "correct_response": "g", "trial_id": "stroop-trial-1-incongruent-12", "trial_type": "html-keyboard-response", "trial_index": 66, "time_elapsed": 218371, "internal_node_id": "0.0-4.0-62.0"}}, {"uniqueid": "w53293719:a73659602", "current_trial": 67, "dateTime": 1664464203223, "trialdata": {"rt": 799, "stimulus": "<p id='stroop-text' class='stroop-green'>YELLOW</p>", "response": "g", "stimulus-type": "incongruent", "word": "yellow", "color": "green", "correct_response": "g", "trial_id": "stroop-trial-1-incongruent-1", "trial_type": "html-keyboard-response", "trial_index": 67, "time_elapsed": 219673, "internal_node_id": "0.0-4.0-63.0"}}, {"uniqueid": "w53293719:a73659602", "current_trial": 68, "dateTime": 1664464204765, "trialdata": {"rt": 1040, "stimulus": "<p id='stroop-text' class='stroop-yellow'>RED</p>", "response": "y", "stimulus-type": "incongruent", "word": "red", "color": "yellow", "correct_response": "y", "trial_id": "stroop-trial-1-incongruent-5", "trial_type": "html-keyboard-response", "trial_index": 68, "time_elapsed": 221216, "internal_node_id": "0.0-4.0-64.0"}}, {"uniqueid": "w53293719:a73659602", "current_trial": 69, "dateTime": 1664464206175, "trialdata": {"rt": 907, "stimulus": "<p id='stroop-text' class='stroop-green'>FORK</p>", "response": "g", "stimulus-type": "unrelated", "word": "FORK", "color": "green", "correct_response": "g", "trial_id": "stroop-trial-1-unrelated-8", "trial_type": "html-keyboard-response", "trial_index": 69, "time_elapsed": 222626, "internal_node_id": "0.0-4.0-65.0"}}, {"uniqueid": "w53293719:a73659602", "current_trial": 70, "dateTime": 1664464207554, "trialdata": {"rt": 877, "stimulus": "<p id='stroop-text' class='stroop-green'>FORK</p>", "response": "g", "stimulus-type": "unrelated", "word": "FORK", "color": "green", "correct_response": "g", "trial_id": "stroop-trial-1-unrelated-20", "trial_type": "html-keyboard-response", "trial_index": 70, "time_elapsed": 224005, "internal_node_id": "0.0-4.0-66.0"}}, {"uniqueid": "w53293719:a73659602", "current_trial": 71, "dateTime": 1664464208801, "trialdata": {"rt": 744, "stimulus": "<p id='stroop-text' class='stroop-red'>RED</p>", "response": "r", "stimulus-type": "congruent", "word": "red", "color": "red", "correct_response": "r", "trial_id": "stroop-trial-1-congruent-20", "trial_type": "html-keyboard-response", "trial_index": 71, "time_elapsed": 225252, "internal_node_id": "0.0-4.0-67.0"}}, {"uniqueid": "w53293719:a73659602", "current_trial": 72, "dateTime": 1664464210095, "trialdata": {"rt": 791, "stimulus": "<p id='stroop-text' class='stroop-blue'>YELLOW</p>", "response": "b", "stimulus-type": "incongruent", "word": "yellow", "color": "blue", "correct_response": "b", "trial_id": "stroop-trial-1-incongruent-2", "trial_type": "html-keyboard-response", "trial_index": 72, "time_elapsed": 226545, "internal_node_id": "0.0-4.0-68.0"}}, {"uniqueid": "w53293719:a73659602", "current_trial": 73, "dateTime": 1664464212050, "trialdata": {"rt": 1453, "stimulus": "<p id='stroop-text' class='stroop-green'>RED</p>", "response": "g", "stimulus-type": "incongruent", "word": "red", "color": "green", "correct_response": "g", "trial_id": "stroop-trial-1-incongruent-17", "trial_type": "html-keyboard-response", "trial_index": 73, "time_elapsed": 228501, "internal_node_id": "0.0-4.0-69.0"}}, {"uniqueid": "w53293719:a73659602", "current_trial": 74, "dateTime": 1664464213707, "trialdata": {"rt": 1153, "stimulus": "<p id='stroop-text' class='stroop-green'>BOTTLE</p>", "response": "g", "stimulus-type": "unrelated", "word": "BOTTLE", "color": "green", "correct_response": "g", "trial_id": "stroop-trial-1-unrelated-21", "trial_type": "html-keyboard-response", "trial_index": 74, "time_elapsed": 230158, "internal_node_id": "0.0-4.0-70.0"}}, {"uniqueid": "w53293719:a73659602", "current_trial": 75, "dateTime": 1664464214936, "trialdata": {"rt": 726, "stimulus": "<p id='stroop-text' class='stroop-blue'>RED</p>", "response": "b", "stimulus-type": "incongruent", "word": "red", "color": "blue", "correct_response": "b", "trial_id": "stroop-trial-1-incongruent-11", "trial_type": "html-keyboard-response", "trial_index": 75, "time_elapsed": 231387, "internal_node_id": "0.0-4.0-71.0"}}, {"uniqueid": "w53293719:a73659602", "current_trial": 76, "dateTime": 1664464216163, "trialdata": {"rt": 724, "stimulus": "<p id='stroop-text' class='stroop-red'>BRIDGE</p>", "response": "r", "stimulus-type": "unrelated", "word": "BRIDGE", "color": "red", "correct_response": "r", "trial_id": "stroop-trial-1-unrelated-17", "trial_type": "html-keyboard-response", "trial_index": 76, "time_elapsed": 232614, "internal_node_id": "0.0-4.0-72.0"}}, {"uniqueid": "w53293719:a73659602", "current_trial": 77, "dateTime": 1664464217449, "trialdata": {"rt": 783, "stimulus": "<p id='stroop-text' class='stroop-red'>RED</p>", "response": "r", "stimulus-type": "congruent", "word": "red", "color": "red", "correct_response": "r", "trial_id": "stroop-trial-1-congruent-2", "trial_type": "html-keyboard-response", "trial_index": 77, "time_elapsed": 233899, "internal_node_id": "0.0-4.0-73.0"}}, {"uniqueid": "w53293719:a73659602", "current_trial": 78, "dateTime": 1664464218928, "trialdata": {"rt": 976, "stimulus": "<p id='stroop-text' class='stroop-yellow'>BLUE</p>", "response": "y", "stimulus-type": "incongruent", "word": "blue", "color": "yellow", "correct_response": "y", "trial_id": "stroop-trial-1-incongruent-8", "trial_type": "html-keyboard-response", "trial_index": 78, "time_elapsed": 235379, "internal_node_id": "0.0-4.0-74.0"}}, {"uniqueid": "w53293719:a73659602", "current_trial": 79, "dateTime": 1664464220317, "trialdata": {"rt": 886, "stimulus": "<p id='stroop-text' class='stroop-green'>CHAIR</p>", "response": "g", "stimulus-type": "unrelated", "word": "CHAIR", "color": "green", "correct_response": "g", "trial_id": "stroop-trial-1-unrelated-6", "trial_type": "html-keyboard-response", "trial_index": 79, "time_elapsed": 236768, "internal_node_id": "0.0-4.0-75.0"}}, {"uniqueid": "w53293719:a73659602", "current_trial": 80, "dateTime": 1664464221726, "trialdata": {"rt": 902, "stimulus": "<p id='stroop-text' class='stroop-blue'>SHIP</p>", "response": "b", "stimulus-type": "unrelated", "word": "SHIP", "color": "blue", "correct_response": "b", "trial_id": "stroop-trial-1-unrelated-19", "trial_type": "html-keyboard-response", "trial_index": 80, "time_elapsed": 238177, "internal_node_id": "0.0-4.0-76.0"}}, {"uniqueid": "w53293719:a73659602", "current_trial": 81, "dateTime": 1664464222826, "trialdata": {"rt": 597, "stimulus": "<p id='stroop-text' class='stroop-blue'>RED</p>", "response": "b", "stimulus-type": "incongruent", "word": "red", "color": "blue", "correct_response": "b", "trial_id": "stroop-trial-1-incongruent-16", "trial_type": "html-keyboard-response", "trial_index": 81, "time_elapsed": 239277, "internal_node_id": "0.0-4.0-77.0"}}, {"uniqueid": "w53293719:a73659602", "current_trial": 82, "dateTime": 1664464223892, "trialdata": {"rt": 562, "stimulus": "<p id='stroop-text' class='stroop-blue'>GREEN</p>", "response": "b", "stimulus-type": "incongruent", "word": "green", "color": "blue", "correct_response": "b", "trial_id": "stroop-trial-1-incongruent-29", "trial_type": "html-keyboard-response", "trial_index": 82, "time_elapsed": 240342, "internal_node_id": "0.0-4.0-78.0"}}, {"uniqueid": "w53293719:a73659602", "current_trial": 83, "dateTime": 1664464225160, "trialdata": {"rt": 764, "stimulus": "<p id='stroop-text' class='stroop-red'>YELLOW</p>", "response": "r", "stimulus-type": "incongruent", "word": "yellow", "color": "red", "correct_response": "r", "trial_id": "stroop-trial-1-incongruent-26", "trial_type": "html-keyboard-response", "trial_index": 83, "time_elapsed": 241611, "internal_node_id": "0.0-4.0-79.0"}}, {"uniqueid": "w53293719:a73659602", "current_trial": 84, "dateTime": 1664464226298, "trialdata": {"rt": 635, "stimulus": "<p id='stroop-text' class='stroop-red'>RED</p>", "response": "r", "stimulus-type": "congruent", "word": "red", "color": "red", "correct_response": "r", "trial_id": "stroop-trial-1-congruent-7", "trial_type": "html-keyboard-response", "trial_index": 84, "time_elapsed": 242749, "internal_node_id": "0.0-4.0-80.0"}}, {"uniqueid": "w53293719:a73659602", "current_trial": 85, "dateTime": 1664464227675, "trialdata": {"rt": 873, "stimulus": "<p id='stroop-text' class='stroop-blue'>BLUE</p>", "response": "b", "stimulus-type": "congruent", "word": "blue", "color": "blue", "correct_response": "b", "trial_id": "stroop-trial-1-congruent-8", "trial_type": "html-keyboard-response", "trial_index": 85, "time_elapsed": 244126, "internal_node_id": "0.0-4.0-81.0"}}, {"uniqueid": "w53293719:a73659602", "current_trial": 86, "dateTime": 1664464229378, "trialdata": {"rt": 1200, "stimulus": "<p id='stroop-text' class='stroop-yellow'>BOTTLE</p>", "response": "y", "stimulus-type": "unrelated", "word": "BOTTLE", "color": "yellow", "correct_response": "y", "trial_id": "stroop-trial-1-unrelated-23", "trial_type": "html-keyboard-response", "trial_index": 86, "time_elapsed": 245829, "internal_node_id": "0.0-4.0-82.0"}}, {"uniqueid": "w53293719:a73659602", "current_trial": 87, "dateTime": 1664464230805, "trialdata": {"rt": 923, "stimulus": "<p id='stroop-text' class='stroop-red'>RED</p>", "response": "r", "stimulus-type": "congruent", "word": "red", "color": "red", "correct_response": "r", "trial_id": "stroop-trial-1-congruent-11", "trial_type": "html-keyboard-response", "trial_index": 87, "time_elapsed": 247256, "internal_node_id": "0.0-4.0-83.0"}}, {"uniqueid": "w53293719:a73659602", "current_trial": 88, "dateTime": 1664464232425, "trialdata": {"rt": 1117, "stimulus": "<p id='stroop-text' class='stroop-yellow'>YELLOW</p>", "response": "y", "stimulus-type": "congruent", "word": "yellow", "color": "yellow", "correct_response": "y", "trial_id": "stroop-trial-1-congruent-22", "trial_type": "html-keyboard-response", "trial_index": 88, "time_elapsed": 248876, "internal_node_id": "0.0-4.0-84.0"}}, {"uniqueid": "w53293719:a73659602", "current_trial": 89, "dateTime": 1664464234245, "trialdata": {"rt": 1317, "stimulus": "<p id='stroop-text' class='stroop-green'>STONE</p>", "response": "g", "stimulus-type": "unrelated", "word": "STONE", "color": "green", "correct_response": "g", "trial_id": "stroop-trial-1-unrelated-30", "trial_type": "html-keyboard-response", "trial_index": 89, "time_elapsed": 250696, "internal_node_id": "0.0-4.0-85.0"}}, {"uniqueid": "w53293719:a73659602", "current_trial": 90, "dateTime": 1664464235569, "trialdata": {"rt": 820, "stimulus": "<p id='stroop-text' class='stroop-red'>BLUE</p>", "response": "r", "stimulus-type": "incongruent", "word": "blue", "color": "red", "correct_response": "r", "trial_id": "stroop-trial-1-incongruent-19", "trial_type": "html-keyboard-response", "trial_index": 90, "time_elapsed": 252019, "internal_node_id": "0.0-4.0-86.0"}}, {"uniqueid": "w53293719:a73659602", "current_trial": 91, "dateTime": 1664464237007, "trialdata": {"rt": 936, "stimulus": "<p id='stroop-text' class='stroop-yellow'>BOTTLE</p>", "response": "y", "stimulus-type": "unrelated", "word": "BOTTLE", "color": "yellow", "correct_response": "y", "trial_id": "stroop-trial-1-unrelated-3", "trial_type": "html-keyboard-response", "trial_index": 91, "time_elapsed": 253458, "internal_node_id": "0.0-4.0-87.0"}}, {"uniqueid": "w53293719:a73659602", "current_trial": 92, "dateTime": 1664464238478, "trialdata": {"rt": 966, "stimulus": "<p id='stroop-text' class='stroop-green'>WINDOW</p>", "response": "g", "stimulus-type": "unrelated", "word": "WINDOW", "color": "green", "correct_response": "g", "trial_id": "stroop-trial-1-unrelated-15", "trial_type": "html-keyboard-response", "trial_index": 92, "time_elapsed": 254928, "internal_node_id": "0.0-4.0-88.0"}}, {"uniqueid": "w53293719:a73659602", "current_trial": 93, "dateTime": 1664464239960, "trialdata": {"rt": 979, "stimulus": "<p id='stroop-text' class='stroop-yellow'>GREEN</p>", "response": "y", "stimulus-type": "incongruent", "word": "green", "color": "yellow", "correct_response": "y", "trial_id": "stroop-trial-1-incongruent-13", "trial_type": "html-keyboard-response", "trial_index": 93, "time_elapsed": 256411, "internal_node_id": "0.0-4.0-89.0"}}, {"uniqueid": "w53293719:a73659602", "current_trial": 94, "dateTime": 1664464247734, "trialdata": {"rt": 7269, "stimulus": "  <h1> End of block! </h1>\n\n  You have reached the end of the block 1/5. If you need a short break, feel free to take one now before moving on.\n\n  <br><br>\n  In the next block, you will complete another 90 rounds of this game.\n\n  <br><br>\n  <div style='text-align: center;'>Press <code>space</code> to begin.</div>\n  <br><br>\n<div style='text-align: center;'>(If the experiment doesn't continue, try clicking on the text and then pressing <code>space</code>.)</div>", "response": " ", "trial_id": "stroop_1_ready_2", "trial_type": "html-keyboard-response", "trial_index": 94, "time_elapsed": 264185, "internal_node_id": "0.0-5.0"}}, {"uniqueid": "w53293719:a73659602", "current_trial": 95, "dateTime": 1664464249258, "trialdata": {"rt": 1520, "stimulus": "<p id='stroop-text' class='stroop-blue'>BRIDGE</p>", "response": "b", "stimulus-type": "unrelated", "word": "BRIDGE", "color": "blue", "correct_response": "b", "trial_id": "stroop-trial-1-unrelated-7", "trial_type": "html-keyboard-response", "trial_index": 95, "time_elapsed": 265709, "internal_node_id": "0.0-6.0-0.0"}}, {"uniqueid": "w53293719:a73659602", "current_trial": 96, "dateTime": 1664464250546, "trialdata": {"rt": 784, "stimulus": "<p id='stroop-text' class='stroop-green'>GREEN</p>", "response": "g", "stimulus-type": "congruent", "word": "green", "color": "green", "correct_response": "g", "trial_id": "stroop-trial-1-congruent-24", "trial_type": "html-keyboard-response", "trial_index": 96, "time_elapsed": 266997, "internal_node_id": "0.0-6.0-1.0"}}, {"uniqueid": "w53293719:a73659602", "current_trial": 97, "dateTime": 1664464251931, "trialdata": {"rt": 882, "stimulus": "<p id='stroop-text' class='stroop-red'>SHIP</p>", "response": "r", "stimulus-type": "unrelated", "word": "SHIP", "color": "red", "correct_response": "r", "trial_id": "stroop-trial-1-unrelated-24", "trial_type": "html-keyboard-response", "trial_index": 97, "time_elapsed": 268382, "internal_node_id": "0.0-6.0-2.0"}}, {"uniqueid": "w53293719:a73659602", "current_trial": 98, "dateTime": 1664464253461, "trialdata": {"rt": 1026, "stimulus": "<p id='stroop-text' class='stroop-green'>GREEN</p>", "response": "g", "stimulus-type": "congruent", "word": "green", "color": "green", "correct_response": "g", "trial_id": "stroop-trial-1-congruent-2", "trial_type": "html-keyboard-response", "trial_index": 98, "time_elapsed": 269911, "internal_node_id": "0.0-6.0-3.0"}}, {"uniqueid": "w53293719:a73659602", "current_trial": 99, "dateTime": 1664464254578, "trialdata": {"rt": 614, "stimulus": "<p id='stroop-text' class='stroop-yellow'>RED</p>", "response": "y", "stimulus-type": "incongruent", "word": "red", "color": "yellow", "correct_response": "y", "trial_id": "stroop-trial-1-incongruent-26", "trial_type": "html-keyboard-response", "trial_index": 99, "time_elapsed": 271028, "internal_node_id": "0.0-6.0-4.0"}}, {"uniqueid": "w53293719:a73659602", "current_trial": 100, "dateTime": 1664464255847, "trialdata": {"rt": 766, "stimulus": "<p id='stroop-text' class='stroop-red'>MONKEY</p>", "response": "r", "stimulus-type": "unrelated", "word": "MONKEY", "color": "red", "correct_response": "r", "trial_id": "stroop-trial-1-unrelated-18", "trial_type": "html-keyboard-response", "trial_index": 100, "time_elapsed": 272298, "internal_node_id": "0.0-6.0-5.0"}}, {"uniqueid": "w53293719:a73659602", "current_trial": 101, "dateTime": 1664464257176, "trialdata": {"rt": 824, "stimulus": "<p id='stroop-text' class='stroop-green'>RED</p>", "response": "g", "stimulus-type": "incongruent", "word": "red", "color": "green", "correct_response": "g", "trial_id": "stroop-trial-1-incongruent-3", "trial_type": "html-keyboard-response", "trial_index": 101, "time_elapsed": 273626, "internal_node_id": "0.0-6.0-6.0"}}, {"uniqueid": "w53293719:a73659602", "current_trial": 102, "dateTime": 1664464258369, "trialdata": {"rt": 690, "stimulus": "<p id='stroop-text' class='stroop-yellow'>SHIP</p>", "response": "y", "stimulus-type": "unrelated", "word": "SHIP", "color": "yellow", "correct_response": "y", "trial_id": "stroop-trial-1-unrelated-15", "trial_type": "html-keyboard-response", "trial_index": 102, "time_elapsed": 274820, "internal_node_id": "0.0-6.0-7.0"}}, {"uniqueid": "w53293719:a73659602", "current_trial": 103, "dateTime": 1664464260006, "trialdata": {"rt": 1134, "stimulus": "<p id='stroop-text' class='stroop-green'>RED</p>", "response": "g", "stimulus-type": "incongruent", "word": "red", "color": "green", "correct_response": "g", "trial_id": "stroop-trial-1-incongruent-17", "trial_type": "html-keyboard-response", "trial_index": 103, "time_elapsed": 276457, "internal_node_id": "0.0-6.0-8.0"}}, {"uniqueid": "w53293719:a73659602", "current_trial": 104, "dateTime": 1664464261308, "trialdata": {"rt": 799, "stimulus": "<p id='stroop-text' class='stroop-green'>FORK</p>", "response": "g", "stimulus-type": "unrelated", "word": "FORK", "color": "green", "correct_response": "g", "trial_id": "stroop-trial-1-unrelated-21", "trial_type": "html-keyboard-response", "trial_index": 104, "time_elapsed": 277758, "internal_node_id": "0.0-6.0-9.0"}}, {"uniqueid": "w53293719:a73659602", "current_trial": 105, "dateTime": 1664464262502, "trialdata": {"rt": 689, "stimulus": "<p id='stroop-text' class='stroop-green'>GREEN</p>", "response": "g", "stimulus-type": "congruent", "word": "green", "color": "green", "correct_response": "g", "trial_id": "stroop-trial-1-congruent-4", "trial_type": "html-keyboard-response", "trial_index": 105, "time_elapsed": 278952, "internal_node_id": "0.0-6.0-10.0"}}, {"uniqueid": "w53293719:a73659602", "current_trial": 106, "dateTime": 1664464264011, "trialdata": {"rt": 1006, "stimulus": "<p id='stroop-text' class='stroop-green'>GREEN</p>", "response": "g", "stimulus-type": "congruent", "word": "green", "color": "green", "correct_response": "g", "trial_id": "stroop-trial-1-congruent-10", "trial_type": "html-keyboard-response", "trial_index": 106, "time_elapsed": 280462, "internal_node_id": "0.0-6.0-11.0"}}, {"uniqueid": "w53293719:a73659602", "current_trial": 107, "dateTime": 1664464265288, "trialdata": {"rt": 774, "stimulus": "<p id='stroop-text' class='stroop-red'>BLUE</p>", "response": "r", "stimulus-type": "incongruent", "word": "blue", "color": "red", "correct_response": "r", "trial_id": "stroop-trial-1-incongruent-12", "trial_type": "html-keyboard-response", "trial_index": 107, "time_elapsed": 281739, "internal_node_id": "0.0-6.0-12.0"}}, {"uniqueid": "w53293719:a73659602", "current_trial": 108, "dateTime": 1664464267351, "trialdata": {"rt": 1560, "stimulus": "<p id='stroop-text' class='stroop-green'>BOAT</p>", "response": "g", "stimulus-type": "unrelated", "word": "BOAT", "color": "green", "correct_response": "g", "trial_id": "stroop-trial-1-unrelated-28", "trial_type": "html-keyboard-response", "trial_index": 108, "time_elapsed": 283801, "internal_node_id": "0.0-6.0-13.0"}}, {"uniqueid": "w53293719:a73659602", "current_trial": 109, "dateTime": 1664464268617, "trialdata": {"rt": 763, "stimulus": "<p id='stroop-text' class='stroop-red'>GREEN</p>", "response": "r", "stimulus-type": "incongruent", "word": "green", "color": "red", "correct_response": "r", "trial_id": "stroop-trial-1-incongruent-13", "trial_type": "html-keyboard-response", "trial_index": 109, "time_elapsed": 285067, "internal_node_id": "0.0-6.0-14.0"}}, {"uniqueid": "w53293719:a73659602", "current_trial": 110, "dateTime": 1664464270003, "trialdata": {"rt": 883, "stimulus": "<p id='stroop-text' class='stroop-blue'>FORK</p>", "response": "b", "stimulus-type": "unrelated", "word": "FORK", "color": "blue", "correct_response": "b", "trial_id": "stroop-trial-1-unrelated-11", "trial_type": "html-keyboard-response", "trial_index": 110, "time_elapsed": 286454, "internal_node_id": "0.0-6.0-15.0"}}, {"uniqueid": "w53293719:a73659602", "current_trial": 111, "dateTime": 1664464271300, "trialdata": {"rt": 793, "stimulus": "<p id='stroop-text' class='stroop-red'>RED</p>", "response": "r", "stimulus-type": "congruent", "word": "red", "color": "red", "correct_response": "r", "trial_id": "stroop-trial-1-congruent-30", "trial_type": "html-keyboard-response", "trial_index": 111, "time_elapsed": 287751, "internal_node_id": "0.0-6.0-16.0"}}, {"uniqueid": "w53293719:a73659602", "current_trial": 112, "dateTime": 1664464272578, "trialdata": {"rt": 775, "stimulus": "<p id='stroop-text' class='stroop-red'>RED</p>", "response": "r", "stimulus-type": "congruent", "word": "red", "color": "red", "correct_response": "r", "trial_id": "stroop-trial-1-congruent-12", "trial_type": "html-keyboard-response", "trial_index": 112, "time_elapsed": 289029, "internal_node_id": "0.0-6.0-17.0"}}, {"uniqueid": "w53293719:a73659602", "current_trial": 113, "dateTime": 1664464273864, "trialdata": {"rt": 782, "stimulus": "<p id='stroop-text' class='stroop-blue'>BLUE</p>", "response": "b", "stimulus-type": "congruent", "word": "blue", "color": "blue", "correct_response": "b", "trial_id": "stroop-trial-1-congruent-6", "trial_type": "html-keyboard-response", "trial_index": 113, "time_elapsed": 290315, "internal_node_id": "0.0-6.0-18.0"}}, {"uniqueid": "w53293719:a73659602", "current_trial": 114, "dateTime": 1664464275088, "trialdata": {"rt": 720, "stimulus": "<p id='stroop-text' class='stroop-blue'>BLUE</p>", "response": "b", "stimulus-type": "congruent", "word": "blue", "color": "blue", "correct_response": "b", "trial_id": "stroop-trial-1-congruent-16", "trial_type": "html-keyboard-response", "trial_index": 114, "time_elapsed": 291539, "internal_node_id": "0.0-6.0-19.0"}}, {"uniqueid": "w53293719:a73659602", "current_trial": 115, "dateTime": 1664464276449, "trialdata": {"rt": 858, "stimulus": "<p id='stroop-text' class='stroop-yellow'>YELLOW</p>", "response": "y", "stimulus-type": "congruent", "word": "yellow", "color": "yellow", "correct_response": "y", "trial_id": "stroop-trial-1-congruent-11", "trial_type": "html-keyboard-response", "trial_index": 115, "time_elapsed": 292900, "internal_node_id": "0.0-6.0-20.0"}}, {"uniqueid": "w53293719:a73659602", "current_trial": 116, "dateTime": 1664464277922, "trialdata": {"rt": 970, "stimulus": "<p id='stroop-text' class='stroop-blue'>BLUE</p>", "response": "b", "stimulus-type": "congruent", "word": "blue", "color": "blue", "correct_response": "b", "trial_id": "stroop-trial-1-congruent-21", "trial_type": "html-keyboard-response", "trial_index": 116, "time_elapsed": 294373, "internal_node_id": "0.0-6.0-21.0"}}, {"uniqueid": "w53293719:a73659602", "current_trial": 117, "dateTime": 1664464279855, "trialdata": {"rt": 1429, "stimulus": "<p id='stroop-text' class='stroop-blue'>BLUE</p>", "response": "b", "stimulus-type": "congruent", "word": "blue", "color": "blue", "correct_response": "b", "trial_id": "stroop-trial-1-congruent-19", "trial_type": "html-keyboard-response", "trial_index": 117, "time_elapsed": 296306, "internal_node_id": "0.0-6.0-22.0"}}, {"uniqueid": "w53293719:a73659602", "current_trial": 118, "dateTime": 1664464282301, "trialdata": {"rt": 1941, "stimulus": "<p id='stroop-text' class='stroop-yellow'>SHIP</p>", "response": "y", "stimulus-type": "unrelated", "word": "SHIP", "color": "yellow", "correct_response": "y", "trial_id": "stroop-trial-1-unrelated-5", "trial_type": "html-keyboard-response", "trial_index": 118, "time_elapsed": 298751, "internal_node_id": "0.0-6.0-23.0"}}, {"uniqueid": "w53293719:a73659602", "current_trial": 119, "dateTime": 1664464283963, "trialdata": {"rt": 1159, "stimulus": "<p id='stroop-text' class='stroop-blue'>GREEN</p>", "response": "b", "stimulus-type": "incongruent", "word": "green", "color": "blue", "correct_response": "b", "trial_id": "stroop-trial-1-incongruent-5", "trial_type": "html-keyboard-response", "trial_index": 119, "time_elapsed": 300414, "internal_node_id": "0.0-6.0-24.0"}}, {"uniqueid": "w53293719:a73659602", "current_trial": 120, "dateTime": 1664464285335, "trialdata": {"rt": 868, "stimulus": "<p id='stroop-text' class='stroop-blue'>YELLOW</p>", "response": "b", "stimulus-type": "incongruent", "word": "yellow", "color": "blue", "correct_response": "b", "trial_id": "stroop-trial-1-incongruent-30", "trial_type": "html-keyboard-response", "trial_index": 120, "time_elapsed": 301786, "internal_node_id": "0.0-6.0-25.0"}}, {"uniqueid": "w53293719:a73659602", "current_trial": 121, "dateTime": 1664464286523, "trialdata": {"rt": 683, "stimulus": "<p id='stroop-text' class='stroop-blue'>CHAIR</p>", "response": "b", "stimulus-type": "unrelated", "word": "CHAIR", "color": "blue", "correct_response": "b", "trial_id": "stroop-trial-1-unrelated-16", "trial_type": "html-keyboard-response", "trial_index": 121, "time_elapsed": 302974, "internal_node_id": "0.0-6.0-26.0"}}, {"uniqueid": "w53293719:a73659602", "current_trial": 122, "dateTime": 1664464287816, "trialdata": {"rt": 790, "stimulus": "<p id='stroop-text' class='stroop-red'>YELLOW</p>", "response": "r", "stimulus-type": "incongruent", "word": "yellow", "color": "red", "correct_response": "r", "trial_id": "stroop-trial-1-incongruent-29", "trial_type": "html-keyboard-response", "trial_index": 122, "time_elapsed": 304266, "internal_node_id": "0.0-6.0-27.0"}}, {"uniqueid": "w53293719:a73659602", "current_trial": 123, "dateTime": 1664464289086, "trialdata": {"rt": 767, "stimulus": "<p id='stroop-text' class='stroop-red'>RED</p>", "response": "r", "stimulus-type": "congruent", "word": "red", "color": "red", "correct_response": "r", "trial_id": "stroop-trial-1-congruent-7", "trial_type": "html-keyboard-response", "trial_index": 123, "time_elapsed": 305537, "internal_node_id": "0.0-6.0-28.0"}}, {"uniqueid": "w53293719:a73659602", "current_trial": 124, "dateTime": 1664464290440, "trialdata": {"rt": 850, "stimulus": "<p id='stroop-text' class='stroop-yellow'>MONKEY</p>", "response": "y", "stimulus-type": "unrelated", "word": "MONKEY", "color": "yellow", "correct_response": "y", "trial_id": "stroop-trial-1-unrelated-4", "trial_type": "html-keyboard-response", "trial_index": 124, "time_elapsed": 306890, "internal_node_id": "0.0-6.0-29.0"}}, {"uniqueid": "w53293719:a73659602", "current_trial": 125, "dateTime": 1664464291602, "trialdata": {"rt": 653, "stimulus": "<p id='stroop-text' class='stroop-yellow'>MONKEY</p>", "response": "y", "stimulus-type": "unrelated", "word": "MONKEY", "color": "yellow", "correct_response": "y", "trial_id": "stroop-trial-1-unrelated-26", "trial_type": "html-keyboard-response", "trial_index": 125, "time_elapsed": 308053, "internal_node_id": "0.0-6.0-30.0"}}, {"uniqueid": "w53293719:a73659602", "current_trial": 126, "dateTime": 1664464292826, "trialdata": {"rt": 720, "stimulus": "<p id='stroop-text' class='stroop-blue'>BLUE</p>", "response": "b", "stimulus-type": "congruent", "word": "blue", "color": "blue", "correct_response": "b", "trial_id": "stroop-trial-1-congruent-1", "trial_type": "html-keyboard-response", "trial_index": 126, "time_elapsed": 309277, "internal_node_id": "0.0-6.0-31.0"}}, {"uniqueid": "w53293719:a73659602", "current_trial": 127, "dateTime": 1664464294339, "trialdata": {"rt": 1009, "stimulus": "<p id='stroop-text' class='stroop-green'>GREEN</p>", "response": "g", "stimulus-type": "congruent", "word": "green", "color": "green", "correct_response": "g", "trial_id": "stroop-trial-1-congruent-3", "trial_type": "html-keyboard-response", "trial_index": 127, "time_elapsed": 310789, "internal_node_id": "0.0-6.0-32.0"}}, {"uniqueid": "w53293719:a73659602", "current_trial": 128, "dateTime": 1664464295629, "trialdata": {"rt": 787, "stimulus": "<p id='stroop-text' class='stroop-red'>RED</p>", "response": "r", "stimulus-type": "congruent", "word": "red", "color": "red", "correct_response": "r", "trial_id": "stroop-trial-1-congruent-13", "trial_type": "html-keyboard-response", "trial_index": 128, "time_elapsed": 312080, "internal_node_id": "0.0-6.0-33.0"}}, {"uniqueid": "w53293719:a73659602", "current_trial": 129, "dateTime": 1664464296934, "trialdata": {"rt": 801, "stimulus": "<p id='stroop-text' class='stroop-yellow'>YELLOW</p>", "response": "y", "stimulus-type": "congruent", "word": "yellow", "color": "yellow", "correct_response": "y", "trial_id": "stroop-trial-1-congruent-28", "trial_type": "html-keyboard-response", "trial_index": 129, "time_elapsed": 313385, "internal_node_id": "0.0-6.0-34.0"}}, {"uniqueid": "w53293719:a73659602", "current_trial": 130, "dateTime": 1664464298532, "trialdata": {"rt": 1095, "stimulus": "<p id='stroop-text' class='stroop-green'>GREEN</p>", "response": "g", "stimulus-type": "congruent", "word": "green", "color": "green", "correct_response": "g", "trial_id": "stroop-trial-1-congruent-15", "trial_type": "html-keyboard-response", "trial_index": 130, "time_elapsed": 314983, "internal_node_id": "0.0-6.0-35.0"}}, {"uniqueid": "w53293719:a73659602", "current_trial": 131, "dateTime": 1664464299806, "trialdata": {"rt": 770, "stimulus": "<p id='stroop-text' class='stroop-red'>GREEN</p>", "response": "r", "stimulus-type": "incongruent", "word": "green", "color": "red", "correct_response": "r", "trial_id": "stroop-trial-1-incongruent-16", "trial_type": "html-keyboard-response", "trial_index": 131, "time_elapsed": 316257, "internal_node_id": "0.0-6.0-36.0"}}, {"uniqueid": "w53293719:a73659602", "current_trial": 132, "dateTime": 1664464301886, "trialdata": {"rt": 1576, "stimulus": "<p id='stroop-text' class='stroop-green'>BLUE</p>", "response": "g", "stimulus-type": "incongruent", "word": "blue", "color": "green", "correct_response": "g", "trial_id": "stroop-trial-1-incongruent-22", "trial_type": "html-keyboard-response", "trial_index": 132, "time_elapsed": 318336, "internal_node_id": "0.0-6.0-37.0"}}, {"uniqueid": "w53293719:a73659602", "current_trial": 133, "dateTime": 1664464303315, "trialdata": {"rt": 926, "stimulus": "<p id='stroop-text' class='stroop-red'>STONE</p>", "response": "r", "stimulus-type": "unrelated", "word": "STONE", "color": "red", "correct_response": "r", "trial_id": "stroop-trial-1-unrelated-8", "trial_type": "html-keyboard-response", "trial_index": 133, "time_elapsed": 319766, "internal_node_id": "0.0-6.0-38.0"}}, {"uniqueid": "w53293719:a73659602", "current_trial": 134, "dateTime": 1664464304691, "trialdata": {"rt": 872, "stimulus": "<p id='stroop-text' class='stroop-blue'>BRIDGE</p>", "response": "b", "stimulus-type": "unrelated", "word": "BRIDGE", "color": "blue", "correct_response": "b", "trial_id": "stroop-trial-1-unrelated-30", "trial_type": "html-keyboard-response", "trial_index": 134, "time_elapsed": 321142, "internal_node_id": "0.0-6.0-39.0"}}, {"uniqueid": "w53293719:a73659602", "current_trial": 135, "dateTime": 1664464306141, "trialdata": {"rt": 946, "stimulus": "<p id='stroop-text' class='stroop-red'>FORK</p>", "response": "r", "stimulus-type": "unrelated", "word": "FORK", "color": "red", "correct_response": "r", "trial_id": "stroop-trial-1-unrelated-2", "trial_type": "html-keyboard-response", "trial_index": 135, "time_elapsed": 322592, "internal_node_id": "0.0-6.0-40.0"}}, {"uniqueid": "w53293719:a73659602", "current_trial": 136, "dateTime": 1664464307297, "trialdata": {"rt": 652, "stimulus": "<p id='stroop-text' class='stroop-blue'>CHAIR</p>", "response": "b", "stimulus-type": "unrelated", "word": "CHAIR", "color": "blue", "correct_response": "b", "trial_id": "stroop-trial-1-unrelated-10", "trial_type": "html-keyboard-response", "trial_index": 136, "time_elapsed": 323748, "internal_node_id": "0.0-6.0-41.0"}}, {"uniqueid": "w53293719:a73659602", "current_trial": 137, "dateTime": 1664464308651, "trialdata": {"rt": 850, "stimulus": "<p id='stroop-text' class='stroop-red'>RED</p>", "response": "r", "stimulus-type": "congruent", "word": "red", "color": "red", "correct_response": "r", "trial_id": "stroop-trial-1-congruent-25", "trial_type": "html-keyboard-response", "trial_index": 137, "time_elapsed": 325102, "internal_node_id": "0.0-6.0-42.0"}}, {"uniqueid": "w53293719:a73659602", "current_trial": 138, "dateTime": 1664464309824, "trialdata": {"rt": 669, "stimulus": "<p id='stroop-text' class='stroop-yellow'>YELLOW</p>", "response": "y", "stimulus-type": "congruent", "word": "yellow", "color": "yellow", "correct_response": "y", "trial_id": "stroop-trial-1-congruent-18", "trial_type": "html-keyboard-response", "trial_index": 138, "time_elapsed": 326274, "internal_node_id": "0.0-6.0-43.0"}}, {"uniqueid": "w53293719:a73659602", "current_trial": 139, "dateTime": 1664464311047, "trialdata": {"rt": 720, "stimulus": "<p id='stroop-text' class='stroop-green'>CHAIR</p>", "response": "g", "stimulus-type": "unrelated", "word": "CHAIR", "color": "green", "correct_response": "g", "trial_id": "stroop-trial-1-unrelated-12", "trial_type": "html-keyboard-response", "trial_index": 139, "time_elapsed": 327498, "internal_node_id": "0.0-6.0-44.0"}}, {"uniqueid": "w53293719:a73659602", "current_trial": 140, "dateTime": 1664464312449, "trialdata": {"rt": 897, "stimulus": "<p id='stroop-text' class='stroop-red'>GREEN</p>", "response": "r", "stimulus-type": "incongruent", "word": "green", "color": "red", "correct_response": "r", "trial_id": "stroop-trial-1-incongruent-28", "trial_type": "html-keyboard-response", "trial_index": 140, "time_elapsed": 328900, "internal_node_id": "0.0-6.0-45.0"}}, {"uniqueid": "w53293719:a73659602", "current_trial": 141, "dateTime": 1664464313714, "trialdata": {"rt": 762, "stimulus": "<p id='stroop-text' class='stroop-red'>BLUE</p>", "response": "r", "stimulus-type": "incongruent", "word": "blue", "color": "red", "correct_response": "r", "trial_id": "stroop-trial-1-incongruent-2", "trial_type": "html-keyboard-response", "trial_index": 141, "time_elapsed": 330165, "internal_node_id": "0.0-6.0-46.0"}}, {"uniqueid": "w53293719:a73659602", "current_trial": 142, "dateTime": 1664464314995, "trialdata": {"rt": 778, "stimulus": "<p id='stroop-text' class='stroop-green'>GREEN</p>", "response": "g", "stimulus-type": "congruent", "word": "green", "color": "green", "correct_response": "g", "trial_id": "stroop-trial-1-congruent-22", "trial_type": "html-keyboard-response", "trial_index": 142, "time_elapsed": 331446, "internal_node_id": "0.0-6.0-47.0"}}, {"uniqueid": "w53293719:a73659602", "current_trial": 143, "dateTime": 1664464316267, "trialdata": {"rt": 768, "stimulus": "<p id='stroop-text' class='stroop-yellow'>YELLOW</p>", "response": "y", "stimulus-type": "congruent", "word": "yellow", "color": "yellow", "correct_response": "y", "trial_id": "stroop-trial-1-congruent-27", "trial_type": "html-keyboard-response", "trial_index": 143, "time_elapsed": 332717, "internal_node_id": "0.0-6.0-48.0"}}, {"uniqueid": "w53293719:a73659602", "current_trial": 144, "dateTime": 1664464317775, "trialdata": {"rt": 1004, "stimulus": "<p id='stroop-text' class='stroop-blue'>GREEN</p>", "response": "b", "stimulus-type": "incongruent", "word": "green", "color": "blue", "correct_response": "b", "trial_id": "stroop-trial-1-incongruent-21", "trial_type": "html-keyboard-response", "trial_index": 144, "time_elapsed": 334226, "internal_node_id": "0.0-6.0-49.0"}}, {"uniqueid": "w53293719:a73659602", "current_trial": 145, "dateTime": 1664464318858, "trialdata": {"rt": 578, "stimulus": "<p id='stroop-text' class='stroop-blue'>FORK</p>", "response": "b", "stimulus-type": "unrelated", "word": "FORK", "color": "blue", "correct_response": "b", "trial_id": "stroop-trial-1-unrelated-1", "trial_type": "html-keyboard-response", "trial_index": 145, "time_elapsed": 335309, "internal_node_id": "0.0-6.0-50.0"}}, {"uniqueid": "w53293719:a73659602", "current_trial": 146, "dateTime": 1664464320289, "trialdata": {"rt": 915, "stimulus": "<p id='stroop-text' class='stroop-yellow'>RED</p>", "response": "y", "stimulus-type": "incongruent", "word": "red", "color": "yellow", "correct_response": "y", "trial_id": "stroop-trial-1-incongruent-18", "trial_type": "html-keyboard-response", "trial_index": 146, "time_elapsed": 336740, "internal_node_id": "0.0-6.0-51.0"}}, {"uniqueid": "w53293719:a73659602", "current_trial": 147, "dateTime": 1664464321740, "trialdata": {"rt": 947, "stimulus": "<p id='stroop-text' class='stroop-yellow'>MONKEY</p>", "response": "y", "stimulus-type": "unrelated", "word": "MONKEY", "color": "yellow", "correct_response": "y", "trial_id": "stroop-trial-1-unrelated-17", "trial_type": "html-keyboard-response", "trial_index": 147, "time_elapsed": 338191, "internal_node_id": "0.0-6.0-52.0"}}, {"uniqueid": "w53293719:a73659602", "current_trial": 148, "dateTime": 1664464323136, "trialdata": {"rt": 891, "stimulus": "<p id='stroop-text' class='stroop-yellow'>WINDOW</p>", "response": "y", "stimulus-type": "unrelated", "word": "WINDOW", "color": "yellow", "correct_response": "y", "trial_id": "stroop-trial-1-unrelated-29", "trial_type": "html-keyboard-response", "trial_index": 148, "time_elapsed": 339586, "internal_node_id": "0.0-6.0-53.0"}}, {"uniqueid": "w53293719:a73659602", "current_trial": 149, "dateTime": 1664464324418, "trialdata": {"rt": 778, "stimulus": "<p id='stroop-text' class='stroop-red'>GREEN</p>", "response": "r", "stimulus-type": "incongruent", "word": "green", "color": "red", "correct_response": "r", "trial_id": "stroop-trial-1-incongruent-14", "trial_type": "html-keyboard-response", "trial_index": 149, "time_elapsed": 340868, "internal_node_id": "0.0-6.0-54.0"}}, {"uniqueid": "w53293719:a73659602", "current_trial": 150, "dateTime": 1664464326401, "trialdata": {"rt": 1479, "stimulus": "<p id='stroop-text' class='stroop-yellow'>RED</p>", "response": "y", "stimulus-type": "incongruent", "word": "red", "color": "yellow", "correct_response": "y", "trial_id": "stroop-trial-1-incongruent-7", "trial_type": "html-keyboard-response", "trial_index": 150, "time_elapsed": 342852, "internal_node_id": "0.0-6.0-55.0"}}, {"uniqueid": "w53293719:a73659602", "current_trial": 151, "dateTime": 1664464327734, "trialdata": {"rt": 829, "stimulus": "<p id='stroop-text' class='stroop-red'>RED</p>", "response": "r", "stimulus-type": "congruent", "word": "red", "color": "red", "correct_response": "r", "trial_id": "stroop-trial-1-congruent-20", "trial_type": "html-keyboard-response", "trial_index": 151, "time_elapsed": 344185, "internal_node_id": "0.0-6.0-56.0"}}, {"uniqueid": "w53293719:a73659602", "current_trial": 152, "dateTime": 1664464329218, "trialdata": {"rt": 980, "stimulus": "<p id='stroop-text' class='stroop-red'>YELLOW</p>", "response": "r", "stimulus-type": "incongruent", "word": "yellow", "color": "red", "correct_response": "r", "trial_id": "stroop-trial-1-incongruent-4", "trial_type": "html-keyboard-response", "trial_index": 152, "time_elapsed": 345668, "internal_node_id": "0.0-6.0-57.0"}}, {"uniqueid": "w53293719:a73659602", "current_trial": 153, "dateTime": 1664464330478, "trialdata": {"rt": 756, "stimulus": "<p id='stroop-text' class='stroop-blue'>GREEN</p>", "response": "b", "stimulus-type": "incongruent", "word": "green", "color": "blue", "correct_response": "b", "trial_id": "stroop-trial-1-incongruent-8", "trial_type": "html-keyboard-response", "trial_index": 153, "time_elapsed": 346929, "internal_node_id": "0.0-6.0-58.0"}}, {"uniqueid": "w53293719:a73659602", "current_trial": 154, "dateTime": 1664464331769, "trialdata": {"rt": 786, "stimulus": "<p id='stroop-text' class='stroop-red'>BLUE</p>", "response": "r", "stimulus-type": "incongruent", "word": "blue", "color": "red", "correct_response": "r", "trial_id": "stroop-trial-1-incongruent-6", "trial_type": "html-keyboard-response", "trial_index": 154, "time_elapsed": 348219, "internal_node_id": "0.0-6.0-59.0"}}, {"uniqueid": "w53293719:a73659602", "current_trial": 155, "dateTime": 1664464333169, "trialdata": {"rt": 897, "stimulus": "<p id='stroop-text' class='stroop-red'>GREEN</p>", "response": "r", "stimulus-type": "incongruent", "word": "green", "color": "red", "correct_response": "r", "trial_id": "stroop-trial-1-incongruent-10", "trial_type": "html-keyboard-response", "trial_index": 155, "time_elapsed": 349620, "internal_node_id": "0.0-6.0-60.0"}}, {"uniqueid": "w53293719:a73659602", "current_trial": 156, "dateTime": 1664464334663, "trialdata": {"rt": 989, "stimulus": "<p id='stroop-text' class='stroop-blue'>RED</p>", "response": "b", "stimulus-type": "incongruent", "word": "red", "color": "blue", "correct_response": "b", "trial_id": "stroop-trial-1-incongruent-20", "trial_type": "html-keyboard-response", "trial_index": 156, "time_elapsed": 351113, "internal_node_id": "0.0-6.0-61.0"}}, {"uniqueid": "w53293719:a73659602", "current_trial": 157, "dateTime": 1664464336239, "trialdata": {"rt": 1073, "stimulus": "<p id='stroop-text' class='stroop-green'>RED</p>", "response": "g", "stimulus-type": "incongruent", "word": "red", "color": "green", "correct_response": "g", "trial_id": "stroop-trial-1-incongruent-1", "trial_type": "html-keyboard-response", "trial_index": 157, "time_elapsed": 352690, "internal_node_id": "0.0-6.0-62.0"}}, {"uniqueid": "w53293719:a73659602", "current_trial": 158, "dateTime": 1664464337609, "trialdata": {"rt": 866, "stimulus": "<p id='stroop-text' class='stroop-yellow'>BRAIN</p>", "response": "y", "stimulus-type": "unrelated", "word": "BRAIN", "color": "yellow", "correct_response": "y", "trial_id": "stroop-trial-1-unrelated-20", "trial_type": "html-keyboard-response", "trial_index": 158, "time_elapsed": 354060, "internal_node_id": "0.0-6.0-63.0"}}, {"uniqueid": "w53293719:a73659602", "current_trial": 159, "dateTime": 1664464338859, "trialdata": {"rt": 744, "stimulus": "<p id='stroop-text' class='stroop-blue'>GREEN</p>", "response": "b", "stimulus-type": "incongruent", "word": "green", "color": "blue", "correct_response": "b", "trial_id": "stroop-trial-1-incongruent-19", "trial_type": "html-keyboard-response", "trial_index": 159, "time_elapsed": 355310, "internal_node_id": "0.0-6.0-64.0"}}, {"uniqueid": "w53293719:a73659602", "current_trial": 160, "dateTime": 1664464340174, "trialdata": {"rt": 811, "stimulus": "<p id='stroop-text' class='stroop-blue'>GREEN</p>", "response": "b", "stimulus-type": "incongruent", "word": "green", "color": "blue", "correct_response": "b", "trial_id": "stroop-trial-1-incongruent-15", "trial_type": "html-keyboard-response", "trial_index": 160, "time_elapsed": 356625, "internal_node_id": "0.0-6.0-65.0"}}, {"uniqueid": "w53293719:a73659602", "current_trial": 161, "dateTime": 1664464341503, "trialdata": {"rt": 825, "stimulus": "<p id='stroop-text' class='stroop-green'>GREEN</p>", "response": "g", "stimulus-type": "congruent", "word": "green", "color": "green", "correct_response": "g", "trial_id": "stroop-trial-1-congruent-9", "trial_type": "html-keyboard-response", "trial_index": 161, "time_elapsed": 357953, "internal_node_id": "0.0-6.0-66.0"}}, {"uniqueid": "w53293719:a73659602", "current_trial": 162, "dateTime": 1664464342927, "trialdata": {"rt": 920, "stimulus": "<p id='stroop-text' class='stroop-blue'>GREEN</p>", "response": "b", "stimulus-type": "incongruent", "word": "green", "color": "blue", "correct_response": "b", "trial_id": "stroop-trial-1-incongruent-23", "trial_type": "html-keyboard-response", "trial_index": 162, "time_elapsed": 359378, "internal_node_id": "0.0-6.0-67.0"}}, {"uniqueid": "w53293719:a73659602", "current_trial": 163, "dateTime": 1664464344269, "trialdata": {"rt": 839, "stimulus": "<p id='stroop-text' class='stroop-green'>GREEN</p>", "response": "g", "stimulus-type": "congruent", "word": "green", "color": "green", "correct_response": "g", "trial_id": "stroop-trial-1-congruent-14", "trial_type": "html-keyboard-response", "trial_index": 163, "time_elapsed": 360720, "internal_node_id": "0.0-6.0-68.0"}}, {"uniqueid": "w53293719:a73659602", "current_trial": 164, "dateTime": 1664464345589, "trialdata": {"rt": 815, "stimulus": "<p id='stroop-text' class='stroop-red'>RED</p>", "response": "r", "stimulus-type": "congruent", "word": "red", "color": "red", "correct_response": "r", "trial_id": "stroop-trial-1-congruent-5", "trial_type": "html-keyboard-response", "trial_index": 164, "time_elapsed": 362039, "internal_node_id": "0.0-6.0-69.0"}}, {"uniqueid": "w53293719:a73659602", "current_trial": 165, "dateTime": 1664464346745, "trialdata": {"rt": 652, "stimulus": "<p id='stroop-text' class='stroop-blue'>STONE</p>", "response": "b", "stimulus-type": "unrelated", "word": "STONE", "color": "blue", "correct_response": "b", "trial_id": "stroop-trial-1-unrelated-3", "trial_type": "html-keyboard-response", "trial_index": 165, "time_elapsed": 363196, "internal_node_id": "0.0-6.0-70.0"}}, {"uniqueid": "w53293719:a73659602", "current_trial": 166, "dateTime": 1664464348095, "trialdata": {"rt": 845, "stimulus": "<p id='stroop-text' class='stroop-red'>RED</p>", "response": "r", "stimulus-type": "congruent", "word": "red", "color": "red", "correct_response": "r", "trial_id": "stroop-trial-1-congruent-17", "trial_type": "html-keyboard-response", "trial_index": 166, "time_elapsed": 364545, "internal_node_id": "0.0-6.0-71.0"}}, {"uniqueid": "w53293719:a73659602", "current_trial": 167, "dateTime": 1664464349627, "trialdata": {"rt": 1028, "stimulus": "<p id='stroop-text' class='stroop-green'>RED</p>", "response": "g", "stimulus-type": "incongruent", "word": "red", "color": "green", "correct_response": "g", "trial_id": "stroop-trial-1-incongruent-11", "trial_type": "html-keyboard-response", "trial_index": 167, "time_elapsed": 366077, "internal_node_id": "0.0-6.0-72.0"}}, {"uniqueid": "w53293719:a73659602", "current_trial": 168, "dateTime": 1664464352241, "trialdata": {"rt": 2109, "stimulus": "<p id='stroop-text' class='stroop-green'>RED</p>", "response": "g", "stimulus-type": "incongruent", "word": "red", "color": "green", "correct_response": "g", "trial_id": "stroop-trial-1-incongruent-24", "trial_type": "html-keyboard-response", "trial_index": 168, "time_elapsed": 368691, "internal_node_id": "0.0-6.0-73.0"}}, {"uniqueid": "w53293719:a73659602", "current_trial": 169, "dateTime": 1664464353494, "trialdata": {"rt": 749, "stimulus": "<p id='stroop-text' class='stroop-green'>CHAIR</p>", "response": "g", "stimulus-type": "unrelated", "word": "CHAIR", "color": "green", "correct_response": "g", "trial_id": "stroop-trial-1-unrelated-9", "trial_type": "html-keyboard-response", "trial_index": 169, "time_elapsed": 369944, "internal_node_id": "0.0-6.0-74.0"}}, {"uniqueid": "w53293719:a73659602", "current_trial": 170, "dateTime": 1664464354757, "trialdata": {"rt": 759, "stimulus": "<p id='stroop-text' class='stroop-yellow'>YELLOW</p>", "response": "y", "stimulus-type": "congruent", "word": "yellow", "color": "yellow", "correct_response": "y", "trial_id": "stroop-trial-1-congruent-23", "trial_type": "html-keyboard-response", "trial_index": 170, "time_elapsed": 371208, "internal_node_id": "0.0-6.0-75.0"}}, {"uniqueid": "w53293719:a73659602", "current_trial": 171, "dateTime": 1664464356013, "trialdata": {"rt": 751, "stimulus": "<p id='stroop-text' class='stroop-red'>GREEN</p>", "response": "r", "stimulus-type": "incongruent", "word": "green", "color": "red", "correct_response": "r", "trial_id": "stroop-trial-1-incongruent-25", "trial_type": "html-keyboard-response", "trial_index": 171, "time_elapsed": 372463, "internal_node_id": "0.0-6.0-76.0"}}, {"uniqueid": "w53293719:a73659602", "current_trial": 172, "dateTime": 1664464357309, "trialdata": {"rt": 792, "stimulus": "<p id='stroop-text' class='stroop-red'>MONKEY</p>", "response": "r", "stimulus-type": "unrelated", "word": "MONKEY", "color": "red", "correct_response": "r", "trial_id": "stroop-trial-1-unrelated-27", "trial_type": "html-keyboard-response", "trial_index": 172, "time_elapsed": 373759, "internal_node_id": "0.0-6.0-77.0"}}, {"uniqueid": "w53293719:a73659602", "current_trial": 173, "dateTime": 1664464358774, "trialdata": {"rt": 962, "stimulus": "<p id='stroop-text' class='stroop-red'>WINDOW</p>", "response": "r", "stimulus-type": "unrelated", "word": "WINDOW", "color": "red", "correct_response": "r", "trial_id": "stroop-trial-1-unrelated-14", "trial_type": "html-keyboard-response", "trial_index": 173, "time_elapsed": 375225, "internal_node_id": "0.0-6.0-78.0"}}, {"uniqueid": "w53293719:a73659602", "current_trial": 174, "dateTime": 1664464360196, "trialdata": {"rt": 918, "stimulus": "<p id='stroop-text' class='stroop-yellow'>FORK</p>", "response": "y", "stimulus-type": "unrelated", "word": "FORK", "color": "yellow", "correct_response": "y", "trial_id": "stroop-trial-1-unrelated-22", "trial_type": "html-keyboard-response", "trial_index": 174, "time_elapsed": 376646, "internal_node_id": "0.0-6.0-79.0"}}, {"uniqueid": "w53293719:a73659602", "current_trial": 175, "dateTime": 1664464361419, "trialdata": {"rt": 719, "stimulus": "<p id='stroop-text' class='stroop-green'>BOAT</p>", "response": "g", "stimulus-type": "unrelated", "word": "BOAT", "color": "green", "correct_response": "g", "trial_id": "stroop-trial-1-unrelated-6", "trial_type": "html-keyboard-response", "trial_index": 175, "time_elapsed": 377870, "internal_node_id": "0.0-6.0-80.0"}}, {"uniqueid": "w53293719:a73659602", "current_trial": 176, "dateTime": 1664464362875, "trialdata": {"rt": 952, "stimulus": "<p id='stroop-text' class='stroop-yellow'>BLUE</p>", "response": "y", "stimulus-type": "incongruent", "word": "blue", "color": "yellow", "correct_response": "y", "trial_id": "stroop-trial-1-incongruent-9", "trial_type": "html-keyboard-response", "trial_index": 176, "time_elapsed": 379326, "internal_node_id": "0.0-6.0-81.0"}}, {"uniqueid": "w53293719:a73659602", "current_trial": 177, "dateTime": 1664464364214, "trialdata": {"rt": 834, "stimulus": "<p id='stroop-text' class='stroop-blue'>DOG</p>", "response": "b", "stimulus-type": "unrelated", "word": "DOG", "color": "blue", "correct_response": "b", "trial_id": "stroop-trial-1-unrelated-19", "trial_type": "html-keyboard-response", "trial_index": 177, "time_elapsed": 380664, "internal_node_id": "0.0-6.0-82.0"}}, {"uniqueid": "w53293719:a73659602", "current_trial": 178, "dateTime": 1664464365376, "trialdata": {"rt": 657, "stimulus": "<p id='stroop-text' class='stroop-blue'>BLUE</p>", "response": "b", "stimulus-type": "congruent", "word": "blue", "color": "blue", "correct_response": "b", "trial_id": "stroop-trial-1-congruent-26", "trial_type": "html-keyboard-response", "trial_index": 178, "time_elapsed": 381827, "internal_node_id": "0.0-6.0-83.0"}}, {"uniqueid": "w53293719:a73659602", "current_trial": 179, "dateTime": 1664464366694, "trialdata": {"rt": 813, "stimulus": "<p id='stroop-text' class='stroop-red'>BOAT</p>", "response": "r", "stimulus-type": "unrelated", "word": "BOAT", "color": "red", "correct_response": "r", "trial_id": "stroop-trial-1-unrelated-25", "trial_type": "html-keyboard-response", "trial_index": 179, "time_elapsed": 383145, "internal_node_id": "0.0-6.0-84.0"}}, {"uniqueid": "w53293719:a73659602", "current_trial": 180, "dateTime": 1664464368316, "trialdata": {"rt": 1118, "stimulus": "<p id='stroop-text' class='stroop-red'>BLUE</p>", "response": "r", "stimulus-type": "incongruent", "word": "blue", "color": "red", "correct_response": "r", "trial_id": "stroop-trial-1-incongruent-27", "trial_type": "html-keyboard-response", "trial_index": 180, "time_elapsed": 384767, "internal_node_id": "0.0-6.0-85.0"}}, {"uniqueid": "w53293719:a73659602", "current_trial": 181, "dateTime": 1664464369630, "trialdata": {"rt": 810, "stimulus": "<p id='stroop-text' class='stroop-red'>MONKEY</p>", "response": "r", "stimulus-type": "unrelated", "word": "MONKEY", "color": "red", "correct_response": "r", "trial_id": "stroop-trial-1-unrelated-23", "trial_type": "html-keyboard-response", "trial_index": 181, "time_elapsed": 386081, "internal_node_id": "0.0-6.0-86.0"}}, {"uniqueid": "w53293719:a73659602", "current_trial": 182, "dateTime": 1664464371042, "trialdata": {"rt": 908, "stimulus": "<p id='stroop-text' class='stroop-yellow'>BOTTLE</p>", "response": "y", "stimulus-type": "unrelated", "word": "BOTTLE", "color": "yellow", "correct_response": "y", "trial_id": "stroop-trial-1-unrelated-13", "trial_type": "html-keyboard-response", "trial_index": 182, "time_elapsed": 387493, "internal_node_id": "0.0-6.0-87.0"}}, {"uniqueid": "w53293719:a73659602", "current_trial": 183, "dateTime": 1664464372488, "trialdata": {"rt": 939, "stimulus": "<p id='stroop-text' class='stroop-red'>RED</p>", "response": "r", "stimulus-type": "congruent", "word": "red", "color": "red", "correct_response": "r", "trial_id": "stroop-trial-1-congruent-8", "trial_type": "html-keyboard-response", "trial_index": 183, "time_elapsed": 388938, "internal_node_id": "0.0-6.0-88.0"}}, {"uniqueid": "w53293719:a73659602", "current_trial": 184, "dateTime": 1664464373726, "trialdata": {"rt": 735, "stimulus": "<p id='stroop-text' class='stroop-red'>RED</p>", "response": "r", "stimulus-type": "congruent", "word": "red", "color": "red", "correct_response": "r", "trial_id": "stroop-trial-1-congruent-29", "trial_type": "html-keyboard-response", "trial_index": 184, "time_elapsed": 390177, "internal_node_id": "0.0-6.0-89.0"}}, {"uniqueid": "w53293719:a73659602", "current_trial": 185, "dateTime": 1664464377395, "trialdata": {"rt": 3153, "stimulus": "  <h1> End of block! </h1>\n\n  You have reached the end of the block 2/5. If you need a short break, feel free to take one now before moving on.\n\n  <br><br>\n  In the next block, you will complete another 90 rounds of this game.\n\n  <br><br>\n  <div style='text-align: center;'>Press <code>space</code> to begin.</div>\n  <br><br>\n<div style='text-align: center;'>(If the experiment doesn't continue, try clicking on the text and then pressing <code>space</code>.)</div>", "response": " ", "trial_id": "stroop_1_ready_3", "trial_type": "html-keyboard-response", "trial_index": 185, "time_elapsed": 393846, "internal_node_id": "0.0-7.0"}}, {"uniqueid": "w53293719:a73659602", "current_trial": 186, "dateTime": 1664464379547, "trialdata": {"rt": 2147, "stimulus": "<p id='stroop-text' class='stroop-red'>YELLOW</p>", "response": "r", "stimulus-type": "incongruent", "word": "yellow", "color": "red", "correct_response": "r", "trial_id": "stroop-trial-1-incongruent-1", "trial_type": "html-keyboard-response", "trial_index": 186, "time_elapsed": 395998, "internal_node_id": "0.0-8.0-0.0"}}, {"uniqueid": "w53293719:a73659602", "current_trial": 187, "dateTime": 1664464380998, "trialdata": {"rt": 947, "stimulus": "<p id='stroop-text' class='stroop-yellow'>CHAIR</p>", "response": "y", "stimulus-type": "unrelated", "word": "CHAIR", "color": "yellow", "correct_response": "y", "trial_id": "stroop-trial-1-unrelated-29", "trial_type": "html-keyboard-response", "trial_index": 187, "time_elapsed": 397449, "internal_node_id": "0.0-8.0-1.0"}}, {"uniqueid": "w53293719:a73659602", "current_trial": 188, "dateTime": 1664464382381, "trialdata": {"rt": 879, "stimulus": "<p id='stroop-text' class='stroop-yellow'>YELLOW</p>", "response": "y", "stimulus-type": "congruent", "word": "yellow", "color": "yellow", "correct_response": "y", "trial_id": "stroop-trial-1-congruent-10", "trial_type": "html-keyboard-response", "trial_index": 188, "time_elapsed": 398831, "internal_node_id": "0.0-8.0-2.0"}}, {"uniqueid": "w53293719:a73659602", "current_trial": 189, "dateTime": 1664464383624, "trialdata": {"rt": 740, "stimulus": "<p id='stroop-text' class='stroop-yellow'>GREEN</p>", "response": "y", "stimulus-type": "incongruent", "word": "green", "color": "yellow", "correct_response": "y", "trial_id": "stroop-trial-1-incongruent-22", "trial_type": "html-keyboard-response", "trial_index": 189, "time_elapsed": 400075, "internal_node_id": "0.0-8.0-3.0"}}, {"uniqueid": "w53293719:a73659602", "current_trial": 190, "dateTime": 1664464385248, "trialdata": {"rt": 1119, "stimulus": "<p id='stroop-text' class='stroop-yellow'>DOG</p>", "response": "y", "stimulus-type": "unrelated", "word": "DOG", "color": "yellow", "correct_response": "y", "trial_id": "stroop-trial-1-unrelated-18", "trial_type": "html-keyboard-response", "trial_index": 190, "time_elapsed": 401698, "internal_node_id": "0.0-8.0-4.0"}}, {"uniqueid": "w53293719:a73659602", "current_trial": 191, "dateTime": 1664464387173, "trialdata": {"rt": 1420, "stimulus": "<p id='stroop-text' class='stroop-green'>YELLOW</p>", "response": "g", "stimulus-type": "incongruent", "word": "yellow", "color": "green", "correct_response": "g", "trial_id": "stroop-trial-1-incongruent-29", "trial_type": "html-keyboard-response", "trial_index": 191, "time_elapsed": 403624, "internal_node_id": "0.0-8.0-5.0"}}, {"uniqueid": "w53293719:a73659602", "current_trial": 192, "dateTime": 1664464388629, "trialdata": {"rt": 951, "stimulus": "<p id='stroop-text' class='stroop-green'>YELLOW</p>", "response": "g", "stimulus-type": "incongruent", "word": "yellow", "color": "green", "correct_response": "g", "trial_id": "stroop-trial-1-incongruent-23", "trial_type": "html-keyboard-response", "trial_index": 192, "time_elapsed": 405080, "internal_node_id": "0.0-8.0-6.0"}}, {"uniqueid": "w53293719:a73659602", "current_trial": 193, "dateTime": 1664464390148, "trialdata": {"rt": 1015, "stimulus": "<p id='stroop-text' class='stroop-yellow'>GREEN</p>", "response": "y", "stimulus-type": "incongruent", "word": "green", "color": "yellow", "correct_response": "y", "trial_id": "stroop-trial-1-incongruent-8", "trial_type": "html-keyboard-response", "trial_index": 193, "time_elapsed": 406599, "internal_node_id": "0.0-8.0-7.0"}}, {"uniqueid": "w53293719:a73659602", "current_trial": 194, "dateTime": 1664464392169, "trialdata": {"rt": 1517, "stimulus": "<p id='stroop-text' class='stroop-yellow'>MONKEY</p>", "response": "y", "stimulus-type": "unrelated", "word": "MONKEY", "color": "yellow", "correct_response": "y", "trial_id": "stroop-trial-1-unrelated-7", "trial_type": "html-keyboard-response", "trial_index": 194, "time_elapsed": 408619, "internal_node_id": "0.0-8.0-8.0"}}, {"uniqueid": "w53293719:a73659602", "current_trial": 195, "dateTime": 1664464393429, "trialdata": {"rt": 756, "stimulus": "<p id='stroop-text' class='stroop-red'>RED</p>", "response": "r", "stimulus-type": "congruent", "word": "red", "color": "red", "correct_response": "r", "trial_id": "stroop-trial-1-congruent-30", "trial_type": "html-keyboard-response", "trial_index": 195, "time_elapsed": 409880, "internal_node_id": "0.0-8.0-9.0"}}, {"uniqueid": "w53293719:a73659602", "current_trial": 196, "dateTime": 1664464394748, "trialdata": {"rt": 814, "stimulus": "<p id='stroop-text' class='stroop-yellow'>YELLOW</p>", "response": "y", "stimulus-type": "congruent", "word": "yellow", "color": "yellow", "correct_response": "y", "trial_id": "stroop-trial-1-congruent-7", "trial_type": "html-keyboard-response", "trial_index": 196, "time_elapsed": 411198, "internal_node_id": "0.0-8.0-10.0"}}, {"uniqueid": "w53293719:a73659602", "current_trial": 197, "dateTime": 1664464396094, "trialdata": {"rt": 843, "stimulus": "<p id='stroop-text' class='stroop-blue'>GREEN</p>", "response": "b", "stimulus-type": "incongruent", "word": "green", "color": "blue", "correct_response": "b", "trial_id": "stroop-trial-1-incongruent-27", "trial_type": "html-keyboard-response", "trial_index": 197, "time_elapsed": 412545, "internal_node_id": "0.0-8.0-11.0"}}, {"uniqueid": "w53293719:a73659602", "current_trial": 198, "dateTime": 1664464397448, "trialdata": {"rt": 849, "stimulus": "<p id='stroop-text' class='stroop-blue'>FORK</p>", "response": "b", "stimulus-type": "unrelated", "word": "FORK", "color": "blue", "correct_response": "b", "trial_id": "stroop-trial-1-unrelated-13", "trial_type": "html-keyboard-response", "trial_index": 198, "time_elapsed": 413898, "internal_node_id": "0.0-8.0-12.0"}}, {"uniqueid": "w53293719:a73659602", "current_trial": 199, "dateTime": 1664464398708, "trialdata": {"rt": 756, "stimulus": "<p id='stroop-text' class='stroop-yellow'>BOTTLE</p>", "response": "y", "stimulus-type": "unrelated", "word": "BOTTLE", "color": "yellow", "correct_response": "y", "trial_id": "stroop-trial-1-unrelated-23", "trial_type": "html-keyboard-response", "trial_index": 199, "time_elapsed": 415158, "internal_node_id": "0.0-8.0-13.0"}}, {"uniqueid": "w53293719:a73659602", "current_trial": 200, "dateTime": 1664464400008, "trialdata": {"rt": 795, "stimulus": "<p id='stroop-text' class='stroop-yellow'>GREEN</p>", "response": "y", "stimulus-type": "incongruent", "word": "green", "color": "yellow", "correct_response": "y", "trial_id": "stroop-trial-1-incongruent-26", "trial_type": "html-keyboard-response", "trial_index": 200, "time_elapsed": 416459, "internal_node_id": "0.0-8.0-14.0"}}, {"uniqueid": "w53293719:a73659602", "current_trial": 201, "dateTime": 1664464402077, "trialdata": {"rt": 1565, "stimulus": "<p id='stroop-text' class='stroop-yellow'>BRAIN</p>", "response": "y", "stimulus-type": "unrelated", "word": "BRAIN", "color": "yellow", "correct_response": "y", "trial_id": "stroop-trial-1-unrelated-16", "trial_type": "html-keyboard-response", "trial_index": 201, "time_elapsed": 418527, "internal_node_id": "0.0-8.0-15.0"}}, {"uniqueid": "w53293719:a73659602", "current_trial": 202, "dateTime": 1664464403386, "trialdata": {"rt": 800, "stimulus": "<p id='stroop-text' class='stroop-blue'>BLUE</p>", "response": "b", "stimulus-type": "congruent", "word": "blue", "color": "blue", "correct_response": "b", "trial_id": "stroop-trial-1-congruent-1", "trial_type": "html-keyboard-response", "trial_index": 202, "time_elapsed": 419837, "internal_node_id": "0.0-8.0-16.0"}}, {"uniqueid": "w53293719:a73659602", "current_trial": 203, "dateTime": 1664464404982, "trialdata": {"rt": 1092, "stimulus": "<p id='stroop-text' class='stroop-yellow'>YELLOW</p>", "response": "y", "stimulus-type": "congruent", "word": "yellow", "color": "yellow", "correct_response": "y", "trial_id": "stroop-trial-1-congruent-21", "trial_type": "html-keyboard-response", "trial_index": 203, "time_elapsed": 421432, "internal_node_id": "0.0-8.0-17.0"}}, {"uniqueid": "w53293719:a73659602", "current_trial": 204, "dateTime": 1664464406292, "trialdata": {"rt": 806, "stimulus": "<p id='stroop-text' class='stroop-green'>GREEN</p>", "response": "g", "stimulus-type": "congruent", "word": "green", "color": "green", "correct_response": "g", "trial_id": "stroop-trial-1-congruent-13", "trial_type": "html-keyboard-response", "trial_index": 204, "time_elapsed": 422743, "internal_node_id": "0.0-8.0-18.0"}}, {"uniqueid": "w53293719:a73659602", "current_trial": 205, "dateTime": 1664464407580, "trialdata": {"rt": 784, "stimulus": "<p id='stroop-text' class='stroop-yellow'>RED</p>", "response": "y", "stimulus-type": "incongruent", "word": "red", "color": "yellow", "correct_response": "y", "trial_id": "stroop-trial-1-incongruent-3", "trial_type": "html-keyboard-response", "trial_index": 205, "time_elapsed": 424030, "internal_node_id": "0.0-8.0-19.0"}}, {"uniqueid": "w53293719:a73659602", "current_trial": 206, "dateTime": 1664464408802, "trialdata": {"rt": 717, "stimulus": "<p id='stroop-text' class='stroop-blue'>BLUE</p>", "response": "b", "stimulus-type": "congruent", "word": "blue", "color": "blue", "correct_response": "b", "trial_id": "stroop-trial-1-congruent-3", "trial_type": "html-keyboard-response", "trial_index": 206, "time_elapsed": 425252, "internal_node_id": "0.0-8.0-20.0"}}, {"uniqueid": "w53293719:a73659602", "current_trial": 207, "dateTime": 1664464410839, "trialdata": {"rt": 1533, "stimulus": "<p id='stroop-text' class='stroop-green'>FORK</p>", "response": "g", "stimulus-type": "unrelated", "word": "FORK", "color": "green", "correct_response": "g", "trial_id": "stroop-trial-1-unrelated-5", "trial_type": "html-keyboard-response", "trial_index": 207, "time_elapsed": 427290, "internal_node_id": "0.0-8.0-21.0"}}, {"uniqueid": "w53293719:a73659602", "current_trial": 208, "dateTime": 1664464412098, "trialdata": {"rt": 756, "stimulus": "<p id='stroop-text' class='stroop-yellow'>YELLOW</p>", "response": "y", "stimulus-type": "congruent", "word": "yellow", "color": "yellow", "correct_response": "y", "trial_id": "stroop-trial-1-congruent-16", "trial_type": "html-keyboard-response", "trial_index": 208, "time_elapsed": 428549, "internal_node_id": "0.0-8.0-22.0"}}, {"uniqueid": "w53293719:a73659602", "current_trial": 209, "dateTime": 1664464413750, "trialdata": {"rt": 1147, "stimulus": "<p id='stroop-text' class='stroop-blue'>DOG</p>", "response": "b", "stimulus-type": "unrelated", "word": "DOG", "color": "blue", "correct_response": "b", "trial_id": "stroop-trial-1-unrelated-20", "trial_type": "html-keyboard-response", "trial_index": 209, "time_elapsed": 430200, "internal_node_id": "0.0-8.0-23.0"}}, {"uniqueid": "w53293719:a73659602", "current_trial": 210, "dateTime": 1664464415002, "trialdata": {"rt": 749, "stimulus": "<p id='stroop-text' class='stroop-yellow'>YELLOW</p>", "response": "y", "stimulus-type": "congruent", "word": "yellow", "color": "yellow", "correct_response": "y", "trial_id": "stroop-trial-1-congruent-24", "trial_type": "html-keyboard-response", "trial_index": 210, "time_elapsed": 431453, "internal_node_id": "0.0-8.0-24.0"}}, {"uniqueid": "w53293719:a73659602", "current_trial": 211, "dateTime": 1664464416528, "trialdata": {"rt": 1021, "stimulus": "<p id='stroop-text' class='stroop-green'>GREEN</p>", "response": "g", "stimulus-type": "congruent", "word": "green", "color": "green", "correct_response": "g", "trial_id": "stroop-trial-1-congruent-4", "trial_type": "html-keyboard-response", "trial_index": 211, "time_elapsed": 432979, "internal_node_id": "0.0-8.0-25.0"}}, {"uniqueid": "w53293719:a73659602", "current_trial": 212, "dateTime": 1664464417751, "trialdata": {"rt": 720, "stimulus": "<p id='stroop-text' class='stroop-red'>RED</p>", "response": "r", "stimulus-type": "congruent", "word": "red", "color": "red", "correct_response": "r", "trial_id": "stroop-trial-1-congruent-12", "trial_type": "html-keyboard-response", "trial_index": 212, "time_elapsed": 434202, "internal_node_id": "0.0-8.0-26.0"}}, {"uniqueid": "w53293719:a73659602", "current_trial": 213, "dateTime": 1664464419454, "trialdata": {"rt": 1199, "stimulus": "<p id='stroop-text' class='stroop-yellow'>YELLOW</p>", "response": "y", "stimulus-type": "congruent", "word": "yellow", "color": "yellow", "correct_response": "y", "trial_id": "stroop-trial-1-congruent-29", "trial_type": "html-keyboard-response", "trial_index": 213, "time_elapsed": 435905, "internal_node_id": "0.0-8.0-27.0"}}, {"uniqueid": "w53293719:a73659602", "current_trial": 214, "dateTime": 1664464421274, "trialdata": {"rt": 1309, "stimulus": "<p id='stroop-text' class='stroop-yellow'>FORK</p>", "response": "y", "stimulus-type": "unrelated", "word": "FORK", "color": "yellow", "correct_response": "y", "trial_id": "stroop-trial-1-unrelated-28", "trial_type": "html-keyboard-response", "trial_index": 214, "time_elapsed": 437725, "internal_node_id": "0.0-8.0-28.0"}}, {"uniqueid": "w53293719:a73659602", "current_trial": 215, "dateTime": 1664464422727, "trialdata": {"rt": 948, "stimulus": "<p id='stroop-text' class='stroop-yellow'>RED</p>", "response": "y", "stimulus-type": "incongruent", "word": "red", "color": "yellow", "correct_response": "y", "trial_id": "stroop-trial-1-incongruent-28", "trial_type": "html-keyboard-response", "trial_index": 215, "time_elapsed": 439178, "internal_node_id": "0.0-8.0-29.0"}}, {"uniqueid": "w53293719:a73659602", "current_trial": 216, "dateTime": 1664464424332, "trialdata": {"rt": 1088, "stimulus": "<p id='stroop-text' class='stroop-blue'>RED</p>", "response": "b", "stimulus-type": "incongruent", "word": "red", "color": "blue", "correct_response": "b", "trial_id": "stroop-trial-1-incongruent-11", "trial_type": "html-keyboard-response", "trial_index": 216, "time_elapsed": 440783, "internal_node_id": "0.0-8.0-30.0"}}, {"uniqueid": "w53293719:a73659602", "current_trial": 217, "dateTime": 1664464425800, "trialdata": {"rt": 964, "stimulus": "<p id='stroop-text' class='stroop-yellow'>RED</p>", "response": "y", "stimulus-type": "incongruent", "word": "red", "color": "yellow", "correct_response": "y", "trial_id": "stroop-trial-1-incongruent-5", "trial_type": "html-keyboard-response", "trial_index": 217, "time_elapsed": 442251, "internal_node_id": "0.0-8.0-31.0"}}, {"uniqueid": "w53293719:a73659602", "current_trial": 218, "dateTime": 1664464427071, "trialdata": {"rt": 766, "stimulus": "<p id='stroop-text' class='stroop-red'>DOG</p>", "response": "r", "stimulus-type": "unrelated", "word": "DOG", "color": "red", "correct_response": "r", "trial_id": "stroop-trial-1-unrelated-10", "trial_type": "html-keyboard-response", "trial_index": 218, "time_elapsed": 443521, "internal_node_id": "0.0-8.0-32.0"}}, {"uniqueid": "w53293719:a73659602", "current_trial": 219, "dateTime": 1664464428405, "trialdata": {"rt": 830, "stimulus": "<p id='stroop-text' class='stroop-blue'>BOTTLE</p>", "response": "b", "stimulus-type": "unrelated", "word": "BOTTLE", "color": "blue", "correct_response": "b", "trial_id": "stroop-trial-1-unrelated-9", "trial_type": "html-keyboard-response", "trial_index": 219, "time_elapsed": 444856, "internal_node_id": "0.0-8.0-33.0"}}, {"uniqueid": "w53293719:a73659602", "current_trial": 220, "dateTime": 1664464429606, "trialdata": {"rt": 696, "stimulus": "<p id='stroop-text' class='stroop-blue'>BLUE</p>", "response": "b", "stimulus-type": "congruent", "word": "blue", "color": "blue", "correct_response": "b", "trial_id": "stroop-trial-1-congruent-5", "trial_type": "html-keyboard-response", "trial_index": 220, "time_elapsed": 446055, "internal_node_id": "0.0-8.0-34.0"}}, {"uniqueid": "w53293719:a73659602", "current_trial": 221, "dateTime": 1664464431108, "trialdata": {"rt": 998, "stimulus": "<p id='stroop-text' class='stroop-green'>RED</p>", "response": "g", "stimulus-type": "incongruent", "word": "red", "color": "green", "correct_response": "g", "trial_id": "stroop-trial-1-incongruent-13", "trial_type": "html-keyboard-response", "trial_index": 221, "time_elapsed": 447559, "internal_node_id": "0.0-8.0-35.0"}}, {"uniqueid": "w53293719:a73659602", "current_trial": 222, "dateTime": 1664464432488, "trialdata": {"rt": 876, "stimulus": "<p id='stroop-text' class='stroop-red'>RED</p>", "response": "r", "stimulus-type": "congruent", "word": "red", "color": "red", "correct_response": "r", "trial_id": "stroop-trial-1-congruent-8", "trial_t