{"condition": 1, "counterbalance": 0, "assignmentId": "a81052353", "workerId": "w42680274", "hitId": "h13664136", "currenttrial": 137, "bonus": 0, "data": [{"uniqueid": "w42680274:a81052353", "current_trial": 0, "dateTime": 1664464926725, "trialdata": {"success": true, "trial_type": "fullscreen", "trial_index": 0, "time_elapsed": 3286, "internal_node_id": "0.0-0.0"}}, {"uniqueid": "w42680274:a81052353", "current_trial": 1, "dateTime": 1664464938411, "trialdata": {"view_history": [{"page_index": 0, "viewing_time": 11684}], "rt": 11684, "trial_id": "exp_instructions_no_distractor", "trial_type": "instructions", "trial_index": 1, "time_elapsed": 14973, "internal_node_id": "0.0-1.0"}}, {"uniqueid": "w42680274:a81052353", "current_trial": 2, "dateTime": 1664464941793, "trialdata": {"success": true, "trial_type": "fullscreen", "trial_index": 2, "time_elapsed": 18355, "internal_node_id": "0.0-2.0-0.0"}}, {"uniqueid": "w42680274:a81052353", "current_trial": 3, "dateTime": 1664465031591, "trialdata": {"view_history": [{"page_index": 0, "viewing_time": 53074}, {"page_index": 1, "viewing_time": 2440}, {"page_index": 0, "viewing_time": 672}, {"page_index": 1, "viewing_time": 23518}, {"page_index": 2, "viewing_time": 6202}, {"page_index": 3, "viewing_time": 1606}, {"page_index": 4, "viewing_time": 2284}], "rt": 89797, "trial_id": "mouselab_instructions_1", "trial_type": "instructions", "trial_index": 3, "time_elapsed": 108153, "internal_node_id": "0.0-2.0-1.0"}}, {"uniqueid": "w42680274:a81052353", "current_trial": 4, "dateTime": 1664465050053, "trialdata": {"revealed_states": [], "num_clicks_accrued": [0, 0, 0, 0, 0, 0, 0, 0, 0, 0, 0, 0, 0], "stateRewards": ["", -10, 10, 10, -10, 10, 10, -10, -10, -10, 10, -10, 10], "withholdReward": false, "trial_id": "practice_1", "block": "test", "trialIndex": 0, "score": 11.75, "costs": -0.25, "simulationMode": [null, null, null], "rewards": [10, 10, -10], "path": ["0", "0", "5", "6", "7"], "rt": [7664, 272, 209], "actions": ["right", "right", "up"], "actionTimes": [11821, 12596, 13308], "queries": {"click": {"state": {"target": ["1"], "time": [9585]}, "edge": {"target": [], "time": []}}, "mouseover": {"state": {"target": ["5", "1", "6"], "time": [6269, 8529, 10062]}, "edge": {"target": [], "time": []}}, "mouseout": {"state": {"target": ["0", "5", "1", "6"], "time": [6226, 8366, 9868, 10214]}, "edge": {"target": [], "time": []}}}, "displayed_time": "13.81", "trialTime": 18244, "trial_type": "mouselab-mdp", "trial_index": 4, "time_elapsed": 126615, "internal_node_id": "0.0-2.0-2.0-0.0"}}, {"uniqueid": "w42680274:a81052353", "current_trial": 5, "dateTime": 1664465056749, "trialdata": {"revealed_states": [], "num_clicks_accrued": [0, 0, 0, 0, 0, 0, 0, 0, 0, 0, 0, 0, 0], "stateRewards": ["", -10, 10, -10, 10, -10, -10, 10, 10, 10, -10, 10, -10], "withholdReward": false, "trial_id": "practice_2", "block": "test", "trialIndex": 1, "score": 12, "costs": 0, "simulationMode": [null, null, null], "rewards": [10, -10, 10], "path": ["0", "0", "9", "10", "11"], "rt": [791, 498, 129], "actions": ["left", "left", "up"], "actionTimes": [3057, 4057, 4688], "queries": {"click": {"state": {"target": [], "time": []}, "edge": {"target": [], "time": []}}, "mouseover": {"state": {"target": [], "time": []}, "edge": {"target": [], "time": []}}, "mouseout": {"state": {"target": [], "time": []}, "edge": {"target": [], "time": []}}}, "displayed_time": "5.19", "trialTime": 6672, "trial_type": "mouselab-mdp", "trial_index": 5, "time_elapsed": 133311, "internal_node_id": "0.0-2.0-2.0-1.0"}}, {"uniqueid": "w42680274:a81052353", "current_trial": 6, "dateTime": 1664465097547, "trialdata": {"view_history": [{"page_index": 0, "viewing_time": 21006}, {"page_index": 1, "viewing_time": 11340}, {"page_index": 2, "viewing_time": 8450}], "rt": 40797, "trial_id": "mouselab_instructions_2_scarce", "trial_type": "instructions", "trial_index": 6, "time_elapsed": 174109, "internal_node_id": "0.0-2.0-3.0"}}, {"uniqueid": "w42680274:a81052353", "current_trial": 7, "dateTime": 1664465147676, "trialdata": {"rt": 50126, "response": {"Q0": "$-48 to $48", "Q1": "The cost is always $0.25.", "Q2": "The better I perform the higher my bonus will be.", "Q3": "No, the amount of cash at each node of the web may be different each time.", "Q4": "The values of the nodes walked through from start to finish.", "Q5": "No, the spider might forget to count the money on some rounds."}, "question_order": [0, 1, 2, 3, 4, 5], "correct": {"Q0": "$-48 to $48", "Q1": "The cost is always $0.25.", "Q2": "The better I perform the higher my bonus will be.", "Q3": "No, the amount of cash at each node of the web may be different each time.", "Q4": "The values of the nodes walked through from start to finish.", "Q5": "No, the spider might forget to count the money on some rounds."}, "trial_id": "mouselab_quiz_scarce", "trial_type": "survey-multi-choice", "trial_index": 7, "time_elapsed": 224238, "internal_node_id": "0.0-2.0-4.0"}}, {"uniqueid": "w42680274:a81052353", "current_trial": 8, "dateTime": 1664465151357, "trialdata": {"rt": 3677, "stimulus": "\n<h1> Get ready to start the game! </h1>\n\nThank you for reading the instructions. Get ready start with the first of 4 block(s) of this game.\n<br><br>\nIn this first block, you will complete 30 rounds of this game before moving on.\n<br><br>\nRemember, the more money the spider gets, the bigger your bonus will be!\n<br><br>\n<div style='text-align: center;'>Press <code>space</code> to begin.</div>\n\n<br><br>\n(If, at any point, the <code>space</code> key does not take you to the next page, click once on the text and try again.)", "response": " ", "trial_id": "mdp_ready_1", "trial_type": "html-keyboard-response", "trial_index": 8, "time_elapsed": 227919, "internal_node_id": "0.0-4.0-0.0"}}, {"uniqueid": "w42680274:a81052353", "current_trial": 9, "dateTime": 1664465163357, "trialdata": {"revealed_states": [], "num_clicks_accrued": [0, 0, 0, 0, 0, 0, 0, 0, 0, 0, 0, 0, 0], "stateRewards": ["", -4, -8, -48, 48, -2, 8, 48, 48, -2, -4, -48, -48], "withholdReward": true, "trial_id": "mdp_752833580638", "block": "test1", "trialIndex": 2, "score": 41, "costs": 0, "simulationMode": [null, null, null], "rewards": [-4, -8, 48], "path": ["0", "0", "1", "2", "4"], "rt": [2311, 443, 187], "actions": ["up", "up", "left"], "actionTimes": [4094, 5038, 5727], "queries": {"click": {"state": {"target": [], "time": []}, "edge": {"target": [], "time": []}}, "mouseover": {"state": {"target": [], "time": []}, "edge": {"target": [], "time": []}}, "mouseout": {"state": {"target": ["0"], "time": [1940]}, "edge": {"target": [], "time": []}}}, "displayed_time": "9.78", "trialTime": 11974, "trial_type": "mouselab-mdp", "trial_index": 9, "time_elapsed": 239919, "internal_node_id": "0.0-4.0-1.0-0.0"}}, {"uniqueid": "w42680274:a81052353", "current_trial": 10, "dateTime": 1664465188125, "trialdata": {"revealed_states": [], "num_clicks_accrued": [0, 0, 0, 0, 0, 0, 0, 0, 0, 0, 0, 0, 0], "stateRewards": ["", 4, 8, -48, 24, -2, 8, -48, -48, -4, 4, 48, -48], "withholdReward": false, "trial_id": "mdp_693807815190", "block": "test1", "trialIndex": 3, "score": -37, "costs": 0, "simulationMode": [null, null, null], "rewards": [-2, 8, -48], "path": ["0", "0", "5", "6", "8"], "rt": [935, 249, 568], "actions": ["right", "right", "down"], "actionTimes": [3434, 4187, 5257], "queries": {"click": {"state": {"target": [], "time": []}, "edge": {"target": [], "time": []}}, "mouseover": {"state": {"target": [], "time": []}, "edge": {"target": [], "time": []}}, "mouseout": {"state": {"target": ["0", "0", "10"], "time": [7695, 8004, 15701]}, "edge": {"target": [], "time": []}}}, "displayed_time": "16.50", "trialTime": 24746, "trial_type": "mouselab-mdp", "trial_index": 10, "time_elapsed": 264687, "internal_node_id": "0.0-4.0-1.0-1.0"}}, {"uniqueid": "w42680274:a81052353", "current_trial": 11, "dateTime": 1664465213804, "trialdata": {"revealed_states": [], "num_clicks_accrued": [0, 0, 0, 0, 0, 0, 0, 0, 0, 0, 0, 0, 0], "stateRewards": ["", -4, -4, -24, 48, -4, -8, -24, 48, 2, 4, 48, 48], "withholdReward": false, "trial_id": "mdp_810954007398", "block": "test1", "trialIndex": 4, "score": 58.75, "costs": -0.25, "simulationMode": [null, null, null], "rewards": [2, 4, 48], "path": ["0", "0", "9", "10", "11"], "rt": [3296, 28, 701], "actions": ["left", "left", "up"], "actionTimes": [5282, 5810, 7010], "queries": {"click": {"state": {"target": ["1"], "time": [4130]}, "edge": {"target": [], "time": []}}, "mouseover": {"state": {"target": ["1"], "time": [3999]}, "edge": {"target": [], "time": []}}, "mouseout": {"state": {"target": ["0", "1", "1"], "time": [1844, 4375, 8568]}, "edge": {"target": [], "time": []}}}, "displayed_time": "9.99", "trialTime": 25657, "trial_type": "mouselab-mdp", "trial_index": 11, "time_elapsed": 290366, "internal_node_id": "0.0-4.0-1.0-2.0"}}, {"uniqueid": "w42680274:a81052353", "current_trial": 12, "dateTime": 1664465224485, "trialdata": {"revealed_states": [], "num_clicks_accrued": [0, 0, 0, 0, 0, 0, 0, 0, 0, 0, 0, 0, 0], "stateRewards": ["", -2, 4, 48, -24, 2, 8, 24, 48, 2, 4, -24, -48], "withholdReward": true, "trial_id": "mdp_892412058587", "block": "test1", "trialIndex": 5, "score": 55, "costs": 0, "simulationMode": [null, null, null], "rewards": [-2, 4, 48], "path": ["0", "0", "1", "2", "3"], "rt": [685, 27, 389], "actions": ["up", "up", "right"], "actionTimes": [2415, 2943, 3831], "queries": {"click": {"state": {"target": [], "time": []}, "edge": {"target": [], "time": []}}, "mouseover": {"state": {"target": [], "time": []}, "edge": {"target": [], "time": []}}, "mouseout": {"state": {"target": ["5", "0", "0", "0", "9", "10", "9", "0", "5", "6"], "time": [1479, 1946, 5260, 5454, 5618, 5630, 8127, 8140, 8151, 8164]}, "edge": {"target": [], "time": []}}}, "displayed_time": "9.73", "trialTime": 10656, "trial_type": "mouselab-mdp", "trial_index": 12, "time_elapsed": 301047, "internal_node_id": "0.0-4.0-1.0-3.0"}}, {"uniqueid": "w42680274:a81052353", "current_trial": 13, "dateTime": 1664465240702, "trialdata": {"revealed_states": [], "num_clicks_accrued": [0, 0, 0, 0, 0, 0, 0, 0, 0, 0, 0, 0, 0], "stateRewards": ["", 2, -4, 48, -48, -4, -8, -48, 24, -4, 4, 48, 48], "withholdReward": true, "trial_id": "mdp_544803968425", "block": "test1", "trialIndex": 6, "score": 53, "costs": 0, "simulationMode": [null, null, null], "rewards": [-4, 4, 48], "path": ["0", "0", "9", "10", "12"], "rt": [745, 1011, 912], "actions": ["left", "left", "down"], "actionTimes": [2809, 4320, 5736], "queries": {"click": {"state": {"target": [], "time": []}, "edge": {"target": [], "time": []}}, "mouseover": {"state": {"target": [], "time": []}, "edge": {"target": [], "time": []}}, "mouseout": {"state": {"target": [], "time": []}, "edge": {"target": [], "time": []}}}, "displayed_time": "11.06", "trialTime": 16193, "trial_type": "mouselab-mdp", "trial_index": 13, "time_elapsed": 317264, "internal_node_id": "0.0-4.0-1.0-4.0"}}, {"uniqueid": "w42680274:a81052353", "current_trial": 14, "dateTime": 1664465250837, "trialdata": {"revealed_states": [], "num_clicks_accrued": [0, 0, 0, 0, 0, 0, 0, 0, 0, 0, 0, 0, 0], "stateRewards": ["", 4, -8, -48, 24, 4, 4, -24, -24, 2, 4, -48, 24], "withholdReward": true, "trial_id": "mdp_626971397185", "block": "test1", "trialIndex": 7, "score": 25, "costs": 0, "simulationMode": [null, null, null], "rewards": [4, -8, 24], "path": ["0", "0", "1", "2", "4"], "rt": [721, 141, 394], "actions": ["up", "up", "left"], "actionTimes": [2248, 2888, 3783], "queries": {"click": {"state": {"target": [], "time": []}, "edge": {"target": [], "time": []}}, "mouseover": {"state": {"target": [], "time": []}, "edge": {"target": [], "time": []}}, "mouseout": {"state": {"target": ["0"], "time": [1407]}, "edge": {"target": [], "time": []}}}, "displayed_time": "9.53", "trialTime": 10112, "trial_type": "mouselab-mdp", "trial_index": 14, "time_elapsed": 327399, "internal_node_id": "0.0-4.0-1.0-5.0"}}, {"uniqueid": "w42680274:a81052353", "current_trial": 15, "dateTime": 1664465261694, "trialdata": {"revealed_states": [], "num_clicks_accrued": [0, 0, 0, 0, 0, 0, 0, 0, 0, 0, 0, 0, 0], "stateRewards": ["", -4, -8, -48, -48, 4, -8, 48, 48, 2, 8, 48, 24], "withholdReward": true, "trial_id": "mdp_880437222492", "block": "test1", "trialIndex": 8, "score": -55, "costs": 0, "simulationMode": [null, null, null], "rewards": [-4, -8, -48], "path": ["0", "0", "1", "2", "3"], "rt": [2277, 416, 141], "actions": ["up", "up", "right"], "actionTimes": [3665, 4584, 5224], "queries": {"click": {"state": {"target": [], "time": []}, "edge": {"target": [], "time": []}}, "mouseover": {"state": {"target": [], "time": []}, "edge": {"target": [], "time": []}}, "mouseout": {"state": {"target": ["0"], "time": [1354]}, "edge": {"target": [], "time": []}}}, "displayed_time": "9.39", "trialTime": 10833, "trial_type": "mouselab-mdp", "trial_index": 15, "time_elapsed": 338256, "internal_node_id": "0.0-4.0-1.0-6.0"}}, {"uniqueid": "w42680274:a81052353", "current_trial": 16, "dateTime": 1664465271397, "trialdata": {"revealed_states": [], "num_clicks_accrued": [0, 0, 0, 0, 0, 0, 0, 0, 0, 0, 0, 0, 0], "stateRewards": ["", -2, -4, -24, -48, -4, -8, -48, 24, -4, -8, -24, -48], "withholdReward": false, "trial_id": "mdp_475782454549", "block": "test1", "trialIndex": 9, "score": 17, "costs": 0, "simulationMode": [null, null, null], "rewards": [-4, -8, 24], "path": ["0", "0", "5", "6", "8"], "rt": [1045, 90, 128], "actions": ["right", "right", "down"], "actionTimes": [2262, 2855, 3487], "queries": {"click": {"state": {"target": [], "time": []}, "edge": {"target": [], "time": []}}, "mouseover": {"state": {"target": [], "time": []}, "edge": {"target": [], "time": []}}, "mouseout": {"state": {"target": ["0", "0"], "time": [1201, 5463]}, "edge": {"target": [], "time": []}}}, "displayed_time": "9.22", "trialTime": 9678, "trial_type": "mouselab-mdp", "trial_index": 16, "time_elapsed": 347958, "internal_node_id": "0.0-4.0-1.0-7.0"}}, {"uniqueid": "w42680274:a81052353", "current_trial": 17, "dateTime": 1664465284303, "trialdata": {"revealed_states": [], "num_clicks_accrued": [0, 0, 0, 0, 0, 0, 0, 0, 0, 0, 0, 0, 0], "stateRewards": ["", -2, -4, -24, -48, 2, -8, -24, -24, 4, -8, 48, 48], "withholdReward": true, "trial_id": "mdp_950599994674", "block": "test1", "trialIndex": 10, "score": 49, "costs": 0, "simulationMode": [null, null, null], "rewards": [4, -8, 48], "path": ["0", "0", "9", "10", "12"], "rt": [1630, 19, 85], "actions": ["left", "left", "down"], "actionTimes": [4168, 4687, 5280], "queries": {"click": {"state": {"target": [], "time": []}, "edge": {"target": [], "time": []}}, "mouseover": {"state": {"target": [], "time": []}, "edge": {"target": [], "time": []}}, "mouseout": {"state": {"target": ["12", "10", "9", "0"], "time": [2152, 2195, 2352, 5698]}, "edge": {"target": [], "time": []}}}, "displayed_time": "11.54", "trialTime": 12881, "trial_type": "mouselab-mdp", "trial_index": 17, "time_elapsed": 360865, "internal_node_id": "0.0-4.0-1.0-8.0"}}, {"uniqueid": "w42680274:a81052353", "current_trial": 18, "dateTime": 1664465295382, "trialdata": {"revealed_states": [], "num_clicks_accrued": [0, 0, 0, 0, 0, 0, 0, 0, 0, 0, 0, 0, 0], "stateRewards": ["", 2, 4, 48, 48, -2, 4, 48, -24, -4, 8, -48, 48], "withholdReward": true, "trial_id": "mdp_407586865939", "block": "test1", "trialIndex": 11, "score": 58.75, "costs": -0.25, "simulationMode": [null, null, null], "rewards": [2, 4, 48], "path": ["0", "0", "1", "2", "4"], "rt": [2505, 66, 24], "actions": ["up", "up", "left"], "actionTimes": [3724, 4291, 4819], "queries": {"click": {"state": {"target": ["1"], "time": [2812]}, "edge": {"target": [], "time": []}}, "mouseover": {"state": {"target": ["1"], "time": [2486]}, "edge": {"target": [], "time": []}}, "mouseout": {"state": {"target": ["5", "5", "0", "1", "5"], "time": [728, 885, 2431, 3104, 10625]}, "edge": {"target": [], "time": []}}}, "displayed_time": "10.22", "trialTime": 11052, "trial_type": "mouselab-mdp", "trial_index": 18, "time_elapsed": 371944, "internal_node_id": "0.0-4.0-1.0-9.0"}}, {"uniqueid": "w42680274:a81052353", "current_trial": 19, "dateTime": 1664465308981, "trialdata": {"revealed_states": [], "num_clicks_accrued": [0, 0, 0, 0, 0, 0, 0, 0, 0, 0, 0, 0, 0], "stateRewards": ["", -4, 4, -24, 24, 2, 4, -24, 48, -4, 8, -48, 48], "withholdReward": true, "trial_id": "mdp_422109108860", "block": "test1", "trialIndex": 12, "score": -13, "costs": 0, "simulationMode": [null, null, null], "rewards": [2, 4, -24], "path": ["0", "0", "5", "6", "7"], "rt": [979, 417, 526], "actions": ["right", "right", "up"], "actionTimes": [2616, 3535, 4559], "queries": {"click": {"state": {"target": [], "time": []}, "edge": {"target": [], "time": []}}, "mouseover": {"state": {"target": [], "time": []}, "edge": {"target": [], "time": []}}, "mouseout": {"state": {"target": ["0"], "time": [5136]}, "edge": {"target": [], "time": []}}}, "displayed_time": "11.64", "trialTime": 13575, "trial_type": "mouselab-mdp", "trial_index": 19, "time_elapsed": 385543, "internal_node_id": "0.0-4.0-1.0-10.0"}}, {"uniqueid": "w42680274:a81052353", "current_trial": 20, "dateTime": 1664465322767, "trialdata": {"revealed_states": [], "num_clicks_accrued": [0, 0, 0, 0, 0, 0, 0, 0, 0, 0, 0, 0, 0], "stateRewards": ["", -4, 8, 24, -24, 4, -8, -24, -24, -2, 8, -48, 24], "withholdReward": true, "trial_id": "mdp_240302100183", "block": "test1", "trialIndex": 13, "score": 35, "costs": 0, "simulationMode": [null, null, null], "rewards": [-2, 8, 24], "path": ["0", "0", "9", "10", "12"], "rt": [1032, 108, 56], "actions": ["left", "left", "down"], "actionTimes": [6303, 6911, 7471], "queries": {"click": {"state": {"target": [], "time": []}, "edge": {"target": [], "time": []}}, "mouseover": {"state": {"target": [], "time": []}, "edge": {"target": [], "time": []}}, "mouseout": {"state": {"target": ["0", "5"], "time": [8294, 8457]}, "edge": {"target": [], "time": []}}}, "displayed_time": "13.27", "trialTime": 13760, "trial_type": "mouselab-mdp", "trial_index": 20, "time_elapsed": 399328, "internal_node_id": "0.0-4.0-1.0-11.0"}}, {"uniqueid": "w42680274:a81052353", "current_trial": 21, "dateTime": 1664465342173, "trialdata": {"revealed_states": [], "num_clicks_accrued": [0, 0, 0, 0, 0, 0, 0, 0, 0, 0, 0, 0, 0], "stateRewards": ["", 4, -8, 48, -24, -4, 4, 24, 24, -2, -4, 24, 24], "withholdReward": true, "trial_id": "mdp_542168715839", "block": "test1", "trialIndex": 14, "score": 29, "costs": 0, "simulationMode": [null, null, null], "rewards": [-4, 4, 24], "path": ["0", "0", "5", "6", "8"], "rt": [812, 44, 59], "actions": ["right", "right", "down"], "actionTimes": [2339, 2883, 3443], "queries": {"click": {"state": {"target": [], "time": []}, "edge": {"target": [], "time": []}}, "mouseover": {"state": {"target": [], "time": []}, "edge": {"target": [], "time": []}}, "mouseout": {"state": {"target": ["8", "6", "7", "5", "0", "5", "12"], "time": [1105, 1178, 1214, 1354, 4097, 4148, 18668]}, "edge": {"target": [], "time": []}}}, "displayed_time": "10.53", "trialTime": 19378, "trial_type": "mouselab-mdp", "trial_index": 21, "time_elapsed": 418735, "internal_node_id": "0.0-4.0-1.0-12.0"}}, {"uniqueid": "w42680274:a81052353", "current_trial": 22, "dateTime": 1664465354517, "trialdata": {"revealed_states": [], "num_clicks_accrued": [0, 0, 0, 0, 0, 0, 0, 0, 0, 0, 0, 0, 0], "stateRewards": ["", -2, -8, -24, -24, 4, -4, -48, 48, 2, 8, 48, -48], "withholdReward": false, "trial_id": "mdp_498095124548", "block": "test1", "trialIndex": 15, "score": 52.75, "costs": -0.25, "simulationMode": [null, null, null], "rewards": [4, -4, 48], "path": ["0", "0", "5", "6", "8"], "rt": [4128, 323, 370], "actions": ["right", "right", "down"], "actionTimes": [5751, 6575, 7447], "queries": {"click": {"state": {"target": ["1"], "time": [2212]}, "edge": {"target": [], "time": []}}, "mouseover": {"state": {"target": ["0", "1", "5", "5"], "time": [1847, 2155, 2785, 3107]}, "edge": {"target": [], "time": []}}, "mouseout": {"state": {"target": ["0", "0", "1", "5", "5"], "time": [1589, 1985, 2634, 2979, 3131]}, "edge": {"target": [], "time": []}}}, "displayed_time": "10.62", "trialTime": 12319, "trial_type": "mouselab-mdp", "trial_index": 22, "time_elapsed": 431079, "internal_node_id": "0.0-4.0-1.0-13.0"}}, {"uniqueid": "w42680274:a81052353", "current_trial": 23, "dateTime": 1664465364910, "trialdata": {"revealed_states": [], "num_clicks_accrued": [0, 0, 0, 0, 0, 0, 0, 0, 0, 0, 0, 0, 0], "stateRewards": ["", -4, 8, 24, 24, 2, 4, -48, 24, -2, -4, -24, -24], "withholdReward": true, "trial_id": "mdp_752328329546", "block": "test1", "trialIndex": 16, "score": 32.75, "costs": -0.25, "simulationMode": [null, null, null], "rewards": [-4, 8, 24], "path": ["0", "0", "1", "2", "3"], "rt": [3430, 274, 26], "actions": ["up", "up", "right"], "actionTimes": [4903, 5679, 6207], "queries": {"click": {"state": {"target": ["2"], "time": [4068]}, "edge": {"target": [], "time": []}}, "mouseover": {"state": {"target": ["1", "2"], "time": [1817, 2084]}, "edge": {"target": [], "time": []}}, "mouseout": {"state": {"target": ["0", "1", "2", "0"], "time": [1392, 1980, 4296, 7186]}, "edge": {"target": [], "time": []}}}, "displayed_time": "9.47", "trialTime": 10368, "trial_type": "mouselab-mdp", "trial_index": 23, "time_elapsed": 441472, "internal_node_id": "0.0-4.0-1.0-14.0"}}, {"uniqueid": "w42680274:a81052353", "current_trial": 24, "dateTime": 1664465376622, "trialdata": {"revealed_states": [], "num_clicks_accrued": [0, 0, 0, 0, 0, 0, 0, 0, 0, 0, 0, 0, 0], "stateRewards": ["", 4, 8, 24, 24, 2, -4, 48, -24, -4, 8, -24, 24], "withholdReward": false, "trial_id": "mdp_932292142091", "block": "test1", "trialIndex": 17, "score": 33, "costs": 0, "simulationMode": [null, null, null], "rewards": [-4, 8, 24], "path": ["0", "0", "9", "10", "12"], "rt": [803, 122, 41], "actions": ["left", "left", "down"], "actionTimes": [2183, 2807, 3351], "queries": {"click": {"state": {"target": [], "time": []}, "edge": {"target": [], "time": []}}, "mouseover": {"state": {"target": [], "time": []}, "edge": {"target": [], "time": []}}, "mouseout": {"state": {"target": ["8", "6", "5"], "time": [885, 1042, 1140]}, "edge": {"target": [], "time": []}}}, "displayed_time": "10.38", "trialTime": 11687, "trial_type": "mouselab-mdp", "trial_index": 24, "time_elapsed": 453184, "internal_node_id": "0.0-4.0-1.0-15.0"}}, {"uniqueid": "w42680274:a81052353", "current_trial": 25, "dateTime": 1664465389518, "trialdata": {"revealed_states": [], "num_clicks_accrued": [0, 0, 0, 0, 0, 0, 0, 0, 0, 0, 0, 0, 0], "stateRewards": ["", -2, 8, 48, -48, 4, -8, 24, 24, 4, 4, -48, -24], "withholdReward": true, "trial_id": "mdp_746937869927", "block": "test1", "trialIndex": 18, "score": 25, "costs": 0, "simulationMode": [null, null, null], "rewards": [4, -8, 24], "path": ["0", "0", "5", "6", "8"], "rt": [1378, 21, 262], "actions": ["right", "right", "down"], "actionTimes": [2535, 3054, 3823], "queries": {"click": {"state": {"target": [], "time": []}, "edge": {"target": [], "time": []}}, "mouseover": {"state": {"target": [], "time": []}, "edge": {"target": [], "time": []}}, "mouseout": {"state": {"target": ["0"], "time": [1062]}, "edge": {"target": [], "time": []}}}, "displayed_time": "10.16", "trialTime": 12872, "trial_type": "mouselab-mdp", "trial_index": 25, "time_elapsed": 466080, "internal_node_id": "0.0-4.0-1.0-16.0"}}, {"uniqueid": "w42680274:a81052353", "current_trial": 26, "dateTime": 1664465411941, "trialdata": {"revealed_states": [], "num_clicks_accrued": [0, 0, 0, 0, 0, 0, 0, 0, 0, 0, 0, 0, 0], "stateRewards": ["", -2, -8, -24, 24, -2, -8, -48, 24, -2, -8, 24, 24], "withholdReward": true, "trial_id": "mdp_336617436097", "block": "test1", "trialIndex": 19, "score": 18.75, "costs": -0.25, "simulationMode": [null, null, null], "rewards": [-2, -8, 24], "path": ["0", "0", "1", "2", "4"], "rt": [2152, 132, 344], "actions": ["up", "up", "left"], "actionTimes": [3182, 3814, 4662], "queries": {"click": {"state": {"target": ["6"], "time": [1687]}, "edge": {"target": [], "time": []}}, "mouseover": {"state": {"target": ["5", "6", "8", "5", "0"], "time": [1324, 1409, 2178, 2348, 2378]}, "edge": {"target": [], "time": []}}, "mouseout": {"state": {"target": ["0", "0", "0", "5", "6", "8", "5", "0"], "time": [199, 239, 1294, 1336, 2009, 2251, 2354, 2390]}, "edge": {"target": [], "time": []}}}, "displayed_time": "10.03", "trialTime": 22398, "trial_type": "mouselab-mdp", "trial_index": 26, "time_elapsed": 488503, "internal_node_id": "0.0-4.0-1.0-17.0"}}, {"uniqueid": "w42680274:a81052353", "current_trial": 27, "dateTime": 1664465429045, "trialdata": {"revealed_states": [], "num_clicks_accrued": [0, 0, 0, 0, 0, 0, 0, 0, 0, 0, 0, 0, 0], "stateRewards": ["", 2, 4, -48, -48, 2, 4, 48, -24, -2, 8, 48, -48], "withholdReward": true, "trial_id": "mdp_258528916140", "block": "test1", "trialIndex": 20, "score": -37, "costs": 0, "simulationMode": [null, null, null], "rewards": [-2, 8, -48], "path": ["0", "0", "9", "10", "12"], "rt": [751, 113, 413], "actions": ["left", "left", "down"], "actionTimes": [8692, 9308, 10220], "queries": {"click": {"state": {"target": [], "time": []}, "edge": {"target": [], "time": []}}, "mouseover": {"state": {"target": [], "time": []}, "edge": {"target": [], "time": []}}, "mouseout": {"state": {"target": ["0", "0"], "time": [7588, 8002]}, "edge": {"target": [], "time": []}}}, "displayed_time": "15.94", "trialTime": 17076, "trial_type": "mouselab-mdp", "trial_index": 27, "time_elapsed": 505607, "internal_node_id": "0.0-4.0-1.0-18.0"}}, {"uniqueid": "w42680274:a81052353", "current_trial": 28, "dateTime": 1664465439430, "trialdata": {"revealed_states": [], "num_clicks_accrued": [0, 0, 0, 0, 0, 0, 0, 0, 0, 0, 0, 0, 0], "stateRewards": ["", -4, -4, 24, -48, 2, 4, -24, -48, -2, -8, -24, 24], "withholdReward": false, "trial_id": "mdp_565569130486", "block": "test1", "trialIndex": 21, "score": 21, "costs": 0, "simulationMode": [null, null, null], "rewards": [-4, -4, 24], "path": ["0", "0", "1", "2", "3"], "rt": [1085, 187, 88], "actions": ["up", "up", "right"], "actionTimes": [3045, 3733, 4325], "queries": {"click": {"state": {"target": [], "time": []}, "edge": {"target": [], "time": []}}, "mouseover": {"state": {"target": ["0"], "time": [2230]}, "edge": {"target": [], "time": []}}, "mouseout": {"state": {"target": ["0", "0", "0"], "time": [1866, 2254, 5769]}, "edge": {"target": [], "time": []}}}, "displayed_time": "9.96", "trialTime": 10357, "trial_type": "mouselab-mdp", "trial_index": 28, "time_elapsed": 515992, "internal_node_id": "0.0-4.0-1.0-19.0"}}, {"uniqueid": "w42680274:a81052353", "current_trial": 29, "dateTime": 1664465452469, "trialdata": {"revealed_states": [], "num_clicks_accrued": [0, 0, 0, 0, 0, 0, 0, 0, 0, 0, 0, 0, 0], "stateRewards": ["", 4, -8, -24, 48, -4, 8, -24, -48, -4, -4, 24, 48], "withholdReward": false, "trial_id": "mdp_282352776624", "block": "test1", "trialIndex": 22, "score": -39, "costs": 0, "simulationMode": [null, null, null], "rewards": [-4, 8, -48], "path": ["0", "0", "5", "6", "8"], "rt": [564, 84, 32], "actions": ["right", "right", "down"], "actionTimes": [2462, 3047, 3582], "queries": {"click": {"state": {"target": [], "time": []}, "edge": {"target": [], "time": []}}, "mouseover": {"state": {"target": [], "time": []}, "edge": {"target": [], "time": []}}, "mouseout": {"state": {"target": ["8", "6", "5", "0", "5"], "time": [962, 1210, 1313, 4459, 4525]}, "edge": {"target": [], "time": []}}}, "displayed_time": "10.90", "trialTime": 13013, "trial_type": "mouselab-mdp", "trial_index": 29, "time_elapsed": 529030, "internal_node_id": "0.0-4.0-1.0-20.0"}}, {"uniqueid": "w42680274:a81052353", "current_trial": 30, "dateTime": 1664465464190, "trialdata": {"revealed_states": [], "num_clicks_accrued": [0, 0, 0, 0, 0, 0, 0, 0, 0, 0, 0, 0, 0], "stateRewards": ["", 2, -4, 48, -48, -2, 8, -48, 24, -2, -8, 48, 48], "withholdReward": true, "trial_id": "mdp_949326095747", "block": "test1", "trialIndex": 23, "score": 43, "costs": 0, "simulationMode": [null, null, null], "rewards": [-2, -8, 48], "path": ["0", "0", "9", "10", "12"], "rt": [779, 21, 54], "actions": ["left", "left", "down"], "actionTimes": [1727, 2247, 2807], "queries": {"click": {"state": {"target": [], "time": []}, "edge": {"target": [], "time": []}}, "mouseover": {"state": {"target": [], "time": []}, "edge": {"target": [], "time": []}}, "mouseout": {"state": {"target": ["0", "9", "12"], "time": [3656, 3753, 6662]}, "edge": {"target": [], "time": []}}}, "displayed_time": "9.95", "trialTime": 11695, "trial_type": "mouselab-mdp", "trial_index": 30, "time_elapsed": 540752, "internal_node_id": "0.0-4.0-1.0-21.0"}}, {"uniqueid": "w42680274:a81052353", "current_trial": 31, "dateTime": 1664465476630, "trialdata": {"revealed_states": [], "num_clicks_accrued": [0, 0, 0, 0, 0, 0, 0, 0, 0, 0, 0, 0, 0], "stateRewards": ["", 2, 4, 48, -48, 2, 4, 24, -24, 2, -4, -24, -48], "withholdReward": false, "trial_id": "mdp_706591889062", "block": "test1", "trialIndex": 24, "score": 59, "costs": 0, "simulationMode": [null, null, null], "rewards": [2, 4, 48], "path": ["0", "0", "1", "2", "3"], "rt": [713, 316, 34], "actions": ["up", "up", "right"], "actionTimes": [2327, 3141, 3678], "queries": {"click": {"state": {"target": [], "time": []}, "edge": {"target": [], "time": []}}, "mouseover": {"state": {"target": [], "time": []}, "edge": {"target": [], "time": []}}, "mouseout": {"state": {"target": ["0"], "time": [1371]}, "edge": {"target": [], "time": []}}}, "displayed_time": "10.62", "trialTime": 12414, "trial_type": "mouselab-mdp", "trial_index": 31, "time_elapsed": 553191, "internal_node_id": "0.0-4.0-1.0-22.0"}}, {"uniqueid": "w42680274:a81052353", "current_trial": 32, "dateTime": 1664465487573, "trialdata": {"revealed_states": [], "num_clicks_accrued": [0, 0, 0, 0, 0, 0, 0, 0, 0, 0, 0, 0, 0], "stateRewards": ["", -4, 4, -24, 48, -2, 8, -48, 24, 2, 4, 48, -48], "withholdReward": true, "trial_id": "mdp_366632183904", "block": "test1", "trialIndex": 25, "score": 34.75, "costs": -0.25, "simulationMode": [null, null, null], "rewards": [-2, 8, 24], "path": ["0", "0", "5", "6", "8"], "rt": [2565, 81, 116], "actions": ["right", "right", "down"], "actionTimes": [3222, 3806, 4422], "queries": {"click": {"state": {"target": ["6"], "time": [1348]}, "edge": {"target": [], "time": []}}, "mouseover": {"state": {"target": ["5", "6"], "time": [1027, 1180]}, "edge": {"target": [], "time": []}}, "mouseout": {"state": {"target": ["0", "5", "6"], "time": [412, 1094, 1694]}, "edge": {"target": [], "time": []}}}, "displayed_time": "9.66", "trialTime": 10918, "trial_type": "mouselab-mdp", "trial_index": 32, "time_elapsed": 564135, "internal_node_id": "0.0-4.0-1.0-23.0"}}, {"uniqueid": "w42680274:a81052353", "current_trial": 33, "dateTime": 1664465501830, "trialdata": {"revealed_states": [], "num_clicks_accrued": [0, 0, 0, 0, 0, 0, 0, 0, 0, 0, 0, 0, 0], "stateRewards": ["", 2, 4, -48, 24, -4, -4, -24, 24, 2, -4, 24, -24], "withholdReward": true, "trial_id": "mdp_163600331068", "block": "test1", "trialIndex": 26, "score": -21, "costs": 0, "simulationMode": [null, null, null], "rewards": [2, -4, -24], "path": ["0", "0", "9", "10", "12"], "rt": [955, 476, 413], "actions": ["left", "left", "down"], "actionTimes": [4214, 5191, 6102], "queries": {"click": {"state": {"target": [], "time": []}, "edge": {"target": [], "time": []}}, "mouseover": {"state": {"target": [], "time": []}, "edge": {"target": [], "time": []}}, "mouseout": {"state": {"target": ["6", "5", "0", "0"], "time": [2926, 2968, 3429, 6835]}, "edge": {"target": [], "time": []}}}, "displayed_time": "13.26", "trialTime": 14231, "trial_type": "mouselab-mdp", "trial_index": 33, "time_elapsed": 578391, "internal_node_id": "0.0-4.0-1.0-24.0"}}, {"uniqueid": "w42680274:a81052353", "current_trial": 34, "dateTime": 1664465511933, "trialdata": {"revealed_states": [], "num_clicks_accrued": [0, 0, 0, 0, 0, 0, 0, 0, 0, 0, 0, 0, 0], "stateRewards": ["", 4, 4, -48, -48, 4, 4, -24, -24, -4, 8, -48, 24], "withholdReward": true, "trial_id": "mdp_669785455541", "block": "test1", "trialIndex": 27, "score": -35, "costs": 0, "simulationMode": [null, null, null], "rewards": [4, 4, -48], "path": ["0", "0", "1", "2", "3"], "rt": [758, 173, 340], "actions": ["up", "up", "right"], "actionTimes": [1910, 2582, 3421], "queries": {"click": {"state": {"target": [], "time": []}, "edge": {"target": [], "time": []}}, "mouseover": {"state": {"target": [], "time": []}, "edge": {"target": [], "time": []}}, "mouseout": {"state": {"target": [], "time": []}, "edge": {"target": [], "time": []}}}, "displayed_time": "9.15", "trialTime": 10078, "trial_type": "mouselab-mdp", "trial_index": 34, "time_elapsed": 588495, "internal_node_id": "0.0-4.0-1.0-25.0"}}, {"uniqueid": "w42680274:a81052353", "current_trial": 35, "dateTime": 1664465522917, "trialdata": {"revealed_states": [], "num_clicks_accrued": [0, 0, 0, 0, 0, 0, 0, 0, 0, 0, 0, 0, 0], "stateRewards": ["", -4, 4, 24, 24, 4, -8, 48, -48, -2, -8, 24, 24], "withholdReward": true, "trial_id": "mdp_395264223239", "block": "test1", "trialIndex": 28, "score": -47, "costs": 0, "simulationMode": [null, null, null], "rewards": [4, -8, -48], "path": ["0", "0", "5", "6", "8"], "rt": [912, 265, 20], "actions": ["right", "right", "down"], "actionTimes": [2134, 2902, 3421], "queries": {"click": {"state": {"target": [], "time": []}, "edge": {"target": [], "time": []}}, "mouseover": {"state": {"target": [], "time": []}, "edge": {"target": [], "time": []}}, "mouseout": {"state": {"target": ["0"], "time": [857]}, "edge": {"target": [], "time": []}}}, "displayed_time": "10.22", "trialTime": 10958, "trial_type": "mouselab-mdp", "trial_index": 35, "time_elapsed": 599479, "internal_node_id": "0.0-4.0-1.0-26.0"}}, {"uniqueid": "w42680274:a81052353", "current_trial": 36, "dateTime": 1664465533198, "trialdata": {"revealed_states": [], "num_clicks_accrued": [0, 0, 0, 0, 0, 0, 0, 0, 0, 0, 0, 0, 0], "stateRewards": ["", -2, 4, -24, -24, -2, 4, 48, 24, -4, -8, 24, -48], "withholdReward": true, "trial_id": "mdp_191839460481", "block": "test1", "trialIndex": 29, "score": -55.25, "costs": -0.25, "simulationMode": [null, null, null], "rewards": [-4, -8, -48], "path": ["0", "0", "9", "10", "12"], "rt": [2758, 51, 196], "actions": ["left", "left", "down"], "actionTimes": [4038, 4589, 5285], "queries": {"click": {"state": {"target": ["5"], "time": [2633]}, "edge": {"target": [], "time": []}}, "mouseover": {"state": {"target": ["9", "9", "0", "5", "6", "0", "9"], "time": [1865, 2216, 2338, 2416, 2877, 3271, 3356]}, "edge": {"target": [], "time": []}}, "mouseout": {"state": {"target": ["0", "9", "9", "0", "5", "6", "5", "0", "9", "9"], "time": [1097, 1907, 2313, 2380, 2822, 3150, 3241, 3313, 6543, 7186]}, "edge": {"target": [], "time": []}}}, "displayed_time": "9.28", "trialTime": 10255, "trial_type": "mouselab-mdp", "trial_index": 36, "time_elapsed": 609760, "internal_node_id": "0.0-4.0-1.0-27.0"}}, {"uniqueid": "w42680274:a81052353", "current_trial": 37, "dateTime": 1664465543885, "trialdata": {"revealed_states": [], "num_clicks_accrued": [0, 0, 0, 0, 0, 0, 0, 0, 0, 0, 0, 0, 0], "stateRewards": ["", -4, -8, 24, 48, 2, -4, -24, 24, -4, 8, 48, 48], "withholdReward": true, "trial_id": "mdp_496672670022", "block": "test1", "trialIndex": 30, "score": 57, "costs": 0, "simulationMode": [null, null, null], "rewards": [-4, 8, 48], "path": ["0", "0", "9", "10", "11"], "rt": [832, 48, 225], "actions": ["left", "left", "up"], "actionTimes": [2294, 2846, 3574], "queries": {"click": {"state": {"target": [], "time": []}, "edge": {"target": [], "time": []}}, "mouseover": {"state": {"target": [], "time": []}, "edge": {"target": [], "time": []}}, "mouseout": {"state": {"target": ["0", "0", "0", "9"], "time": [1639, 4403, 8609, 9972]}, "edge": {"target": [], "time": []}}}, "displayed_time": "9.46", "trialTime": 10662, "trial_type": "mouselab-mdp", "trial_index": 37, "time_elapsed": 620447, "internal_node_id": "0.0-4.0-1.0-28.0"}}, {"uniqueid": "w42680274:a81052353", "current_trial": 38, "dateTime": 1664465554110, "trialdata": {"revealed_states": [], "num_clicks_accrued": [0, 0, 0, 0, 0, 0, 0, 0, 0, 0, 0, 0, 0], "stateRewards": ["", 2, -4, 24, -24, 2, -8, 48, 48, 4, -4, 24, 48], "withholdReward": true, "trial_id": "mdp_947836623875", "block": "test1", "trialIndex": 31, "score": 46.75, "costs": -0.25, "simulationMode": [null, null, null], "rewards": [2, -8, 48], "path": ["0", "0", "5", "6", "8"], "rt": [2053, 179, 76], "actions": ["right", "right", "down"], "actionTimes": [3438, 4119, 4695], "queries": {"click": {"state": {"target": ["2"], "time": [2070]}, "edge": {"target": [], "time": []}}, "mouseover": {"state": {"target": ["1", "2"], "time": [1661, 1885]}, "edge": {"target": [], "time": []}}, "mouseout": {"state": {"target": ["8", "5", "0", "1"], "time": [921, 1176, 1536, 1716]}, "edge": {"target": [], "time": []}}}, "displayed_time": "9.39", "trialTime": 10200, "trial_type": "mouselab-mdp", "trial_index": 38, "time_elapsed": 630672, "internal_node_id": "0.0-4.0-1.0-29.0"}}, {"uniqueid": "w42680274:a81052353", "current_trial": 39, "dateTime": 1664465555949, "trialdata": {"rt": 1837, "stimulus": "<h1> End of block! </h1>\n\nYou have reached the end of the block 1/4. If you need a short break, feel free to take one now before moving on.\n\n<br><br>\nIn the next block, you will complete another 30 rounds of this game.\n\n<br><br>\n<div style='text-align: center;'>Press <code>space</code> to begin.</div>\n<br><br>\n<div style='text-align: center;'>(If the experiment doesn't continue, try clicking on the text and then pressing <code>space</code>.)</div>", "response": " ", "trial_id": "mdp_ready_2", "trial_type": "html-keyboard-response", "trial_index": 39, "time_elapsed": 632511, "internal_node_id": "0.0-4.0-2.0"}}, {"uniqueid": "w42680274:a81052353", "current_trial": 40, "dateTime": 1664465566894, "trialdata": {"revealed_states": [], "num_clicks_accrued": [0, 0, 0, 0, 0, 0, 0, 0, 0, 0, 0, 0, 0], "stateRewards": ["", 2, 8, 48, -24, -4, 4, 48, 24, -2, 8, 24, 24], "withholdReward": true, "trial_id": "mdp_123436106791", "block": "test2", "trialIndex": 32, "score": 62.75, "costs": -0.25, "simulationMode": [null, null, null], "rewards": [2, 8, 48], "path": ["0", "0", "1", "2", "3"], "rt": [1220, 65, 581], "actions": ["up", "up", "right"], "actionTimes": [2741, 3309, 4397], "queries": {"click": {"state": {"target": ["1"], "time": [1916]}, "edge": {"target": [], "time": []}}, "mouseover": {"state": {"target": ["1", "2"], "time": [1813, 2255]}, "edge": {"target": [], "time": []}}, "mouseout": {"state": {"target": ["2", "1", "1", "2", "3", "6", "5", "5", "5"], "time": [1219, 1255, 2219, 5225, 5249, 5328, 5352, 6468, 8819]}, "edge": {"target": [], "time": []}}}, "displayed_time": "10.52", "trialTime": 10918, "trial_type": "mouselab-mdp", "trial_index": 40, "time_elapsed": 643456, "internal_node_id": "0.0-4.0-3.0-0.0"}}, {"uniqueid": "w42680274:a81052353", "current_trial": 41, "dateTime": 1664465576061, "trialdata": {"revealed_states": [], "num_clicks_accrued": [0, 0, 0, 0, 0, 0, 0, 0, 0, 0, 0, 0, 0], "stateRewards": ["", -2, 8, -48, 48, 4, -8, -48, 48, 4, -4, -24, 48], "withholdReward": false, "trial_id": "mdp_144739116828", "block": "test2", "trialIndex": 33, "score": 48.75, "costs": -0.25, "simulationMode": [null, null, null], "rewards": [4, -8, 48], "path": ["0", "0", "5", "6", "8"], "rt": [1640, 251, 218], "actions": ["right", "right", "down"], "actionTimes": [2205, 2973, 3693], "queries": {"click": {"state": {"target": ["5"], "time": [1006]}, "edge": {"target": [], "time": []}}, "mouseover": {"state": {"target": ["5"], "time": [820]}, "edge": {"target": [], "time": []}}, "mouseout": {"state": {"target": ["5", "7", "7", "6"], "time": [4668, 5026, 5268, 5359]}, "edge": {"target": [], "time": []}}}, "displayed_time": "8.56", "trialTime": 9141, "trial_type": "mouselab-mdp", "trial_index": 41, "time_elapsed": 652623, "internal_node_id": "0.0-4.0-3.0-1.0"}}, {"uniqueid": "w42680274:a81052353", "current_trial": 42, "dateTime": 1664465585525, "trialdata": {"revealed_states": [], "num_clicks_accrued": [0, 0, 0, 0, 0, 0, 0, 0, 0, 0, 0, 0, 0], "stateRewards": ["", -4, 4, -24, 24, -2, -4, 48, 24, 2, 8, -48, 24], "withholdReward": true, "trial_id": "mdp_150340189492", "block": "test2", "trialIndex": 34, "score": 23, "costs": 0, "simulationMode": [null, null, null], "rewards": [-2, -4, 24], "path": ["0", "0", "5", "6", "8"], "rt": [1144, 50, 146], "actions": ["right", "right", "down"], "actionTimes": [2055, 2607, 3254], "queries": {"click": {"state": {"target": [], "time": []}, "edge": {"target": [], "time": []}}, "mouseover": {"state": {"target": ["5"], "time": [1072]}, "edge": {"target": [], "time": []}}, "mouseout": {"state": {"target": ["0", "5", "0", "0", "0"], "time": [1029, 4018, 4320, 4817, 5314]}, "edge": {"target": [], "time": []}}}, "displayed_time": "8.91", "trialTime": 9438, "trial_type": "mouselab-mdp", "trial_index": 42, "time_elapsed": 662087, "internal_node_id": "0.0-4.0-3.0-2.0"}}, {"uniqueid": "w42680274:a81052353", "current_trial": 43, "dateTime": 1664465596013, "trialdata": {"revealed_states": [], "num_clicks_accrued": [0, 0, 0, 0, 0, 0, 0, 0, 0, 0, 0, 0, 0], "stateRewards": ["", -2, -8, -24, 48, -2, -8, -48, -48, 2, -8, -48, 24], "withholdReward": true, "trial_id": "mdp_288324580942", "block": "test2", "trialIndex": 35, "score": -53, "costs": 0, "simulationMode": [null, null, null], "rewards": [-2, -8, -48], "path": ["0", "0", "5", "6", "8"], "rt": [911, 115, 137], "actions": ["right", "right", "down"], "actionTimes": [1519, 2134, 2774], "queries": {"click": {"state": {"target": [], "time": []}, "edge": {"target": [], "time": []}}, "mouseover": {"state": {"target": ["5"], "time": [770]}, "edge": {"target": [], "time": []}}, "mouseout": {"state": {"target": ["0", "0", "5"], "time": [334, 710, 3637]}, "edge": {"target": [], "time": []}}}, "displayed_time": "9.61", "trialTime": 10461, "trial_type": "mouselab-mdp", "trial_index": 43, "time_elapsed": 672575, "internal_node_id": "0.0-4.0-3.0-3.0"}}, {"uniqueid": "w42680274:a81052353", "current_trial": 44, "dateTime": 1664465615525, "trialdata": {"revealed_states": [], "num_clicks_accrued": [0, 0, 0, 0, 0, 0, 0, 0, 0, 0, 0, 0, 0], "stateRewards": ["", -4, -8, -48, 24, -4, -4, -24, -48, 2, -8, -24, -48], "withholdReward": true, "trial_id": "mdp_628181832088", "block": "test2", "trialIndex": 36, "score": -55, "costs": 0, "simulationMode": [null, null, null], "rewards": [-4, -8, -48], "path": ["0", "0", "1", "2", "3"], "rt": [1307, 56, 435], "actions": ["up", "up", "right"], "actionTimes": [11341, 11900, 12837], "queries": {"click": {"state": {"target": [], "time": []}, "edge": {"target": [], "time": []}}, "mouseover": {"state": {"target": ["1", "2"], "time": [10214, 10444]}, "edge": {"target": [], "time": []}}, "mouseout": {"state": {"target": ["0", "1", "2", "2", "0"], "time": [9929, 10329, 18432, 18565, 19038]}, "edge": {"target": [], "time": []}}}, "displayed_time": "19.04", "trialTime": 19485, "trial_type": "mouselab-mdp", "trial_index": 44, "time_elapsed": 692087, "internal_node_id": "0.0-4.0-3.0-4.0"}}, {"uniqueid": "w42680274:a81052353", "current_trial": 45, "dateTime": 1664465625605, "trialdata": {"revealed_states": [], "num_clicks_accrued": [0, 0, 0, 0, 0, 0, 0, 0, 0, 0, 0, 0, 0], "stateRewards": ["", 2, 8, 24, 24, 2, -8, -24, -48, 2, 8, -48, 48], "withholdReward": false, "trial_id": "mdp_745175888812", "block": "test2", "trialIndex": 37, "score": 39, "costs": 0, "simulationMode": [null, null, null], "rewards": [2, 8, 24], "path": ["0", "0", "1", "2", "4"], "rt": [805, 154, 116], "actions": ["up", "up", "left"], "actionTimes": [2238, 2893, 3510], "queries": {"click": {"state": {"target": [], "time": []}, "edge": {"target": [], "time": []}}, "mouseover": {"state": {"target": [], "time": []}, "edge": {"target": [], "time": []}}, "mouseout": {"state": {"target": ["9", "0", "0", "7", "7", "1", "0", "5", "8"], "time": [1284, 1345, 4611, 4660, 4878, 5024, 5581, 5636, 7545]}, "edge": {"target": [], "time": []}}}, "displayed_time": "9.43", "trialTime": 10054, "trial_type": "mouselab-mdp", "trial_index": 45, "time_elapsed": 702167, "internal_node_id": "0.0-4.0-3.0-5.0"}}, {"uniqueid": "w42680274:a81052353", "current_trial": 46, "dateTime": 1664465637173, "trialdata": {"revealed_states": [], "num_clicks_accrued": [0, 0, 0, 0, 0, 0, 0, 0, 0, 0, 0, 0, 0], "stateRewards": ["", 2, 4, 48, 48, 4, -8, 24, -48, -4, -8, -24, -48], "withholdReward": true, "trial_id": "mdp_343818007251", "block": "test2", "trialIndex": 38, "score": -31, "costs": 0, "simulationMode": [null, null, null], "rewards": [-4, -8, -24], "path": ["0", "0", "9", "10", "11"], "rt": [610, 79, 10], "actions": ["left", "left", "up"], "actionTimes": [2048, 2632, 3143], "queries": {"click": {"state": {"target": [], "time": []}, "edge": {"target": [], "time": []}}, "mouseover": {"state": {"target": [], "time": []}, "edge": {"target": [], "time": []}}, "mouseout": {"state": {"target": ["6", "5"], "time": [1073, 1194]}, "edge": {"target": [], "time": []}}}, "displayed_time": "10.44", "trialTime": 11544, "trial_type": "mouselab-mdp", "trial_index": 46, "time_elapsed": 713735, "internal_node_id": "0.0-4.0-3.0-6.0"}}, {"uniqueid": "w42680274:a81052353", "current_trial": 47, "dateTime": 1664465647053, "trialdata": {"revealed_states": [], "num_clicks_accrued": [0, 0, 0, 0, 0, 0, 0, 0, 0, 0, 0, 0, 0], "stateRewards": ["", 2, 8, -48, -24, 2, -4, -48, 24, 2, -4, -24, -24], "withholdReward": true, "trial_id": "mdp_954659099093", "block": "test2", "trialIndex": 39, "score": -21, "costs": 0, "simulationMode": [null, null, null], "rewards": [2, -4, -24], "path": ["0", "0", "9", "10", "12"], "rt": [1450, 219, 105], "actions": ["left", "left", "down"], "actionTimes": [2835, 3556, 4164], "queries": {"click": {"state": {"target": [], "time": []}, "edge": {"target": [], "time": []}}, "mouseover": {"state": {"target": ["9", "10", "10"], "time": [1828, 1864, 2106]}, "edge": {"target": [], "time": []}}, "mouseout": {"state": {"target": ["0", "0", "9", "10", "10", "9", "12"], "time": [955, 1610, 1852, 1900, 5046, 5094, 9470]}, "edge": {"target": [], "time": []}}}, "displayed_time": "9.38", "trialTime": 9851, "trial_type": "mouselab-mdp", "trial_index": 47, "time_elapsed": 723615, "internal_node_id": "0.0-4.0-3.0-7.0"}}, {"uniqueid": "w42680274:a81052353", "current_trial": 48, "dateTime": 1664465657302, "trialdata": {"revealed_states": [], "num_clicks_accrued": [0, 0, 0, 0, 0, 0, 0, 0, 0, 0, 0, 0, 0], "stateRewards": ["", 4, 8, 24, 24, 2, -4, 48, -24, -4, 8, -24, 24], "withholdReward": true, "trial_id": "mdp_932292142091", "block": "test2", "trialIndex": 40, "score": 41, "costs": 0, "simulationMode": [null, null, null], "rewards": [4, 8, 24], "path": ["0", "0", "1", "2", "3"], "rt": [639, 16, 47], "actions": ["up", "up", "right"], "actionTimes": [1420, 1939, 2492], "queries": {"click": {"state": {"target": [], "time": []}, "edge": {"target": [], "time": []}}, "mouseover": {"state": {"target": [], "time": []}, "edge": {"target": [], "time": []}}, "mouseout": {"state": {"target": ["5", "5", "0"], "time": [438, 541, 789]}, "edge": {"target": [], "time": []}}}, "displayed_time": "9.78", "trialTime": 10220, "trial_type": "mouselab-mdp", "trial_index": 48, "time_elapsed": 733864, "internal_node_id": "0.0-4.0-3.0-8.0"}}, {"uniqueid": "w42680274:a81052353", "current_trial": 49, "dateTime": 1664465667718, "trialdata": {"revealed_states": [], "num_clicks_accrued": [0, 0, 0, 0, 0, 0, 0, 0, 0, 0, 0, 0, 0], "stateRewards": ["", -2, -8, 48, 24, 2, 4, 24, -24, -2, -4, 48, -48], "withholdReward": true, "trial_id": "mdp_411152402386", "block": "test2", "trialIndex": 41, "score": -49, "costs": 0, "simulationMode": [null, null, null], "rewards": [-2, -4, -48], "path": ["0", "0", "9", "10", "12"], "rt": [1196, 179, 157], "actions": ["left", "left", "down"], "actionTimes": [2109, 2789, 3445], "queries": {"click": {"state": {"target": [], "time": []}, "edge": {"target": [], "time": []}}, "mouseover": {"state": {"target": ["0"], "time": [1118]}, "edge": {"target": [], "time": []}}, "mouseout": {"state": {"target": ["0", "0"], "time": [878, 1282]}, "edge": {"target": [], "time": []}}}, "displayed_time": "9.91", "trialTime": 10389, "trial_type": "mouselab-mdp", "trial_index": 49, "time_elapsed": 744280, "internal_node_id": "0.0-4.0-3.0-9.0"}}, {"uniqueid": "w42680274:a81052353", "current_trial": 50, "dateTime": 1664465680310, "trialdata": {"revealed_states": [], "num_clicks_accrued": [0, 0, 0, 0, 0, 0, 0, 0, 0, 0, 0, 0, 0], "stateRewards": ["", 4, -4, 48, -48, 4, -4, 24, -24, 4, 8, -24, -48], "withholdReward": true, "trial_id": "mdp_433630527224", "block": "test2", "trialIndex": 42, "score": -19, "costs": 0, "simulationMode": [null, null, null], "rewards": [4, -4, -24], "path": ["0", "0", "5", "6", "8"], "rt": [923, 25, 35], "actions": ["right", "right", "down"], "actionTimes": [2155, 2683, 3227], "queries": {"click": {"state": {"target": [], "time": []}, "edge": {"target": [], "time": []}}, "mouseover": {"state": {"target": [], "time": []}, "edge": {"target": [], "time": []}}, "mouseout": {"state": {"target": ["0"], "time": [936]}, "edge": {"target": [], "time": []}}}, "displayed_time": "10.23", "trialTime": 12564, "trial_type": "mouselab-mdp", "trial_index": 50, "time_elapsed": 756872, "internal_node_id": "0.0-4.0-3.0-10.0"}}, {"uniqueid": "w42680274:a81052353", "current_trial": 51, "dateTime": 1664465690326, "trialdata": {"revealed_states": [], "num_clicks_accrued": [0, 0, 0, 0, 0, 0, 0, 0, 0, 0, 0, 0, 0], "stateRewards": ["", 2, 8, 48, 24, -4, 4, -48, 24, 2, 8, 48, 48], "withholdReward": true, "trial_id": "mdp_367344599162", "block": "test2", "trialIndex": 43, "score": 63, "costs": 0, "simulationMode": [null, null, null], "rewards": [2, 8, 48], "path": ["0", "0", "9", "10", "12"], "rt": [735, 147, 403], "actions": ["left", "left", "down"], "actionTimes": [2373, 3021, 3925], "queries": {"click": {"state": {"target": [], "time": []}, "edge": {"target": [], "time": []}}, "mouseover": {"state": {"target": [], "time": []}, "edge": {"target": [], "time": []}}, "mouseout": {"state": {"target": ["0", "0", "0", "5"], "time": [1079, 1212, 9800, 9861]}, "edge": {"target": [], "time": []}}}, "displayed_time": "9.64", "trialTime": 9989, "trial_type": "mouselab-mdp", "trial_index": 51, "time_elapsed": 766888, "internal_node_id": "0.0-4.0-3.0-11.0"}}, {"uniqueid": "w42680274:a81052353", "current_trial": 52, "dateTime": 1664465702390, "trialdata": {"revealed_states": [], "num_clicks_accrued": [0, 0, 0, 0, 0, 0, 0, 0, 0, 0, 0, 0, 0], "stateRewards": ["", 4, -4, 48, 24, 2, -8, 24, -48, -2, -4, -48, -48], "withholdReward": false, "trial_id": "mdp_655302318695", "block": "test2", "trialIndex": 44, "score": -49, "costs": 0, "simulationMode": [null, null, null], "rewards": [-2, -4, -48], "path": ["0", "0", "9", "10", "12"], "rt": [524, 884, 144], "actions": ["left", "left", "down"], "actionTimes": [1731, 3115, 3763], "queries": {"click": {"state": {"target": [], "time": []}, "edge": {"target": [], "time": []}}, "mouseover": {"state": {"target": [], "time": []}, "edge": {"target": [], "time": []}}, "mouseout": {"state": {"target": ["0"], "time": [10352]}, "edge": {"target": [], "time": []}}}, "displayed_time": "11.21", "trialTime": 12035, "trial_type": "mouselab-mdp", "trial_index": 52, "time_elapsed": 778952, "internal_node_id": "0.0-4.0-3.0-12.0"}}, {"uniqueid": "w42680274:a81052353", "current_trial": 53, "dateTime": 1664465712846, "trialdata": {"revealed_states": [], "num_clicks_accrued": [0, 0, 0, 0, 0, 0, 0, 0, 0, 0, 0, 0, 0], "stateRewards": ["", -2, -8, -24, -24, 4, -4, -48, 48, 2, 8, 48, -48], "withholdReward": true, "trial_id": "mdp_498095124548", "block": "test2", "trialIndex": 45, "score": 53, "costs": 0, "simulationMode": [null, null, null], "rewards": [4, -4, 48], "path": ["0", "0", "5", "6", "8"], "rt": [666, 197, 60], "actions": ["right", "right", "down"], "actionTimes": [1795, 2491, 3050], "queries": {"click": {"state": {"target": [], "time": []}, "edge": {"target": [], "time": []}}, "mouseover": {"state": {"target": [], "time": []}, "edge": {"target": [], "time": []}}, "mouseout": {"state": {"target": ["0"], "time": [9299]}, "edge": {"target": [], "time": []}}}, "displayed_time": "10.13", "trialTime": 10427, "trial_type": "mouselab-mdp", "trial_index": 53, "time_elapsed": 789408, "internal_node_id": "0.0-4.0-3.0-13.0"}}, {"uniqueid": "w42680274:a81052353", "current_trial": 54, "dateTime": 1664465723502, "trialdata": {"revealed_states": [], "num_clicks_accrued": [0, 0, 0, 0, 0, 0, 0, 0, 0, 0, 0, 0, 0], "stateRewards": ["", 2, -8, -24, 48, 4, -8, -24, -24, 2, 8, -24, 24], "withholdReward": true, "trial_id": "mdp_480787552818", "block": "test2", "trialIndex": 46, "score": 46.75, "costs": -0.25, "simulationMode": [null, null, null], "rewards": [2, -8, 48], "path": ["0", "0", "1", "2", "4"], "rt": [2696, 59, 112], "actions": ["up", "up", "left"], "actionTimes": [3283, 3843, 4459], "queries": {"click": {"state": {"target": ["1"], "time": [2269]}, "edge": {"target": [], "time": []}}, "mouseover": {"state": {"target": ["1"], "time": [850]}, "edge": {"target": [], "time": []}}, "mouseout": {"state": {"target": ["1"], "time": [2632]}, "edge": {"target": [], "time": []}}}, "displayed_time": "9.59", "trialTime": 10628, "trial_type": "mouselab-mdp", "trial_index": 54, "time_elapsed": 800064, "internal_node_id": "0.0-4.0-3.0-14.0"}}, {"uniqueid": "w42680274:a81052353", "current_trial": 55, "dateTime": 1664465742478, "trialdata": {"revealed_states": [], "num_clicks_accrued": [0, 0, 0, 0, 0, 0, 0, 0, 0, 0, 0, 0, 0], "stateRewards": ["", -2, 8, -48, 48, -4, -8, 24, 24, -2, -4, 48, -48], "withholdReward": false, "trial_id": "mdp_867247318592", "block": "test2", "trialIndex": 47, "score": -37, "costs": 0, "simulationMode": [null, null, null], "rewards": [-2, 8, -48], "path": ["0", "0", "1", "2", "3"], "rt": [1979, 290, 97], "actions": ["up", "up", "right"], "actionTimes": [3970, 4762, 5362], "queries": {"click": {"state": {"target": [], "time": []}, "edge": {"target": [], "time": []}}, "mouseover": {"state": {"target": [], "time": []}, "edge": {"target": [], "time": []}}, "mouseout": {"state": {"target": ["0", "3", "3", "1", "0"], "time": [17925, 17962, 18216, 18556, 18592]}, "edge": {"target": [], "time": []}}}, "displayed_time": "10.99", "trialTime": 18947, "trial_type": "mouselab-mdp", "trial_index": 55, "time_elapsed": 819040, "internal_node_id": "0.0-4.0-3.0-15.0"}}, {"uniqueid": "w42680274:a81052353", "current_trial": 56, "dateTime": 1664465752405, "trialdata": {"revealed_states": [], "num_clicks_accrued": [0, 0, 0, 0, 0, 0, 0, 0, 0, 0, 0, 0, 0], "stateRewards": ["", -2, 4, 24, 48, 2, 4, -48, -48, 2, 8, 48, -48], "withholdReward": false, "trial_id": "mdp_409609775558", "block": "test2", "trialIndex": 48, "score": 55, "costs": 0, "simulationMode": [null, null, null], "rewards": [-2, 4, 48], "path": ["0", "0", "1", "2", "4"], "rt": [496, 33, 461], "actions": ["up", "up", "left"], "actionTimes": [1786, 2322, 3290], "queries": {"click": {"state": {"target": [], "time": []}, "edge": {"target": [], "time": []}}, "mouseover": {"state": {"target": [], "time": []}, "edge": {"target": [], "time": []}}, "mouseout": {"state": {"target": ["0"], "time": [1040]}, "edge": {"target": [], "time": []}}}, "displayed_time": "9.30", "trialTime": 9898, "trial_type": "mouselab-mdp", "trial_index": 56, "time_elapsed": 828967, "internal_node_id": "0.0-4.0-3.0-16.0"}}, {"uniqueid": "w42680274:a81052353", "current_trial": 57, "dateTime": 1664465761917, "trialdata": {"revealed_states": [], "num_clicks_accrued": [0, 0, 0, 0, 0, 0, 0, 0, 0, 0, 0, 0, 0], "stateRewards": ["", 4, -8, -24, 48, -4, 8, -24, -48, -4, -4, 24, 48], "withholdReward": true, "trial_id": "mdp_282352776624", "block": "test2", "trialIndex": 49, "score": -39, "costs": 0, "simulationMode": [null, null, null], "rewards": [-4, 8, -48], "path": ["0", "0", "5", "6", "8"], "rt": [1030, 43, 98], "actions": ["right", "right", "down"], "actionTimes": [2019, 2563, 3163], "queries": {"click": {"state": {"target": [], "time": []}, "edge": {"target": [], "time": []}}, "mouseover": {"state": {"target": ["1"], "time": [1252]}, "edge": {"target": [], "time": []}}, "mouseout": {"state": {"target": ["0", "1", "1", "9", "1", "3"], "time": [828, 1288, 4095, 5155, 5604, 7950]}, "edge": {"target": [], "time": []}}}, "displayed_time": "8.99", "trialTime": 9483, "trial_type": "mouselab-mdp", "trial_index": 57, "time_elapsed": 838479, "internal_node_id": "0.0-4.0-3.0-17.0"}}, {"uniqueid": "w42680274:a81052353", "current_trial": 58, "dateTime": 1664465772237, "trialdata": {"revealed_states": [], "num_clicks_accrued": [0, 0, 0, 0, 0, 0, 0, 0, 0, 0, 0, 0, 0], "stateRewards": ["", -4, 4, 48, 24, -4, 4, -24, 48, -2, -8, 24, -48], "withholdReward": true, "trial_id": "mdp_261501605436", "block": "test2", "trialIndex": 50, "score": -53, "costs": 0, "simulationMode": [null, null, null], "rewards": [-2, -8, -48], "path": ["0", "0", "9", "10", "12"], "rt": [800, 40, 47], "actions": ["left", "left", "down"], "actionTimes": [1515, 2059, 2611], "queries": {"click": {"state": {"target": [], "time": []}, "edge": {"target": [], "time": []}}, "mouseover": {"state": {"target": ["5"], "time": [922]}, "edge": {"target": [], "time": []}}, "mouseout": {"state": {"target": ["5", "6", "8"], "time": [958, 8885, 9012]}, "edge": {"target": [], "time": []}}}, "displayed_time": "9.72", "trialTime": 10291, "trial_type": "mouselab-mdp", "trial_index": 58, "time_elapsed": 848799, "internal_node_id": "0.0-4.0-3.0-18.0"}}, {"uniqueid": "w42680274:a81052353", "current_trial": 59, "dateTime": 1664465782333, "trialdata": {"revealed_states": [], "num_clicks_accrued": [0, 0, 0, 0, 0, 0, 0, 0, 0, 0, 0, 0, 0], "stateRewards": ["", 4, -8, 48, -24, -4, 4, 24, 24, -2, -4, 24, 24], "withholdReward": false, "trial_id": "mdp_542168715839", "block": "test2", "trialIndex": 51, "score": -23, "costs": 0, "simulationMode": [null, null, null], "rewards": [4, -8, -24], "path": ["0", "0", "1", "2", "4"], "rt": [530, 23, 355], "actions": ["up", "up", "left"], "actionTimes": [1220, 1747, 2611], "queries": {"click": {"state": {"target": [], "time": []}, "edge": {"target": [], "time": []}}, "mouseover": {"state": {"target": [], "time": []}, "edge": {"target": [], "time": []}}, "mouseout": {"state": {"target": ["0", "0"], "time": [474, 699]}, "edge": {"target": [], "time": []}}}, "displayed_time": "9.69", "trialTime": 10067, "trial_type": "mouselab-mdp", "trial_index": 59, "time_elapsed": 858895, "internal_node_id": "0.0-4.0-3.0-19.0"}}, {"uniqueid": "w42680274:a81052353", "current_trial": 60, "dateTime": 1664465795597, "trialdata": {"revealed_states": [], "num_clicks_accrued": [0, 0, 0, 0, 0, 0, 0, 0, 0, 0, 0, 0, 0], "stateRewards": ["", 4, 4, -24, -48, -4, 4, -48, 24, 4, -8, -48, 48], "withholdReward": true, "trial_id": "mdp_566768794366", "block": "test2", "trialIndex": 52, "score": 29, "costs": 0, "simulationMode": [null, null, null], "rewards": [-4, 4, 24], "path": ["0", "0", "5", "6", "8"], "rt": [751, 257, 115], "actions": ["right", "right", "down"], "actionTimes": [3093, 3853, 4468], "queries": {"click": {"state": {"target": [], "time": []}, "edge": {"target": [], "time": []}}, "mouseover": {"state": {"target": [], "time": []}, "edge": {"target": [], "time": []}}, "mouseout": {"state": {"target": ["0"], "time": [1518]}, "edge": {"target": [], "time": []}}}, "displayed_time": "11.34", "trialTime": 13229, "trial_type": "mouselab-mdp", "trial_index": 60, "time_elapsed": 872159, "internal_node_id": "0.0-4.0-3.0-20.0"}}, {"uniqueid": "w42680274:a81052353", "current_trial": 61, "dateTime": 1664465806229, "trialdata": {"revealed_states": [], "num_clicks_accrued": [0, 0, 0, 0, 0, 0, 0, 0, 0, 0, 0, 0, 0], "stateRewards": ["", 4, -4, 48, 24, 2, 4, 24, -24, 2, 4, 24, 48], "withholdReward": true, "trial_id": "mdp_736351885282", "block": "test2", "trialIndex": 53, "score": 59, "costs": 0, "simulationMode": [null, null, null], "rewards": [2, 4, 48], "path": ["0", "0", "9", "10", "12"], "rt": [686, 45, 131], "actions": ["left", "left", "down"], "actionTimes": [2027, 2571, 3203], "queries": {"click": {"state": {"target": [], "time": []}, "edge": {"target": [], "time": []}}, "mouseover": {"state": {"target": [], "time": []}, "edge": {"target": [], "time": []}}, "mouseout": {"state": {"target": ["0", "5", "0", "0"], "time": [884, 1052, 1307, 4192]}, "edge": {"target": [], "time": []}}}, "displayed_time": "10.34", "trialTime": 10603, "trial_type": "mouselab-mdp", "trial_index": 61, "time_elapsed": 882791, "internal_node_id": "0.0-4.0-3.0-21.0"}}, {"uniqueid": "w42680274:a81052353", "current_trial": 62, "dateTime": 1664465816357, "trialdata": {"revealed_states": [], "num_clicks_accrued": [0, 0, 0, 0, 0, 0, 0, 0, 0, 0, 0, 0, 0], "stateRewards": ["", -4, -8, -24, 24, 4, 4, -48, -48, -4, -4, 24, -48], "withholdReward": true, "trial_id": "mdp_431592223624", "block": "test2", "trialIndex": 54, "score": 17, "costs": 0, "simulationMode": [null, null, null], "rewards": [-4, -8, 24], "path": ["0", "0", "1", "2", "4"], "rt": [452, 168, 128], "actions": ["up", "up", "left"], "actionTimes": [2075, 2747, 3379], "queries": {"click": {"state": {"target": [], "time": []}, "edge": {"target": [], "time": []}}, "mouseover": {"state": {"target": [], "time": []}, "edge": {"target": [], "time": []}}, "mouseout": {"state": {"target": ["0"], "time": [4472]}, "edge": {"target": [], "time": []}}}, "displayed_time": "9.62", "trialTime": 10099, "trial_type": "mouselab-mdp", "trial_index": 62, "time_elapsed": 892919, "internal_node_id": "0.0-4.0-3.0-22.0"}}, {"uniqueid": "w42680274:a81052353", "current_trial": 63, "dateTime": 1664465826509, "trialdata": {"revealed_states": [], "num_clicks_accrued": [0, 0, 0, 0, 0, 0, 0, 0, 0, 0, 0, 0, 0], "stateRewards": ["", -2, -4, -24, 48, -2, -8, -48, -24, 4, 8, 48, 24], "withholdReward": true, "trial_id": "mdp_625355871626", "block": "test2", "trialIndex": 55, "score": -29, "costs": 0, "simulationMode": [null, null, null], "rewards": [-2, -8, -24], "path": ["0", "0", "5", "6", "8"], "rt": [768, 2, 150], "actions": ["right", "right", "down"], "actionTimes": [1554, 2057, 2714], "queries": {"click": {"state": {"target": [], "time": []}, "edge": {"target": [], "time": []}}, "mouseover": {"state": {"target": [], "time": []}, "edge": {"target": [], "time": []}}, "mouseout": {"state": {"target": ["0", "0", "9", "9", "0", "5", "5"], "time": [539, 4248, 4733, 7763, 7794, 9103, 9872]}, "edge": {"target": [], "time": []}}}, "displayed_time": "9.79", "trialTime": 10122, "trial_type": "mouselab-mdp", "trial_index": 63, "time_elapsed": 903071, "internal_node_id": "0.0-4.0-3.0-23.0"}}, {"uniqueid": "w42680274:a81052353", "current_trial": 64, "dateTime": 1664465835189, "trialdata": {"revealed_states": [], "num_clicks_accrued": [0, 0, 0, 0, 0, 0, 0, 0, 0, 0, 0, 0, 0], "stateRewards": ["", -4, -4, -24, 24, -4, 4, -24, 48, -2, 4, 48, -48], "withholdReward": true, "trial_id": "mdp_774757609669", "block": "test2", "trialIndex": 56, "score": 21, "costs": 0, "simulationMode": [null, null, null], "rewards": [-4, -4, 24], "path": ["0", "0", "1", "2", "4"], "rt": [661, 59, 512], "actions": ["up", "up", "left"], "actionTimes": [1200, 1760, 2776], "queries": {"click": {"state": {"target": [], "time": []}, "edge": {"target": [], "time": []}}, "mouseover": {"state": {"target": [], "time": []}, "edge": {"target": [], "time": []}}, "mouseout": {"state": {"target": ["0", "0", "7"], "time": [718, 3500, 3596]}, "edge": {"target": [], "time": []}}}, "displayed_time": "8.54", "trialTime": 8648, "trial_type": "mouselab-mdp", "trial_index": 64, "time_elapsed": 911751, "internal_node_id": "0.0-4.0-3.0-24.0"}}, {"uniqueid": "w42680274:a81052353", "current_trial": 65, "dateTime": 1664465845078, "trialdata": {"revealed_states": [], "num_clicks_accrued": [0, 0, 0, 0, 0, 0, 0, 0, 0, 0, 0, 0, 0], "stateRewards": ["", 2, 8, 24, -48, 4, 8, 24, 48, 2, -8, -24, 24], "withholdReward": false, "trial_id": "mdp_939899431582", "block": "test2", "trialIndex": 57, "score": 39, "costs": 0, "simulationMode": [null, null, null], "rewards": [2, 8, 24], "path": ["0", "0", "1", "2", "3"], "rt": [467, 137, 325], "actions": ["up", "up", "right"], "actionTimes": [1939, 2580, 3404], "queries": {"click": {"state": {"target": [], "time": []}, "edge": {"target": [], "time": []}}, "mouseover": {"state": {"target": [], "time": []}, "edge": {"target": [], "time": []}}, "mouseout": {"state": {"target": ["7", "0"], "time": [1175, 1569]}, "edge": {"target": [], "time": []}}}, "displayed_time": "9.47", "trialTime": 9859, "trial_type": "mouselab-mdp", "trial_index": 65, "time_elapsed": 921639, "internal_node_id": "0.0-4.0-3.0-25.0"}}, {"uniqueid": "w42680274:a81052353", "current_trial": 66, "dateTime": 1664465855814, "trialdata": {"revealed_states": [], "num_clicks_accrued": [0, 0, 0, 0, 0, 0, 0, 0, 0, 0, 0, 0, 0], "stateRewards": ["", -2, 8, 48, 48, 4, -8, -48, 48, 2, -4, -48, 48], "withholdReward": false, "trial_id": "mdp_132958048709", "block": "test2", "trialIndex": 58, "score": 49, "costs": 0, "simulationMode": [null, null, null], "rewards": [4, -8, 48], "path": ["0", "0", "5", "6", "8"], "rt": [985, 246, 125], "actions": ["right", "right", "down"], "actionTimes": [2563, 3315, 3939], "queries": {"click": {"state": {"target": [], "time": []}, "edge": {"target": [], "time": []}}, "mouseover": {"state": {"target": [], "time": []}, "edge": {"target": [], "time": []}}, "mouseout": {"state": {"target": ["0"], "time": [1292]}, "edge": {"target": [], "time": []}}}, "displayed_time": "10.58", "trialTime": 10707, "trial_type": "mouselab-mdp", "trial_index": 66, "time_elapsed": 932376, "internal_node_id": "0.0-4.0-3.0-26.0"}}, {"uniqueid": "w42680274:a81052353", "current_trial": 67, "dateTime": 1664465866886, "trialdata": {"revealed_states": [], "num_clicks_accrued": [0, 0, 0, 0, 0, 0, 0, 0, 0, 0, 0, 0, 0], "stateRewards": ["", -4, -8, 48, -48, 2, -4, 48, -24, 2, -8, -48, -48], "withholdReward": true, "trial_id": "mdp_624553692913", "block": "test2", "trialIndex": 59, "score": -21, "costs": 0, "simulationMode": [null, null, null], "rewards": [2, -4, -24], "path": ["0", "0", "5", "6", "8"], "rt": [912, 129, 106], "actions": ["right", "right", "down"], "actionTimes": [2460, 3092, 3700], "queries": {"click": {"state": {"target": [], "time": []}, "edge": {"target": [], "time": []}}, "mouseover": {"state": {"target": [], "time": []}, "edge": {"target": [], "time": []}}, "mouseout": {"state": {"target": ["0"], "time": [1361]}, "edge": {"target": [], "time": []}}}, "displayed_time": "10.55", "trialTime": 11044, "trial_type": "mouselab-mdp", "trial_index": 67, "time_elapsed": 943448, "internal_node_id": "0.0-4.0-3.0-27.0"}}, {"uniqueid": "w42680274:a81052353", "current_trial": 68, "dateTime": 1664465876574, "trialdata": {"revealed_states": [], "num_clicks_accrued": [0, 0, 0, 0, 0, 0, 0, 0, 0, 0, 0, 0, 0], "stateRewards": ["", -4, -4, -24, -48, -4, 8, -24, -48, 4, -8, 24, -24], "withholdReward": true, "trial_id": "mdp_924927483179", "block": "test2", "trialIndex": 60, "score": -23, "costs": 0, "simulationMode": [null, null, null], "rewards": [4, -8, -24], "path": ["0", "0", "9", "10", "12"], "rt": [1142, 51, 187], "actions": ["left", "left", "down"], "actionTimes": [2192, 2744, 3431], "queries": {"click": {"state": {"target": [], "time": []}, "edge": {"target": [], "time": []}}, "mouseover": {"state": {"target": [], "time": []}, "edge": {"target": [], "time": []}}, "mouseout": {"state": {"target": ["0"], "time": [991]}, "edge": {"target": [], "time": []}}}, "displayed_time": "9.05", "trialTime": 9656, "trial_type": "mouselab-mdp", "trial_index": 68, "time_elapsed": 953136, "internal_node_id": "0.0-4.0-3.0-28.0"}}, {"uniqueid": "w42680274:a81052353", "current_trial": 69, "dateTime": 1664465886694, "trialdata": {"revealed_states": [], "num_clicks_accrued": [0, 0, 0, 0, 0, 0, 0, 0, 0, 0, 0, 0, 0], "stateRewards": ["", 4, -8, 48, 24, 4, -4, 48, 48, -4, 8, -48, 24], "withholdReward": true, "trial_id": "mdp_303828806348", "block": "test2", "trialIndex": 61, "score": -39, "costs": 0, "simulationMode": [null, null, null], "rewards": [-4, 8, -48], "path": ["0", "0", "9", "10", "11"], "rt": [641, 236, 241], "actions": ["left", "left", "up"], "actionTimes": [1562, 2299, 3043], "queries": {"click": {"state": {"target": [], "time": []}, "edge": {"target": [], "time": []}}, "mouseover": {"state": {"target": [], "time": []}, "edge": {"target": [], "time": []}}, "mouseout": {"state": {"target": ["0"], "time": [902]}, "edge": {"target": [], "time": []}}}, "displayed_time": "8.92", "trialTime": 10090, "trial_type": "mouselab-mdp", "trial_index": 69, "time_elapsed": 963256, "internal_node_id": "0.0-4.0-3.0-29.0"}}, {"uniqueid": "w42680274:a81052353", "current_trial": 70, "dateTime": 1664466048087, "trialdata": {"rt": 161391, "stimulus": "<h1> End of block! </h1>\n\nYou have reached the end of the block 2/4. If you need a short break, feel free to take one now before moving on.\n\n<br><br>\nIn the next block, you will complete another 30 rounds of this game.\n\n<br><br>\n<div style='text-align: center;'>Press <code>space</code> to begin.</div>\n<br><br>\n<div style='text-align: center;'>(If the experiment doesn't continue, try clicking on the text and then pressing <code>space</code>.)</div>", "response": " ", "trial_id": "mdp_ready_3", "trial_type": "html-keyboard-response", "trial_index": 70, "time_elapsed": 1124649, "internal_node_id": "0.0-4.0-4.0"}}, {"uniqueid": "w42680274:a81052353", "current_trial": 71, "dateTime": 1664466062966, "trialdata": {"revealed_states": [], "num_clicks_accrued": [0, 0, 0, 0, 0, 0, 0, 0, 0, 0, 0, 0, 0], "stateRewards": ["", 2, -4, -24, -24, -2, -8, -48, 24, -4, -8, 24, 24], "withholdReward": false, "trial_id": "mdp_521351546461", "block": "test3", "trialIndex": 62, "score": -21, "costs": 0, "simulationMode": [null, null, null], "rewards": [2, -4, -24], "path": ["0", "0", "1", "2", "4"], "rt": [704, 253, 132], "actions": ["up", "up", "left"], "actionTimes": [3697, 4450, 5081], "queries": {"click": {"state": {"target": [], "time": []}, "edge": {"target": [], "time": []}}, "mouseover": {"state": {"target": [], "time": []}, "edge": {"target": [], "time": []}}, "mouseout": {"state": {"target": ["0", "0"], "time": [2728, 5821]}, "edge": {"target": [], "time": []}}}, "displayed_time": "10.99", "trialTime": 14849, "trial_type": "mouselab-mdp", "trial_index": 71, "time_elapsed": 1139528, "internal_node_id": "0.0-4.0-5.0-0.0"}}, {"uniqueid": "w42680274:a81052353", "current_trial": 72, "dateTime": 1664466073678, "trialdata": {"revealed_states": [], "num_clicks_accrued": [0, 0, 0, 0, 0, 0, 0, 0, 0, 0, 0, 0, 0], "stateRewards": ["", -4, 8, 48, -48, 2, -4, 24, -24, -2, 4, -24, -24], "withholdReward": false, "trial_id": "mdp_804988042722", "block": "test3", "trialIndex": 63, "score": 57, "costs": 0, "simulationMode": [null, null, null], "rewards": [-4, 8, 48], "path": ["0", "0", "1", "2", "3"], "rt": [492, 1124, 68], "actions": ["up", "up", "right"], "actionTimes": [2835, 4460, 5028], "queries": {"click": {"state": {"target": [], "time": []}, "edge": {"target": [], "time": []}}, "mouseover": {"state": {"target": [], "time": []}, "edge": {"target": [], "time": []}}, "mouseout": {"state": {"target": ["6", "6", "5", "0", "0", "8"], "time": [1632, 2184, 2214, 2451, 5663, 8032]}, "edge": {"target": [], "time": []}}}, "displayed_time": "10.35", "trialTime": 10676, "trial_type": "mouselab-mdp", "trial_index": 72, "time_elapsed": 1150240, "internal_node_id": "0.0-4.0-5.0-1.0"}}, {"uniqueid": "w42680274:a81052353", "current_trial": 73, "dateTime": 1664466086214, "trialdata": {"revealed_states": [], "num_clicks_accrued": [0, 0, 0, 0, 0, 0, 0, 0, 0, 0, 0, 0, 0], "stateRewards": ["", -2, 8, 48, 24, 2, -8, -24, -48, -4, 8, -48, 24], "withholdReward": false, "trial_id": "mdp_224053025943", "block": "test3", "trialIndex": 64, "score": -49, "costs": 0, "simulationMode": [null, null, null], "rewards": [2, -8, -48], "path": ["0", "0", "5", "6", "8"], "rt": [1048, 81, 139], "actions": ["right", "right", "down"], "actionTimes": [5267, 5851, 6491], "queries": {"click": {"state": {"target": [], "time": []}, "edge": {"target": [], "time": []}}, "mouseover": {"state": {"target": [], "time": []}, "edge": {"target": [], "time": []}}, "mouseout": {"state": {"target": ["0", "5", "0"], "time": [7376, 7430, 7460]}, "edge": {"target": [], "time": []}}}, "displayed_time": "12.22", "trialTime": 12507, "trial_type": "mouselab-mdp", "trial_index": 73, "time_elapsed": 1162776, "internal_node_id": "0.0-4.0-5.0-2.0"}}, {"uniqueid": "w42680274:a81052353", "current_trial": 74, "dateTime": 1664466096270, "trialdata": {"revealed_states": [], "num_clicks_accrued": [0, 0, 0, 0, 0, 0, 0, 0, 0, 0, 0, 0, 0], "stateRewards": ["", -4, -8, -48, 48, -2, -8, -48, -24, 4, 8, 24, -48], "withholdReward": true, "trial_id": "mdp_509977295685", "block": "test3", "trialIndex": 65, "score": -31, "costs": 0, "simulationMode": [null, null, null], "rewards": [4, 8, -48], "path": ["0", "0", "9", "10", "12"], "rt": [712, 154, 27], "actions": ["left", "left", "down"], "actionTimes": [1458, 2114, 2641], "queries": {"click": {"state": {"target": [], "time": []}, "edge": {"target": [], "time": []}}, "mouseover": {"state": {"target": ["0"], "time": [960]}, "edge": {"target": [], "time": []}}, "mouseout": {"state": {"target": ["0"], "time": [3596]}, "edge": {"target": [], "time": []}}}, "displayed_time": "9.75", "trialTime": 10026, "trial_type": "mouselab-mdp", "trial_index": 74, "time_elapsed": 1172832, "internal_node_id": "0.0-4.0-5.0-3.0"}}, {"uniqueid": "w42680274:a81052353", "current_trial": 75, "dateTime": 1664466106158, "trialdata": {"revealed_states": [], "num_clicks_accrued": [0, 0, 0, 0, 0, 0, 0, 0, 0, 0, 0, 0, 0], "stateRewards": ["", -2, 8, 48, 48, 4, -8, -48, 48, 2, -4, -48, 48], "withholdReward": true, "trial_id": "mdp_132958048709", "block": "test3", "trialIndex": 66, "score": 58.75, "costs": -0.25, "simulationMode": [null, null, null], "rewards": [-2, 8, 48], "path": ["0", "0", "1", "2", "3"], "rt": [1062, 96, 103], "actions": ["up", "up", "right"], "actionTimes": [2641, 3241, 3848], "queries": {"click": {"state": {"target": ["2"], "time": [2069]}, "edge": {"target": [], "time": []}}, "mouseover": {"state": {"target": ["1", "2"], "time": [1823, 1884]}, "edge": {"target": [], "time": []}}, "mouseout": {"state": {"target": ["0", "1", "2", "7", "5", "0", "12", "12"], "time": [1490, 1860, 4538, 4635, 4653, 4666, 4702, 5047]}, "edge": {"target": [], "time": []}}}, "displayed_time": "9.58", "trialTime": 9857, "trial_type": "mouselab-mdp", "trial_index": 75, "time_elapsed": 1182720, "internal_node_id": "0.0-4.0-5.0-4.0"}}, {"uniqueid": "w42680274:a81052353", "current_trial": 76, "dateTime": 1664466116918, "trialdata": {"revealed_states": [], "num_clicks_accrued": [0, 0, 0, 0, 0, 0, 0, 0, 0, 0, 0, 0, 0], "stateRewards": ["", -2, 8, 24, -48, -4, -8, -24, -48, -4, 8, -24, 48], "withholdReward": true, "trial_id": "mdp_464339499860", "block": "test3", "trialIndex": 67, "score": -15, "costs": 0, "simulationMode": [null, null, null], "rewards": [-4, 8, -24], "path": ["0", "0", "9", "10", "11"], "rt": [1406, 2, 75], "actions": ["left", "left", "up"], "actionTimes": [2760, 3281, 3864], "queries": {"click": {"state": {"target": [], "time": []}, "edge": {"target": [], "time": []}}, "mouseover": {"state": {"target": ["9"], "time": [2055]}, "edge": {"target": [], "time": []}}, "mouseout": {"state": {"target": ["0", "9"], "time": [1194, 10534]}, "edge": {"target": [], "time": []}}}, "displayed_time": "10.36", "trialTime": 10728, "trial_type": "mouselab-mdp", "trial_index": 76, "time_elapsed": 1193480, "internal_node_id": "0.0-4.0-5.0-5.0"}}, {"uniqueid": "w42680274:a81052353", "current_trial": 77, "dateTime": 1664466125950, "trialdata": {"revealed_states": [], "num_clicks_accrued": [0, 0, 0, 0, 0, 0, 0, 0, 0, 0, 0, 0, 0], "stateRewards": ["", 4, -8, -24, 24, 2, -4, 24, 24, 2, -4, 48, 48], "withholdReward": true, "trial_id": "mdp_457607480918", "block": "test3", "trialIndex": 68, "score": 27, "costs": 0, "simulationMode": [null, null, null], "rewards": [2, -4, 24], "path": ["0", "0", "5", "6", "8"], "rt": [782, 91, 169], "actions": ["right", "right", "down"], "actionTimes": [1328, 1920, 2592], "queries": {"click": {"state": {"target": [], "time": []}, "edge": {"target": [], "time": []}}, "mouseover": {"state": {"target": [], "time": []}, "edge": {"target": [], "time": []}}, "mouseout": {"state": {"target": ["0", "5", "5", "9", "10", "12", "5", "6"], "time": [3683, 3725, 3810, 4550, 6065, 6568, 7040, 7131]}, "edge": {"target": [], "time": []}}}, "displayed_time": "8.55", "trialTime": 9000, "trial_type": "mouselab-mdp", "trial_index": 77, "time_elapsed": 1202512, "internal_node_id": "0.0-4.0-5.0-6.0"}}, {"uniqueid": "w42680274:a81052353", "current_trial": 78, "dateTime": 1664466136103, "trialdata": {"revealed_states": [], "num_clicks_accrued": [0, 0, 0, 0, 0, 0, 0, 0, 0, 0, 0, 0, 0], "stateRewards": ["", -2, 8, -48, 48, 4, -8, -48, 48, 4, -4, -24, 48], "withholdReward": true, "trial_id": "mdp_144739116828", "block": "test3", "trialIndex": 69, "score": 53, "costs": 0, "simulationMode": [null, null, null], "rewards": [4, -4, 48], "path": ["0", "0", "9", "10", "12"], "rt": [536, 75, 275], "actions": ["left", "left", "down"], "actionTimes": [1298, 1873, 2648], "queries": {"click": {"state": {"target": [], "time": []}, "edge": {"target": [], "time": []}}, "mouseover": {"state": {"target": ["0"], "time": [769]}, "edge": {"target": [], "time": []}}, "mouseout": {"state": {"target": ["0", "0", "12"], "time": [693, 3670, 3785]}, "edge": {"target": [], "time": []}}}, "displayed_time": "9.76", "trialTime": 10121, "trial_type": "mouselab-mdp", "trial_index": 78, "time_elapsed": 1212664, "internal_node_id": "0.0-4.0-5.0-7.0"}}, {"uniqueid": "w42680274:a81052353", "current_trial": 79, "dateTime": 1664466146030, "trialdata": {"revealed_states": [], "num_clicks_accrued": [0, 0, 0, 0, 0, 0, 0, 0, 0, 0, 0, 0, 0], "stateRewards": ["", 2, 8, -48, 24, -2, 4, 48, 48, -2, -8, 48, 24], "withholdReward": true, "trial_id": "mdp_157355418411", "block": "test3", "trialIndex": 70, "score": -33, "costs": 0, "simulationMode": [null, null, null], "rewards": [2, 8, -48], "path": ["0", "0", "1", "2", "3"], "rt": [579, 47, 147], "actions": ["up", "up", "right"], "actionTimes": [1154, 1705, 2361], "queries": {"click": {"state": {"target": [], "time": []}, "edge": {"target": [], "time": []}}, "mouseover": {"state": {"target": [], "time": []}, "edge": {"target": [], "time": []}}, "mouseout": {"state": {"target": ["0", "0"], "time": [693, 3287]}, "edge": {"target": [], "time": []}}}, "displayed_time": "9.58", "trialTime": 9897, "trial_type": "mouselab-mdp", "trial_index": 79, "time_elapsed": 1222592, "internal_node_id": "0.0-4.0-5.0-8.0"}}, {"uniqueid": "w42680274:a81052353", "current_trial": 80, "dateTime": 1664466156687, "trialdata": {"revealed_states": [], "num_clicks_accrued": [0, 0, 0, 0, 0, 0, 0, 0, 0, 0, 0, 0, 0], "stateRewards": ["", 2, 8, -48, 24, -4, 8, 48, -24, 2, 8, 24, 24], "withholdReward": false, "trial_id": "mdp_175372499314", "block": "test3", "trialIndex": 71, "score": 39, "costs": 0, "simulationMode": [null, null, null], "rewards": [2, 8, 24], "path": ["0", "0", "9", "10", "12"], "rt": [602, 19, 148], "actions": ["left", "left", "down"], "actionTimes": [1690, 2208, 2865], "queries": {"click": {"state": {"target": [], "time": []}, "edge": {"target": [], "time": []}}, "mouseover": {"state": {"target": [], "time": []}, "edge": {"target": [], "time": []}}, "mouseout": {"state": {"target": ["0", "0", "9", "9", "9"], "time": [983, 3538, 3904, 4189, 4965]}, "edge": {"target": [], "time": []}}}, "displayed_time": "10.09", "trialTime": 10625, "trial_type": "mouselab-mdp", "trial_index": 80, "time_elapsed": 1233248, "internal_node_id": "0.0-4.0-5.0-9.0"}}, {"uniqueid": "w42680274:a81052353", "current_trial": 81, "dateTime": 1664466167183, "trialdata": {"revealed_states": [], "num_clicks_accrued": [0, 0, 0, 0, 0, 0, 0, 0, 0, 0, 0, 0, 0], "stateRewards": ["", -2, -8, -24, -24, 4, -4, -48, 48, 2, 8, 48, -48], "withholdReward": true, "trial_id": "mdp_498095124548", "block": "test3", "trialIndex": 72, "score": -33, "costs": 0, "simulationMode": [null, null, null], "rewards": [2, 8, -48], "path": ["0", "0", "9", "10", "12"], "rt": [412, 73, 33], "actions": ["left", "left", "down"], "actionTimes": [1446, 2020, 2557], "queries": {"click": {"state": {"target": [], "time": []}, "edge": {"target": [], "time": []}}, "mouseover": {"state": {"target": [], "time": []}, "edge": {"target": [], "time": []}}, "mouseout": {"state": {"target": ["0", "0", "5", "6", "8", "0", "1", "4", "1", "0", "9"], "time": [668, 3244, 3280, 3293, 3341, 9650, 9692, 9789, 10161, 10286, 10322]}, "edge": {"target": [], "time": []}}}, "displayed_time": "10.03", "trialTime": 10461, "trial_type": "mouselab-mdp", "trial_index": 81, "time_elapsed": 1243744, "internal_node_id": "0.0-4.0-5.0-10.0"}}, {"uniqueid": "w42680274:a81052353", "current_trial": 82, "dateTime": 1664466176525, "trialdata": {"revealed_states": [], "num_clicks_accrued": [0, 0, 0, 0, 0, 0, 0, 0, 0, 0, 0, 0, 0], "stateRewards": ["", -2, 4, -48, -48, 4, 4, 48, -48, 2, 8, 24, 48], "withholdReward": true, "trial_id": "mdp_686771069745", "block": "test3", "trialIndex": 73, "score": -41, "costs": 0, "simulationMode": [null, null, null], "rewards": [-2, 4, -48], "path": ["0", "0", "1", "2", "3"], "rt": [355, 20, 85], "actions": ["up", "up", "right"], "actionTimes": [1086, 1605, 2198], "queries": {"click": {"state": {"target": [], "time": []}, "edge": {"target": [], "time": []}}, "mouseover": {"state": {"target": [], "time": []}, "edge": {"target": [], "time": []}}, "mouseout": {"state": {"target": ["0", "9", "0"], "time": [3100, 6815, 8912]}, "edge": {"target": [], "time": []}}}, "displayed_time": "8.73", "trialTime": 9309, "trial_type": "mouselab-mdp", "trial_index": 82, "time_elapsed": 1253087, "internal_node_id": "0.0-4.0-5.0-11.0"}}, {"uniqueid": "w42680274:a81052353", "current_trial": 83, "dateTime": 1664466186574, "trialdata": {"revealed_states": [], "num_clicks_accrued": [0, 0, 0, 0, 0, 0, 0, 0, 0, 0, 0, 0, 0], "stateRewards": ["", 4, 4, 24, -24, -4, -8, 48, -24, 4, 4, 48, 24], "withholdReward": true, "trial_id": "mdp_822446942217", "block": "test3", "trialIndex": 74, "score": -31, "costs": 0, "simulationMode": [null, null, null], "rewards": [-4, -8, -24], "path": ["0", "0", "5", "6", "8"], "rt": [677, 28, 221], "actions": ["right", "right", "down"], "actionTimes": [1241, 1769, 2489], "queries": {"click": {"state": {"target": [], "time": []}, "edge": {"target": [], "time": []}}, "mouseover": {"state": {"target": [], "time": []}, "edge": {"target": [], "time": []}}, "mouseout": {"state": {"target": ["0", "0", "0", "0"], "time": [568, 3328, 6092, 8140]}, "edge": {"target": [], "time": []}}}, "displayed_time": "9.56", "trialTime": 10016, "trial_type": "mouselab-mdp", "trial_index": 83, "time_elapsed": 1263135, "internal_node_id": "0.0-4.0-5.0-12.0"}}, {"uniqueid": "w42680274:a81052353", "current_trial": 84, "dateTime": 1664466196821, "trialdata": {"revealed_states": [], "num_clicks_accrued": [0, 0, 0, 0, 0, 0, 0, 0, 0, 0, 0, 0, 0], "stateRewards": ["", 2, 8, -24, -48, 2, 4, -24, 48, 2, -8, 48, -24], "withholdReward": true, "trial_id": "mdp_791659307216", "block": "test3", "trialIndex": 75, "score": -25, "costs": 0, "simulationMode": [null, null, null], "rewards": [2, -8, -24], "path": ["0", "0", "9", "10", "12"], "rt": [871, 200, 177], "actions": ["left", "left", "down"], "actionTimes": [1753, 2456, 3136], "queries": {"click": {"state": {"target": [], "time": []}, "edge": {"target": [], "time": []}}, "mouseover": {"state": {"target": [], "time": []}, "edge": {"target": [], "time": []}}, "mouseout": {"state": {"target": ["0", "0", "1", "1", "9", "0", "8", "8"], "time": [430, 3885, 3921, 4333, 6158, 6176, 6267, 6527]}, "edge": {"target": [], "time": []}}}, "displayed_time": "9.88", "trialTime": 10215, "trial_type": "mouselab-mdp", "trial_index": 84, "time_elapsed": 1273383, "internal_node_id": "0.0-4.0-5.0-13.0"}}, {"uniqueid": "w42680274:a81052353", "current_trial": 85, "dateTime": 1664466205750, "trialdata": {"revealed_states": [], "num_clicks_accrued": [0, 0, 0, 0, 0, 0, 0, 0, 0, 0, 0, 0, 0], "stateRewards": ["", -4, 4, 48, 24, -4, 4, -24, 48, -2, -8, 24, -48], "withholdReward": false, "trial_id": "mdp_261501605436", "block": "test3", "trialIndex": 76, "score": 29, "costs": 0, "simulationMode": [null, null, null], "rewards": [-4, 4, 24], "path": ["0", "0", "1", "2", "4"], "rt": [468, 109, 176], "actions": ["up", "up", "left"], "actionTimes": [969, 1578, 2258], "queries": {"click": {"state": {"target": [], "time": []}, "edge": {"target": [], "time": []}}, "mouseover": {"state": {"target": [], "time": []}, "edge": {"target": [], "time": []}}, "mouseout": {"state": {"target": ["0"], "time": [6578]}, "edge": {"target": [], "time": []}}}, "displayed_time": "8.50", "trialTime": 8897, "trial_type": "mouselab-mdp", "trial_index": 85, "time_elapsed": 1282312, "internal_node_id": "0.0-4.0-5.0-14.0"}}, {"uniqueid": "w42680274:a81052353", "current_trial": 86, "dateTime": 1664466217158, "trialdata": {"revealed_states": [], "num_clicks_accrued": [0, 0, 0, 0, 0, 0, 0, 0, 0, 0, 0, 0, 0], "stateRewards": ["", -4, -8, -48, -48, 4, -8, 48, 48, 2, 8, 48, 24], "withholdReward": true, "trial_id": "mdp_880437222492", "block": "test3", "trialIndex": 77, "score": 39, "costs": 0, "simulationMode": [null, null, null], "rewards": [2, 8, 24], "path": ["0", "0", "9", "10", "12"], "rt": [507, 2643, 193], "actions": ["left", "left", "down"], "actionTimes": [1806, 4951, 5646], "queries": {"click": {"state": {"target": [], "time": []}, "edge": {"target": [], "time": []}}, "mouseover": {"state": {"target": ["0"], "time": [1429]}, "edge": {"target": [], "time": []}}, "mouseout": {"state": {"target": ["0", "0", "10", "10", "9"], "time": [1306, 3198, 3271, 10713, 10744]}, "edge": {"target": [], "time": []}}}, "displayed_time": "10.30", "trialTime": 11375, "trial_type": "mouselab-mdp", "trial_index": 86, "time_elapsed": 1293720, "internal_node_id": "0.0-4.0-5.0-15.0"}}, {"uniqueid": "w42680274:a81052353", "current_trial": 87, "dateTime": 1664466231719, "trialdata": {"revealed_states": [], "num_clicks_accrued": [0, 0, 0, 0, 0, 0, 0, 0, 0, 0, 0, 0, 0], "stateRewards": ["", -2, 4, -24, 24, -4, -8, 24, -48, -4, -4, -48, -24], "withholdReward": true, "trial_id": "mdp_753137520419", "block": "test3", "trialIndex": 78, "score": -55, "costs": 0, "simulationMode": [null, null, null], "rewards": [-4, -8, -48], "path": ["0", "0", "5", "6", "8"], "rt": [886, 19, 84], "actions": ["right", "right", "down"], "actionTimes": [2753, 3273, 3866], "queries": {"click": {"state": {"target": [], "time": []}, "edge": {"target": [], "time": []}}, "mouseover": {"state": {"target": [], "time": []}, "edge": {"target": [], "time": []}}, "mouseout": {"state": {"target": ["0", "0"], "time": [4738, 5872]}, "edge": {"target": [], "time": []}}}, "displayed_time": "13.87", "trialTime": 14530, "trial_type": "mouselab-mdp", "trial_index": 87, "time_elapsed": 1308281, "internal_node_id": "0.0-4.0-5.0-16.0"}}, {"uniqueid": "w42680274:a81052353", "current_trial": 88, "dateTime": 1664466241759, "trialdata": {"revealed_states": [], "num_clicks_accrued": [0, 0, 0, 0, 0, 0, 0, 0, 0, 0, 0, 0, 0], "stateRewards": ["", 2, -8, 48, -24, 2, -4, 24, 48, 4, -4, 48, -24], "withholdReward": false, "trial_id": "mdp_656500928756", "block": "test3", "trialIndex": 79, "score": 47, "costs": 0, "simulationMode": [null, null, null], "rewards": [2, -8, 48], "path": ["0", "0", "1", "2", "3"], "rt": [791, 145, 177], "actions": ["up", "up", "right"], "actionTimes": [2503, 3151, 3831], "queries": {"click": {"state": {"target": [], "time": []}, "edge": {"target": [], "time": []}}, "mouseover": {"state": {"target": [], "time": []}, "edge": {"target": [], "time": []}}, "mouseout": {"state": {"target": ["0", "0"], "time": [4669, 4756]}, "edge": {"target": [], "time": []}}}, "displayed_time": "9.71", "trialTime": 10007, "trial_type": "mouselab-mdp", "trial_index": 88, "time_elapsed": 1318321, "internal_node_id": "0.0-4.0-5.0-17.0"}}, {"uniqueid": "w42680274:a81052353", "current_trial": 89, "dateTime": 1664466252896, "trialdata": {"revealed_states": [], "num_clicks_accrued": [0, 0, 0, 0, 0, 0, 0, 0, 0, 0, 0, 0, 0], "stateRewards": ["", -4, -4, 48, 24, -4, -4, -24, -48, -4, 4, 48, -24], "withholdReward": true, "trial_id": "mdp_896503755738", "block": "test3", "trialIndex": 80, "score": 51.5, "costs": -1.5, "simulationMode": [null, null, null], "rewards": [-4, 4, 48], "path": ["0", "0", "9", "10", "11"], "rt": [7569, 159, 42], "actions": ["left", "left", "up"], "actionTimes": [8481, 9144, 9688], "queries": {"click": {"state": {"target": ["1", "5", "9", "10", "11", "12"], "time": [1605, 2436, 3198, 6624, 6963, 7615]}, "edge": {"target": [], "time": []}}, "mouseover": {"state": {"target": ["1", "0", "5", "0", "9", "0", "10", "11", "12", "12"], "time": [1506, 2021, 2185, 2676, 2851, 3457, 6275, 6833, 7239, 7494]}, "edge": {"target": [], "time": []}}, "mouseout": {"state": {"target": ["0", "0", "1", "0", "5", "0", "9", "0", "9", "10", "11", "10", "12", "12", "10", "9", "0", "5"], "time": [488, 772, 1948, 2094, 2651, 2730, 3409, 5839, 6076, 6748, 7167, 7227, 7282, 7851, 7948, 10893, 10924, 10954]}, "edge": {"target": [], "time": []}}}, "displayed_time": "10.19", "trialTime": 11105, "trial_type": "mouselab-mdp", "trial_index": 89, "time_elapsed": 1329457, "internal_node_id": "0.0-4.0-5.0-18.0"}}, {"uniqueid": "w42680274:a81052353", "current_trial": 90, "dateTime": 1664466264158, "trialdata": {"revealed_states": [], "num_clicks_accrued": [0, 0, 0, 0, 0, 0, 0, 0, 0, 0, 0, 0, 0], "stateRewards": ["", -4, -4, -24, -24, -2, 4, 48, -24, -2, -4, -24, 48], "withholdReward": true, "trial_id": "mdp_855903341564", "block": "test3", "trialIndex": 81, "score": -27, "costs": 0, "simulationMode": [null, null, null], "rewards": [-4, -4, -24], "path": ["0", "0", "1", "2", "3"], "rt": [767, 32, 139], "actions": ["up", "up", "right"], "actionTimes": [2622, 3158, 3799], "queries": {"click": {"state": {"target": [], "time": []}, "edge": {"target": [], "time": []}}, "mouseover": {"state": {"target": [], "time": []}, "edge": {"target": [], "time": []}}, "mouseout": {"state": {"target": ["6", "5", "0"], "time": [1586, 1652, 4743]}, "edge": {"target": [], "time": []}}}, "displayed_time": "10.86", "trialTime": 11230, "trial_type": "mouselab-mdp", "trial_index": 90, "time_elapsed": 1340720, "internal_node_id": "0.0-4.0-5.0-19.0"}}, {"uniqueid": "w42680274:a81052353", "current_trial": 91, "dateTime": 1664466274831, "trialdata": {"revealed_states": [], "num_clicks_accrued": [0, 0, 0, 0, 0, 0, 0, 0, 0, 0, 0, 0, 0], "stateRewards": ["", -2, 4, 24, 48, 2, 4, -48, -48, 2, 8, 48, -48], "withholdReward": true, "trial_id": "mdp_409609775558", "block": "test3", "trialIndex": 82, "score": -37.5, "costs": -0.5, "simulationMode": [null, null, null], "rewards": [2, 4, -48], "path": ["0", "0", "5", "6", "7"], "rt": [2803, 48, 24], "actions": ["right", "right", "up"], "actionTimes": [3807, 4359, 4887], "queries": {"click": {"state": {"target": ["6", "5"], "time": [1756, 3076]}, "edge": {"target": [], "time": []}}, "mouseover": {"state": {"target": ["5", "6", "5", "0", "5"], "time": [1256, 1341, 2680, 2747, 3032]}, "edge": {"target": [], "time": []}}, "mouseout": {"state": {"target": ["0", "5", "6", "5", "0", "5", "6", "7", "7", "6"], "time": [1219, 1298, 2668, 2710, 2935, 3304, 5371, 5480, 5856, 5910]}, "edge": {"target": [], "time": []}}}, "displayed_time": "10.01", "trialTime": 10639, "trial_type": "mouselab-mdp", "trial_index": 91, "time_elapsed": 1351392, "internal_node_id": "0.0-4.0-5.0-20.0"}}, {"uniqueid": "w42680274:a81052353", "current_trial": 92, "dateTime": 1664466288271, "trialdata": {"revealed_states": [], "num_clicks_accrued": [0, 0, 0, 0, 0, 0, 0, 0, 0, 0, 0, 0, 0], "stateRewards": ["", -4, -8, 24, -48, 2, 4, -48, -48, 2, -8, 24, 48], "withholdReward": true, "trial_id": "mdp_111262146724", "block": "test3", "trialIndex": 83, "score": 44, "costs": -3, "simulationMode": [null, null, null], "rewards": [2, -8, 48], "path": ["0", "0", "9", "10", "12"], "rt": [7380, 741, 323], "actions": ["left", "left", "down"], "actionTimes": [8953, 10193, 11016], "queries": {"click": {"state": {"target": ["9", "10", "11", "12", "1", "4", "2", "3", "5", "6", "8", "7"], "time": [2923, 3177, 3485, 3831, 4295, 4974, 5209, 5527, 6206, 6584, 6936, 7436]}, "edge": {"target": [], "time": []}}, "mouseover": {"state": {"target": ["9", "10", "11", "12", "1", "4", "2", "3", "0", "5", "6", "8", "7"], "time": [2773, 3100, 3397, 3712, 4248, 4712, 5136, 5427, 5948, 6063, 6402, 6802, 7203]}, "edge": {"target": [], "time": []}}, "mouseout": {"state": {"target": ["0", "9", "10", "11", "10", "12", "9", "1", "4", "2", "3", "0", "5", "6", "8", "6", "7", "9", "10", "12", "8"], "time": [2730, 3057, 3336, 3603, 3669, 3948, 4033, 4627, 5106, 5378, 5712, 5991, 6366, 6760, 7057, 7148, 7803, 7905, 7936, 8160, 12227]}, "edge": {"target": [], "time": []}}}, "displayed_time": "11.52", "trialTime": 13409, "trial_type": "mouselab-mdp", "trial_index": 92, "time_elapsed": 1364833, "internal_node_id": "0.0-4.0-5.0-21.0"}}, {"uniqueid": "w42680274:a81052353", "current_trial": 93, "dateTime": 1664466299478, "trialdata": {"revealed_states": [], "num_clicks_accrued": [0, 0, 0, 0, 0, 0, 0, 0, 0, 0, 0, 0, 0], "stateRewards": ["", 2, -4, -48, -48, -2, -4, -24, -48, -2, 8, 24, 24], "withholdReward": true, "trial_id": "mdp_656069446729", "block": "test3", "trialIndex": 84, "score": 34.25, "costs": -0.75, "simulationMode": [null, null, null], "rewards": [-2, 8, 24], "path": ["0", "0", "9", "10", "12"], "rt": [2296, 58, 156], "actions": ["left", "left", "down"], "actionTimes": [4022, 4582, 5238], "queries": {"click": {"state": {"target": ["9", "10", "12"], "time": [2631, 2878, 3179]}, "edge": {"target": [], "time": []}}, "mouseover": {"state": {"target": ["9", "10", "12", "0"], "time": [2560, 2778, 3057, 3463]}, "edge": {"target": [], "time": []}}, "mouseout": {"state": {"target": ["5", "0", "9", "10", "12", "9", "0", "0", "9"], "time": [1353, 1610, 2748, 3026, 3402, 3445, 3469, 6026, 6068]}, "edge": {"target": [], "time": []}}}, "displayed_time": "10.73", "trialTime": 11174, "trial_type": "mouselab-mdp", "trial_index": 93, "time_elapsed": 1376040, "internal_node_id": "0.0-4.0-5.0-22.0"}}, {"uniqueid": "w42680274:a81052353", "current_trial": 94, "dateTime": 1664466309397, "trialdata": {"revealed_states": [], "num_clicks_accrued": [0, 0, 0, 0, 0, 0, 0, 0, 0, 0, 0, 0, 0], "stateRewards": ["", 4, -4, 48, -48, -2, -8, -24, 48, -2, 4, 24, -24], "withholdReward": true, "trial_id": "mdp_507290896735", "block": "test3", "trialIndex": 85, "score": 53, "costs": 0, "simulationMode": [null, null, null], "rewards": [4, -4, 48], "path": ["0", "0", "1", "2", "3"], "rt": [533, 68, 154], "actions": ["up", "up", "right"], "actionTimes": [1097, 1666, 2322], "queries": {"click": {"state": {"target": [], "time": []}, "edge": {"target": [], "time": []}}, "mouseover": {"state": {"target": [], "time": []}, "edge": {"target": [], "time": []}}, "mouseout": {"state": {"target": ["0", "0", "0"], "time": [525, 3113, 3404]}, "edge": {"target": [], "time": []}}}, "displayed_time": "9.56", "trialTime": 9889, "trial_type": "mouselab-mdp", "trial_index": 94, "time_elapsed": 1385959, "internal_node_id": "0.0-4.0-5.0-23.0"}}, {"uniqueid": "w42680274:a81052353", "current_trial": 95, "dateTime": 1664466318261, "trialdata": {"revealed_states": [], "num_clicks_accrued": [0, 0, 0, 0, 0, 0, 0, 0, 0, 0, 0, 0, 0], "stateRewards": ["", 4, -8, 48, 24, 4, -4, 48, 48, -4, 8, -48, 24], "withholdReward": true, "trial_id": "mdp_303828806348", "block": "test3", "trialIndex": 86, "score": 52.25, "costs": -0.75, "simulationMode": [null, null, null], "rewards": [4, -4, 48], "path": ["0", "0", "5", "6", "7"], "rt": [3112, 43, 193], "actions": ["right", "right", "up"], "actionTimes": [3650, 4194, 4889], "queries": {"click": {"state": {"target": ["5", "6", "7"], "time": [929, 1395, 2837]}, "edge": {"target": [], "time": []}}, "mouseover": {"state": {"target": ["5", "6", "7"], "time": [720, 1102, 2766]}, "edge": {"target": [], "time": []}}, "mouseout": {"state": {"target": ["0", "5", "6", "7", "6"], "time": [665, 1065, 2508, 3029, 5847]}, "edge": {"target": [], "time": []}}}, "displayed_time": "8.54", "trialTime": 8833, "trial_type": "mouselab-mdp", "trial_index": 95, "time_elapsed": 1394823, "internal_node_id": "0.0-4.0-5.0-24.0"}}, {"uniqueid": "w42680274:a81052353", "current_trial": 96, "dateTime": 1664466328311, "trialdata": {"revealed_states": [], "num_clicks_accrued": [0, 0, 0, 0, 0, 0, 0, 0, 0, 0, 0, 0, 0], "stateRewards": ["", 2, 8, -48, 48, -4, -8, 24, 24, -2, -8, 24, -24], "withholdReward": true, "trial_id": "mdp_910248289075", "block": "test3", "trialIndex": 87, "score": 17, "costs": 0, "simulationMode": [null, null, null], "rewards": [-4, -8, 24], "path": ["0", "0", "5", "6", "8"], "rt": [541, 114, 142], "actions": ["right", "right", "down"], "actionTimes": [1202, 1819, 2466], "queries": {"click": {"state": {"target": [], "time": []}, "edge": {"target": [], "time": []}}, "mouseover": {"state": {"target": [], "time": []}, "edge": {"target": [], "time": []}}, "mouseout": {"state": {"target": ["0", "5", "6", "6"], "time": [3225, 3268, 3378, 3698]}, "edge": {"target": [], "time": []}}}, "displayed_time": "9.66", "trialTime": 10018, "trial_type": "mouselab-mdp", "trial_index": 96, "time_elapsed": 1404873, "internal_node_id": "0.0-4.0-5.0-25.0"}}, {"uniqueid": "w42680274:a81052353", "current_trial": 97, "dateTime": 1664466339294, "trialdata": {"revealed_states": [], "num_clicks_accrued": [0, 0, 0, 0, 0, 0, 0, 0, 0, 0, 0, 0, 0], "stateRewards": ["", -2, -4, -48, -48, 4, -4, 48, 24, 4, 4, 48, 48], "withholdReward": true, "trial_id": "mdp_950960813932", "block": "test3", "trialIndex": 88, "score": -49, "costs": 0, "simulationMode": [null, null, null], "rewards": [-2, -4, -48], "path": ["0", "0", "1", "2", "4"], "rt": [527, 56, 2], "actions": ["up", "up", "left"], "actionTimes": [1046, 1606, 2109], "queries": {"click": {"state": {"target": [], "time": []}, "edge": {"target": [], "time": []}}, "mouseover": {"state": {"target": [], "time": []}, "edge": {"target": [], "time": []}}, "mouseout": {"state": {"target": ["0"], "time": [2985]}, "edge": {"target": [], "time": []}}}, "displayed_time": "9.52", "trialTime": 10950, "trial_type": "mouselab-mdp", "trial_index": 97, "time_elapsed": 1415856, "internal_node_id": "0.0-4.0-5.0-26.0"}}, {"uniqueid": "w42680274:a81052353", "current_trial": 98, "dateTime": 1664466350199, "trialdata": {"revealed_states": [], "num_clicks_accrued": [0, 0, 0, 0, 0, 0, 0, 0, 0, 0, 0, 0, 0], "stateRewards": ["", 2, -4, -48, 24, -4, 4, 24, 24, 2, -8, -24, -48], "withholdReward": true, "trial_id": "mdp_807654778305", "block": "test3", "trialIndex": 89, "score": -49, "costs": 0, "simulationMode": [null, null, null], "rewards": [2, -8, -48], "path": ["0", "0", "9", "10", "12"], "rt": [503, 81, 59], "actions": ["left", "left", "down"], "actionTimes": [1271, 1854, 2414], "queries": {"click": {"state": {"target": [], "time": []}, "edge": {"target": [], "time": []}}, "mouseover": {"state": {"target": [], "time": []}, "edge": {"target": [], "time": []}}, "mouseout": {"state": {"target": ["0", "1", "0", "0", "5", "6", "6", "5"], "time": [469, 603, 906, 6300, 6657, 7724, 8100, 8197]}, "edge": {"target": [], "time": []}}}, "displayed_time": "9.77", "trialTime": 10878, "trial_type": "mouselab-mdp", "trial_index": 98, "time_elapsed": 1426761, "internal_node_id": "0.0-4.0-5.0-27.0"}}, {"uniqueid": "w42680274:a81052353", "current_trial": 99, "dateTime": 1664466363927, "trialdata": {"revealed_states": [], "num_clicks_accrued": [0, 0, 0, 0, 0, 0, 0, 0, 0, 0, 0, 0, 