{"condition": 1, "counterbalance": 0, "assignmentId": "a75706430", "workerId": "w11925840", "hitId": "h69862413", "currenttrial": 155, "bonus": 0, "data": [{"uniqueid": "w11925840:a75706430", "current_trial": 0, "dateTime": 1664873118830, "trialdata": {"success": true, "trial_type": "fullscreen", "trial_index": 0, "time_elapsed": 3336, "internal_node_id": "0.0-0.0"}}, {"uniqueid": "w11925840:a75706430", "current_trial": 1, "dateTime": 1664873131268, "trialdata": {"view_history": [{"page_index": 0, "viewing_time": 12431}], "rt": 12432, "trial_id": "exp_instructions_no_distractor", "trial_type": "instructions", "trial_index": 1, "time_elapsed": 15775, "internal_node_id": "0.0-1.0"}}, {"uniqueid": "w11925840:a75706430", "current_trial": 2, "dateTime": 1664873134236, "trialdata": {"success": true, "trial_type": "fullscreen", "trial_index": 2, "time_elapsed": 18743, "internal_node_id": "0.0-2.0-0.0"}}, {"uniqueid": "w11925840:a75706430", "current_trial": 3, "dateTime": 1664873180958, "trialdata": {"view_history": [{"page_index": 0, "viewing_time": 18092}, {"page_index": 1, "viewing_time": 17832}, {"page_index": 2, "viewing_time": 4079}, {"page_index": 3, "viewing_time": 1596}, {"page_index": 4, "viewing_time": 5122}], "rt": 46721, "trial_id": "mouselab_instructions_1", "trial_type": "instructions", "trial_index": 3, "time_elapsed": 65465, "internal_node_id": "0.0-2.0-1.0"}}, {"uniqueid": "w11925840:a75706430", "current_trial": 4, "dateTime": 1664873197566, "trialdata": {"revealed_states": [], "num_clicks_accrued": [0, 0, 0, 0, 0, 0, 0, 0, 0, 0, 0, 0, 0], "stateRewards": ["", 10, 10, -10, 10, 10, 10, 10, -10, -10, -10, -10, 10], "withholdReward": false, "trial_id": "practice_1", "block": "test", "trialIndex": 0, "score": 31, "costs": -1, "simulationMode": [null, null, null], "rewards": [10, 10, 10], "path": ["0", "0", "5", "6", "7"], "rt": [9831, 323, 348], "actions": ["right", "right", "up"], "actionTimes": [11788, 12614, 13454], "queries": {"click": {"state": {"target": ["5", "6", "8", "7"], "time": [6383, 9752, 10381, 11161]}, "edge": {"target": [], "time": []}}, "mouseover": {"state": {"target": ["5", "6", "8", "7"], "time": [5745, 8980, 10120, 11051]}, "edge": {"target": [], "time": []}}, "mouseout": {"state": {"target": ["0", "5", "6", "8", "8", "6", "7", "6"], "time": [5507, 6763, 10052, 10704, 10904, 10968, 11339, 11454]}, "edge": {"target": [], "time": []}}}, "displayed_time": "13.96", "trialTime": 16487, "trial_type": "mouselab-mdp", "trial_index": 4, "time_elapsed": 82072, "internal_node_id": "0.0-2.0-2.0-0.0"}}, {"uniqueid": "w11925840:a75706430", "current_trial": 5, "dateTime": 1664873205765, "trialdata": {"revealed_states": [], "num_clicks_accrued": [0, 0, 0, 0, 0, 0, 0, 0, 0, 0, 0, 0, 0], "stateRewards": ["", 10, -10, -10, 10, 10, 10, 10, 10, -10, 10, 10, -10], "withholdReward": false, "trial_id": "practice_2", "block": "test", "trialIndex": 1, "score": 30.5, "costs": -1.5, "simulationMode": [null, null, null], "rewards": [10, 10, 10], "path": ["0", "0", "5", "6", "7"], "rt": [4362, 42, 57], "actions": ["right", "right", "up"], "actionTimes": [5479, 6039, 6607], "queries": {"click": {"state": {"target": ["5", "6", "7", "1", "2", "3"], "time": [1954, 2607, 3155, 4178, 4626, 5024]}, "edge": {"target": [], "time": []}}, "mouseover": {"state": {"target": ["5", "6", "7", "1", "2", "3"], "time": [1776, 2443, 2993, 3977, 4513, 4847]}, "edge": {"target": [], "time": []}}, "mouseout": {"state": {"target": ["0", "5", "6", "6", "7", "5", "1", "2", "3", "5"], "time": [1691, 2192, 2824, 2943, 3292, 3894, 4397, 4814, 5212, 7568]}, "edge": {"target": [], "time": []}}}, "displayed_time": "7.10", "trialTime": 8127, "trial_type": "mouselab-mdp", "trial_index": 5, "time_elapsed": 90271, "internal_node_id": "0.0-2.0-2.0-1.0"}}, {"uniqueid": "w11925840:a75706430", "current_trial": 6, "dateTime": 1664873228427, "trialdata": {"view_history": [{"page_index": 0, "viewing_time": 10169}, {"page_index": 1, "viewing_time": 5930}, {"page_index": 2, "viewing_time": 6558}], "rt": 22657, "trial_id": "mouselab_instructions_2_scarce", "trial_type": "instructions", "trial_index": 6, "time_elapsed": 112934, "internal_node_id": "0.0-2.0-3.0"}}, {"uniqueid": "w11925840:a75706430", "current_trial": 7, "dateTime": 1664873262652, "trialdata": {"rt": 34221, "response": {"Q0": "$-10 to $10", "Q1": "The cost is always $0.25.", "Q2": "The better I perform the higher my bonus will be.", "Q3": "No, the amount of cash at each node of the web may be different each time.", "Q4": "The values of the nodes walked through from start to finish.", "Q5": "No, the spider might forget to count the money on some rounds."}, "question_order": [0, 1, 2, 3, 4, 5], "correct": {"Q0": "$-48 to $48", "Q1": "The cost is always $0.25.", "Q2": "The better I perform the higher my bonus will be.", "Q3": "No, the amount of cash at each node of the web may be different each time.", "Q4": "The values of the nodes walked through from start to finish.", "Q5": "No, the spider might forget to count the money on some rounds."}, "trial_id": "mouselab_quiz_scarce", "trial_type": "survey-multi-choice", "trial_index": 7, "time_elapsed": 147158, "internal_node_id": "0.0-2.0-4.0"}}, {"uniqueid": "w11925840:a75706430", "current_trial": 8, "dateTime": 1664873267195, "trialdata": {"success": true, "trial_type": "fullscreen", "trial_index": 8, "time_elapsed": 151702, "internal_node_id": "0.0-2.1-0.1"}}, {"uniqueid": "w11925840:a75706430", "current_trial": 9, "dateTime": 1664873292626, "trialdata": {"view_history": [{"page_index": 0, "viewing_time": 14024}, {"page_index": 1, "viewing_time": 5343}, {"page_index": 2, "viewing_time": 1891}, {"page_index": 3, "viewing_time": 1682}, {"page_index": 4, "viewing_time": 2489}], "rt": 25429, "trial_id": "mouselab_instructions_1", "trial_type": "instructions", "trial_index": 9, "time_elapsed": 177133, "internal_node_id": "0.0-2.1-1.1"}}, {"uniqueid": "w11925840:a75706430", "current_trial": 10, "dateTime": 1664873299228, "trialdata": {"revealed_states": [], "num_clicks_accrued": [0, 0, 0, 0, 0, 0, 0, 0, 0, 0, 0, 0, 0], "stateRewards": ["", 10, 10, -10, 10, 10, 10, 10, -10, -10, -10, -10, 10], "withholdReward": false, "trial_id": "practice_1", "block": "test", "trialIndex": 2, "score": 31.25, "costs": -0.75, "simulationMode": [null, null, null], "rewards": [10, 10, 10], "path": ["0", "0", "5", "6", "7"], "rt": [2431, 509, 4], "actions": ["right", "right", "up"], "actionTimes": [3424, 4431, 4927], "queries": {"click": {"state": {"target": ["5", "6", "7"], "time": [2060, 2393, 2696]}, "edge": {"target": [], "time": []}}, "mouseover": {"state": {"target": ["5", "6", "7"], "time": [1982, 2333, 2585]}, "edge": {"target": [], "time": []}}, "mouseout": {"state": {"target": ["5", "6", "7", "6"], "time": [2283, 2534, 2952, 5139]}, "edge": {"target": [], "time": []}}}, "displayed_time": "5.44", "trialTime": 6543, "trial_type": "mouselab-mdp", "trial_index": 10, "time_elapsed": 183734, "internal_node_id": "0.0-2.1-2.1-0.1"}}, {"uniqueid": "w11925840:a75706430", "current_trial": 11, "dateTime": 1664873303220, "trialdata": {"revealed_states": [], "num_clicks_accrued": [0, 0, 0, 0, 0, 0, 0, 0, 0, 0, 0, 0, 0], "stateRewards": ["", 10, -10, -10, 10, 10, 10, 10, 10, -10, 10, 10, -10], "withholdReward": false, "trial_id": "practice_2", "block": "test", "trialIndex": 3, "score": 32, "costs": 0, "simulationMode": [null, null, null], "rewards": [10, 10, 10], "path": ["0", "0", "5", "6", "7"], "rt": [670, 82, 114], "actions": ["right", "right", "up"], "actionTimes": [1514, 2099, 2715], "queries": {"click": {"state": {"target": [], "time": []}, "edge": {"target": [], "time": []}}, "mouseover": {"state": {"target": [], "time": []}, "edge": {"target": [], "time": []}}, "mouseout": {"state": {"target": ["0"], "time": [1132]}, "edge": {"target": [], "time": []}}}, "displayed_time": "3.22", "trialTime": 3906, "trial_type": "mouselab-mdp", "trial_index": 11, "time_elapsed": 187727, "internal_node_id": "0.0-2.1-2.1-1.1"}}, {"uniqueid": "w11925840:a75706430", "current_trial": 12, "dateTime": 1664873324266, "trialdata": {"view_history": [{"page_index": 0, "viewing_time": 13602}, {"page_index": 1, "viewing_time": 6175}, {"page_index": 2, "viewing_time": 1266}], "rt": 21043, "trial_id": "mouselab_instructions_2_scarce", "trial_type": "instructions", "trial_index": 12, "time_elapsed": 208773, "internal_node_id": "0.0-2.1-3.1"}}, {"uniqueid": "w11925840:a75706430", "current_trial": 13, "dateTime": 1664873355370, "trialdata": {"rt": 31102, "response": {"Q0": "$-48 to $48", "Q1": "The cost is always $0.25.", "Q2": "The better I perform the higher my bonus will be.", "Q3": "Yes.", "Q4": "The values of the nodes walked through from start to finish.", "Q5": "No, the spider might forget to count the money on some rounds."}, "question_order": [0, 1, 2, 3, 4, 5], "correct": {"Q0": "$-48 to $48", "Q1": "The cost is always $0.25.", "Q2": "The better I perform the higher my bonus will be.", "Q3": "No, the amount of cash at each node of the web may be different each time.", "Q4": "The values of the nodes walked through from start to finish.", "Q5": "No, the spider might forget to count the money on some rounds."}, "trial_id": "mouselab_quiz_scarce", "trial_type": "survey-multi-choice", "trial_index": 13, "time_elapsed": 239877, "internal_node_id": "0.0-2.1-4.1"}}, {"uniqueid": "w11925840:a75706430", "current_trial": 14, "dateTime": 1664873359636, "trialdata": {"success": true, "trial_type": "fullscreen", "trial_index": 14, "time_elapsed": 244143, "internal_node_id": "0.0-2.2-0.2"}}, {"uniqueid": "w11925840:a75706430", "current_trial": 15, "dateTime": 1664873393079, "trialdata": {"view_history": [{"page_index": 0, "viewing_time": 9585}, {"page_index": 1, "viewing_time": 8370}, {"page_index": 2, "viewing_time": 5018}, {"page_index": 3, "viewing_time": 2926}, {"page_index": 4, "viewing_time": 7542}], "rt": 33442, "trial_id": "mouselab_instructions_1", "trial_type": "instructions", "trial_index": 15, "time_elapsed": 277586, "internal_node_id": "0.0-2.2-1.2"}}, {"uniqueid": "w11925840:a75706430", "current_trial": 16, "dateTime": 1664873398643, "trialdata": {"revealed_states": [], "num_clicks_accrued": [0, 0, 0, 0, 0, 0, 0, 0, 0, 0, 0, 0, 0], "stateRewards": ["", 10, 10, -10, 10, 10, 10, 10, -10, -10, -10, -10, 10], "withholdReward": false, "trial_id": "practice_1", "block": "test", "trialIndex": 4, "score": 31.25, "costs": -0.75, "simulationMode": [null, null, null], "rewards": [10, 10, 10], "path": ["0", "0", "5", "6", "7"], "rt": [2515, 344, 92], "actions": ["right", "right", "up"], "actionTimes": [3321, 4162, 4745], "queries": {"click": {"state": {"target": ["5", "6", "7"], "time": [1452, 2055, 2376]}, "edge": {"target": [], "time": []}}, "mouseover": {"state": {"target": ["5", "6", "7"], "time": [1295, 2014, 2313]}, "edge": {"target": [], "time": []}}, "mouseout": {"state": {"target": ["0", "5", "6", "7", "7"], "time": [1162, 1946, 2262, 3767, 4934]}, "edge": {"target": [], "time": []}}}, "displayed_time": "5.24", "trialTime": 5505, "trial_type": "mouselab-mdp", "trial_index": 16, "time_elapsed": 283150, "internal_node_id": "0.0-2.2-2.2-0.2"}}, {"uniqueid": "w11925840:a75706430", "current_trial": 17, "dateTime": 1664873401850, "trialdata": {"revealed_states": [], "num_clicks_accrued": [0, 0, 0, 0, 0, 0, 0, 0, 0, 0, 0, 0, 0], "stateRewards": ["", 10, -10, -10, 10, 10, 10, 10, 10, -10, 10, 10, -10], "withholdReward": false, "trial_id": "practice_2", "block": "test", "trialIndex": 5, "score": 32, "costs": 0, "simulationMode": [null, null, null], "rewards": [10, 10, 10], "path": ["0", "0", "5", "6", "7"], "rt": [211, 85, 37], "actions": ["right", "right", "up"], "actionTimes": [1081, 1656, 2192], "queries": {"click": {"state": {"target": [], "time": []}, "edge": {"target": [], "time": []}}, "mouseover": {"state": {"target": [], "time": []}, "edge": {"target": [], "time": []}}, "mouseout": {"state": {"target": ["0"], "time": [1471]}, "edge": {"target": [], "time": []}}}, "displayed_time": "2.69", "trialTime": 3128, "trial_type": "mouselab-mdp", "trial_index": 17, "time_elapsed": 286357, "internal_node_id": "0.0-2.2-2.2-1.2"}}, {"uniqueid": "w11925840:a75706430", "current_trial": 18, "dateTime": 1664873422999, "trialdata": {"view_history": [{"page_index": 0, "viewing_time": 14472}, {"page_index": 1, "viewing_time": 3168}, {"page_index": 2, "viewing_time": 3507}], "rt": 21147, "trial_id": "mouselab_instructions_2_scarce", "trial_type": "instructions", "trial_index": 18, "time_elapsed": 307506, "internal_node_id": "0.0-2.2-3.2"}}, {"uniqueid": "w11925840:a75706430", "current_trial": 19, "dateTime": 1664873466343, "trialdata": {"rt": 43341, "response": {"Q0": "$-48 to $48", "Q1": "The cost is always $0.25.", "Q2": "The better I perform the higher my bonus will be.", "Q3": "No, the structure of the web will be different each time.", "Q4": "The values of the nodes walked through from start to finish.", "Q5": "No, the spider might forget to count the money on some rounds."}, "question_order": [0, 1, 2, 3, 4, 5], "correct": {"Q0": "$-48 to $48", "Q1": "The cost is always $0.25.", "Q2": "The better I perform the higher my bonus will be.", "Q3": "No, the amount of cash at each node of the web may be different each time.", "Q4": "The values of the nodes walked through from start to finish.", "Q5": "No, the spider might forget to count the money on some rounds."}, "trial_id": "mouselab_quiz_scarce", "trial_type": "survey-multi-choice", "trial_index": 19, "time_elapsed": 350850, "internal_node_id": "0.0-2.2-4.2"}}, {"uniqueid": "w11925840:a75706430", "current_trial": 20, "dateTime": 1664873471183, "trialdata": {"success": true, "trial_type": "fullscreen", "trial_index": 20, "time_elapsed": 355690, "internal_node_id": "0.0-2.3-0.3"}}, {"uniqueid": "w11925840:a75706430", "current_trial": 21, "dateTime": 1664873510362, "trialdata": {"view_history": [{"page_index": 0, "viewing_time": 30242}, {"page_index": 1, "viewing_time": 3025}, {"page_index": 2, "viewing_time": 2688}, {"page_index": 3, "viewing_time": 1828}, {"page_index": 4, "viewing_time": 1393}], "rt": 39176, "trial_id": "mouselab_instructions_1", "trial_type": "instructions", "trial_index": 21, "time_elapsed": 394869, "internal_node_id": "0.0-2.3-1.3"}}, {"uniqueid": "w11925840:a75706430", "current_trial": 22, "dateTime": 1664873515610, "trialdata": {"revealed_states": [], "num_clicks_accrued": [0, 0, 0, 0, 0, 0, 0, 0, 0, 0, 0, 0, 0], "stateRewards": ["", 10, 10, -10, 10, 10, 10, 10, -10, -10, -10, -10, 10], "withholdReward": false, "trial_id": "practice_1", "block": "test", "trialIndex": 6, "score": 31.5, "costs": -0.5, "simulationMode": [null, null, null], "rewards": [10, 10, 10], "path": ["0", "0", "5", "6", "7"], "rt": [2553, 71, 40], "actions": ["right", "right", "up"], "actionTimes": [3287, 3871, 4407], "queries": {"click": {"state": {"target": ["5", "6"], "time": [1419, 2121]}, "edge": {"target": [], "time": []}}, "mouseover": {"state": {"target": ["0", "5", "6"], "time": [927, 1378, 1961]}, "edge": {"target": [], "time": []}}, "mouseout": {"state": {"target": ["0", "0", "5", "6"], "time": [658, 1311, 1779, 3264]}, "edge": {"target": [], "time": []}}}, "displayed_time": "4.90", "trialTime": 5191, "trial_type": "mouselab-mdp", "trial_index": 22, "time_elapsed": 400117, "internal_node_id": "0.0-2.3-2.3-0.3"}}, {"uniqueid": "w11925840:a75706430", "current_trial": 23, "dateTime": 1664873518897, "trialdata": {"revealed_states": [], "num_clicks_accrued": [0, 0, 0, 0, 0, 0, 0, 0, 0, 0, 0, 0, 0], "stateRewards": ["", 10, -10, -10, 10, 10, 10, 10, 10, -10, 10, 10, -10], "withholdReward": false, "trial_id": "practice_2", "block": "test", "trialIndex": 7, "score": 32, "costs": 0, "simulationMode": [null, null, null], "rewards": [10, 10, 10], "path": ["0", "0", "5", "6", "8"], "rt": [67, 142, 135], "actions": ["right", "right", "down"], "actionTimes": [1091, 1740, 2364], "queries": {"click": {"state": {"target": [], "time": []}, "edge": {"target": [], "time": []}}, "mouseover": {"state": {"target": [], "time": []}, "edge": {"target": [], "time": []}}, "mouseout": {"state": {"target": ["5"], "time": [643]}, "edge": {"target": [], "time": []}}}, "displayed_time": "2.87", "trialTime": 3219, "trial_type": "mouselab-mdp", "trial_index": 23, "time_elapsed": 403404, "internal_node_id": "0.0-2.3-2.3-1.3"}}, {"uniqueid": "w11925840:a75706430", "current_trial": 24, "dateTime": 1664873536229, "trialdata": {"view_history": [{"page_index": 0, "viewing_time": 11242}, {"page_index": 1, "viewing_time": 2079}, {"page_index": 2, "viewing_time": 4009}], "rt": 17330, "trial_id": "mouselab_instructions_2_scarce", "trial_type": "instructions", "trial_index": 24, "time_elapsed": 420736, "internal_node_id": "0.0-2.3-3.3"}}, {"uniqueid": "w11925840:a75706430", "current_trial": 25, "dateTime": 1664873553512, "trialdata": {"rt": 17280, "response": {"Q0": "$-48 to $48", "Q1": "The cost is always $0.25.", "Q2": "The better I perform the higher my bonus will be.", "Q3": "No, the amount of cash at each node of the web may be different each time.", "Q4": "The values of the nodes walked through from start to finish.", "Q5": "No, the spider might forget to count the money on some rounds."}, "question_order": [0, 1, 2, 3, 4, 5], "correct": {"Q0": "$-48 to $48", "Q1": "The cost is always $0.25.", "Q2": "The better I perform the higher my bonus will be.", "Q3": "No, the amount of cash at each node of the web may be different each time.", "Q4": "The values of the nodes walked through from start to finish.", "Q5": "No, the spider might forget to count the money on some rounds."}, "trial_id": "mouselab_quiz_scarce", "trial_type": "survey-multi-choice", "trial_index": 25, "time_elapsed": 438018, "internal_node_id": "0.0-2.3-4.3"}}, {"uniqueid": "w11925840:a75706430", "current_trial": 26, "dateTime": 1664873559779, "trialdata": {"rt": 6260, "stimulus": "\n<h1> Get ready to start the game! </h1>\n\nThank you for reading the instructions. Get ready start with the first of 4 block(s) of this game.\n<br><br>\nIn this first block, you will complete 30 rounds of this game before moving on.\n<br><br>\nRemember, the more money the spider gets, the bigger your bonus will be!\n<br><br>\n<div style='text-align: center;'>Press <code>space</code> to begin.</div>\n\n<br><br>\n(If, at any point, the <code>space</code> key does not take you to the next page, click once on the text and try again.)", "response": " ", "trial_id": "mdp_ready_1", "trial_type": "html-keyboard-response", "trial_index": 26, "time_elapsed": 444286, "internal_node_id": "0.0-4.0-0.0"}}, {"uniqueid": "w11925840:a75706430", "current_trial": 27, "dateTime": 1664873570402, "trialdata": {"revealed_states": [], "num_clicks_accrued": [0, 0, 0, 0, 0, 0, 0, 0, 0, 0, 0, 0, 0], "stateRewards": ["", 2, -8, 24, -48, 2, 4, 48, -48, -2, -8, -48, 48], "withholdReward": true, "trial_id": "mdp_629420544881", "block": "test1", "trialIndex": 8, "score": 58, "costs": -1, "simulationMode": [null, null, null], "rewards": [2, 4, 48], "path": ["0", "0", "5", "6", "7"], "rt": [3493, 143, 244], "actions": ["right", "right", "up"], "actionTimes": [4457, 5104, 5841], "queries": {"click": {"state": {"target": ["5", "6", "8", "7"], "time": [1816, 2398, 2857, 3766]}, "edge": {"target": [], "time": []}}, "mouseover": {"state": {"target": ["0", "5", "6", "8", "7"], "time": [1537, 1587, 2139, 2675, 3607]}, "edge": {"target": [], "time": []}}, "mouseout": {"state": {"target": ["0", "0", "5", "6", "8", "6", "7", "5", "5"], "time": [854, 1554, 2091, 2607, 3042, 3126, 3975, 4261, 5161]}, "edge": {"target": [], "time": []}}}, "displayed_time": "8.96", "trialTime": 10536, "trial_type": "mouselab-mdp", "trial_index": 27, "time_elapsed": 454908, "internal_node_id": "0.0-4.0-1.0-0.0"}}, {"uniqueid": "w11925840:a75706430", "current_trial": 28, "dateTime": 1664873582961, "trialdata": {"revealed_states": [], "num_clicks_accrued": [0, 0, 0, 0, 0, 0, 0, 0, 0, 0, 0, 0, 0], "stateRewards": ["", -2, -4, -24, 48, -4, 8, 48, 48, 2, 8, -48, -24], "withholdReward": true, "trial_id": "mdp_136376573354", "block": "test1", "trialIndex": 9, "score": 54.5, "costs": -2.5, "simulationMode": [null, null, null], "rewards": [-4, 8, 48], "path": ["0", "0", "5", "6", "7"], "rt": [6779, 93, 92], "actions": ["right", "right", "up"], "actionTimes": [8267, 8851, 9435], "queries": {"click": {"state": {"target": ["1", "2", "3", "5", "6", "7", "9", "10", "11", "12"], "time": [2180, 2647, 2981, 3468, 3906, 4254, 5923, 6329, 6636, 7229]}, "edge": {"target": [], "time": []}}, "mouseover": {"state": {"target": ["1", "2", "3", "5", "6", "7", "9", "0", "9", "10", "11", "12"], "time": [1862, 2429, 2896, 3262, 3816, 4098, 4801, 5418, 5820, 6219, 6554, 7122]}, "edge": {"target": [], "time": []}}, "mouseout": {"state": {"target": ["0", "1", "2", "3", "5", "6", "7", "5", "9", "0", "9", "10", "11", "12"], "time": [925, 2361, 2830, 3147, 3732, 4048, 4415, 4465, 4985, 5752, 6185, 6521, 6803, 7388]}, "edge": {"target": [], "time": []}}}, "displayed_time": "10.49", "trialTime": 12482, "trial_type": "mouselab-mdp", "trial_index": 28, "time_elapsed": 467468, "internal_node_id": "0.0-4.0-1.0-1.0"}}, {"uniqueid": "w11925840:a75706430", "current_trial": 29, "dateTime": 1664873593273, "trialdata": {"revealed_states": [], "num_clicks_accrued": [0, 0, 0, 0, 0, 0, 0, 0, 0, 0, 0, 0, 0], "stateRewards": ["", 4, -8, 48, 24, 4, -4, 48, 48, -4, 8, -48, 24], "withholdReward": true, "trial_id": "mdp_303828806348", "block": "test1", "trialIndex": 10, "score": 52, "costs": -1, "simulationMode": [null, null, null], "rewards": [4, -4, 48], "path": ["0", "0", "5", "6", "7"], "rt": [3681, 66, 114], "actions": ["right", "right", "up"], "actionTimes": [4531, 5099, 5715], "queries": {"click": {"state": {"target": ["5", "6", "7", "8"], "time": [1646, 2033, 2361, 2876]}, "edge": {"target": [], "time": []}}, "mouseover": {"state": {"target": ["0", "5", "6", "7", "8", "9"], "time": [1022, 1423, 1941, 2308, 2692, 3978]}, "edge": {"target": [], "time": []}}, "mouseout": {"state": {"target": ["0", "0", "5", "6", "7", "6", "8", "9", "0"], "time": [654, 1273, 1908, 2258, 2525, 2607, 3041, 4411, 7001]}, "edge": {"target": [], "time": []}}}, "displayed_time": "9.85", "trialTime": 10251, "trial_type": "mouselab-mdp", "trial_index": 29, "time_elapsed": 477780, "internal_node_id": "0.0-4.0-1.0-2.0"}}, {"uniqueid": "w11925840:a75706430", "current_trial": 30, "dateTime": 1664873602665, "trialdata": {"revealed_states": [], "num_clicks_accrued": [0, 0, 0, 0, 0, 0, 0, 0, 0, 0, 0, 0, 0], "stateRewards": ["", -4, 4, 24, 24, -2, 8, 24, -48, 4, -8, -24, -48], "withholdReward": true, "trial_id": "mdp_651542905861", "block": "test1", "trialIndex": 11, "score": 27, "costs": -2, "simulationMode": [null, null, null], "rewards": [-4, 4, 24], "path": ["0", "0", "1", "2", "4"], "rt": [5089, 33, 145], "actions": ["up", "up", "left"], "actionTimes": [5794, 6329, 6994], "queries": {"click": {"state": {"target": ["9", "10", "11", "12", "1", "2", "4", "3"], "time": [1147, 1512, 1918, 2380, 3616, 3931, 4181, 4672]}, "edge": {"target": [], "time": []}}, "mouseover": {"state": {"target": ["9", "10", "11", "12", "0", "1", "1", "2", "4", "3", "5"], "time": [1070, 1452, 1855, 2255, 2791, 3158, 3542, 3841, 4092, 4560, 5345]}, "edge": {"target": [], "time": []}}, "mouseout": {"state": {"target": ["0", "9", "10", "11", "10", "12", "0", "1", "1", "2", "4", "2", "3"], "time": [954, 1354, 1787, 2088, 2221, 2640, 3074, 3307, 3758, 4058, 4410, 4526, 5077]}, "edge": {"target": [], "time": []}}}, "displayed_time": "8.71", "trialTime": 9322, "trial_type": "mouselab-mdp", "trial_index": 30, "time_elapsed": 487172, "internal_node_id": "0.0-4.0-1.0-3.0"}}, {"uniqueid": "w11925840:a75706430", "current_trial": 31, "dateTime": 1664873612673, "trialdata": {"revealed_states": [], "num_clicks_accrued": [0, 0, 0, 0, 0, 0, 0, 0, 0, 0, 0, 0, 0], "stateRewards": ["", 2, -4, 48, -48, 2, 4, -24, 24, -4, -8, 24, -48], "withholdReward": true, "trial_id": "mdp_238810765895", "block": "test1", "trialIndex": 12, "score": 34, "costs": -1, "simulationMode": [null, null, null], "rewards": [2, 4, 24], "path": ["0", "0", "5", "6", "8"], "rt": [2136, 58, 115], "actions": ["right", "right", "down"], "actionTimes": [3467, 4027, 4636], "queries": {"click": {"state": {"target": ["5", "6", "7", "8"], "time": [1798, 2221, 2518, 2955]}, "edge": {"target": [], "time": []}}, "mouseover": {"state": {"target": ["5", "6", "7", "8"], "time": [1650, 2165, 2451, 2900]}, "edge": {"target": [], "time": []}}, "mouseout": {"state": {"target": ["5", "0", "5", "6", "7", "6", "8"], "time": [512, 1566, 1964, 2401, 2682, 2750, 3133]}, "edge": {"target": [], "time": []}}}, "displayed_time": "9.33", "trialTime": 9940, "trial_type": "mouselab-mdp", "trial_index": 31, "time_elapsed": 497180, "internal_node_id": "0.0-4.0-1.0-4.0"}}, {"uniqueid": "w11925840:a75706430", "current_trial": 32, "dateTime": 1664873621937, "trialdata": {"revealed_states": [], "num_clicks_accrued": [0, 0, 0, 0, 0, 0, 0, 0, 0, 0, 0, 0, 0], "stateRewards": ["", 4, 4, -24, -48, 2, 4, 24, -48, 2, 4, 24, 24], "withholdReward": true, "trial_id": "mdp_223558518218", "block": "test1", "trialIndex": 13, "score": 33, "costs": -2, "simulationMode": [null, null, null], "rewards": [2, 4, 24], "path": ["0", "0", "5", "6", "7"], "rt": [3874, 99, 83], "actions": ["right", "right", "up"], "actionTimes": [4734, 5326, 5911], "queries": {"click": {"state": {"target": ["1", "2", "3", "4", "5", "6", "7", "8"], "time": [1230, 1623, 1925, 2454, 3151, 3399, 3644, 4081]}, "edge": {"target": [], "time": []}}, "mouseover": {"state": {"target": ["1", "2", "3", "4", "5", "6", "7", "8"], "time": [1151, 1552, 1837, 2305, 2906, 3305, 3572, 4057]}, "edge": {"target": [], "time": []}}, "mouseout": {"state": {"target": ["8", "6", "0", "1", "2", "3", "2", "4", "1", "5", "6", "7", "6", "8", "10", "9", "10"], "time": [367, 434, 968, 1468, 1802, 2220, 2288, 2672, 2805, 3255, 3522, 3773, 3856, 4257, 7414, 7830, 8265]}, "edge": {"target": [], "time": []}}}, "displayed_time": "8.86", "trialTime": 9190, "trial_type": "mouselab-mdp", "trial_index": 32, "time_elapsed": 506443, "internal_node_id": "0.0-4.0-1.0-5.0"}}, {"uniqueid": "w11925840:a75706430", "current_trial": 33, "dateTime": 1664873631737, "trialdata": {"revealed_states": [], "num_clicks_accrued": [0, 0, 0, 0, 0, 0, 0, 0, 0, 0, 0, 0, 0], "stateRewards": ["", 4, -4, 48, 24, 2, 4, 24, -24, 2, 4, 24, 48], "withholdReward": false, "trial_id": "mdp_736351885282", "block": "test1", "trialIndex": 14, "score": 58, "costs": -1, "simulationMode": [null, null, null], "rewards": [2, 4, 48], "path": ["0", "0", "9", "10", "12"], "rt": [2263, 59, 157], "actions": ["left", "left", "down"], "actionTimes": [2930, 3481, 4145], "queries": {"click": {"state": {"target": ["9", "10", "11", "12"], "time": [1080, 1363, 1636, 2238]}, "edge": {"target": [], "time": []}}, "mouseover": {"state": {"target": ["9", "10", "11", "12"], "time": [1018, 1266, 1600, 2067]}, "edge": {"target": [], "time": []}}, "mouseout": {"state": {"target": ["0", "9", "10", "11", "10", "12"], "time": [967, 1232, 1549, 1802, 1852, 2420]}, "edge": {"target": [], "time": []}}}, "displayed_time": "8.67", "trialTime": 9722, "trial_type": "mouselab-mdp", "trial_index": 33, "time_elapsed": 516244, "internal_node_id": "0.0-4.0-1.0-6.0"}}, {"uniqueid": "w11925840:a75706430", "current_trial": 34, "dateTime": 1664873642960, "trialdata": {"revealed_states": [], "num_clicks_accrued": [0, 0, 0, 0, 0, 0, 0, 0, 0, 0, 0, 0, 0], "stateRewards": ["", 4, -4, 48, -48, -2, -8, -24, 48, -2, 4, 24, -24], "withholdReward": false, "trial_id": "mdp_507290896735", "block": "test1", "trialIndex": 15, "score": 41.25, "costs": -1.75, "simulationMode": [null, null, null], "rewards": [-2, -8, 48], "path": ["0", "0", "5", "6", "8"], "rt": [3661, 66, 97], "actions": ["right", "right", "down"], "actionTimes": [4649, 5234, 5834], "queries": {"click": {"state": {"target": ["9", "10", "12", "5", "6", "8", "7"], "time": [1467, 1824, 2142, 2756, 3050, 3266, 3961]}, "edge": {"target": [], "time": []}}, "mouseover": {"state": {"target": ["9", "10", "12", "5", "6", "8", "7"], "time": [1295, 1693, 2078, 2611, 2979, 3247, 3832]}, "edge": {"target": [], "time": []}}, "mouseout": {"state": {"target": ["12", "0", "0", "9", "10", "12", "5", "6", "8", "6", "7", "5", "5", "5", "2", "1", "1"], "time": [391, 525, 1228, 1645, 2010, 2312, 2928, 3213, 3748, 3815, 4115, 4314, 6218, 6985, 7270, 10260, 10593]}, "edge": {"target": [], "time": []}}}, "displayed_time": "9.99", "trialTime": 11153, "trial_type": "mouselab-mdp", "trial_index": 34, "time_elapsed": 527467, "internal_node_id": "0.0-4.0-1.0-7.0"}}, {"uniqueid": "w11925840:a75706430", "current_trial": 35, "dateTime": 1664873658953, "trialdata": {"revealed_states": [], "num_clicks_accrued": [0, 0, 0, 0, 0, 0, 0, 0, 0, 0, 0, 0, 0], "stateRewards": ["", -4, -4, 24, -48, 2, 4, -24, -48, -2, -8, -24, 24], "withholdReward": true, "trial_id": "mdp_565569130486", "block": "test1", "trialIndex": 16, "score": 18, "costs": -3, "simulationMode": [null, null, null], "rewards": [-4, -4, 24], "path": ["0", "0", "1", "2", "3"], "rt": [9653, 43, 35], "actions": ["up", "up", "right"], "actionTimes": [13544, 14087, 14615], "queries": {"click": {"state": {"target": ["5", "6", "8", "7", "9", "10", "12", "11", "2", "1", "3", "4"], "time": [4428, 4723, 4995, 5477, 6414, 6657, 6916, 7238, 7857, 8216, 8472, 8997]}, "edge": {"target": [], "time": []}}, "mouseover": {"state": {"target": ["5", "6", "8", "7", "9", "10", "12", "11", "2", "1", "3", "4", "0"], "time": [4310, 4643, 4943, 5395, 6363, 6613, 6863, 7197, 7649, 8098, 8399, 8884, 10221]}, "edge": {"target": [], "time": []}}, "mouseout": {"state": {"target": ["0", "5", "6", "8", "6", "7", "5", "9", "10", "12", "10", "11", "2", "1", "3", "1", "4", "0"], "time": [4260, 4578, 4894, 5263, 5379, 5628, 5847, 6579, 6813, 7081, 7148, 7449, 8066, 8349, 8600, 8800, 9118, 10288]}, "edge": {"target": [], "time": []}}}, "displayed_time": "15.12", "trialTime": 15919, "trial_type": "mouselab-mdp", "trial_index": 35, "time_elapsed": 543460, "internal_node_id": "0.0-4.0-1.0-8.0"}}, {"uniqueid": "w11925840:a75706430", "current_trial": 36, "dateTime": 1664873668305, "trialdata": {"revealed_states": [], "num_clicks_accrued": [0, 0, 0, 0, 0, 0, 0, 0, 0, 0, 0, 0, 0], "stateRewards": ["", -4, -8, 48, 48, -4, 4, 48, -24, 4, 8, -24, -48], "withholdReward": true, "trial_id": "mdp_142906093415", "block": "test1", "trialIndex": 17, "score": 39.25, "costs": -1.75, "simulationMode": [null, null, null], "rewards": [-4, -8, 48], "path": ["0", "0", "1", "2", "4"], "rt": [5088, 78, 170], "actions": ["up", "up", "left"], "actionTimes": [5802, 6393, 7066], "queries": {"click": {"state": {"target": ["1", "2", "3", "4", "10", "12", "11"], "time": [1145, 1468, 1691, 2183, 3601, 4026, 5353]}, "edge": {"target": [], "time": []}}, "mouseover": {"state": {"target": ["1", "2", "3", "4", "9", "10", "12", "9", "11"], "time": [1036, 1385, 1635, 2153, 2972, 3473, 3958, 4992, 5142]}, "edge": {"target": [], "time": []}}, "mouseout": {"state": {"target": ["0", "1", "2", "3", "1", "4", "9", "10", "12", "9", "11", "9"], "time": [918, 1334, 1602, 1836, 1985, 2303, 3440, 3891, 4189, 5026, 5544, 8282]}, "edge": {"target": [], "time": []}}}, "displayed_time": "8.71", "trialTime": 9273, "trial_type": "mouselab-mdp", "trial_index": 36, "time_elapsed": 552811, "internal_node_id": "0.0-4.0-1.0-9.0"}}, {"uniqueid": "w11925840:a75706430", "current_trial": 37, "dateTime": 1664873677977, "trialdata": {"revealed_states": [], "num_clicks_accrued": [0, 0, 0, 0, 0, 0, 0, 0, 0, 0, 0, 0, 0], "stateRewards": ["", -4, -4, -48, 48, -4, -8, -24, -48, -2, 8, 48, 24], "withholdReward": true, "trial_id": "mdp_365393526663", "block": "test1", "trialIndex": 18, "score": 43, "costs": -2, "simulationMode": [null, null, null], "rewards": [-4, -4, 48], "path": ["0", "0", "1", "2", "4"], "rt": [4271, 41, 105], "actions": ["up", "up", "left"], "actionTimes": [4913, 5457, 6073], "queries": {"click": {"state": {"target": ["5", "6", "8", "7", "3", "4", "1", "2"], "time": [942, 1257, 1494, 2022, 2757, 3187, 4299, 4470]}, "edge": {"target": [], "time": []}}, "mouseover": {"state": {"target": ["5", "6", "8", "7", "0", "1", "3", "1", "4", "9", "1", "2", "0"], "time": [841, 1175, 1441, 1926, 2360, 2444, 2645, 2945, 3061, 3395, 4013, 4414, 4665]}, "edge": {"target": [], "time": []}}, "mouseout": {"state": {"target": ["0", "5", "6", "8", "6", "7", "5", "0", "1", "3", "1", "4", "9", "1", "2", "1"], "time": [742, 1125, 1392, 1844, 1893, 2159, 2210, 2376, 2477, 2895, 2978, 3295, 3896, 4364, 4597, 4631]}, "edge": {"target": [], "time": []}}}, "displayed_time": "8.64", "trialTime": 9601, "trial_type": "mouselab-mdp", "trial_index": 37, "time_elapsed": 562483, "internal_node_id": "0.0-4.0-1.0-10.0"}}, {"uniqueid": "w11925840:a75706430", "current_trial": 38, "dateTime": 1664873757552, "trialdata": {"revealed_states": [], "num_clicks_accrued": [0, 0, 0, 0, 0, 0, 0, 0, 0, 0, 0, 0, 0], "stateRewards": ["", -2, 4, -48, -48, -4, -8, 48, -48, 2, 4, 48, -48], "withholdReward": true, "trial_id": "mdp_258647270500", "block": "test1", "trialIndex": 19, "score": 58, "costs": -1, "simulationMode": [null, null, null], "rewards": [2, 4, 48], "path": ["0", "0", "9", "10", "11"], "rt": [1976, 86, 83], "actions": ["left", "left", "up"], "actionTimes": [2767, 3367, 3951], "queries": {"click": {"state": {"target": ["9", "10", "12", "11"], "time": [1284, 1579, 1820, 2234]}, "edge": {"target": [], "time": []}}, "mouseover": {"state": {"target": ["9", "10", "12", "11"], "time": [1178, 1511, 1762, 2161]}, "edge": {"target": [], "time": []}}, "mouseout": {"state": {"target": ["0", "9", "10", "12", "10", "11", "10"], "time": [1146, 1479, 1727, 2029, 2112, 2362, 2429]}, "edge": {"target": [], "time": []}}}, "displayed_time": "9.79", "trialTime": 79494, "trial_type": "mouselab-mdp", "trial_index": 38, "time_elapsed": 642059, "internal_node_id": "0.0-4.0-1.0-11.0"}}, {"uniqueid": "w11925840:a75706430", "current_trial": 39, "dateTime": 1664873772648, "trialdata": {"revealed_states": [], "num_clicks_accrued": [0, 0, 0, 0, 0, 0, 0, 0, 0, 0, 0, 0, 0], "stateRewards": ["", -4, -8, -48, -48, 4, -8, 48, 48, 2, 8, 48, 24], "withholdReward": false, "trial_id": "mdp_880437222492", "block": "test1", "trialIndex": 20, "score": 48, "costs": -1, "simulationMode": [null, null, null], "rewards": [4, -8, 48], "path": ["0", "0", "5", "6", "8"], "rt": [3980, 48, 54], "actions": ["right", "right", "down"], "actionTimes": [8200, 8767, 9327], "queries": {"click": {"state": {"target": ["5", "8", "7", "6"], "time": [4740, 5055, 5519, 7548]}, "edge": {"target": [], "time": []}}, "mouseover": {"state": {"target": ["5", "8", "6", "7", "6", "6"], "time": [4597, 4961, 5297, 5379, 7167, 7383]}, "edge": {"target": [], "time": []}}, "mouseout": {"state": {"target": ["0", "5", "8", "6", "7", "6", "6", "8", "8"], "time": [4360, 4911, 5246, 5346, 5678, 7233, 7767, 9837, 10639]}, "edge": {"target": [], "time": []}}}, "displayed_time": "13.22", "trialTime": 15023, "trial_type": "mouselab-mdp", "trial_index": 39, "time_elapsed": 657155, "internal_node_id": "0.0-4.0-1.0-12.0"}}, {"uniqueid": "w11925840:a75706430", "current_trial": 40, "dateTime": 1664873783488, "trialdata": {"revealed_states": [], "num_clicks_accrued": [0, 0, 0, 0, 0, 0, 0, 0, 0, 0, 0, 0, 0], "stateRewards": ["", -2, 8, 48, 48, 4, -8, -48, 48, 2, -4, -48, 48], "withholdReward": false, "trial_id": "mdp_132958048709", "block": "test1", "trialIndex": 21, "score": 50.25, "costs": -0.75, "simulationMode": [null, null, null], "rewards": [2, -4, 48], "path": ["0", "0", "9", "10", "12"], "rt": [2131, 514, 96], "actions": ["left", "left", "down"], "actionTimes": [2820, 3853, 4452], "queries": {"click": {"state": {"target": ["9", "11", "12"], "time": [1052, 1439, 1850]}, "edge": {"target": [], "time": []}}, "mouseover": {"state": {"target": ["9", "10", "11", "10", "12"], "time": [816, 1266, 1383, 1617, 1766]}, "edge": {"target": [], "time": []}}, "mouseout": {"state": {"target": ["0", "9", "10", "11", "10", "12"], "time": [783, 1199, 1300, 1583, 1699, 2001]}, "edge": {"target": [], "time": []}}}, "displayed_time": "8.69", "trialTime": 10764, "trial_type": "mouselab-mdp", "trial_index": 40, "time_elapsed": 667995, "internal_node_id": "0.0-4.0-1.0-13.0"}}, {"uniqueid": "w11925840:a75706430", "current_trial": 41, "dateTime": 1664873793752, "trialdata": {"revealed_states": [], "num_clicks_accrued": [0, 0, 0, 0, 0, 0, 0, 0, 0, 0, 0, 0, 0], "stateRewards": ["", 4, 8, -24, 48, 4, -8, -48, 48, -4, 8, -24, -48], "withholdReward": true, "trial_id": "mdp_376126356841", "block": "test1", "trialIndex": 22, "score": 48, "costs": -1, "simulationMode": [null, null, null], "rewards": [4, -8, 48], "path": ["0", "0", "5", "6", "8"], "rt": [3102, 50, 75], "actions": ["right", "right", "down"], "actionTimes": [4240, 4799, 5392], "queries": {"click": {"state": {"target": ["8", "7", "6", "5"], "time": [1869, 2514, 3369, 3898]}, "edge": {"target": [], "time": []}}, "mouseover": {"state": {"target": ["8", "8", "6", "7", "6", "5", "6", "5"], "time": [1628, 1723, 2160, 2327, 2678, 3128, 3228, 3815]}, "edge": {"target": [], "time": []}}, "mouseout": {"state": {"target": ["9", "0", "8", "8", "6", "7", "6", "5", "6", "5"], "time": [891, 975, 1644, 2109, 2260, 2644, 2712, 3195, 3480, 4347]}, "edge": {"target": [], "time": []}}}, "displayed_time": "9.14", "trialTime": 10185, "trial_type": "mouselab-mdp", "trial_index": 41, "time_elapsed": 678259, "internal_node_id": "0.0-4.0-1.0-14.0"}}, {"uniqueid": "w11925840:a75706430", "current_trial": 42, "dateTime": 1664873807624, "trialdata": {"revealed_states": [], "num_clicks_accrued": [0, 0, 0, 0, 0, 0, 0, 0, 0, 0, 0, 0, 0], "stateRewards": ["", 2, 4, 48, -48, 2, 4, 24, -24, 2, -4, -24, -48], "withholdReward": true, "trial_id": "mdp_706591889062", "block": "test1", "trialIndex": 23, "score": 57, "costs": -2, "simulationMode": [null, null, null], "rewards": [2, 4, 48], "path": ["0", "0", "1", "2", "3"], "rt": [4650, 83, 43], "actions": ["up", "up", "right"], "actionTimes": [8105, 8697, 9258], "queries": {"click": {"state": {"target": ["11", "12", "8", "7", "3", "4", "1", "2"], "time": [4055, 4785, 5450, 5990, 6466, 6859, 7512, 7727]}, "edge": {"target": [], "time": []}}, "mouseover": {"state": {"target": ["11", "10", "12", "12", "8", "6", "7", "3", "2", "4", "1", "2"], "time": [3889, 4238, 4371, 4622, 5306, 5742, 5840, 6258, 6609, 6675, 7192, 7660]}, "edge": {"target": [], "time": []}}, "mouseout": {"state": {"target": ["11", "10", "12", "12", "8", "6", "7", "3", "2", "4", "1", "2", "5"], "time": [4203, 4321, 4423, 4988, 5725, 5790, 6159, 6574, 6626, 7008, 7594, 7877, 11584]}, "edge": {"target": [], "time": []}}}, "displayed_time": "12.46", "trialTime": 13794, "trial_type": "mouselab-mdp", "trial_index": 42, "time_elapsed": 692130, "internal_node_id": "0.0-4.0-1.0-15.0"}}, {"uniqueid": "w11925840:a75706430", "current_trial": 43, "dateTime": 1664873817688, "trialdata": {"revealed_states": [], "num_clicks_accrued": [0, 0, 0, 0, 0, 0, 0, 0, 0, 0, 0, 0, 0], "stateRewards": ["", -2, -8, 48, 24, -2, 8, -48, -24, -2, 4, -48, 48], "withholdReward": true, "trial_id": "mdp_295220852217", "block": "test1", "trialIndex": 24, "score": 42, "costs": -1, "simulationMode": [null, null, null], "rewards": [-2, -8, 48], "path": ["0", "0", "1", "2", "3"], "rt": [3031, 72, 136], "actions": ["up", "up", "right"], "actionTimes": [3679, 4271, 4903], "queries": {"click": {"state": {"target": ["3", "4", "2", "1"], "time": [1986, 2434, 3107, 3397]}, "edge": {"target": [], "time": []}}, "mouseover": {"state": {"target": ["7", "5", "0", "1", "2", "3", "2", "4", "1", "2", "1"], "time": [1273, 1442, 1490, 1692, 1808, 1926, 2143, 2210, 2794, 2960, 3278]}, "edge": {"target": [], "time": []}}, "mouseout": {"state": {"target": ["1", "0", "7", "5", "0", "1", "2", "3", "2", "4", "1", "2", "1", "1"], "time": [439, 875, 1409, 1459, 1541, 1726, 1858, 2110, 2176, 2576, 2827, 3245, 3544, 9708]}, "edge": {"target": [], "time": []}}}, "displayed_time": "8.65", "trialTime": 9975, "trial_type": "mouselab-mdp", "trial_index": 43, "time_elapsed": 702195, "internal_node_id": "0.0-4.0-1.0-16.0"}}, {"uniqueid": "w11925840:a75706430", "current_trial": 44, "dateTime": 1664873826960, "trialdata": {"revealed_states": [], "num_clicks_accrued": [0, 0, 0, 0, 0, 0, 0, 0, 0, 0, 0, 0, 0], "stateRewards": ["", -2, 4, -24, -48, -4, 8, -24, 48, 4, 4, -48, 24], "withholdReward": false, "trial_id": "mdp_341117665701", "block": "test1", "trialIndex": 25, "score": 55.5, "costs": -1.5, "simulationMode": [null, null, null], "rewards": [-4, 8, 48], "path": ["0", "0", "5", "6", "8"], "rt": [3134, 66, 73], "actions": ["right", "right", "down"], "actionTimes": [3761, 4320, 4897], "queries": {"click": {"state": {"target": ["3", "4", "8", "7", "5", "6"], "time": [1080, 1571, 2117, 2483, 3126, 3393]}, "edge": {"target": [], "time": []}}, "mouseover": {"state": {"target": ["1", "3", "4", "1", "5", "6", "8", "6", "7", "5", "5", "6"], "time": [796, 1029, 1516, 1815, 1882, 1931, 2014, 2333, 2400, 2666, 2916, 3318]}, "edge": {"target": [], "time": []}}, "mouseout": {"state": {"target": ["3", "1", "1", "3", "4", "1", "5", "6", "8", "6", "7", "5", "5", "6", "9", "10", "12"], "time": [129, 313, 896, 1281, 1750, 1848, 1898, 1949, 2299, 2366, 2617, 2817, 3268, 3534, 6141, 6425, 6558]}, "edge": {"target": [], "time": []}}}, "displayed_time": "8.63", "trialTime": 9185, "trial_type": "mouselab-mdp", "trial_index": 44, "time_elapsed": 711466, "internal_node_id": "0.0-4.0-1.0-17.0"}}, {"uniqueid": "w11925840:a75706430", "current_trial": 45, "dateTime": 1664873837687, "trialdata": {"revealed_states": [], "num_clicks_accrued": [0, 0, 0, 0, 0, 0, 0, 0, 0, 0, 0, 0, 0], "stateRewards": ["", -4, 4, 48, 24, -4, 4, -24, 48, -2, -8, 24, -48], "withholdReward": true, "trial_id": "mdp_261501605436", "block": "test1", "trialIndex": 26, "score": 52, "costs": -1, "simulationMode": [null, null, null], "rewards": [-4, 4, 48], "path": ["0", "0", "5", "6", "8"], "rt": [2673, 64, 118], "actions": ["right", "right", "down"], "actionTimes": [3406, 3973, 4597], "queries": {"click": {"state": {"target": ["12", "11", "8", "7"], "time": [1254, 1645, 2595, 2959]}, "edge": {"target": [], "time": []}}, "mouseover": {"state": {"target": ["12", "10", "11", "9", "0", "8", "6", "7", "6"], "time": [1170, 1506, 1573, 2073, 2221, 2522, 2807, 2890, 3159]}, "edge": {"target": [], "time": []}}, "mouseout": {"state": {"target": ["0", "12", "10", "11", "9", "0", "8", "6", "7", "6", "5", "6"], "time": [955, 1473, 1539, 1990, 2090, 2272, 2774, 2857, 3127, 3240, 5513, 6098]}, "edge": {"target": [], "time": []}}}, "displayed_time": "9.73", "trialTime": 10653, "trial_type": "mouselab-mdp", "trial_index": 45, "time_elapsed": 722194, "internal_node_id": "0.0-4.0-1.0-18.0"}}, {"uniqueid": "w11925840:a75706430", "current_trial": 46, "dateTime": 1664873849071, "trialdata": {"revealed_states": [], "num_clicks_accrued": [0, 0, 0, 0, 0, 0, 0, 0, 0, 0, 0, 0, 0], "stateRewards": ["", 2, 8, 48, 24, -4, 4, -48, 24, 2, 8, 48, 48], "withholdReward": true, "trial_id": "mdp_367344599162", "block": "test1", "trialIndex": 27, "score": 61, "costs": -2, "simulationMode": [null, null, null], "rewards": [2, 8, 48], "path": ["0", "0", "1", "2", "3"], "rt": [4688, 19, 70], "actions": ["up", "up", "right"], "actionTimes": [6369, 6896, 7465], "queries": {"click": {"state": {"target": ["5", "6", "8", "7", "3", "4", "1", "2"], "time": [3427, 3711, 3973, 4331, 5024, 5388, 5917, 6108]}, "edge": {"target": [], "time": []}}, "mouseover": {"state": {"target": ["5", "5", "6", "8", "7", "3", "2", "4", "1", "2"], "time": [3088, 3370, 3655, 3905, 4272, 4922, 5207, 5258, 5826, 6075]}, "edge": {"target": [], "time": []}}, "mouseout": {"state": {"target": ["0", "5", "5", "6", "8", "6", "7", "5", "3", "2", "4", "1", "2", "1", "1"], "time": [3037, 3121, 3604, 3871, 4138, 4221, 4522, 4738, 5191, 5241, 5575, 6026, 6225, 6409, 10101]}, "edge": {"target": [], "time": []}}}, "displayed_time": "10.68", "trialTime": 11313, "trial_type": "mouselab-mdp", "trial_index": 46, "time_elapsed": 733578, "internal_node_id": "0.0-4.0-1.0-19.0"}}, {"uniqueid": "w11925840:a75706430", "current_trial": 47, "dateTime": 1664873859791, "trialdata": {"revealed_states": [], "num_clicks_accrued": [0, 0, 0, 0, 0, 0, 0, 0, 0, 0, 0, 0, 0], "stateRewards": ["", -4, -4, -24, 48, -4, -8, -24, 48, 2, 4, 48, 48], "withholdReward": true, "trial_id": "mdp_810954007398", "block": "test1", "trialIndex": 28, "score": 44.5, "costs": -0.5, "simulationMode": [null, null, null], "rewards": [-4, -4, 48], "path": ["0", "0", "1", "2", "4"], "rt": [1376, 998, 1580], "actions": ["up", "up", "left"], "actionTimes": [2199, 3702, 5790], "queries": {"click": {"state": {"target": ["3", "4"], "time": [1240, 1657]}, "edge": {"target": [], "time": []}}, "mouseover": {"state": {"target": ["1", "3", "4", "11"], "time": [1016, 1183, 1518, 2068]}, "edge": {"target": [], "time": []}}, "mouseout": {"state": {"target": ["0", "1", "3", "4", "11", "2", "2", "2", "1", "9", "9"], "time": [932, 1050, 1401, 1835, 2351, 3155, 3755, 4858, 7464, 8564, 9485]}, "edge": {"target": [], "time": []}}}, "displayed_time": "9.82", "trialTime": 10646, "trial_type": "mouselab-mdp", "trial_index": 47, "time_elapsed": 744298, "internal_node_id": "0.0-4.0-1.0-20.0"}}, {"uniqueid": "w11925840:a75706430", "current_trial": 48, "dateTime": 1664873870159, "trialdata": {"revealed_states": [], "num_clicks_accrued": [0, 0, 0, 0, 0, 0, 0, 0, 0, 0, 0, 0, 0], "stateRewards": ["", 2, 8, -48, 48, -4, -8, 24, 24, -2, -8, 24, -24], "withholdReward": true, "trial_id": "mdp_910248289075", "block": "test1", "trialIndex": 29, "score": 62.25, "costs": -0.75, "simulationMode": [null, null, null], "rewards": [2, 8, 48], "path": ["0", "0", "1", "2", "4"], "rt": [1761, 63, 126], "actions": ["up", "up", "left"], "actionTimes": [2343, 2916, 3548], "queries": {"click": {"state": {"target": ["4", "1", "2"], "time": [1021, 1866, 2092]}, "edge": {"target": [], "time": []}}, "mouseover": {"state": {"target": ["4", "2", "1", "2"], "time": [932, 1282, 1633, 2033]}, "edge": {"target": [], "time": []}}, "mouseout": {"state": {"target": ["0", "4", "2", "1", "2", "1"], "time": [648, 1231, 1348, 1983, 2233, 2335]}, "edge": {"target": [], "time": []}}}, "displayed_time": "9.58", "trialTime": 10292, "trial_type": "mouselab-mdp", "trial_index": 48, "time_elapsed": 754666, "internal_node_id": "0.0-4.0-1.0-21.0"}}, {"uniqueid": "w11925840:a75706430", "current_trial": 49, "dateTime": 1664873879671, "trialdata": {"revealed_states": [], "num_clicks_accrued": [0, 0, 0, 0, 0, 0, 0, 0, 0, 0, 0, 0, 0], "stateRewards": ["", -4, -8, -48, 48, -2, 8, 48, 48, -2, -4, -48, -48], "withholdReward": true, "trial_id": "mdp_752833580638", "block": "test1", "trialIndex": 30, "score": 40.75, "costs": -0.25, "simulationMode": [null, null, null], "rewards": [-4, -8, 48], "path": ["0", "0", "1", "2", "4"], "rt": [1141, 83, 116], "actions": ["up", "up", "left"], "actionTimes": [1852, 2452, 3069], "queries": {"click": {"state": {"target": ["4"], "time": [1390]}, "edge": {"target": [], "time": []}}, "mouseover": {"state": {"target": ["1", "2", "4"], "time": [1015, 1181, 1316]}, "edge": {"target": [], "time": []}}, "mouseout": {"state": {"target": ["1", "2", "4", "1"], "time": [1116, 1267, 1617, 4221]}, "edge": {"target": [], "time": []}}}, "displayed_time": "8.71", "trialTime": 9437, "trial_type": "mouselab-mdp", "trial_index": 49, "time_elapsed": 764178, "internal_node_id": "0.0-4.0-1.0-22.0"}}, {"uniqueid": "w11925840:a75706430", "current_trial": 50, "dateTime": 1664873889431, "trialdata": {"revealed_states": [], "num_clicks_accrued": [0, 0, 0, 0, 0, 0, 0, 0, 0, 0, 0, 0, 0], "stateRewards": ["", 4, -8, 48, 48, 2, 4, 48, -48, 4, -4, -48, 48], "withholdReward": true, "trial_id": "mdp_519605841135", "block": "test1", "trialIndex": 31, "score": 48.75, "costs": -0.25, "simulationMode": [null, null, null], "rewards": [4, -8, 48], "path": ["0", "0", "1", "2", "3"], "rt": [843, 79, 80], "actions": ["up", "up", "right"], "actionTimes": [1404, 2004, 2588], "queries": {"click": {"state": {"target": ["3"], "time": [904]}, "edge": {"target": [], "time": []}}, "mouseover": {"state": {"target": ["3", "1"], "time": [820, 1354]}, "edge": {"target": [], "time": []}}, "mouseout": {"state": {"target": ["3", "1"], "time": [1154, 2142]}, "edge": {"target": [], "time": []}}}, "displayed_time": "8.56", "trialTime": 9684, "trial_type": "mouselab-mdp", "trial_index": 50, "time_elapsed": 773937, "internal_node_id": "0.0-4.0-1.0-23.0"}}, {"uniqueid": "w11925840:a75706430", "current_trial": 51, "dateTime": 1664873901087, "trialdata": {"revealed_states": [], "num_clicks_accrued": [0, 0, 0, 0, 0, 0, 0, 0, 0, 0, 0, 0, 0], "stateRewards": ["", 2, -8, 24, 24, 2, 4, -48, -48, 4, 4, -24, 48], "withholdReward": true, "trial_id": "mdp_985707010949", "block": "test1", "trialIndex": 32, "score": 59.5, "costs": -1.5, "simulationMode": [null, null, null], "rewards": [4, 4, 48], "path": ["0", "0", "9", "10", "12"], "rt": [3554, 41, 65], "actions": ["left", "left", "down"], "actionTimes": [5633, 6185, 6761], "queries": {"click": {"state": {"target": ["3", "4", "11", "12", "9", "10"], "time": [2546, 3014, 3860, 4284, 5248, 5448]}, "edge": {"target": [], "time": []}}, "mouseover": {"state": {"target": ["1", "3", "2", "4", "11", "10", "12", "9", "10"], "time": [2270, 2453, 2838, 2905, 3756, 4105, 4224, 5091, 5408]}, "edge": {"target": [], "time": []}}, "mouseout": {"state": {"target": ["1", "0", "1", "3", "2", "4", "11", "10", "12", "9", "10"], "time": [1550, 2204, 2303, 2788, 2872, 3288, 4055, 4173, 4490, 5357, 5743]}, "edge": {"target": [], "time": []}}}, "displayed_time": "11.08", "trialTime": 11586, "trial_type": "mouselab-mdp", "trial_index": 51, "time_elapsed": 785594, "internal_node_id": "0.0-4.0-1.0-24.0"}}, {"uniqueid": "w11925840:a75706430", "current_trial": 52, "dateTime": 1664873910607, "trialdata": {"revealed_states": [], "num_clicks_accrued": [0, 0, 0, 0, 0, 0, 0, 0, 0, 0, 0, 0, 0], "stateRewards": ["", 2, -4, 24, -24, 2, -8, 48, 48, 4, -4, 24, 48], "withholdReward": true, "trial_id": "mdp_947836623875", "block": "test1", "trialIndex": 33, "score": 46, "costs": -1, "simulationMode": [null, null, null], "rewards": [2, -8, 48], "path": ["0", "0", "5", "6", "8"], "rt": [2286, 88, 116], "actions": ["right", "right", "down"], "actionTimes": [2839, 3432, 4048], "queries": {"click": {"state": {"target": ["8", "7", "5", "6"], "time": [970, 1545, 2159, 2532]}, "edge": {"target": [], "time": []}}, "mouseover": {"state": {"target": ["8", "6", "7", "5", "6"], "time": [888, 1292, 1374, 1791, 2326]}, "edge": {"target": [], "time": []}}, "mouseout": {"state": {"target": ["0", "8", "6", "7", "5", "6"], "time": [673, 1275, 1340, 1626, 2292, 2676]}, "edge": {"target": [], "time": []}}}, "displayed_time": "8.55", "trialTime": 9440, "trial_type": "mouselab-mdp", "trial_index": 52, "time_elapsed": 795114, "internal_node_id": "0.0-4.0-1.0-25.0"}}, {"uniqueid": "w11925840:a75706430", "current_trial": 53, "dateTime": 1664873920758, "trialdata": {"revealed_states": [], "num_clicks_accrued": [0, 0, 0, 0, 0, 0, 0, 0, 0, 0, 0, 0, 0], "stateRewards": ["", -4, 8, 24, 24, 2, 4, -48, 24, -2, -4, -24, -24], "withholdReward": false, "trial_id": "mdp_752328329546", "block": "test1", "trialIndex": 34, "score": 33.5, "costs": -1.5, "simulationMode": [null, null, null], "rewards": [2, 4, 24], "path": ["0", "0", "5", "6", "8"], "rt": [5025, 60, 22], "actions": ["right", "right", "down"], "actionTimes": [5639, 6198, 6727], "queries": {"click": {"state": {"target": ["8", "7", "12", "11", "4", "3"], "time": [1223, 1634, 2580, 2967, 3653, 3963]}, "edge": {"target": [], "time": []}}, "mouseover": {"state": {"target": ["0", "5", "6", "8", "6", "7", "5", "9", "10", "12", "10", "11", "4", "2", "3", "0", "5"], "time": [778, 860, 1012, 1163, 1428, 1578, 1879, 2230, 2248, 2481, 2731, 2798, 3515, 3832, 3899, 4516, 5084]}, "edge": {"target": [], "time": []}}, "mouseout": {"state": {"target": ["0", "0", "5", "6", "8", "6", "7", "5", "9", "10", "12", "10", "11", "4", "2", "3", "0", "5"], "time": [559, 795, 961, 1111, 1396, 1495, 1794, 1946, 2247, 2264, 2714, 2764, 3233, 3816, 3882, 4150, 5019, 8208]}, "edge": {"target": [], "time": []}}}, "displayed_time": "8.62", "trialTime": 10079, "trial_type": "mouselab-mdp", "trial_index": 53, "time_elapsed": 805265, "internal_node_id": "0.0-4.0-1.0-26.0"}}, {"uniqueid": "w11925840:a75706430", "current_trial": 54, "dateTime": 1664873929735, "trialdata": {"revealed_states": [], "num_clicks_accrued": [0, 0, 0, 0, 0, 0, 0, 0, 0, 0, 0, 0, 0], "stateRewards": ["", -4, 4, -48, -48, -4, 8, -24, 24, 2, -4, 48, 48], "withholdReward": false, "trial_id": "mdp_821566905048", "block": "test1", "trialIndex": 35, "score": 49.5, "costs": -1.5, "simulationMode": [null, null, null], "rewards": [2, -4, 48], "path": ["0", "0", "9", "10", "12"], "rt": [3166, 757, 447], "actions": ["left", "left", "down"], "actionTimes": [4660, 5934, 6892], "queries": {"click": {"state": {"target": ["8", "7", "4", "3", "11", "12"], "time": [1930, 2415, 3046, 3429, 3939, 4328]}, "edge": {"target": [], "time": []}}, "mouseover": {"state": {"target": ["8", "6", "7", "5", "1", "4", "2", "3", "1", "11", "10", "12"], "time": [1769, 2201, 2336, 2637, 2787, 2903, 3272, 3354, 3638, 3838, 4123, 4205]}, "edge": {"target": [], "time": []}}, "mouseout": {"state": {"target": ["0", "8", "6", "7", "5", "1", "4", "2", "3", "1", "11", "10", "12", "10", "9"], "time": [1668, 2118, 2285, 2570, 2736, 2820, 3256, 3321, 3588, 3688, 4089, 4172, 4739, 5525, 5893]}, "edge": {"target": [], "time": []}}}, "displayed_time": "8.49", "trialTime": 8892, "trial_type": "mouselab-mdp", "trial_index": 54, "time_elapsed": 814242, "internal_node_id": "0.0-4.0-1.0-27.0"}}, {"uniqueid": "w11925840:a75706430", "current_trial": 55, "dateTime": 1664873939079, "trialdata": {"revealed_states": [], "num_clicks_accrued": [0, 0, 0, 0, 0, 0, 0, 0, 0, 0, 0, 0, 0], "stateRewards": ["", -2, -4, -48, 48, -4, 4, -48, 24, -4, -8, 24, 48], "withholdReward": true, "trial_id": "mdp_264482284450", "block": "test1", "trialIndex": 36, "score": 40.75, "costs": -0.25, "simulationMode": [null, null, null], "rewards": [-4, -8, 48], "path": ["0", "0", "9", "10", "12"], "rt": [917, 59, 98], "actions": ["left", "left", "down"], "actionTimes": [1496, 2056, 2648], "queries": {"click": {"state": {"target": ["12"], "time": [912]}, "edge": {"target": [], "time": []}}, "mouseover": {"state": {"target": ["9", "12"], "time": [726, 811]}, "edge": {"target": [], "time": []}}, "mouseout": {"state": {"target": ["10", "9", "0", "9", "12"], "time": [276, 426, 677, 760, 1245]}, "edge": {"target": [], "time": []}}}, "displayed_time": "8.58", "trialTime": 9264, "trial_type": "mouselab-mdp", "trial_index": 55, "time_elapsed": 823586, "internal_node_id": "0.0-4.0-1.0-28.0"}}, {"uniqueid": "w11925840:a75706430", "current_trial": 56, "dateTime": 1664873949478, "trialdata": {"revealed_states": [], "num_clicks_accrued": [0, 0, 0, 0, 0, 0, 0, 0, 0, 0, 0, 0, 0], "stateRewards": ["", 2, 8, -48, 24, -2, 4, 48, 48, -2, -8, 48, 24], "withholdReward": false, "trial_id": "mdp_157355418411", "block": "test1", "trialIndex": 37, "score": 42.5, "costs": -0.5, "simulationMode": [null, null, null], "rewards": [-2, -8, 48], "path": ["0", "0", "9", "10", "11"], "rt": [1589, 40, 96], "actions": ["left", "left", "up"], "actionTimes": [2163, 2714, 3307], "queries": {"click": {"state": {"target": ["12", "11"], "time": [1203, 1744]}, "edge": {"target": [], "time": []}}, "mouseover": {"state": {"target": ["12", "12", "10", "11", "10"], "time": [769, 1037, 1590, 1671, 1990]}, "edge": {"target": [], "time": []}}, "mouseout": {"state": {"target": ["0", "12", "12", "10", "11", "10", "9", "12"], "time": [687, 786, 1573, 1621, 1922, 2056, 3958, 4475]}, "edge": {"target": [], "time": []}}}, "displayed_time": "9.58", "trialTime": 10323, "trial_type": "mouselab-mdp", "trial_index": 56, "time_elapsed": 833985, "internal_node_id": "0.0-4.0-1.0-29.0"}}, {"uniqueid": "w11925840:a75706430", "current_trial": 57, "dateTime": 1664873956351, "trialdata": {"rt": 6867, "stimulus": "<h1> End of block! </h1>\n\nYou have reached the end of the block 1/4. If you need a short break, feel free to take one now before moving on.\n\n<br><br>\nIn the next block, you will complete another 30 rounds of this game.\n\n<br><br>\n<div style='text-align: center;'>Press <code>space</code> to begin.</div>\n<br><br>\n<div style='text-align: center;'>(If the experiment doesn't continue, try clicking on the text and then pressing <code>space</code>.)</div>", "response": " ", "trial_id": "mdp_ready_2", "trial_type": "html-keyboard-response", "trial_index": 57, "time_elapsed": 840858, "internal_node_id": "0.0-4.0-2.0"}}, {"uniqueid": "w11925840:a75706430", "current_trial": 58, "dateTime": 1664873966478, "trialdata": {"revealed_states": [], "num_clicks_accrued": [0, 0, 0, 0, 0, 0, 0, 0, 0, 0, 0, 0, 0], "stateRewards": ["", -2, 8, -24, 24, 2, -8, 48, -24, 2, 8, -24, -24], "withholdReward": true, "trial_id": "mdp_674708270444", "block": "test2", "trialIndex": 38, "score": 46, "costs": -1, "simulationMode": [null, null, null], "rewards": [2, -8, 48], "path": ["0", "0", "5", "6", "7"], "rt": [2288, 50, 68], "actions": ["right", "right", "up"], "actionTimes": [3960, 4503, 5088], "queries": {"click": {"state": {"target": ["8", "7", "5", "6"], "time": [2167, 2763, 3493, 3724]}, "edge": {"target": [], "time": []}}, "mouseover": {"state": {"target": ["8", "6", "7", "5", "6"], "time": [1944, 2565, 2663, 3432, 3698]}, "edge": {"target": [], "time": []}}, "mouseout": {"state": {"target": ["10", "9", "0", "8", "6", "7", "5", "6", "3"], "time": [1060, 1377, 1827, 2547, 2613, 3165, 3665, 3882, 6554]}, "edge": {"target": [], "time": []}}}, "displayed_time": "9.67", "trialTime": 10048, "trial_type": "mouselab-mdp", "trial_index": 58, "time_elapsed": 850985, "internal_node_id": "0.0-4.0-3.0-0.0"}}, {"uniqueid": "w11925840:a75706430", "current_trial": 59, "dateTime": 1664873975854, "trialdata": {"revealed_states": [], "num_clicks_accrued": [0, 0, 0, 0, 0, 0, 0, 0, 0, 0, 0, 0, 0], "stateRewards": ["", 2, 4, -24, -48, 4, -4, 24, 48, -4, -4, -24, 48], "withholdReward": true, "trial_id": "mdp_181958792175", "block": "test2", "trialIndex": 39, "score": 52, "costs": -1, "simulationMode": [null, null, null], "rewards": [4, -4, 48], "path": ["0", "0", "5", "6", "8"], "rt": [2450, 80, 58], "actions": ["right", "right", "down"], "actionTimes": [3105, 3692, 4253], "queries": {"click": {"state": {"target": ["7", "8", "5", "6"], "time": [1092, 1481, 2717, 2915]}, "edge": {"target": [], "time": []}}, "mouseover": {"state": {"target": ["7", "6", "8", "5", "5", "6", "5", "6"], "time": [972, 1323, 1405, 1756, 2241, 2442, 2677, 2876]}, "edge": {"target": [], "time": []}}, "mouseout": {"state": {"target": ["1", "7", "6", "8", "5", "5", "6", "5", "6", "8"], "time": [421, 1288, 1356, 1706, 1789, 2308, 2626, 2842, 3102, 3476]}, "edge": {"target": [], "time": []}}}, "displayed_time": "8.66", "trialTime": 9301, "trial_type": "mouselab-mdp", "trial_index": 59, "time_elapsed": 860361, "internal_node_id": "0.0-4.0-3.0-1.0"}}, {"uniqueid": "w11925840:a75706430", "current_trial": 60, "dateTime": 1664873985462, "trialdata": {"revealed_states": [], "num_clicks_accrued": [0, 0, 0, 0, 0, 0, 0, 0, 0, 0, 0, 0, 0], "stateRewards": ["", -4, -4, 24, -24, 4, 4, 24, 48, 4, -4, 48, -48], "withholdReward": true, "trial_id": "mdp_522385334882", "block": "test2", "trialIndex": 40, "score": 52.75, "costs": -0.25, "simulationMode": [null, null, null], "rewards": [4, -4, 48], "path": ["0", "0", "9", "10", "11"], "rt": [1079, 51, 78], "actions": ["left", "left", "up"], "actionTimes": [1694, 2259, 2852], "queries": {"click": {"state": {"target": ["11"], "time": [1137]}, "edge": {"target": [], "time": []}}, "mouseover": {"state": {"target": ["9", "11", "11"], "time": [786, 853, 1071]}, "edge": {"target": [], "time": []}}, "mouseout": {"state": {"target": ["0", "9", "11", "11", "9"], "time": [753, 804, 871, 1371, 3160]}, "edge": {"target": [], "time": []}}}, "displayed_time": "8.62", "trialTime": 9539, "trial_type": "mouselab-mdp", "trial_index": 60, "time_elapsed": 869969, "internal_node_id": "0.0-4.0-3.0-2.0"}}, {"uniqueid": "w11925840:a75706430", "current_trial": 61, "dateTime": 1664873996719, "trialdata": {"revealed_states": [], "num_clicks_accrued": [0, 0, 0, 0, 0, 0, 0, 0, 0, 0, 0, 0, 0], "stateRewards": ["", -2, -4, -24, -48, -4, -8, -48, 24, -4, -8, -24, -48], "withholdReward": true, "trial_id": "mdp_475782454549", "block": "test2", "trialIndex": 41, "score": 15.5, "costs": -1.5, "simulationMode": [null, null, null], "rewards": [-4, -8, 24], "path": ["0", "0", "5", "6", "8"], "rt": [4673, 44, 95], "actions": ["right", "right", "down"], "actionTimes": [6482, 7017, 7602], "queries": {"click": {"state": {"target": ["7", "8", "3", "4", "11", "12"], "time": [2288, 2712, 3511, 3928, 4411, 5287]}, "edge": {"target": [], "time": []}}, "mouseover": {"state": {"target": ["5", "7", "6", "8", "5", "3", "2", "4", "11", "11", "10", "12", "12", "6"], "time": [1946, 2230, 2513, 2613, 3048, 3433, 3715, 3850, 4201, 4383, 4736, 4886, 5235, 6171]}, "edge": {"target": [], "time": []}}, "mouseout": {"state": {"target": ["0", "5", "7", "6", "8", "5", "3", "2", "4", "11", "11", "10", "12", "12", "6"], "time": [1912, 1962, 2464, 2564, 2965, 3065, 3665, 3817, 4134, 4251, 4702, 4769, 5069, 5503, 6322]}, "edge": {"target": [], "time": []}}}, "displayed_time": "10.81", "trialTime": 11186, "trial_type": "mouselab-mdp", "trial_index": 61, "time_elapsed": 881225, "internal_node_id": "0.0-4.0-3.0-3.0"}}, {"uniqueid": "w11925840:a75706430", "current_trial": 62, "dateTime": 1664874006718, "trialdata": {"revealed_states": [], "num_clicks_accrued": [0, 0, 0, 0, 0, 0, 0, 0, 0, 0, 0, 0, 0], "stateRewards": ["", -4, 4, 24, 24, 4, -8, 48, -48, -2, -8, 24, 24], "withholdReward": true, "trial_id": "mdp_395264223239", "block": "test2", "trialIndex": 42, "score": 48.25, "costs": -0.75, "simulationMode": [null, null, null], "rewards": [4, -8, 48], "path": ["0", "0", "5", "6", "7"], "rt": [2071, 65, 121], "actions": ["right", "right", "up"], "actionTimes": [3169, 3745, 4369], "queries": {"click": {"state": {"target": ["7", "5", "6"], "time": [1467, 2776, 3004]}, "edge": {"target": [], "time": []}}, "mouseover": {"state": {"target": ["5", "7", "6", "8", "8", "5", "6"], "time": [1242, 1308, 1693, 1777, 2196, 2595, 2945]}, "edge": {"target": [], "time": []}}, "mouseout": {"state": {"target": ["5", "0", "5", "7", "6", "8", "8", "5", "6"], "time": [808, 1209, 1258, 1660, 1743, 1892, 2396, 2912, 3213]}, "edge": {"target": [], "time": []}}}, "displayed_time": "9.10", "trialTime": 9929, "trial_type": "mouselab-mdp", "trial_index": 62, "time_elapsed": 891225, "internal_node_id": "0.0-4.0-3.0-4.0"}}, {"uniqueid": "w11925840:a75706430", "current_trial": 63, "dateTime": 1664874015814, "trialdata": {"revealed_states": [], "num_clicks_accrued": [0, 0, 0, 0, 0, 0, 0, 0, 0, 0, 0, 0, 0], "stateRewards": ["", 2, -8, 24, 24, 2, 4, -48, -48, 4, 4, -24, 48], "withholdReward": true, "trial_id": "mdp_985707010949", "block": "test2", "trialIndex": 43, "score": 59.5, "costs": -1.5, "simulationMode": [null, null, null], "rewards": [4, 4, 48], "path": ["0", "0", "9", "10", "12"], "rt": [3260, 57, 84], "actions": ["left", "left", "down"], "actionTimes": [3962, 4522, 5113], "queries": {"click": {"state": {"target": ["7", "8", "3", "4", "11", "12"], "time": [1082, 1503, 2042, 2492, 3143, 3464]}, "edge": {"target": [], "time": []}}, "mouseover": {"state": {"target": ["7", "6", "8", "3", "2", "4", "9", "10", "11", "10", "12"], "time": [986, 1287, 1421, 1920, 2223, 2272, 2788, 2989, 3089, 3340, 3407]}, "edge": {"target": [], "time": []}}, "mouseout": {"state": {"target": ["5", "5", "7", "6", "8", "3", "2", "4", "9", "10", "11", "10", "12"], "time": [269, 385, 1270, 1370, 1704, 2206, 2256, 2656, 2839, 3023, 3307, 3373, 3740]}, "edge": {"target": [], "time": []}}}, "displayed_time": "8.70", "trialTime": 9018, "trial_type": "mouselab-mdp", "trial_index": 63, "time_elapsed": 900321, "internal_node_id": "0.0-4.0-3.0-5.0"}}, {"uniqueid": "w11925840:a75706430", "current_trial": 64, "dateTime": 1664874027054, "trialdata": {"revealed_states": [], "num_clicks_accrued": [0, 0, 0, 0, 0, 0, 0, 0, 0, 0, 0, 0, 0], "stateRewards": ["", -4, -8, 48, -48, 2, -4, 48, -24, 2, -8, -48, -48], "withholdReward": false, "trial_id": "mdp_624553692913", "block": "test2", "trialIndex": 44, "score": 48.75, "costs": -2.25, "simulationMode": [null, null, null], "rewards": [2, -4, 48], "path": ["0", "0", "5", "6", "7"], "rt": [4701, 35, 75], "actions": ["right", "right", "up"], "actionTimes": [5818, 6353, 6946], "queries": {"click": {"state": {"target": ["12", "11", "4", "3", "7", "6", "5", "1", "2"], "time": [1558, 2087, 2590, 2954, 3420, 4195, 4534, 5085, 5292]}, "edge": {"target": [], "time": []}}, "mouseover": {"state": {"target": ["12", "10", "11", "4", "2", "3", "7", "6", "5", "1", "2"], "time": [1392, 1892, 2008, 2460, 2810, 2877, 3226, 4080, 4480, 4996, 5265]}, "edge": {"target": [], "time": []}}, "mouseout": {"state": {"target": ["0", "12", "10", "11", "4", "2", "3", "7", "6", "5", "1", "2", "1", "5", "5", "5"], "time": [1276, 1859, 1925, 2378, 2777, 2843, 3143, 4030, 4431, 4796, 5215, 5466, 5533, 8187, 8286, 8770]}, "edge": {"target": [], "time": []}}}, "displayed_time": "10.12", "trialTime": 11162, "trial_type": "mouselab-mdp", "trial_index": 64, "time_elapsed": 911561, "internal_node_id": "0.0-4.0-3.0-6.0"}}, {"uniqueid": "w11925840:a75706430", "current_trial": 65, "dateTime": 1664874036758, "trialdata": {"revealed_states": [], "num_clicks_accrued": [0, 0, 0, 0, 0, 0, 0, 0, 0, 0, 0, 0, 0], "stateRewards": ["", 4, -8, 48, 48, 2, 4, 48, -48, 4, -4, -48, 48], "withholdReward": true, "trial_id": "mdp_519605841135", "block": "test2", "trialIndex": 45, "score": 58.75, "costs": -0.25, "simulationMode": [null, null, null], "rewards": [2, 4, 48], "path": ["0", "0", "5", "6", "7"], "rt": [1330, 427, 127], "actions": ["right", "right", "up"], "actionTimes": [2417, 3345, 3961], "queries": {"click": {"state": {"target": ["7"], "time": [1569]}, "edge": {"target": [], "time": []}}, "mouseover": {"state": {"target": ["5", "7", "6", "8"], "time": [1278, 1478, 1730, 1879]}, "edge": {"target": [], "time": []}}, "mouseout": {"state": {"target": ["0", "5", "7", "6", "8", "5"], "time": [1245, 1378, 1697, 1797, 2265, 5535]}, "edge": {"target": [], "time": []}}}, "displayed_time": "9.09", "trialTime": 9616, "trial_type": "mouselab-mdp", "trial_index": 65, "time_elapsed": 921264, "internal_node_id": "0.0-4.0-3.0-7.0"}}, {"uniqueid": "w11925840:a75706430", "current_trial": 66, "dateTime": 1664874046150, "trialdata": {"revealed_states": [], "num_clicks_accrued": [0, 0, 0, 0, 0, 0, 0, 0, 0, 0, 0, 0, 0], "stateRewards": ["", -4, -4, -48, -24, 2, 8, 24, -48, 4, 4, 48, 48], "withholdReward": true, "trial_id": "mdp_693501840209", "block": "test2", "trialIndex": 46, "score": 59.5, "costs": -1.5, "simulationMode": [null, null, null], "rewards": [4, 4, 48], "path": ["0", "0", "9", "10", "12"], "rt": [3537, 379, 272], "actions": ["left", "left", "down"], "actionTimes": [4208, 5093, 5870], "queries": {"click": {"state": {"target": ["3", "7", "8", "4", "11", "12"], "time": [1119, 1710, 2150, 3030, 3476, 3840]}, "edge": {"target": [], "time": []}}, "mouseover": {"state": {"target": ["3", "7", "6", "8", "5", "4", "11", "10", "12"], "time": [1022, 1591, 1906, 2006, 2592, 2941, 3408, 3661, 3743]}, "edge": {"target": [], "time": []}}, "mouseout": {"state": {"target": ["0", "3", "7", "6", "8", "5", "4", "11", "10", "12", "9", "10"], "time": [738, 1341, 1872, 1939, 2290, 2628, 3175, 3627, 3710, 4479, 4944, 6447]}, "edge": {"target": [], "time": []}}}, "displayed_time": "8.67", "trialTime": 9317, "trial_type": "mouselab-mdp", "trial_index": 66, "time_elapsed": 930657, "internal_node_id": "0.0-4.0-3.0-8.0"}}, {"uniqueid": "w11925840:a75706430", "current_trial": 67, "dateTime": 1664874056543, "trialdata": {"revealed_states": [], "num_clicks_accrued": [0, 0, 0, 0, 0, 0, 0, 0, 0, 0, 0, 0, 0], "stateRewards": ["", 2, -8, 48, -24, 2, -4, 24, 48, 4, -4, 48, -24], "withholdReward": true, "trial_id": "mdp_656500928756", "block": "test2", "trialIndex": 47, "score": 46.75, "costs": -0.25, "simulationMode": [null, null, null], "rewards": [2, -8, 48], "path": ["0", "0", "1", "2", "3"], "rt": [995, 89, 48], "actions": ["up", "up", "right"], "actionTimes": [1566, 2161, 2705], "queries": {"click": {"state": {"target": ["3"], "time": [1033]}, "edge": {"target": [], "time": []}}, "mouseover": {"state": {"target": ["3", "1"], "time": [948, 1563]}, "edge": {"target": [], "time": []}}, "mouseout": {"state": {"target": ["9", "0", "3"], "time": [382, 483, 1333]}, "edge": {"target": [], "time": []}}}, "displayed_time": "9.57", "trialTime": 10322, "trial_type": "mouselab-mdp", "trial_index": 67, "time_elapsed": 941050, "internal_node_id": "0.0-4.0-3.0-9.0"}}, {"uniqueid": "w11925840:a75706430", "current_trial": 68, "dateTime": 1664874072445, "trialdata": {"revealed_states": [], "num_clicks_accrued": [0, 0, 0, 0, 0, 0, 0, 0, 0, 0, 0, 0, 0], "stateRewards": ["", 4, 4, 24, -24, -4, -8, 48, -24, 4, 4, 48, 24], "withholdReward": false, "trial_id": "mdp_822446942217", "block": "test2", "trialIndex": 48, "score": 40.25, "costs": -0.75, "simulationMode": [null, null, null], "rewards": [-4, -8, 48], "path": ["0", "0", "5", "6", "7"], "rt": [2211, 80, 119], "actions": ["right", "right", "up"], "actionTimes": [2940, 3516, 4140], "queries": {"click": {"state": {"target": ["3", "4", "7"], "time": [1130, 1614, 2427]}, "edge": {"target": [], "time": []}}, "mouseover": {"state": {"target": ["3", "2", "4", "0", "5", "6", "7", "6", "8"], "time": [1081, 1482, 1532, 2083, 2132, 2232, 2349, 2616, 2733]}, "edge": {"target": [], "time": []}}, "mouseout": {"state": {"target": ["1", "3", "2", "4", "0", "5", "6", "7", "6"], "time": [161, 1350, 1498, 1799, 2100, 2200, 2283, 2583, 2684]}, "edge": {"target": [], "time": []}}}, "displayed_time": "8.73", "trialTime": 15820, "trial_type": "mouselab-mdp", "trial_index": 68, "time_elapsed": 956952, "internal_node_id": "0.0-4.0-3.0-10.0"}}, {"uniqueid": "w11925840:a75706430", "current_trial": 69, "dateTime": 1664874161990, "trialdata": {"revealed_states": [], "num_clicks_accrued": [0, 0, 0, 0, 0, 0, 0, 0, 0, 0, 0, 0, 0], "stateRewards": ["", -2, -4, -48, 48, -4, 4, -48, 24, -4, -8, 24, 48], "withholdReward": true, "trial_id": "mdp_264482284450", "block": "test2", "trialIndex": 49, "score": 46.5, "costs": -0.5, "simulationMode": [null, null, null], "rewards": [-2, -4, 48], "path": ["0", "0", "1", "2", "4"], "rt": [4079, 158, 63], "actions": ["up", "up", "left"], "actionTimes": [31742, 32403, 32980], "queries": {"click": {"state": {"target": ["3", "4"], "time": [28190, 28775]}, "edge": {"target": [], "time": []}}, "mouseover": {"state": {"target": ["5", "7", "3", "1", "4"], "time": [27771, 27920, 28154, 28605, 28655]}, "edge": {"target": [], "time": []}}, "mouseout": {"state": {"target": ["8", "8", "0", "5", "7", "3", "1", "4", "0", "5"], "time": [26819, 27253, 27753, 27788, 27954, 28355, 28623, 28923, 88200, 88249]}, "edge": {"target": [], "time": []}}}, "displayed_time": "35.66", "trialTime": 89460, "trial_type": "mouselab-mdp", "trial_index": 69, "time_elapsed": 1046497, "internal_node_id": "0.0-4.0-3.0-11.0"}}, {"uniqueid": "w11925840:a75706430", "current_trial": 70, "dateTime": 1664874171988, "trialdata": {"revealed_states": [], "num_clicks_accrued": [0, 0, 0, 0, 0, 0, 0, 0, 0, 0, 0, 0, 0], "stateRewards": ["", -2, 4, 24, 48, 2, 4, -48, -48, -2, 8, 48, -24], "withholdReward": true, "trial_id": "mdp_305701202606", "block": "test2", "trialIndex": 50, "score": 54.5, "costs": -0.5, "simulationMode": [null, null, null], "rewards": [-2, 4, 48], "path": ["0", "0", "1", "2", "4"], "rt": [1343, 30, 9], "actions": ["up", "up", "left"], "actionTimes": [2492, 3020, 3532], "queries": {"click": {"state": {"target": ["3", "4"], "time": [1659, 2127]}, "edge": {"target": [], "time": []}}, "mouseover": {"state": {"target": ["3", "2", "4"], "time": [1534, 1836, 1919]}, "edge": {"target": [], "time": []}}, "mouseout": {"state": {"target": ["3", "2", "4"], "time": [1802, 1869, 2286]}, "edge": {"target": [], "time": []}}}, "displayed_time": "9.15", "trialTime": 9923, "trial_type": "mouselab-mdp", "trial_index": 70, "time_elapsed": 1056495, "internal_node_id": "0.0-4.0-3.0-12.0"}}, {"uniqueid": "w11925840:a75706430", "current_trial": 71, "dateTime": 1664874187101, "trialdata": {"revealed_states": [], "num_clicks_accrued": [0, 0, 0, 0, 0, 0, 0, 0, 0, 0, 0, 0, 0], "stateRewards": ["", -2, -4, -24, 48, -2, -8, -48, -24, 4, 8, 48, 24], "withholdReward": true, "trial_id": "mdp_625355871626", "block": "test2", "trialIndex": 51, "score": 46.75, "costs": -0.25, "simulationMode": [null, null, null], "rewards": [-2, -4, 48], "path": ["0", "0", "1", "2", "4"], "rt": [1430, 7, 33], "actions": ["up", "up", "left"], "actionTimes": [2476, 2983, 3524], "queries": {"click": {"state": {"target": ["4"], "time": [1551]}, "edge": {"target": [], "time": []}}, "mouseover": {"state": {"target": ["4"], "time": [1503]}, "edge": {"target": [], "time": []}}, "mouseout": {"state": {"target": ["4"], "time": [1855]}, "edge": {"target": [], "time": []}}}, "displayed_time": "9.05", "trialTime": 15020, "trial_type": "mouselab-mdp", "trial_index": 71, "time_elapsed": 1071607, "internal_node_id": "0.0-4.0-3.0-13.0"}}, {"uniqueid": "w11925840:a75706430", "current_trial": 72, "dateTime": 1664874198852, "trialdata": {"revealed_states": [], "num_clicks_accrued": [0, 0, 0, 0, 0, 0, 0, 0, 0, 0, 0, 0, 0], "stateRewards": ["", 2, -8, 24, -48, 2, 4, 48, -48, -2, -8, -48, 48], "withholdReward": false, "trial_id": "mdp_629420544881", "block": "test2", "trialIndex": 52, "score": 58.5, "costs": -0.5, "simulationMode": [null, null, null], "rewards": [2, 4, 48], "path": ["0", "0", "5", "6", "7"], "rt": [2372, 10, 46], "actions": ["right", "right", "up"], "actionTimes": [3899, 4418, 4970], "queries": {"click": {"state": {"target": ["8", "7"], "time": [1992, 2646]}, "edge": {"target": [], "time": []}}, "mouseover": {"state": {"target": ["5", "8", "8", "7"], "time": [1651, 1718, 1867, 2537]}, "edge": {"target": [], "time": []}}, "mouseout": {"state": {"target": ["1", "5", "8", "8", "7"], "time": [1166, 1667, 1784, 2420, 2904]}, "edge": {"target": [], "time": []}}}, "displayed_time": "9.53", "trialTime": 11675, "trial_type": "mouselab-mdp", "trial_index": 72, "time_elapsed": 1083359, "internal_node_id": "0.0-4.0-3.0-14.0"}}, {"uniqueid": "w11925840:a75706430", "current_trial": 73, "dateTime": 1664874223956, "trialdata": {"revealed_states": [], "num_clicks_accrued": [0, 0, 0, 0, 0, 0, 0, 0, 0, 0, 0, 0, 0], "stateRewards": ["", 4, -8, -48, 48, -2, 8, -48, 48, -2, -4, 24, -48], "withholdReward": true, "trial_id": "mdp_400558136089", "block": "test2", "trialIndex": 53, "score": 58.75, "costs": -0.25, "simulationMode": [null, null, null], "rewards": [-2, 8, 48], "path": ["0", "0", "5", "6", "8"], "rt": [1636, 66, 90], "actions": ["right", "right", "down"], "actionTimes": [3110, 3678, 4269], "queries": {"click": {"state": {"target": ["8"], "time": [1845]}, "edge": {"target": [], "time": []}}, "mouseover": {"state": {"target": ["8", "6"], "time": [1639, 2191]}, "edge": {"target": [], "time": []}}, "mouseout": {"state": {"target": ["7", "0", "8", "6"], "time": [1106, 1557, 2090, 2207]}, "edge": {"target": [], "time": []}}}, "displayed_time": "10.47", "trialTime": 25030, "trial_type": "mouselab-mdp", "trial_index": 73, "time_elapsed": 1108463, "internal_node_id": "0.0-4.0-3.0-15.0"}}, {"uniqueid": "w11925840:a75706430", "current_trial": 74, "dateTime": 1664874234877, "trialdata": {"revealed_states": [], "num_clicks_accrued": [0, 0, 0, 0, 0, 0, 0, 0, 0, 0, 0, 0, 0], "stateRewards": ["", 4, 4, 24, -48, 2, -8, -24, -48, 4, 8, 48, 48], "withholdReward": true, "trial_id": "mdp_592471239511", "block": "test2", "trialIndex": 54, "score": 63.5, "costs": -1.5, "simulationMode": [null, null, null], "rewards": [4, 8, 48], "path": ["0", "0", "9", "10", "12"], "rt": [6622, 62, 112], "actions": ["left", "left", "down"], "actionTimes": [8173, 8740, 9341], "queries": {"click": {"state": {"target": ["8", "7", "3", "4", "11", "12"], "time": [1960, 2679, 3300, 3698, 4386, 4721]}, "edge": {"target": [], "time": []}}, "mouseover": {"state": {"target": ["5", "8", "6", "7", "3", "2", "4", "10", "11", "10", "12", "9", "10"], "time": [1696, 1829, 2249, 2615, 3232, 3482, 3583, 4183, 4351, 4568, 4634, 6624, 7073]}, "edge": {"target": [], "time": []}}, "mouseout": {"state": {"target": ["0", "5", "8", "6", "7", "7", "3", "2", "4", "10", "11", "10", "12", "9"], "time": [1663, 1714, 2199, 2333, 3015, 3065, 3449, 3533, 3851, 4250, 4518, 4602, 6423, 6991]}, "edge": {"target": [], "time": []}}}, "displayed_time": "10.55", "trialTime": 10844, "trial_type": "mouselab-mdp", "trial_index": 74, "time_elapsed": 1119384, "internal_node_id": "0.0-4.0-3.0-16.0"}}, {"uniqueid": "w11925840:a75706430", "current_trial": 75, "dateTime": 1664874249485, "trialdata": {"revealed_states": [], "num_clicks_accrued": [0, 0, 0, 0, 0, 0, 0, 0, 0, 0, 0, 0, 0], "stateRewards": ["", -4, 4, -24, 48, 2, 4, -48, 24, 4, -8, -24, 24], "withholdReward": false, "trial_id": "mdp_740130150937", "block": "test2", "trialIndex": 55, "score": 52.5, "costs": -0.5, "simulationMode": [null, null, null], "rewards": [-4, 4, 48], "path": ["0", "0", "1", "2", "4"], "rt": [2811, 86, 126], "actions": ["up", "up", "left"], "actionTimes": [4127, 4719, 5343], "queries": {"click": {"state": {"target": ["11", "4"], "time": [1687, 2567]}, "edge": {"target": [], "time": []}}, "mouseover": {"state": {"target": ["9", "11", "4", "2", "3"], "time": [1390, 1476, 2127, 2829, 2944]}, "edge": {"target": [], "time": []}}, "mouseout": {"state": {"target": ["10", "9", "9", "11", "4", "2"], "time": [907, 973, 1409, 2027, 2762, 2877]}, "edge": {"target": [], "time": []}}}, "displayed_time": "9.32", "trialTime": 14527, "trial_type": "mouselab-mdp", "trial_index": 75, "time_elapsed": 1133992, "internal_node_id": "0.0-4.0-3.0-17.0"}}, {"uniqueid": "w11925840:a75706430", "current_trial": 76, "dateTime": 1664874279669, "trialdata": {"revealed_states": [], "num_clicks_accrued": [0, 0, 0, 0, 0, 0, 0, 0, 0, 0, 0, 0, 0], "stateRewards": ["", 4, 8, -24, 48, 4, -8, -48, 48, -4, 8, -24, -48], "withholdReward": false, "trial_id": "mdp_376126356841", "block": "test2", "trialIndex": 56, "score": 48.25, "costs": -0.75, "simulationMode": [null, null, null], "rewards": [4, -8, 48], "path": ["0", "0", "5", "6", "8"], "rt": [2894, 136, 159], "actions": ["right", "right", "down"], "actionTimes": [5020, 5660, 6317], "queries": {"click": {"state": {"target": ["3", "7", "8"], "time": [2570, 3079, 3484]}, "edge": {"target": [], "time": []}}, "mouseover": {"state": {"target": ["3", "7", "6", "8", "5", "1"], "time": [2500, 2985, 3302, 3419, 3720, 3803]}, "edge": {"target": [], "time": []}}, "mouseout": {"state": {"target": ["3", "0", "3", "7", "6", "8", "5", "1"], "time": [1533, 2250, 2801, 3269, 3369, 3687, 3736, 3853]}, "edge": {"target": [], "time": []}}}, "displayed_time": "11.13", "trialTime": 30109, "trial_type": "mouselab-mdp", "trial_index": 76, "time_elapsed": 1164175, "internal_node_id": "0.0-4.0-3.0-18.0"}}, {"uniqueid": "w11925840:a75706430", "current_trial": 77, "dateTime": 1664874303475, "trialdata": {"revealed_states": [], "num_clicks_accrued": [0, 0, 0, 0, 0, 0, 0, 0, 0, 0, 0, 0, 0], "stateRewards": ["", -4, 8, 24, 24, -2, 8, -48, 48, 4, -8, 48, -48], "withholdReward": true, "trial_id": "mdp_295249220524", "block": "test2", "trialIndex": 57, "score": 58.5, "costs": -0.5, "simulationMode": [null, null, null], "rewards": [-2, 8, 48], "path": ["0", "0", "5", "6", "8"], "rt": [2550, 19, 68], "actions": ["right", "right", "down"], "actionTimes": [4072, 4591, 5175], "queries": {"click": {"state": {"target": ["7", "8"], "time": [2057, 2699]}, "edge": {"target": [], "time": []}}, "mouseover": {"state": {"target": ["7", "6", "8", "5"], "time": [1983, 2317, 2584, 2901]}, "edge": {"target": [], "time": []}}, "mouseout": {"state": {"target": ["1", "7", "6", "8", "5", "0"], "time": [1214, 2233, 2367, 2851, 2918, 14406]}, "edge": {"target": [], "time": []}}}, "displayed_time": "10.52", "trialTime": 23727, "trial_type": "mouselab-mdp", "trial_index": 77, "time_elapsed": 1187982, "internal_node_id": "0.0-4.0-3.0-19.0"}}, {"uniqueid": "w11925840:a75706430", "current_trial": 78, "dateTime": 1664874320924, "trialdata": {"revealed_states": [], "num_clicks_accrued": [0, 0, 0, 0, 0, 0, 0, 0, 0, 0, 0, 0, 0], "stateRewards": ["", -4, 8, -48, -48, -2, -8, -24, -48, 2, -4, -48, 24], "withholdReward": true, "trial_id": "mdp_743906784415", "block": "test2", "trialIndex": 58, "score": 25.5, "costs": -1.5, "simulationMode": [null, null, null], "rewards": [2, -4, 24], "path": ["0", "0", "9", "10", "12"], "rt": [4574, 490, 88], "actions": ["left", "left", "down"], "actionTimes": [5809, 6801, 7385], "queries": {"click": {"state": {"target": ["7", "8", "4", "3", "11", "12"], "time": [1984, 2558, 3238, 3632, 4161, 4542]}, "edge": {"target": [], "time": []}}, "mouseover": {"state": {"target": ["5", "7", "6", "8", "5", "1", "4", "2", "3", "1", "11", "11", "10", "12"], "time": [1703, 1837, 2252, 2369, 2889, 2954, 3105, 3507, 3590, 3873, 4007, 4073, 4391, 4457]}, "edge": {"target": [], "time": []}}, "mouseout": {"state": {"target": ["5", "7", "6", "8", "5", "1", "4", "2", "3", "1", "11", "11", "10", "12"], "time": [1770, 2186, 2320, 2839, 2905, 3021, 3474, 3541, 3823, 3923, 4040, 4356, 4440, 4908]}, "edge": {"target": [], "time": []}}}, "displayed_time": "10.24", "trialTime": 17385, "trial_type": "mouselab-mdp", "trial_index": 78, "time_elapsed": 1205431, "internal_node_id": "0.0-4.0-3.0-20.0"}}, {"uniqueid": "w11925840:a75706430", "current_trial": 79, "dateTime": 1664874387803, "trialdata": {"revealed_states": [], "num_clicks_accrued": [0, 0, 0, 0, 0, 0, 0, 0, 0, 0, 0, 0, 0], "stateRewards": ["", 2, -8, 48, -24, -4, -8, -24, 48, -2, 4, 24, -48], "withholdReward": true, "trial_id": "mdp_186932504904", "block": "test2", "trialIndex": 59, "score": 40.5, "costs": -0.5, "simulationMode": [null, null, null], "rewards": [-4, -8, 48], "path": ["0", "0", "5", "6", "8"], "rt": [2592, 110, 75], "actions": ["right", "right", "down"], "actionTimes": [4162, 4770, 5338], "queries": {"click": {"state": {"target": ["7", "8"], "time": [2279, 2667]}, "edge": {"target": [], "time": []}}, "mouseover": {"state": {"target": ["7", "7", "6", "8"], "time": [1889, 2237, 2505, 2605]}, "edge": {"target": [], "time": []}}, "mouseout": {"state": {"target": ["0", "7", "7", "6", "8"], "time": [1688, 1972, 2456, 2556, 2906]}, "edge": {"target": [], "time": []}}}, "displayed_time": "10.57", "trialTime": 66802, "trial_type": "mouselab-mdp", "trial_index": 79, "time_elapsed": 1272310, "internal_node_id": "0.0-4.0-3.0-21.0"}}, {"uniqueid": "w11925840:a75706430", "current_trial": 80, "dateTime": 1664874436907, "trialdata": {"revealed_states": [], "num_clicks_accrued": [0, 0, 0, 0, 0, 0, 0, 0, 0, 0, 0, 0, 0], "stateRewards": ["", 2, 8, 24, -48, 4, 8, 24, 24, 4, -8, 48, 48], "withholdReward": true, "trial_id": "mdp_646103824875", "block": "test2", "trialIndex": 60, "score": 47.5, "costs": -1.5, "simulationMode": [null, null, null], "rewards": [4, -8, 48], "path": ["0", "0", "9", "10", "12"], "rt": [7628, 341, 265], "actions": ["left", "left", "down"], "actionTimes": [45893, 46733, 47510], "queries": {"click": {"state": {"target": ["7", "8", "3", "4", "11", "12"], "time": [38953, 39387, 39978, 40349, 41203, 41694]}, "edge": {"target": [], "time": []}}, "mouseover": {"state": {"target": ["7", "6", "8", "5", "3", "2", "4", "11", "10", "12"], "time": [38796, 39160, 39277, 39612, 39864, 40161, 40278, 40948, 41396, 41463]}, "edge": {"target": [], "time": []}}, "mouseout": {"state": {"target": ["7", "5", "0", "7", "6", "8", "5", "3", "2", "4", "11", "10"], "time": [37606, 37656, 37773, 39127, 39210, 39560, 39645, 40129, 40228, 40597, 41364, 41446]}, "edge": {"target": [], "time": []}}}, "displayed_time": "48.01", "trialTime": 49021, "trial_type": "mouselab-mdp", "trial_index": 80, "time_elapsed": 1321414, "internal_node_id": "0.0-4.0-3.0-22.0"}}, {"uniqueid": "w11925840:a75706430", "current_trial": 81, "dateTime": 1664874468346, "trialdata": {"revealed_states": [], "num_clicks_accrued": [0, 0, 0, 0, 0, 0, 0, 0, 0, 0, 0, 0, 0], "stateRewards": ["", 4, 4, 48, -48, -2, -8, -48, -24, 2, 4, -24, -48], "withholdReward": true, "trial_id": "mdp_239929662917", "block": "test2", "trialIndex": 61, "score": 60, "costs": -1, "simulationMode": [null, null, null], "rewards": [4, 4, 48], "path": ["0", "0", "1", "2", "3"], "rt": [3388, 144, 69], "actions": ["up", "up", "right"], "actionTimes": [4783, 5431, 5990], "queries": {"click": {"state": {"target": ["8", "7", "3", "4"], "time": [2235, 2745, 3415, 3889]}, "edge": {"target": [], "time": []}}, "mouseover": {"state": {"target": ["0", "8", "6", "7", "3", "2", "4"], "time": [1481, 2165, 2582, 2648, 3350, 3582, 3716]}, "edge": {"target": [], "time": []}}, "mouseout": {"state": {"target": ["12", "9", "0", "0", "8", "6", "7", "3", "2"], "time": [1061, 1163, 1346, 1614, 2548, 2614, 2998, 3550, 3649]}, "edge": {"target": [], "time": []}}}, "displayed_time": "9.40", "trialTime": 31359, "trial_type": "mouselab-mdp", "trial_index": 81, "time_elapsed": 1352853, "internal_node_id": "0.0-4.0-3.0-23.0"}}, {"uniqueid": "w11925840:a75706430", "current_trial": 82, "dateTime": 1664874482754, "trialdata": {"revealed_states": [], "num_clicks_accrued": [0, 0, 0, 0, 0, 0, 0, 0, 0, 0, 0, 0, 0], "stateRewards": ["", 2, 8, 48, 24, -4, 4, -48, 24, 2, 8, 48, 48], "withholdReward": true, "trial_id": "mdp_367344599162", "block": "test2", "trialIndex": 62, "score": 62, "costs": -1, "simulationMode": [null, null, null], "rewards": [2, 8, 48], "path": ["0", "0", "1", "2", "3"], "rt": [2940, 124, 150], "actions": ["up", "up", "right"], "actionTimes": [4601, 5225, 5865], "queries": {"click": {"state": {"target": ["7", "8", "3", "4"], "time": [2258, 2700, 3262, 3666]}, "edge": {"target": [], "time": []}}, "mouseover": {"state": {"target": ["7", "6", "8", "3", "2", "4"], "time": [2159, 2559, 2659, 3159, 3461, 3527]}, "edge": {"target": [], "time": []}}, "mouseout": {"state": {"target": ["4", "2", "1", "7", "6", "8", "3", "2"], "time": [1039, 1073, 1372, 2526, 2593, 2944, 3443, 3494]}, "edge": {"target": [], "time": []}}}, "displayed_time": "10.66", "trialTime": 14321, "trial_type": "mouselab-mdp", "trial_index": 82, "time_elapsed": 1367261, "internal_node_id": "0.0-4.0-3.0-24.0"}}, {"uniqueid": "w11925840:a75706430", "current_trial": 83, "dateTime": 1664874511066, "trialdata": {"revealed_states": [], "num_clicks_accrued": [0, 0, 0, 0, 0, 0, 0, 0, 0, 0, 0, 0, 0], "stateRewards": ["", -4, 8, -24, -24, 2, 4, 48, 48, -2, 4, 24, -48], "withholdReward": false, "trial_id": "mdp_397308196941", "block": "test2", "trialIndex": 63, "score": 58, "costs": -1, "simulationMode": [null, null, null], "rewards": [2, 4, 48], "path": ["0", "0", "5", "6", "7"], "rt": [2779, 68, 76], "actions": ["right", "right", "up"], "actionTimes": [4608, 5168, 5743], "queries": {"click": {"state": {"target": ["3", "4", "7", "8"], "time": [2348, 2738, 3241, 3579]}, "edge": {"target": [], "time": []}}, "mouseover": {"state": {"target": ["3", "2", "4", "1", "7", "6", "8"], "time": [2275, 2543, 2643, 3028, 3145, 3444, 3528]}, "edge": {"target": [], "time": []}}, "mouseout": {"state": {"target": ["4", "1", "0", "3", "2", "4", "1", "7", "6", "8", "5"], "time": [1207, 1657, 1991, 2508, 2594, 2928, 3061, 3410, 3478, 3778, 27403]}, "edge": {"target": [], "time": []}}}, "displayed_time": "10.83", "trialTime": 28224, "trial_type": "mouselab-mdp", "trial_index": 83, "time_elapsed": 1395573, "internal_node_id": "0.0-4.0-3.0-25.0"}}, {"uniqueid": "w11925840:a75706430", "current_trial": 84, "dateTime": 1664874522274, "trialdata": {"revealed_states": [], "num_clicks_accrued": [0, 0, 0, 0, 0, 0, 0, 0, 0, 0, 0, 0, 0], "stateRewards": ["", 2, 4, 48, -48, 2, 8, -24, 48, 4, 8, 48, -48], "withholdReward": true, "trial_id": "mdp_110142964375", "block": "test2", "trialIndex": 64, "score": 62.75, "costs": -0.25, "simulationMode": [null, null, null], "rewards": [2, 8, 48], "path": ["0", "0", "5", "6", "8"], "rt": [1826, 24, 116], "actions": ["right", "right", "down"], "actionTimes": [3013, 3533, 4157], "queries": {"click": {"state": {"target": ["8"], "time": [1805]}, "edge": {"target": [], "time": []}}, "mouseover": {"state": {"target": ["0", "8", "6"], "time": [1352, 1686, 2103]}, "edge": {"target": [], "time": []}}, "mouseout": {"state": {"target": ["0", "0", "8", "6"], "time": [1120, 1587, 2036, 2171]}, "edge": {"target": [], "time": []}}}, "displayed_time": "10.19", "trialTime": 11125, "trial_type": "mouselab-mdp", "trial_index": 84, "time_elapsed": 1406780, "internal_node_id": "0.0-4.0-3.0-26.0"}}, {"uniqueid": "w11925840:a75706430", "current_trial": 85, "dateTime": 1664874533818, "trialdata": {"revealed_states": [], "num_clicks_accrued": [0, 0, 0, 0, 0, 0, 0, 0, 0, 0, 0, 0, 0], "stateRewards": ["", -2, 8, -48, -24, -2, 8, 48, -48, -4, 8, 24, 48], "withholdReward": true, "trial_id": "mdp_160707003673", "block": "test2", "trialIndex": 65, "score": 58.75, "costs": -0.25, "simulationMode": [null, null, null], "rewards": [-2, 8, 48], "path": ["0", "0", "5", "6", "7"], "rt": [2164, 75, 42], "actions": ["right", "right", "up"], "actionTimes": [4634, 5202, 5738], "queries": {"click": {"state": {"target": ["7"], "time": [2975]}, "edge": {"target": [], "time": []}}, "mouseover": {"state": {"target": ["7", "6", "8"], "time": [2958, 3342, 3424]}, "edge": {"target": [], "time": []}}, "mouseout": {"state": {"target": ["7", "6"], "time": [3308, 3391]}, "edge": {"target": [], "time": []}}}, "displayed_time": "10.47", "trialTime": 11466, "trial_type": "mouselab-mdp", "trial_index": 85, "time_elapsed": 1418324, "internal_node_id": "0.0-4.0-3.0-27.0"}}, {"uniqueid": "w11925840:a75706430", "current_trial": 86, "dateTime": 1664874565265, "trialdata": {"revealed_states": [], "num_clicks_accrued": [0, 0, 0, 0, 0, 0, 0, 0, 0, 0, 0, 0, 0], "stateRewards": ["", 4, -8, -48, 24, 4, 4, -24, -24, 2, 4, -48, 24], "withholdReward": false, "trial_id": "mdp_626971397185", "block": "test2", "trialIndex": 66, "score": 23.5, "costs": -1.5, "simulationMode": [null, null, null], "rewards": [4, -8, 24], "path": ["0", "0", "1", "2", "4"], "rt": [3870, 156, 283], "actions": ["up", "up", "left"], "actionTimes": [5257, 5904, 6680], "queries": {"click": {"state": {"target": ["7", "8", "3", "4", "11", "12"], "time": [1849, 2224, 2718, 3252, 3744, 4098]}, "edge": {"target": [], "time": []}}, "mouseover": {"state": {"target": ["5", "7", "6", "8", "5", "3", "2", "4", "4", "11", "10", "12"], "time": [1572, 1721, 2054, 2138, 2506, 2606, 2890, 2939, 3209, 3674, 3975, 4041]}, "edge": {"target": [], "time": []}}, "mouseout": {"state": {"target": ["8", "0", "5", "7", "6", "8", "5", "3", "2", "4", "4", "11", "10", "12"], "time": [1036, 1522, 1638, 2021, 2104, 2474, 2523, 2855, 2922, 2973, 3424, 3924, 4008, 4408]}, "edge": {"target": [], "time": []}}}, "displayed_time": "10.39", "trialTime": 31360, "trial_type": "mouselab-mdp", "trial_index": 86, "time_elapsed": 1449772, "internal_node_id": "0.0-4.0-3.0-28.0"}}, {"uniqueid": "w11925840:a75706430", "current_trial": 87, "dateTime": 1664874578785, "trialdata": {"revealed_states": [], "num_clicks_accrued": [0, 0, 0, 0, 0, 0, 0, 0, 0, 0, 0, 0, 0], "stateRewards": ["", 2, 4, -48, -48, 4, 4, -48, -48, -2, -8, 48, -24], "withholdReward": false, "trial_id": "mdp_175327338412", "block": "test2", "trialIndex": 67, "score": 41.5, "costs": -1.5, "simulationMode": [null, null, null], "rewards": [-2, -8, 48], "path": ["0", "0", "9", "10", "11"], "rt": [3665, 33, 34], "actions": ["left", "left", "up"], "actionTimes": [5517, 6045, 6581], "queries": {"click": {"state": {"target": ["7", "8", "3", "4", "11", "12"], "time": [2360, 2971, 3535, 3911, 4379, 4686]}, "edge": {"target": [], "time": []}}, "mouseover": {"state": {"target": ["7", "6", "8", "8", "5", "3", "2", "2", "4", "11", "10", "12"], "time": [2304, 2538, 2622, 2921, 3155, 3473, 3706, 3773, 3824, 4298, 4557, 4626]}, "edge": {"target": [], "time": []}}, "mouseout": {"state": {"target": ["7", "6", "8", "8", "5", "3", "2", "2", "4", "11", "10"], "time": [2504, 2588, 2688, 3139, 3173, 3672, 3723, 3806, 4107, 4524, 4590]}, "edge": {"target": [], "time": []}}}, "displayed_time": "10.85", "trialTime": 13438, "trial_type": "mouselab-mdp", "trial_index": 87, "time_elapsed": 1463292, "internal_node_id": "0.0-4.0-3.0-29.0"}}, {"uniqueid": "w11925840:a75706430", "current_trial": 88, "dateTime": 1664874913865, "trialdata": {"rt": 335072, "stimulus": "<h1> End of block! </h1>\n\nYou have reached the end of the block 2/4. If you need a short break, feel free to take one now before moving on.\n\n<br><br>\nIn the next block, you will complete another 30 rounds of this game.\n\n<br><br>\n<div style='text-align: center;'>Press <code>space</code> to begin.</div>\n<br><br>\n<div style='text-align: center;'>(If the experiment doesn't continue, try clicking on the text and then pressing <code>space</code>.)</div>", "response": " ", "trial_id": "mdp_ready_3", "trial_type": "html-keyboard-response", "trial_index": 88, "time_elapsed": 1798372, "internal_node_id": "0.0-4.0-4.0"}}, {"uniqueid": "w11925840:a75706430", "current_trial": 89, "dateTime": 1664874928230, "trialdata": {"revealed_states": [], "num_clicks_accrued": [0, 0, 0, 0, 0, 0, 0, 0, 0, 0, 0, 0, 0], "stateRewards": ["", -2, 4, -24, 24, -4, -8, 24, -48, -4, -4, -48, -24], "withholdReward": true, "trial_id": "mdp_753137520419", "block": "test3", "trialIndex": 68, "score": 15.5, "costs": -1.5, "simulationMode": [null, null, null], "rewards": [-4, -8, 24], "path": ["0", "0", "5", "6", "7"], "rt": [3927, 32, 73], "actions": ["right", "right", "up"], "actionTimes": [6194, 6735, 7327], "queries": {"click": {"state": {"target": ["7", "8", "4", "3", "11", "12"], "time": [3226, 3779, 4476, 4854, 5470, 5826]}, "edge": {"target": [], "time": []}}, "mouseover": {"state": {"target": ["5", "6", "7", "6", "8", "1", "2", "4", "2", "3", "1", "10", "11", "10", "12"], "time": [2763, 2960, 3094, 3479, 3698, 4147, 4214, 4347, 4613, 4681, 5016, 5148, 5398, 5633, 5750]}, "edge": {"target": [], "time": []}}, "mouseout": {"state": {"target": ["12", "0", "5", "6", "7", "6", "8", "1", "2", "4", "2", "3", "1", "10", "11", "10", "12"], "time": [1626, 2409, 2796, 3062, 3445, 3562, 3948, 4180, 4314, 4597, 4648, 4998, 5048, 5182, 5599, 5700, 6001]}, "edge": {"target": [], "time": []}}}, "displayed_time": "10.27", "trialTime": 14271, "trial_type": "mouselab-mdp", "trial_index": 89, "time_elapsed": 1812737, "internal_node_id": "0.0-4.0-5.0-0.0"}}, {"uniqueid": "w11925840:a75706430", "current_trial": 90, "dateTime": 1664874953870, "trialdata": {"revealed_states": [], "num_clicks_accrued": [0, 0, 0, 0, 0, 0, 0, 0, 0, 0, 0, 0, 0], "stateRewards": ["", 2, -8, 48, -24, 2, 8, 24, -24, 4, -4, -48, -48], "withholdReward": true, "trial_id": "mdp_130946197263", "block": "test3", "trialIndex": 69, "score": 46.75, "costs": -0.25, "simulationMode": [null, null, null], "rewards": [2, -8, 48], "path": ["0", "0", "1", "2", "3"], "rt": [1487, 108, 1411], "actions": ["up", "up", "right"], "actionTimes": [2274, 2898, 4818], "queries": {"click": {"state": {"target": ["3"], "time": [1444]}, "edge": {"target": [], "time": []}}, "mouseover": {"state": {"target": ["3"], "time": [1253]}, "edge": {"target": [], "time": []}}, "mouseout": {"state": {"target": ["0", "3"], "time": [936, 1653]}, "edge": {"target": [], "time": []}}}, "displayed_time": "7.79", "trialTime": 25546, "trial_type": "mouselab-mdp", "trial_index": 90, "time_elapsed": 1838377, "internal_node_id": "0.0-4.0-5.0-1.0"}}, {"uniqueid": "w11925840:a75706430", "current_trial": 91, "dateTime": 1664874969567, "trialdata": {"revealed_states": [], "num_clicks_accrued": [0, 0, 0, 0, 0, 0, 0, 0, 0, 0, 0, 0, 0], "stateRewards": ["", -2, 4, 24, 48, 2, 4, -48, -48, 2, 8, 48, -48], "withholdReward": true, "trial_id": "mdp_409609775558", "block": "test3", "trialIndex": 70, "score": 54, "costs": -1, "simulationMode": [null, null, null], "rewards": [-2, 4, 48], "path": ["0", "0", "1", "2", "4"], "rt": [3492, 102, 75], "actions": ["up", "up", "left"], "actionTimes": [4800, 5400, 5976], "queries": {"click": {"state": {"target": ["7", "8", "3", "4"], "time": [1943, 2646, 3162, 3663]}, "edge": {"target": [], "time": []}}, "mouseover": {"state": {"target": ["7", "6", "8", "3", "4"], "time": [1858, 2376, 2527, 3028, 3560]}, "edge": {"target": [], "time": []}}, "mouseout": {"state": {"target": ["0", "7", "6", "8", "3", "4"], "time": [1576, 2276, 2444, 2910, 3328, 3794]}, "edge": {"target": [], "time": []}}}, "displayed_time": "9.31", "trialTime": 15616, "trial_type": "mouselab-mdp", "trial_index": 91, "time_elapsed": 1854073, "internal_node_id": "0.0-4.0-5.0-2.0"}}, {"uniqueid": "w11925840:a75706430", "current_trial": 92, "dateTime": 1664874980623, "trialdata": {"revealed_states": [], "num_clicks_accrued": [0, 0, 0, 0, 0, 0, 0, 0, 0, 0, 0, 0, 0], "stateRewards": ["", -2, 8, -48, 48, -4, -8, 24, 24, -2, -4, 48, -48], "withholdReward": false, "trial_id": "mdp_867247318592", "block": "test3", "trialIndex": 71, "score": 58.25, "costs": -0.75, "simulationMode": [null, null, null], "rewards": [-2, 8, 48], "path": ["0", "0", "1", "2", "4"], "rt": [3370, 142, 99], "actions": ["up", "up", "left"], "actionTimes": [4823, 5455, 6047], "queries": {"click": {"state": {"target": ["3", "4", "11"], "time": [2072, 2655, 3108]}, "edge": {"target": [], "time": []}}, "mouseover": {"state": {"target": ["3", "2", "4", "11"], "time": [1974, 2424, 2524, 2924]}, "edge": {"target": [], "time": []}}, "mouseout": {"state": {"target": ["0", "3", "2", "4", "11"], "time": [1556, 2392, 2491, 2840, 3527]}, "edge": {"target": [], "time": []}}}, "displayed_time": "9.45", "trialTime": 10975, "trial_type": "mouselab-mdp", "trial_index": 92, "time_elapsed": 1865130, "internal_node_id": "0.0-4.0-5.0-3.0"}}, {"uniqueid": "w11925840:a75706430", "current_trial": 93, "dateTime": 1664874992614, "trialdata": {"revealed_states": [], "num_clicks_accrued": [0, 0, 0, 0, 0, 0, 0, 0, 0, 0, 0, 0, 0], "stateRewards": ["", 4, -8, 24, 48, 2, 4, 48, 48, 2, 8, -48, -48], "withholdReward": false, "trial_id": "mdp_783704746330", "block": "test3", "trialIndex": 72, "score": 48.5, "costs": -0.5, "simulationMode": [null, null, null], "rewards": [4, -8, 48], "path": ["0", "0", "1", "2", "4"], "rt": [2362, 375, 132], "actions": ["up", "up", "left"], "actionTimes": [3857, 4736, 5361], "queries": {"click": {"state": {"target": ["3", "4"], "time": [2051, 2582]}, "edge": {"target": [], "time": []}}, "mouseover": {"state": {"target": ["3", "4"], "time": [1958, 2372]}, "edge": {"target": [], "time": []}}, "mouseout": {"state": {"target": ["1", "3", "4"], "time": [1003, 2255, 2825]}, "edge": {"target": [], "time": []}}}, "displayed_time": "9.50", "trialTime": 11912, "trial_type": "mouselab-mdp", "trial_index": 93, "time_elapsed": 1877121, "internal_node_id": "0.0-4.0-5.0-4.0"}}, {"uniqueid": "w11925840:a75706430", "current_trial": 94, "dateTime": 1664875007486, "trialdata": {"revealed_states": [], "num_clicks_accrued": [0, 0, 0, 0, 0, 0, 0, 0, 0, 0, 0, 0, 0], "stateRewards": ["", -4, -4, -48, -24, 2, 8, 24, -48, 4, 4, 48, 48], "withholdReward": true, "trial_id": "mdp_693501840209", "block": "test3", "trialIndex": 73, "score": 59.5, "costs": -1.5, "simulationMode": [null, null, null], "rewards": [4, 4, 48], "path": ["0", "0", "9", "10", "12"], "rt": [4062, 69, 165], "actions": ["left", "left", "down"], "actionTimes": [5739, 6299, 6963], "queries": {"click": {"state": {"target": ["4",