{"condition": 1, "counterbalance": 0, "assignmentId": "a40339369", "workerId": "w47149558", "hitId": "h57694873", "currenttrial": 137, "bonus": 0, "data": [{"uniqueid": "w47149558:a40339369", "current_trial": 0, "dateTime": 1664554991590, "trialdata": {"success": true, "trial_type": "fullscreen", "trial_index": 0, "time_elapsed": 6456, "internal_node_id": "0.0-0.0"}}, {"uniqueid": "w47149558:a40339369", "current_trial": 1, "dateTime": 1664554999797, "trialdata": {"view_history": [{"page_index": 0, "viewing_time": 8203}], "rt": 8204, "trial_id": "exp_instructions_no_distractor", "trial_type": "instructions", "trial_index": 1, "time_elapsed": 14663, "internal_node_id": "0.0-1.0"}}, {"uniqueid": "w47149558:a40339369", "current_trial": 2, "dateTime": 1664555005901, "trialdata": {"success": true, "trial_type": "fullscreen", "trial_index": 2, "time_elapsed": 20767, "internal_node_id": "0.0-2.0-0.0"}}, {"uniqueid": "w47149558:a40339369", "current_trial": 3, "dateTime": 1664555078484, "trialdata": {"view_history": [{"page_index": 0, "viewing_time": 34595}, {"page_index": 1, "viewing_time": 20590}, {"page_index": 2, "viewing_time": 7250}, {"page_index": 3, "viewing_time": 2597}, {"page_index": 4, "viewing_time": 7548}], "rt": 72581, "trial_id": "mouselab_instructions_1", "trial_type": "instructions", "trial_index": 3, "time_elapsed": 93350, "internal_node_id": "0.0-2.0-1.0"}}, {"uniqueid": "w47149558:a40339369", "current_trial": 4, "dateTime": 1664555094611, "trialdata": {"revealed_states": [], "num_clicks_accrued": [0, 0, 0, 0, 0, 0, 0, 0, 0, 0, 0, 0, 0], "stateRewards": ["", -10, -10, 10, -10, -10, -10, 10, -10, 10, 10, -10, -10], "withholdReward": false, "trial_id": "practice_1", "block": "test", "trialIndex": 0, "score": 11.75, "costs": -0.25, "simulationMode": [null, null, null], "rewards": [10, 10, -10], "path": ["0", "0", "9", "10", "11"], "rt": [6580, 1851, 239], "actions": ["left", "left", "up"], "actionTimes": [8492, 10831, 11565], "queries": {"click": {"state": {"target": ["5"], "time": [6282]}, "edge": {"target": [], "time": []}}, "mouseover": {"state": {"target": ["6", "5", "5", "8"], "time": [5307, 5325, 5523, 7441]}, "edge": {"target": [], "time": []}}, "mouseout": {"state": {"target": ["5", "6", "5", "0", "6", "5", "5", "5", "8", "5", "8"], "time": [372, 405, 1506, 2374, 5323, 5341, 7260, 7408, 7526, 7692, 14160]}, "edge": {"target": [], "time": []}}}, "displayed_time": "12.06", "trialTime": 15979, "trial_type": "mouselab-mdp", "trial_index": 4, "time_elapsed": 109477, "internal_node_id": "0.0-2.0-2.0-0.0"}}, {"uniqueid": "w47149558:a40339369", "current_trial": 5, "dateTime": 1664555105985, "trialdata": {"revealed_states": [], "num_clicks_accrued": [0, 0, 0, 0, 0, 0, 0, 0, 0, 0, 0, 0, 0], "stateRewards": ["", -10, 10, 10, 10, -10, -10, 10, -10, -10, 10, 10, 10], "withholdReward": false, "trial_id": "practice_2", "block": "test", "trialIndex": 1, "score": -28.25, "costs": -0.25, "simulationMode": [null, null, null], "rewards": [-10, -10, -10], "path": ["0", "0", "5", "6", "8"], "rt": [3493, 151, 328], "actions": ["right", "right", "down"], "actionTimes": [6960, 7616, 8440], "queries": {"click": {"state": {"target": ["1"], "time": [4899]}, "edge": {"target": [], "time": []}}, "mouseover": {"state": {"target": ["5", "6", "6", "1", "6"], "time": [3794, 3810, 4360, 4676, 5143]}, "edge": {"target": [], "time": []}}, "mouseout": {"state": {"target": ["5", "5", "0", "5", "6", "6", "1", "6"], "time": [2394, 2575, 3776, 3809, 3826, 4376, 5110, 5160]}, "edge": {"target": [], "time": []}}}, "displayed_time": "8.93", "trialTime": 11333, "trial_type": "mouselab-mdp", "trial_index": 5, "time_elapsed": 120850, "internal_node_id": "0.0-2.0-2.0-1.0"}}, {"uniqueid": "w47149558:a40339369", "current_trial": 6, "dateTime": 1664555140535, "trialdata": {"view_history": [{"page_index": 0, "viewing_time": 19700}, {"page_index": 1, "viewing_time": 3719}, {"page_index": 2, "viewing_time": 11125}], "rt": 34544, "trial_id": "mouselab_instructions_2_scarce", "trial_type": "instructions", "trial_index": 6, "time_elapsed": 155401, "internal_node_id": "0.0-2.0-3.0"}}, {"uniqueid": "w47149558:a40339369", "current_trial": 7, "dateTime": 1664555171670, "trialdata": {"rt": 31131, "response": {"Q0": "$-48 to $48", "Q1": "The cost is always $0.25.", "Q2": "The better I perform the higher my bonus will be.", "Q3": "No, the amount of cash at each node of the web may be different each time.", "Q4": "The values of the nodes walked through from start to finish.", "Q5": "No, the spider might forget to count the money on some rounds."}, "question_order": [0, 1, 2, 3, 4, 5], "correct": {"Q0": "$-48 to $48", "Q1": "The cost is always $0.25.", "Q2": "The better I perform the higher my bonus will be.", "Q3": "No, the amount of cash at each node of the web may be different each time.", "Q4": "The values of the nodes walked through from start to finish.", "Q5": "No, the spider might forget to count the money on some rounds."}, "trial_id": "mouselab_quiz_scarce", "trial_type": "survey-multi-choice", "trial_index": 7, "time_elapsed": 186536, "internal_node_id": "0.0-2.0-4.0"}}, {"uniqueid": "w47149558:a40339369", "current_trial": 8, "dateTime": 1664555178139, "trialdata": {"rt": 6460, "stimulus": "\n<h1> Get ready to start the game! </h1>\n\nThank you for reading the instructions. Get ready start with the first of 4 block(s) of this game.\n<br><br>\nIn this first block, you will complete 30 rounds of this game before moving on.\n<br><br>\nRemember, the more money the spider gets, the bigger your bonus will be!\n<br><br>\n<div style='text-align: center;'>Press <code>space</code> to begin.</div>\n\n<br><br>\n(If, at any point, the <code>space</code> key does not take you to the next page, click once on the text and try again.)", "response": " ", "trial_id": "mdp_ready_1", "trial_type": "html-keyboard-response", "trial_index": 8, "time_elapsed": 193005, "internal_node_id": "0.0-4.0-0.0"}}, {"uniqueid": "w47149558:a40339369", "current_trial": 9, "dateTime": 1664555191383, "trialdata": {"revealed_states": [], "num_clicks_accrued": [0, 0, 0, 0, 0, 0, 0, 0, 0, 0, 0, 0, 0], "stateRewards": ["", 4, 8, 48, -48, -4, 8, -24, -24, -4, 8, 48, 48], "withholdReward": true, "trial_id": "mdp_377640328420", "block": "test1", "trialIndex": 2, "score": 56.5, "costs": -0.5, "simulationMode": [null, null, null], "rewards": [-4, 8, 48], "path": ["0", "0", "9", "10", "11"], "rt": [5755, 82, 672], "actions": ["left", "left", "up"], "actionTimes": [7394, 7994, 9164], "queries": {"click": {"state": {"target": ["5", "9"], "time": [2360, 3480]}, "edge": {"target": [], "time": []}}, "mouseover": {"state": {"target": ["0", "5", "9"], "time": [1707, 2208, 2907]}, "edge": {"target": [], "time": []}}, "mouseout": {"state": {"target": ["2", "1", "0", "0", "5", "9", "0", "5"], "time": [1156, 1240, 1407, 1791, 2522, 3642, 10177, 10227]}, "edge": {"target": [], "time": []}}}, "displayed_time": "10.64", "trialTime": 13196, "trial_type": "mouselab-mdp", "trial_index": 9, "time_elapsed": 206248, "internal_node_id": "0.0-4.0-1.0-0.0"}}, {"uniqueid": "w47149558:a40339369", "current_trial": 10, "dateTime": 1664555202553, "trialdata": {"revealed_states": [], "num_clicks_accrued": [0, 0, 0, 0, 0, 0, 0, 0, 0, 0, 0, 0, 0], "stateRewards": ["", -4, 8, 24, 24, -2, 8, -48, 48, 4, -8, 48, -48], "withholdReward": false, "trial_id": "mdp_295249220524", "block": "test1", "trialIndex": 3, "score": -47.75, "costs": -0.75, "simulationMode": [null, null, null], "rewards": [4, -8, -48], "path": ["0", "0", "9", "10", "12"], "rt": [3739, 1091, 228], "actions": ["left", "left", "down"], "actionTimes": [5065, 6652, 7373], "queries": {"click": {"state": {"target": ["5", "1", "9"], "time": [1973, 2648, 3996]}, "edge": {"target": [], "time": []}}, "mouseover": {"state": {"target": ["5", "0", "1", "0", "9", "9"], "time": [1809, 2373, 2473, 2906, 3178, 3692]}, "edge": {"target": [], "time": []}}, "mouseout": {"state": {"target": ["0", "0", "5", "0", "1", "0", "9", "9"], "time": [1005, 1622, 2123, 2406, 2756, 2992, 3575, 4124]}, "edge": {"target": [], "time": []}}}, "displayed_time": "9.33", "trialTime": 11129, "trial_type": "mouselab-mdp", "trial_index": 10, "time_elapsed": 217419, "internal_node_id": "0.0-4.0-1.0-1.0"}}, {"uniqueid": "w47149558:a40339369", "current_trial": 11, "dateTime": 1664555215355, "trialdata": {"revealed_states": [], "num_clicks_accrued": [0, 0, 0, 0, 0, 0, 0, 0, 0, 0, 0, 0, 0], "stateRewards": ["", -2, 8, -48, -24, -2, 8, 48, -48, -4, 8, 24, 48], "withholdReward": true, "trial_id": "mdp_160707003673", "block": "test1", "trialIndex": 4, "score": -37.5, "costs": -0.5, "simulationMode": [null, null, null], "rewards": [-2, 8, -48], "path": ["0", "0", "5", "6", "8"], "rt": [2722, 69, 3920], "actions": ["right", "right", "down"], "actionTimes": [4281, 4849, 9266], "queries": {"click": {"state": {"target": ["5", "6"], "time": [2572, 3252]}, "edge": {"target": [], "time": []}}, "mouseover": {"state": {"target": ["0", "5", "5", "6", "6"], "time": [1726, 2142, 2384, 2692, 2845]}, "edge": {"target": [], "time": []}}, "mouseout": {"state": {"target": ["12", "0", "0", "0", "5", "5", "6", "6", "8", "5", "1", "5", "8", "7"], "time": [775, 1192, 1361, 1759, 2176, 2676, 2709, 3528, 5294, 5310, 5510, 5543, 6383, 8495]}, "edge": {"target": [], "time": []}}}, "displayed_time": "10.56", "trialTime": 12762, "trial_type": "mouselab-mdp", "trial_index": 11, "time_elapsed": 230221, "internal_node_id": "0.0-4.0-1.0-2.0"}}, {"uniqueid": "w47149558:a40339369", "current_trial": 12, "dateTime": 1664555227309, "trialdata": {"revealed_states": [], "num_clicks_accrued": [0, 0, 0, 0, 0, 0, 0, 0, 0, 0, 0, 0, 0], "stateRewards": ["", 2, -4, -24, -48, -2, 8, -24, 48, -2, 8, 24, -48], "withholdReward": true, "trial_id": "mdp_566582551557", "block": "test1", "trialIndex": 5, "score": -21.25, "costs": -0.25, "simulationMode": [null, null, null], "rewards": [2, -4, -24], "path": ["0", "0", "1", "2", "3"], "rt": [2169, 1218, 364], "actions": ["up", "up", "right"], "actionTimes": [3748, 5465, 6329], "queries": {"click": {"state": {"target": ["1"], "time": [2695]}, "edge": {"target": [], "time": []}}, "mouseover": {"state": {"target": ["0", "9", "1", "0"], "time": [1929, 2211, 2511, 2878]}, "edge": {"target": [], "time": []}}, "mouseout": {"state": {"target": ["4", "9", "0", "0", "0", "9", "1", "0", "10", "2"], "time": [811, 1110, 1227, 1797, 2113, 2447, 2861, 2895, 4279, 7164]}, "edge": {"target": [], "time": []}}}, "displayed_time": "10.58", "trialTime": 11913, "trial_type": "mouselab-mdp", "trial_index": 12, "time_elapsed": 242175, "internal_node_id": "0.0-4.0-1.0-3.0"}}, {"uniqueid": "w47149558:a40339369", "current_trial": 13, "dateTime": 1664555238283, "trialdata": {"revealed_states": [], "num_clicks_accrued": [0, 0, 0, 0, 0, 0, 0, 0, 0, 0, 0, 0, 0], "stateRewards": ["", -2, -8, -24, -24, 4, -4, -48, 48, 2, 8, 48, -48], "withholdReward": false, "trial_id": "mdp_498095124548", "block": "test1", "trialIndex": 6, "score": -33.5, "costs": -0.5, "simulationMode": [null, null, null], "rewards": [2, 8, -48], "path": ["0", "0", "9", "10", "12"], "rt": [2486, 114, 209], "actions": ["left", "left", "down"], "actionTimes": [3865, 4479, 5193], "queries": {"click": {"state": {"target": ["9", "10"], "time": [2389, 2994]}, "edge": {"target": [], "time": []}}, "mouseover": {"state": {"target": ["0", "9", "10"], "time": [1697, 1778, 2645]}, "edge": {"target": [], "time": []}}, "mouseout": {"state": {"target": ["0", "9", "10"], "time": [1712, 2598, 3145]}, "edge": {"target": [], "time": []}}}, "displayed_time": "9.38", "trialTime": 10933, "trial_type": "mouselab-mdp", "trial_index": 13, "time_elapsed": 253148, "internal_node_id": "0.0-4.0-1.0-4.0"}}, {"uniqueid": "w47149558:a40339369", "current_trial": 14, "dateTime": 1664555250742, "trialdata": {"revealed_states": [], "num_clicks_accrued": [0, 0, 0, 0, 0, 0, 0, 0, 0, 0, 0, 0, 0], "stateRewards": ["", 4, 4, -48, -48, 4, 4, -24, -24, -4, 8, -48, 24], "withholdReward": true, "trial_id": "mdp_669785455541", "block": "test1", "trialIndex": 7, "score": -11.25, "costs": -0.25, "simulationMode": [null, null, null], "rewards": [4, 4, -24], "path": ["0", "0", "5", "6", "7"], "rt": [1854, 82, 650], "actions": ["right", "right", "up"], "actionTimes": [3265, 3843, 4994], "queries": {"click": {"state": {"target": ["5"], "time": [2017]}, "edge": {"target": [], "time": []}}, "mouseover": {"state": {"target": ["0", "5"], "time": [1490, 1758]}, "edge": {"target": [], "time": []}}, "mouseout": {"state": {"target": ["2", "11", "10", "9", "0", "0", "5", "0", "12"], "time": [908, 972, 1056, 1106, 1323, 1690, 2307, 6008, 6825]}, "edge": {"target": [], "time": []}}}, "displayed_time": "10.41", "trialTime": 12417, "trial_type": "mouselab-mdp", "trial_index": 14, "time_elapsed": 265608, "internal_node_id": "0.0-4.0-1.0-5.0"}}, {"uniqueid": "w47149558:a40339369", "current_trial": 15, "dateTime": 1664555261524, "trialdata": {"revealed_states": [], "num_clicks_accrued": [0, 0, 0, 0, 0, 0, 0, 0, 0, 0, 0, 0, 0], "stateRewards": ["", -2, -8, 24, -24, 4, -8, 48, 48, -4, -8, -24, -48], "withholdReward": true, "trial_id": "mdp_286767261523", "block": "test1", "trialIndex": 8, "score": 48.5, "costs": -0.5, "simulationMode": [null, null, null], "rewards": [4, -8, 48], "path": ["0", "0", "5", "6", "8"], "rt": [2507, 129, 26], "actions": ["right", "right", "down"], "actionTimes": [3950, 4574, 5105], "queries": {"click": {"state": {"target": ["9", "1"], "time": [2153, 3239]}, "edge": {"target": [], "time": []}}, "mouseover": {"state": {"target": ["9", "0", "1", "0"], "time": [1890, 2541, 2824, 3358]}, "edge": {"target": [], "time": []}}, "mouseout": {"state": {"target": ["0", "9", "0", "1", "0", "8"], "time": [1861, 2409, 2676, 3341, 3374, 6143]}, "edge": {"target": [], "time": []}}}, "displayed_time": "9.44", "trialTime": 10745, "trial_type": "mouselab-mdp", "trial_index": 15, "time_elapsed": 276390, "internal_node_id": "0.0-4.0-1.0-6.0"}}, {"uniqueid": "w47149558:a40339369", "current_trial": 16, "dateTime": 1664555272018, "trialdata": {"revealed_states": [], "num_clicks_accrued": [0, 0, 0, 0, 0, 0, 0, 0, 0, 0, 0, 0, 0], "stateRewards": ["", -2, -4, -24, -48, 2, -8, -24, -24, 4, -8, 48, 48], "withholdReward": true, "trial_id": "mdp_950599994674", "block": "test1", "trialIndex": 9, "score": -25.25, "costs": -0.25, "simulationMode": [null, null, null], "rewards": [2, -8, -24], "path": ["0", "0", "5", "6", "7"], "rt": [1928, 29, 554], "actions": ["right", "right", "up"], "actionTimes": [3295, 3824, 4867], "queries": {"click": {"state": {"target": ["5"], "time": [2459]}, "edge": {"target": [], "time": []}}, "mouseover": {"state": {"target": ["5", "5"], "time": [1808, 2192]}, "edge": {"target": [], "time": []}}, "mouseout": {"state": {"target": ["1", "0", "5", "5"], "time": [1074, 1744, 1978, 2678]}, "edge": {"target": [], "time": []}}}, "displayed_time": "9.37", "trialTime": 10453, "trial_type": "mouselab-mdp", "trial_index": 16, "time_elapsed": 286884, "internal_node_id": "0.0-4.0-1.0-7.0"}}, {"uniqueid": "w47149558:a40339369", "current_trial": 17, "dateTime": 1664555283238, "trialdata": {"revealed_states": [], "num_clicks_accrued": [0, 0, 0, 0, 0, 0, 0, 0, 0, 0, 0, 0, 0], "stateRewards": ["", -2, 8, -24, 24, -4, -8, -24, 48, -2, -8, -48, 48], "withholdReward": false, "trial_id": "mdp_238332601315", "block": "test1", "trialIndex": 10, "score": -13.25, "costs": -0.25, "simulationMode": [null, null, null], "rewards": [-2, 8, -24], "path": ["0", "0", "1", "2", "3"], "rt": [2671, 8, 818], "actions": ["up", "up", "right"], "actionTimes": [4208, 4714, 6037], "queries": {"click": {"state": {"target": ["9"], "time": [2229]}, "edge": {"target": [], "time": []}}, "mouseover": {"state": {"target": ["0", "9", "9", "6", "5"], "time": [1685, 1901, 2136, 2784, 2851]}, "edge": {"target": [], "time": []}}, "mouseout": {"state": {"target": ["8", "5", "0", "0", "9", "9", "6", "5", "8", "6", "6"], "time": [1068, 1317, 1635, 1884, 1918, 2401, 2801, 3161, 7153, 7353, 10020]}, "edge": {"target": [], "time": []}}}, "displayed_time": "9.54", "trialTime": 11178, "trial_type": "mouselab-mdp", "trial_index": 17, "time_elapsed": 298104, "internal_node_id": "0.0-4.0-1.0-8.0"}}, {"uniqueid": "w47149558:a40339369", "current_trial": 18, "dateTime": 1664555293710, "trialdata": {"revealed_states": [], "num_clicks_accrued": [0, 0, 0, 0, 0, 0, 0, 0, 0, 0, 0, 0, 0], "stateRewards": ["", -2, -8, -24, -48, 4, -8, 48, 24, 2, 4, -48, -48], "withholdReward": true, "trial_id": "mdp_898082967464", "block": "test1", "trialIndex": 11, "score": 24.25, "costs": -0.75, "simulationMode": [null, null, null], "rewards": [4, -8, 24], "path": ["0", "0", "5", "6", "8"], "rt": [2485, 51, 76], "actions": ["right", "right", "down"], "actionTimes": [3906, 4452, 5047], "queries": {"click": {"state": {"target": ["5", "6", "8"], "time": [1864, 2583, 3124]}, "edge": {"target": [], "time": []}}, "mouseover": {"state": {"target": ["5", "0", "1", "6", "8"], "time": [1717, 2101, 2202, 2333, 2853]}, "edge": {"target": [], "time": []}}, "mouseout": {"state": {"target": ["8", "6", "5", "0", "5", "0", "1", "6", "8"], "time": [899, 1016, 1032, 1616, 1999, 2117, 2283, 2700, 3217]}, "edge": {"target": [], "time": []}}}, "displayed_time": "9.42", "trialTime": 10428, "trial_type": "mouselab-mdp", "trial_index": 18, "time_elapsed": 308576, "internal_node_id": "0.0-4.0-1.0-9.0"}}, {"uniqueid": "w47149558:a40339369", "current_trial": 19, "dateTime": 1664555304624, "trialdata": {"revealed_states": [], "num_clicks_accrued": [0, 0, 0, 0, 0, 0, 0, 0, 0, 0, 0, 0, 0], "stateRewards": ["", 2, 8, 48, 24, -4, 4, -48, 24, 2, 8, 48, 48], "withholdReward": true, "trial_id": "mdp_367344599162", "block": "test1", "trialIndex": 12, "score": 62.5, "costs": -0.5, "simulationMode": [null, null, null], "rewards": [2, 8, 48], "path": ["0", "0", "9", "10", "12"], "rt": [2420, 84, 63], "actions": ["left", "left", "down"], "actionTimes": [3409, 3987, 4546], "queries": {"click": {"state": {"target": ["9", "12"], "time": [1486, 2352]}, "edge": {"target": [], "time": []}}, "mouseover": {"state": {"target": ["9", "10", "12"], "time": [1182, 1948, 2198]}, "edge": {"target": [], "time": []}}, "mouseout": {"state": {"target": ["0", "9", "10", "12", "9"], "time": [1133, 1632, 2133, 2718, 3118]}, "edge": {"target": [], "time": []}}}, "displayed_time": "9.99", "trialTime": 10869, "trial_type": "mouselab-mdp", "trial_index": 19, "time_elapsed": 319490, "internal_node_id": "0.0-4.0-1.0-10.0"}}, {"uniqueid": "w47149558:a40339369", "current_trial": 20, "dateTime": 1664555314664, "trialdata": {"revealed_states": [], "num_clicks_accrued": [0, 0, 0, 0, 0, 0, 0, 0, 0, 0, 0, 0, 0], "stateRewards": ["", 2, 4, 48, 24, -4, 8, 48, 48, 2, -4, -48, -24], "withholdReward": false, "trial_id": "mdp_822099887466", "block": "test1", "trialIndex": 13, "score": 56, "costs": -1, "simulationMode": [null, null, null], "rewards": [-4, 8, 48], "path": ["0", "0", "5", "6", "7"], "rt": [4184, 513, 66], "actions": ["right", "right", "up"], "actionTimes": [4941, 5949, 6518], "queries": {"click": {"state": {"target": ["5", "12", "11", "7"], "time": [1540, 2546, 3175, 4030]}, "edge": {"target": [], "time": []}}, "mouseover": {"state": {"target": ["9", "0", "5", "12", "10", "11", "9", "7"], "time": [1165, 1314, 1381, 2364, 2898, 2981, 3314, 3881]}, "edge": {"target": [], "time": []}}, "mouseout": {"state": {"target": ["0", "9", "0", "5", "12", "12", "10", "11", "9", "7", "8"], "time": [1099, 1299, 1347, 1664, 2665, 2898, 2931, 3265, 3364, 4166, 8784]}, "edge": {"target": [], "time": []}}}, "displayed_time": "8.76", "trialTime": 9987, "trial_type": "mouselab-mdp", "trial_index": 20, "time_elapsed": 329530, "internal_node_id": "0.0-4.0-1.0-11.0"}}, {"uniqueid": "w47149558:a40339369", "current_trial": 21, "dateTime": 1664555325617, "trialdata": {"revealed_states": [], "num_clicks_accrued": [0, 0, 0, 0, 0, 0, 0, 0, 0, 0, 0, 0, 0], "stateRewards": ["", -4, 4, 48, 24, -4, 4, -24, 48, -2, -8, 24, -48], "withholdReward": false, "trial_id": "mdp_261501605436", "block": "test1", "trialIndex": 14, "score": 52.5, "costs": -0.5, "simulationMode": [null, null, null], "rewards": [-4, 4, 48], "path": ["0", "0", "5", "6", "8"], "rt": [2519, 2, 84], "actions": ["right", "right", "down"], "actionTimes": [3483, 3984, 4583], "queries": {"click": {"state": {"target": ["12", "8"], "time": [1879, 2527]}, "edge": {"target": [], "time": []}}, "mouseover": {"state": {"target": ["12", "8"], "time": [1295, 2294]}, "edge": {"target": [], "time": []}}, "mouseout": {"state": {"target": ["0", "12", "8"], "time": [1151, 2062, 2628]}, "edge": {"target": [], "time": []}}}, "displayed_time": "9.96", "trialTime": 10916, "trial_type": "mouselab-mdp", "trial_index": 21, "time_elapsed": 340483, "internal_node_id": "0.0-4.0-1.0-12.0"}}, {"uniqueid": "w47149558:a40339369", "current_trial": 22, "dateTime": 1664555337177, "trialdata": {"revealed_states": [], "num_clicks_accrued": [0, 0, 0, 0, 0, 0, 0, 0, 0, 0, 0, 0, 0], "stateRewards": ["", 2, -4, 24, 48, -2, 4, -48, -48, -4, 4, 24, -24], "withholdReward": true, "trial_id": "mdp_900363662757", "block": "test1", "trialIndex": 15, "score": 49.75, "costs": -1.25, "simulationMode": [null, null, null], "rewards": [2, -4, 48], "path": ["0", "0", "1", "2", "4"], "rt": [5639, 56, 14], "actions": ["up", "up", "left"], "actionTimes": [6642, 7196, 7721], "queries": {"click": {"state": {"target": ["12", "7", "3", "11", "4"], "time": [2147, 3054, 3682, 5133, 5761]}, "edge": {"target": [], "time": []}}, "mouseover": {"state": {"target": ["12", "6", "7", "3", "1", "1", "11", "4", "1", "5", "6", "8"], "time": [1720, 2688, 2870, 3519, 3971, 4352, 4970, 5605, 5970, 6020, 6104, 6171]}, "edge": {"target": [], "time": []}}, "mouseout": {"state": {"target": ["0", "12", "6", "7", "3", "1", "1", "11", "4", "1", "5", "6", "8", "6"], "time": [1209, 2269, 2735, 3453, 3804, 4053, 4369, 5237, 5870, 6003, 6036, 6121, 8407, 8622]}, "edge": {"target": [], "time": []}}}, "displayed_time": "10.00", "trialTime": 11513, "trial_type": "mouselab-mdp", "trial_index": 22, "time_elapsed": 352043, "internal_node_id": "0.0-4.0-1.0-13.0"}}, {"uniqueid": "w47149558:a40339369", "current_trial": 23, "dateTime": 1664555346917, "trialdata": {"revealed_states": [], "num_clicks_accrued": [0, 0, 0, 0, 0, 0, 0, 0, 0, 0, 0, 0, 0], "stateRewards": ["", -2, 4, -48, -48, -4, -8, 48, -48, 2, 4, 48, -48], "withholdReward": true, "trial_id": "mdp_258647270500", "block": "test1", "trialIndex": 16, "score": 58.5, "costs": -0.5, "simulationMode": [null, null, null], "rewards": [2, 4, 48], "path": ["0", "0", "9", "10", "11"], "rt": [2401, 420, 71], "actions": ["left", "left", "up"], "actionTimes": [3211, 4126, 4693], "queries": {"click": {"state": {"target": ["8", "11"], "time": [1441, 2348]}, "edge": {"target": [], "time": []}}, "mouseover": {"state": {"target": ["8", "11", "11", "9", "9"], "time": [1286, 2001, 2186, 2618, 2720]}, "edge": {"target": [], "time": []}}, "mouseout": {"state": {"target": ["0", "8", "11", "11", "9", "9"], "time": [969, 1604, 2051, 2520, 2635, 2735]}, "edge": {"target": [], "time": []}}}, "displayed_time": "8.81", "trialTime": 9699, "trial_type": "mouselab-mdp", "trial_index": 23, "time_elapsed": 361783, "internal_node_id": "0.0-4.0-1.0-14.0"}}, {"uniqueid": "w47149558:a40339369", "current_trial": 24, "dateTime": 1664555357419, "trialdata": {"revealed_states": [], "num_clicks_accrued": [0, 0, 0, 0, 0, 0, 0, 0, 0, 0, 0, 0, 0], "stateRewards": ["", 2, 8, -48, -24, 2, -4, -48, 24, 2, -4, -24, -24], "withholdReward": true, "trial_id": "mdp_954659099093", "block": "test1", "trialIndex": 17, "score": 25.5, "costs": -1.5, "simulationMode": [null, null, null], "rewards": [2, -4, 24], "path": ["0", "0", "5", "6", "8"], "rt": [5920, 398, 44], "actions": ["right", "right", "down"], "actionTimes": [6802, 7698, 8247], "queries": {"click": {"state": {"target": ["11", "8", "7", "4", "12", "3"], "time": [2010, 2850, 3731, 4434, 5097, 5954]}, "edge": {"target": [], "time": []}}, "mouseover": {"state": {"target": ["11", "10", "8", "8", "6", "7", "2", "4", "12", "3"], "time": [1866, 2247, 2481, 2763, 3481, 3564, 4148, 4317, 4967, 5648]}, "edge": {"target": [], "time": []}}, "mouseout": {"state": {"target": ["9", "11", "10", "8", "8", "6", "7", "2", "4", "12", "3"], "time": [413, 2198, 2314, 2616, 3132, 3515, 4015, 4281, 4532, 5199, 6132]}, "edge": {"target": [], "time": []}}}, "displayed_time": "9.88", "trialTime": 10459, "trial_type": "mouselab-mdp", "trial_index": 24, "time_elapsed": 372285, "internal_node_id": "0.0-4.0-1.0-15.0"}}, {"uniqueid": "w47149558:a40339369", "current_trial": 25, "dateTime": 1664555368060, "trialdata": {"revealed_states": [], "num_clicks_accrued": [0, 0, 0, 0, 0, 0, 0, 0, 0, 0, 0, 0, 0], "stateRewards": ["", -4, -8, -48, 24, -4, -4, -24, -48, 2, -8, -24, -48], "withholdReward": false, "trial_id": "mdp_628181832088", "block": "test1", "trialIndex": 18, "score": 15.75, "costs": -1.25, "simulationMode": [null, null, null], "rewards": [-4, -8, 24], "path": ["0", "0", "1", "2", "4"], "rt": [4644, 510, 53], "actions": ["up", "up", "left"], "actionTimes": [5452, 6465, 7008], "queries": {"click": {"state": {"target": ["8", "7", "11", "12", "4"], "time": [1524, 2287, 3035, 3477, 4320]}, "edge": {"target": [], "time": []}}, "mouseover": {"state": {"target": ["8", "6", "7", "7", "1", "11", "11", "10", "12", "1", "2", "4", "1"], "time": [1387, 1851, 1901, 2170, 2585, 2651, 2937, 3218, 3304, 3785, 3835, 4118, 4484]}, "edge": {"target": [], "time": []}}, "mouseout": {"state": {"target": ["0", "8", "6", "7", "7", "1", "11", "11", "10", "12", "1", "2", "4", "1"], "time": [1034, 1821, 1885, 1953, 2552, 2601, 2754, 3202, 3252, 3719, 3819, 3971, 4418, 8573]}, "edge": {"target": [], "time": []}}}, "displayed_time": "9.81", "trialTime": 10600, "trial_type": "mouselab-mdp", "trial_index": 25, "time_elapsed": 382926, "internal_node_id": "0.0-4.0-1.0-16.0"}}, {"uniqueid": "w47149558:a40339369", "current_trial": 26, "dateTime": 1664555381017, "trialdata": {"revealed_states": [], "num_clicks_accrued": [0, 0, 0, 0, 0, 0, 0, 0, 0, 0, 0, 0, 0], "stateRewards": ["", -4, -8, -24, -48, -2, -8, 24, -48, -4, -8, 24, -48], "withholdReward": true, "trial_id": "mdp_621812384092", "block": "test1", "trialIndex": 19, "score": 17.5, "costs": -1.5, "simulationMode": [null, null, null], "rewards": [-2, -8, 24], "path": ["0", "0", "5", "6", "7"], "rt": [7162, 495, 133], "actions": ["right", "right", "up"], "actionTimes": [8319, 9317, 9955], "queries": {"click": {"state": {"target": ["12", "7", "11", "3", "4", "8"], "time": [2028, 2737, 3552, 4756, 5292, 7694]}, "edge": {"target": [], "time": []}}, "mouseover": {"state": {"target": ["12", "0", "7", "7", "0", "9", "11", "3", "1", "4", "9", "0", "8", "8"], "time": [1932, 2316, 2466, 2600, 3066, 3254, 3416, 4483, 5067, 5100, 5483, 5551, 7101, 7536]}, "edge": {"target": [], "time": []}}, "mouseout": {"state": {"target": ["9", "0", "12", "0", "7", "7", "0", "9", "11", "3", "1", "4", "9", "0", "8", "8", "8"], "time": [731, 1467, 2183, 2333, 2499, 2983, 3083, 3266, 3633, 4866, 5083, 5400, 5517, 5600, 7117, 7818, 11136]}, "edge": {"target": [], "time": []}}}, "displayed_time": "10.45", "trialTime": 12918, "trial_type": "mouselab-mdp", "trial_index": 26, "time_elapsed": 395882, "internal_node_id": "0.0-4.0-1.0-17.0"}}, {"uniqueid": "w47149558:a40339369", "current_trial": 27, "dateTime": 1664555391990, "trialdata": {"revealed_states": [], "num_clicks_accrued": [0, 0, 0, 0, 0, 0, 0, 0, 0, 0, 0, 0, 0], "stateRewards": ["", 4, -8, 48, -24, -4, 4, 24, 24, -2, -4, 24, 24], "withholdReward": false, "trial_id": "mdp_542168715839", "block": "test1", "trialIndex": 20, "score": 21.75, "costs": -1.25, "simulationMode": [null, null, null], "rewards": [-2, -4, 24], "path": ["0", "0", "9", "10", "12"], "rt": [4889, 429, 138], "actions": ["left", "left", "down"], "actionTimes": [5763, 6691, 7333], "queries": {"click": {"state": {"target": ["7", "11", "12", "8", "4"], "time": [1914, 2569, 3331, 3869, 4675]}, "edge": {"target": [], "time": []}}, "mouseover": {"state": {"target": ["0", "5", "7", "1", "11", "12", "8", "2", "4", "2"], "time": [956, 1425, 1742, 2207, 2390, 3241, 3725, 4174, 4490, 4791]}, "edge": {"target": [], "time": []}}, "mouseout": {"state": {"target": ["6", "5", "0", "0", "5", "7", "1", "11", "12", "8", "2", "4", "2", "0"], "time": [473, 505, 590, 990, 1591, 2142, 2223, 2841, 3424, 4008, 4207, 4758, 5193, 10593]}, "edge": {"target": [], "time": []}}}, "displayed_time": "9.87", "trialTime": 10928, "trial_type": "mouselab-mdp", "trial_index": 27, "time_elapsed": 406856, "internal_node_id": "0.0-4.0-1.0-18.0"}}, {"uniqueid": "w47149558:a40339369", "current_trial": 28, "dateTime": 1664555403354, "trialdata": {"revealed_states": [], "num_clicks_accrued": [0, 0, 0, 0, 0, 0, 0, 0, 0, 0, 0, 0, 0], "stateRewards": ["", 2, 8, -24, -48, 2, 4, -24, 48, 2, -8, 48, -24], "withholdReward": true, "trial_id": "mdp_791659307216", "block": "test1", "trialIndex": 21, "score": 58.5, "costs": -0.5, "simulationMode": [null, null, null], "rewards": [2, 4, 48], "path": ["0", "0", "5", "6", "8"], "rt": [2152, 67, 481], "actions": ["right", "right", "down"], "actionTimes": [3732, 4296, 5272], "queries": {"click": {"state": {"target": ["7", "8"], "time": [2244, 2812]}, "edge": {"target": [], "time": []}}, "mouseover": {"state": {"target": ["5", "6", "7", "6", "8"], "time": [1873, 1923, 2107, 2456, 2540]}, "edge": {"target": [], "time": []}}, "mouseout": {"state": {"target": ["0", "5", "6", "7", "6", "8"], "time": [1856, 1906, 1940, 2441, 2507, 2959]}, "edge": {"target": [], "time": []}}}, "displayed_time": "10.58", "trialTime": 11321, "trial_type": "mouselab-mdp", "trial_index": 28, "time_elapsed": 418220, "internal_node_id": "0.0-4.0-1.0-19.0"}}, {"uniqueid": "w47149558:a40339369", "current_trial": 29, "dateTime": 1664555413652, "trialdata": {"revealed_states": [], "num_clicks_accrued": [0, 0, 0, 0, 0, 0, 0, 0, 0, 0, 0, 0, 0], "stateRewards": ["", -2, 4, -24, 24, -4, -8, 24, -48, -4, -4, -48, -24], "withholdReward": true, "trial_id": "mdp_753137520419", "block": "test1", "trialIndex": 22, "score": 15.5, "costs": -1.5, "simulationMode": [null, null, null], "rewards": [-4, -8, 24], "path": ["0", "0", "5", "6", "7"], "rt": [4798, 76, 62], "actions": ["right", "right", "up"], "actionTimes": [5450, 6017, 6566], "queries": {"click": {"state": {"target": ["8", "11", "12", "7", "4", "3"], "time": [1128, 1887, 2401, 3297, 4220, 4643]}, "edge": {"target": [], "time": []}}, "mouseover": {"state": {"target": ["8", "5", "11", "10", "12", "5", "7", "7", "4", "3", "6"], "time": [918, 1485, 1752, 2152, 2235, 2619, 2685, 3171, 4020, 4537, 5038]}, "edge": {"target": [], "time": []}}, "mouseout": {"state": {"target": ["6", "5", "0", "8", "5", "11", "10", "12", "5", "7", "7", "4", "3", "8", "6", "8"], "time": [351, 401, 785, 1468, 1501, 2052, 2185, 2502, 2652, 2836, 3436, 4320, 4753, 4869, 7574, 10155]}, "edge": {"target": [], "time": []}}}, "displayed_time": "9.65", "trialTime": 10260, "trial_type": "mouselab-mdp", "trial_index": 29, "time_elapsed": 428518, "internal_node_id": "0.0-4.0-1.0-20.0"}}, {"uniqueid": "w47149558:a40339369", "current_trial": 30, "dateTime": 1664555423495, "trialdata": {"revealed_states": [], "num_clicks_accrued": [0, 0, 0, 0, 0, 0, 0, 0, 0, 0, 0, 0, 0], "stateRewards": ["", 2, 4, -48, -48, 4, 4, -48, -48, -2, -8, 48, -24], "withholdReward": true, "trial_id": "mdp_175327338412", "block": "test1", "trialIndex": 23, "score": 42, "costs": -1, "simulationMode": [null, null, null], "rewards": [-2, -8, 48], "path": ["0", "0", "9", "10", "11"], "rt": [3883, 60, 108], "actions": ["left", "left", "up"], "actionTimes": [4909, 5472, 6071], "queries": {"click": {"state": {"target": ["7", "8", "12", "11"], "time": [2088, 2711, 3300, 3978]}, "edge": {"target": [], "time": []}}, "mouseover": {"state": {"target": ["5", "7", "7", "8", "12", "11", "11"], "time": [1525, 1726, 1976, 2491, 3108, 3642, 3861]}, "edge": {"target": [], "time": []}}, "mouseout": {"state": {"target": ["0", "0", "5", "7", "7", "8", "12", "11", "11", "4"], "time": [524, 1510, 1541, 1757, 2326, 2927, 3543, 3675, 4094, 7127]}, "edge": {"target": [], "time": []}}}, "displayed_time": "9.03", "trialTime": 9805, "trial_type": "mouselab-mdp", "trial_index": 30, "time_elapsed": 438361, "internal_node_id": "0.0-4.0-1.0-21.0"}}, {"uniqueid": "w47149558:a40339369", "current_trial": 31, "dateTime": 1664555434176, "trialdata": {"revealed_states": [], "num_clicks_accrued": [0, 0, 0, 0, 0, 0, 0, 0, 0, 0, 0, 0, 0], "stateRewards": ["", 2, -4, -48, 24, -4, 4, 24, 24, 2, -8, -24, -48], "withholdReward": true, "trial_id": "mdp_807654778305", "block": "test1", "trialIndex": 24, "score": 27.5, "costs": -1.5, "simulationMode": [null, null, null], "rewards": [-4, 4, 24], "path": ["0", "0", "5", "6", "7"], "rt": [4470, 99, 260], "actions": ["right", "right", "up"], "actionTimes": [6425, 7022, 7784], "queries": {"click": {"state": {"target": ["11", "12", "8", "7", "4", "3"], "time": [2703, 3140, 3909, 4469, 5263, 5655]}, "edge": {"target": [], "time": []}}, "mouseover": {"state": {"target": ["11", "12", "8", "8", "6", "7", "4", "1", "3"], "time": [2551, 2985, 3569, 3787, 4269, 4352, 5137, 5403, 5620]}, "edge": {"target": [], "time": []}}, "mouseout": {"state": {"target": ["0", "11", "12", "8", "8", "6", "7", "4", "1", "3"], "time": [2435, 2837, 3370, 3635, 4236, 4302, 4904, 5353, 5453, 5820]}, "edge": {"target": [], "time": []}}}, "displayed_time": "9.96", "trialTime": 10624, "trial_type": "mouselab-mdp", "trial_index": 31, "time_elapsed": 449042, "internal_node_id": "0.0-4.0-1.0-22.0"}}, {"uniqueid": "w47149558:a40339369", "current_trial": 32, "dateTime": 1664555443998, "trialdata": {"revealed_states": [], "num_clicks_accrued": [0, 0, 0, 0, 0, 0, 0, 0, 0, 0, 0, 0, 0], "stateRewards": ["", -4, -8, 48, -24, 4, -8, 48, 48, -2, 4, -48, -24], "withholdReward": true, "trial_id": "mdp_925905402462", "block": "test1", "trialIndex": 25, "score": 48.75, "costs": -0.25, "simulationMode": [null, null, null], "rewards": [4, -8, 48], "path": ["0", "0", "5", "6", "8"], "rt": [1607, 26, 448], "actions": ["right", "right", "down"], "actionTimes": [2523, 3051, 3990], "queries": {"click": {"state": {"target": ["8"], "time": [1628]}, "edge": {"target": [], "time": []}}, "mouseover": {"state": {"target": ["0", "5", "8", "7"], "time": [1171, 1205, 1506, 2155]}, "edge": {"target": [], "time": []}}, "mouseout": {"state": {"target": ["0", "5", "8", "7"], "time": [1188, 1222, 1757, 4675]}, "edge": {"target": [], "time": []}}}, "displayed_time": "8.92", "trialTime": 9779, "trial_type": "mouselab-mdp", "trial_index": 32, "time_elapsed": 458864, "internal_node_id": "0.0-4.0-1.0-23.0"}}, {"uniqueid": "w47149558:a40339369", "current_trial": 33, "dateTime": 1664555454449, "trialdata": {"revealed_states": [], "num_clicks_accrued": [0, 0, 0, 0, 0, 0, 0, 0, 0, 0, 0, 0, 0], "stateRewards": ["", -4, -8, -24, 24, 4, 4, -48, -48, -4, -4, 24, -48], "withholdReward": true, "trial_id": "mdp_431592223624", "block": "test1", "trialIndex": 26, "score": 19.5, "costs": -1.5, "simulationMode": [null, null, null], "rewards": [-4, -4, 24], "path": ["0", "0", "9", "10", "11"], "rt": [4590, 12, 34], "actions": ["left", "left", "up"], "actionTimes": [5170, 5684, 6222], "queries": {"click": {"state": {"target": ["8", "11", "12", "7", "4", "3"], "time": [1554, 2354, 2823, 3393, 4009, 4462]}, "edge": {"target": [], "time": []}}, "mouseover": {"state": {"target": ["5", "6", "8", "5", "0", "9", "11", "10", "12", "5", "7", "1", "4", "2", "3"], "time": [818, 1171, 1419, 1901, 1951, 1985, 2219, 2535, 2669, 3102, 3202, 3552, 3804, 4252, 4286]}, "edge": {"target": [], "time": []}}, "mouseout": {"state": {"target": ["6", "5", "0", "5", "6", "8", "5", "0", "9", "11", "10", "12", "5", "7", "1", "4", "2", "3", "5"], "time": [251, 267, 768, 868, 1302, 1836, 1935, 1968, 2018, 2502, 2585, 2952, 3119, 3502, 3585, 4120, 4269, 4569, 7487]}, "edge": {"target": [], "time": []}}}, "displayed_time": "9.58", "trialTime": 10406, "trial_type": "mouselab-mdp", "trial_index": 33, "time_elapsed": 469315, "internal_node_id": "0.0-4.0-1.0-24.0"}}, {"uniqueid": "w47149558:a40339369", "current_trial": 34, "dateTime": 1664555464348, "trialdata": {"revealed_states": [], "num_clicks_accrued": [0, 0, 0, 0, 0, 0, 0, 0, 0, 0, 0, 0, 0], "stateRewards": ["", -4, 8, -24, -48, 2, 8, -48, -24, -2, -4, 48, -48], "withholdReward": true, "trial_id": "mdp_599927291428", "block": "test1", "trialIndex": 27, "score": 46.5, "costs": -0.5, "simulationMode": [null, null, null], "rewards": [-2, -4, 48], "path": ["0", "0", "9", "10", "11"], "rt": [2117, 61, 157], "actions": ["left", "left", "up"], "actionTimes": [2837, 3388, 4051], "queries": {"click": {"state": {"target": ["8", "11"], "time": [1436, 1992]}, "edge": {"target": [], "time": []}}, "mouseover": {"state": {"target": ["8", "8", "0", "9", "11", "10", "12"], "time": [891, 1339, 1656, 1723, 1823, 2207, 2290]}, "edge": {"target": [], "time": []}}, "mouseout": {"state": {"target": ["8", "5", "0", "8", "8", "0", "9", "11", "10", "12"], "time": [406, 491, 839, 906, 1607, 1691, 1774, 2124, 2223, 2441]}, "edge": {"target": [], "time": []}}}, "displayed_time": "8.72", "trialTime": 9856, "trial_type": "mouselab-mdp", "trial_index": 34, "time_elapsed": 479214, "internal_node_id": "0.0-4.0-1.0-25.0"}}, {"uniqueid": "w47149558:a40339369", "current_trial": 35, "dateTime": 1664555475255, "trialdata": {"revealed_states": [], "num_clicks_accrued": [0, 0, 0, 0, 0, 0, 0, 0, 0, 0, 0, 0, 0], "stateRewards": ["", 4, 4, 48, -24, -4, -8, 24, -24, 2, -8, -24, 24], "withholdReward": true, "trial_id": "mdp_933201675789", "block": "test1", "trialIndex": 28, "score": 22, "costs": -1, "simulationMode": [null, null, null], "rewards": [2, -8, 24], "path": ["0", "0", "9", "10", "12"], "rt": [3659, 22, 37], "actions": ["left", "left", "down"], "actionTimes": [4884, 5399, 5947], "queries": {"click": {"state": {"target": ["12", "11", "8", "7"], "time": [1787, 2399, 3139, 3859]}, "edge": {"target": [], "time": []}}, "mouseover": {"state": {"target": ["9", "12", "9", "11", "9", "0", "5", "8", "5", "7", "1", "10"], "time": [1507, 1656, 2057, 2240, 2523, 2556, 2707, 3042, 3590, 3776, 4007, 4140]}, "edge": {"target": [], "time": []}}, "mouseout": {"state": {"target": ["10", "9", "0", "9", "12", "9", "11", "9", "0", "5", "8", "5", "7", "1", "10", "12"], "time": [589, 891, 1424, 1557, 1874, 2175, 2506, 2540, 2589, 2806, 3309, 3607, 3958, 4024, 4257, 6810]}, "edge": {"target": [], "time": []}}}, "displayed_time": "10.23", "trialTime": 10860, "trial_type": "mouselab-mdp", "trial_index": 35, "time_elapsed": 490121, "internal_node_id": "0.0-4.0-1.0-26.0"}}, {"uniqueid": "w47149558:a40339369", "current_trial": 36, "dateTime": 1664555485993, "trialdata": {"revealed_states": [], "num_clicks_accrued": [0, 0, 0, 0, 0, 0, 0, 0, 0, 0, 0, 0, 0], "stateRewards": ["", -2, 8, 48, 48, 2, 4, -48, 24, -4, -8, 48, 24], "withholdReward": true, "trial_id": "mdp_572910394648", "block": "test1", "trialIndex": 29, "score": 40.25, "costs": -0.75, "simulationMode": [null, null, null], "rewards": [-4, -8, 48], "path": ["0", "0", "9", "10", "11"], "rt": [2941, 170, 143], "actions": ["left", "left", "up"], "actionTimes": [3840, 4513, 5154], "queries": {"click": {"state": {"target": ["12", "7", "11"], "time": [1668, 2346, 2883]}, "edge": {"target": [], "time": []}}, "mouseover": {"state": {"target": ["0", "12", "0", "5", "7", "1", "11", "1"], "time": [1157, 1591, 2058, 2093, 2157, 2657, 2724, 3391]}, "edge": {"target": [], "time": []}}, "mouseout": {"state": {"target": ["0", "0", "12", "0", "5", "7", "1", "11", "1", "0"], "time": [440, 1174, 1774, 2075, 2108, 2577, 2674, 2992, 6012, 6126]}, "edge": {"target": [], "time": []}}}, "displayed_time": "9.90", "trialTime": 10695, "trial_type": "mouselab-mdp", "trial_index": 36, "time_elapsed": 500859, "internal_node_id": "0.0-4.0-1.0-27.0"}}, {"uniqueid": "w47149558:a40339369", "current_trial": 37, "dateTime": 1664555496923, "trialdata": {"revealed_states": [], "num_clicks_accrued": [0, 0, 0, 0, 0, 0, 0, 0, 0, 0, 0, 0, 0], "stateRewards": ["", 4, 4, 48, -24, 2, -4, 48, 24, -4, -4, -48, 24], "withholdReward": false, "trial_id": "mdp_496003763005", "block": "test1", "trialIndex": 30, "score": 50, "costs": -1, "simulationMode": [null, null, null], "rewards": [2, -4, 48], "path": ["0", "0", "5", "6", "7"], "rt": [2625, 124, 117], "actions": ["right", "right", "up"], "actionTimes": [3393, 4019, 4629], "queries": {"click": {"state": {"target": ["11", "12", "8", "7"], "time": [1329, 1730, 2245, 2589]}, "edge": {"target": [], "time": []}}, "mouseover": {"state": {"target": ["9", "11", "10", "12", "8", "6", "7"], "time": [1040, 1191, 1507, 1607, 2107, 2407, 2458]}, "edge": {"target": [], "time": []}}, "mouseout": {"state": {"target": ["0", "9", "11", "10", "12", "8", "6", "7", "6"], "time": [1024, 1074, 1440, 1557, 1891, 2391, 2424, 2909, 5575]}, "edge": {"target": [], "time": []}}}, "displayed_time": "9.77", "trialTime": 10870, "trial_type": "mouselab-mdp", "trial_index": 37, "time_elapsed": 511789, "internal_node_id": "0.0-4.0-1.0-28.0"}}, {"uniqueid": "w47149558:a40339369", "current_trial": 38, "dateTime": 1664555508881, "trialdata": {"revealed_states": [], "num_clicks_accrued": [0, 0, 0, 0, 0, 0, 0, 0, 0, 0, 0, 0, 0], "stateRewards": ["", -2, -8, -24, -48, -2, -4, 48, -48, 4, 4, -48, 48], "withholdReward": true, "trial_id": "mdp_156977432949", "block": "test1", "trialIndex": 31, "score": 60.25, "costs": -0.75, "simulationMode": [null, null, null], "rewards": [4, 4, 48], "path": ["0", "0", "9", "10", "12"], "rt": [2559, 70, 127], "actions": ["left", "left", "down"], "actionTimes": [4369, 4934, 5559], "queries": {"click": {"state": {"target": ["3", "4", "12"], "time": [2262, 2759, 3464]}, "edge": {"target": [], "time": []}}, "mouseover": {"state": {"target": ["3", "2", "4", "11", "10", "12"], "time": [2077, 2510, 2577, 2945, 3027, 3346]}, "edge": {"target": [], "time": []}}, "mouseout": {"state": {"target": ["3", "1", "0", "3", "2", "4", "11", "10", "12"], "time": [860, 943, 1633, 2476, 2544, 2910, 2977, 3077, 3694]}, "edge": {"target": [], "time": []}}}, "displayed_time": "10.81", "trialTime": 11911, "trial_type": "mouselab-mdp", "trial_index": 38, "time_elapsed": 523747, "internal_node_id": "0.0-4.0-1.0-29.0"}}, {"uniqueid": "w47149558:a40339369", "current_trial": 39, "dateTime": 1664555523870, "trialdata": {"rt": 14985, "stimulus": "<h1> End of block! </h1>\n\nYou have reached the end of the block 1/4. If you need a short break, feel free to take one now before moving on.\n\n<br><br>\nIn the next block, you will complete another 30 rounds of this game.\n\n<br><br>\n<div style='text-align: center;'>Press <code>space</code> to begin.</div>\n<br><br>\n<div style='text-align: center;'>(If the experiment doesn't continue, try clicking on the text and then pressing <code>space</code>.)</div>", "response": " ", "trial_id": "mdp_ready_2", "trial_type": "html-keyboard-response", "trial_index": 39, "time_elapsed": 538736, "internal_node_id": "0.0-4.0-2.0"}}, {"uniqueid": "w47149558:a40339369", "current_trial": 40, "dateTime": 1664555535124, "trialdata": {"revealed_states": [], "num_clicks_accrued": [0, 0, 0, 0, 0, 0, 0, 0, 0, 0, 0, 0, 0], "stateRewards": ["", -4, 8, -24, 48, 2, -8, 24, 48, 2, -8, -24, -48], "withholdReward": true, "trial_id": "mdp_493778446445", "block": "test2", "trialIndex": 32, "score": 56.75, "costs": -0.25, "simulationMode": [null, null, null], "rewards": [-4, 8, 48], "path": ["0", "0", "1", "2", "4"], "rt": [1700, 315, 23], "actions": ["up", "up", "left"], "actionTimes": [3102, 3912, 4437], "queries": {"click": {"state": {"target": ["4"], "time": [2250]}, "edge": {"target": [], "time": []}}, "mouseover": {"state": {"target": ["1", "4", "9", "0"], "time": [1776, 2095, 2594, 2660]}, "edge": {"target": [], "time": []}}, "mouseout": {"state": {"target": ["11", "10", "9", "0", "5", "0", "1", "4", "9", "0", "0", "9", "12"], "time": [325, 892, 926, 959, 1128, 1662, 1843, 2445, 2643, 5614, 5944, 5995, 6028]}, "edge": {"target": [], "time": []}}}, "displayed_time": "10.40", "trialTime": 11210, "trial_type": "mouselab-mdp", "trial_index": 40, "time_elapsed": 549990, "internal_node_id": "0.0-4.0-3.0-0.0"}}, {"uniqueid": "w47149558:a40339369", "current_trial": 41, "dateTime": 1664555547634, "trialdata": {"revealed_states": [], "num_clicks_accrued": [0, 0, 0, 0, 0, 0, 0, 0, 0, 0, 0, 0, 0], "stateRewards": ["", 2, 8, 48, 24, -4, 4, -48, 24, 2, 8, 48, 48], "withholdReward": true, "trial_id": "mdp_367344599162", "block": "test2", "trialIndex": 33, "score": 62.5, "costs": -0.5, "simulationMode": [null, null, null], "rewards": [2, 8, 48], "path": ["0", "0", "9", "10", "12"], "rt": [2478, 78, 69], "actions": ["left", "left", "down"], "actionTimes": [3595, 4175, 4734], "queries": {"click": {"state": {"target": ["8", "12"], "time": [1856, 2724]}, "edge": {"target": [], "time": []}}, "mouseover": {"state": {"target": ["0", "8", "12", "10"], "time": [1414, 1729, 2611, 3095]}, "edge": {"target": [], "time": []}}, "mouseout": {"state": {"target": ["0", "0", "8", "12", "10", "9"], "time": [1011, 1461, 2078, 3028, 3162, 7128]}, "edge": {"target": [], "time": []}}}, "displayed_time": "9.12", "trialTime": 12467, "trial_type": "mouselab-mdp", "trial_index": 41, "time_elapsed": 562500, "internal_node_id": "0.0-4.0-3.0-1.0"}}, {"uniqueid": "w47149558:a40339369", "current_trial": 42, "dateTime": 1664555558885, "trialdata": {"revealed_states": [], "num_clicks_accrued": [0, 0, 0, 0, 0, 0, 0, 0, 0, 0, 0, 0, 0], "stateRewards": ["", 4, 8, 24, 24, 2, -4, 48, -24, -4, 8, -24, 24], "withholdReward": false, "trial_id": "mdp_932292142091", "block": "test2", "trialIndex": 34, "score": 50.5, "costs": -0.5, "simulationMode": [null, null, null], "rewards": [2, -4, 48], "path": ["0", "0", "5", "6", "7"], "rt": [2539, 3, 43], "actions": ["right", "right", "up"], "actionTimes": [3707, 4207, 4763], "queries": {"click": {"state": {"target": ["12", "7"], "time": [2041, 2842]}, "edge": {"target": [], "time": []}}, "mouseover": {"state": {"target": ["12", "6", "7", "1"], "time": [1836, 2550, 2734, 3151]}, "edge": {"target": [], "time": []}}, "mouseout": {"state": {"target": ["1", "0", "12", "6", "7", "1", "7"], "time": [651, 1501, 2269, 2650, 3000, 3235, 7255]}, "edge": {"target": [], "time": []}}}, "displayed_time": "10.17", "trialTime": 11201, "trial_type": "mouselab-mdp", "trial_index": 42, "time_elapsed": 573751, "internal_node_id": "0.0-4.0-3.0-2.0"}}, {"uniqueid": "w47149558:a40339369", "current_trial": 43, "dateTime": 1664555568630, "trialdata": {"revealed_states": [], "num_clicks_accrued": [0, 0, 0, 0, 0, 0, 0, 0, 0, 0, 0, 0, 0], "stateRewards": ["", 2, 4, 48, -48, 2, 4, 24, -24, 2, -4, -24, -48], "withholdReward": false, "trial_id": "mdp_706591889062", "block": "test2", "trialIndex": 35, "score": 57.75, "costs": -1.25, "simulationMode": [null, null, null], "rewards": [2, 4, 48], "path": ["0", "0", "1", "2", "3"], "rt": [5358, 454, 413], "actions": ["up", "up", "right"], "actionTimes": [5958, 6913, 7824], "queries": {"click": {"state": {"target": ["12", "7", "11", "4", "3"], "time": [1282, 2014, 3678, 4045, 4981]}, "edge": {"target": [], "time": []}}, "mouseover": {"state": {"target": ["12", "6", "7", "1", "11", "11", "4", "11", "4", "1", "3", "8", "8"], "time": [1159, 1590, 1890, 2240, 2373, 2984, 3325, 3543, 3943, 4291, 4860, 5274, 5510]}, "edge": {"target": [], "time": []}}, "mouseout": {"state": {"target": ["0", "12", "6", "7", "1", "11", "11", "4", "11", "4", "1", "3", "8", "8"], "time": [774, 1490, 1606, 2190, 2273, 2406, 3024, 3340, 3841, 4191, 4324, 5108, 5310, 5525]}, "edge": {"target": [], "time": []}}}, "displayed_time": "8.33", "trialTime": 9698, "trial_type": "mouselab-mdp", "trial_index": 43, "time_elapsed": 583496, "internal_node_id": "0.0-4.0-3.0-3.0"}}, {"uniqueid": "w47149558:a40339369", "current_trial": 44, "dateTime": 1664555579727, "trialdata": {"revealed_states": [], "num_clicks_accrued": [0, 0, 0, 0, 0, 0, 0, 0, 0, 0, 0, 0, 0], "stateRewards": ["", -4, -8, 24, -48, 2, 4, -48, -48, 2, -8, 24, 48], "withholdReward": true, "trial_id": "mdp_111262146724", "block": "test2", "trialIndex": 36, "score": 46.75, "costs": -0.25, "simulationMode": [null, null, null], "rewards": [2, -8, 48], "path": ["0", "0", "9", "10", "12"], "rt": [1336, 97, 122], "actions": ["left", "left", "down"], "actionTimes": [2553, 3146, 3756], "queries": {"click": {"state": {"target": ["12"], "time": [1684]}, "edge": {"target": [], "time": []}}, "mouseover": {"state": {"target": ["12"], "time": [1497]}, "edge": {"target": [], "time": []}}, "mouseout": {"state": {"target": ["0", "0", "12"], "time": [580, 1431, 1798]}, "edge": {"target": [], "time": []}}}, "displayed_time": "10.22", "trialTime": 11050, "trial_type": "mouselab-mdp", "trial_index": 44, "time_elapsed": 594593, "internal_node_id": "0.0-4.0-3.0-4.0"}}, {"uniqueid": "w47149558:a40339369", "current_trial": 45, "dateTime": 1664555589255, "trialdata": {"revealed_states": [], "num_clicks_accrued": [0, 0, 0, 0, 0, 0, 0, 0, 0, 0, 0, 0, 0], "stateRewards": ["", 4, -4, 24, 48, 4, 8, -24, -24, -2, 4, 48, 48], "withholdReward": true, "trial_id": "mdp_624998450453", "block": "test2", "trialIndex": 37, "score": 54.75, "costs": -0.25, "simulationMode": [null, null, null], "rewards": [-2, 4, 48], "path": ["0", "0", "9", "10", "12"], "rt": [1392, 151, 118], "actions": ["left", "left", "down"], "actionTimes": [2289, 2940, 3558], "queries": {"click": {"state": {"target": ["12"], "time": [1464]}, "edge": {"target": [], "time": []}}, "mouseover": {"state": {"target": ["12"], "time": [1187]}, "edge": {"target": [], "time": []}}, "mouseout": {"state": {"target": ["12", "0", "12", "5", "0"], "time": [370, 1104, 1588, 4522, 4624]}, "edge": {"target": [], "time": []}}}, "displayed_time": "8.90", "trialTime": 9479, "trial_type": "mouselab-mdp", "trial_index": 45, "time_elapsed": 604121, "internal_node_id": "0.0-4.0-3.0-5.0"}}, {"uniqueid": "w47149558:a40339369", "current_trial": 46, "dateTime": 1664555599083, "trialdata": {"revealed_states": [], "num_clicks_accrued": [0, 0, 0, 0, 0, 0, 0, 0, 0, 0, 0, 0, 0], "stateRewards": ["", 2, 4, 48, -48, 2, -4, 48, 24, -2, -8, -24, 48], "withholdReward": false, "trial_id": "mdp_962424406744", "block": "test2", "trialIndex": 38, "score": 42.75, "costs": -0.25, "simulationMode": [null, null, null], "rewards": [-2, -8, 48], "path": ["0", "0", "9", "10", "12"], "rt": [1307, 96, 47], "actions": ["left", "left", "down"], "actionTimes": [2040, 2632, 3181], "queries": {"click": {"state": {"target": ["12"], "time": [1285]}, "edge": {"target": [], "time": []}}, "mouseover": {"state": {"target": ["0", "12"], "time": [831, 1031]}, "edge": {"target": [], "time": []}}, "mouseout": {"state": {"target": ["5", "0", "12", "12"], "time": [531, 898, 1431, 8851]}, "edge": {"target": [], "time": []}}}, "displayed_time": "8.73", "trialTime": 9782, "trial_type": "mouselab-mdp", "trial_index": 46, "time_elapsed": 613949, "internal_node_id": "0.0-4.0-3.0-6.0"}}, {"uniqueid": "w47149558:a40339369", "current_trial": 47, "dateTime": 1664555609323, "trialdata": {"revealed_states": [], "num_clicks_accrued": [0, 0, 0, 0, 0, 0, 0, 0, 0, 0, 0, 0, 0], "stateRewards": ["", 2, -8, -24, 48, 4, -8, -24, -24, 2, 8, -24, 24], "withholdReward": false, "trial_id": "mdp_480787552818", "block": "test2", "trialIndex": 39, "score": 38.25, "costs": -0.75, "simulationMode": [null, null, null], "rewards": [2, 8, 24], "path": ["0", "0", "9", "10", "12"], "rt": [2612, 68, 40], "actions": ["left", "left", "down"], "actionTimes": [3191, 3762, 4300], "queries": {"click": {"state": {"target": ["12", "10", "9"], "time": [1202, 1775, 2615]}, "edge": {"target": [], "time": []}}, "mouseover": {"state": {"target": ["12", "12", "10", "9"], "time": [874, 1093, 1590, 2411]}, "edge": {"target": [], "time": []}}, "mouseout": {"state": {"target": ["0", "12", "12", "10", "9", "8"], "time": [759, 925, 1458, 1925, 2741, 5392]}, "edge": {"target": [], "time": []}}}, "displayed_time": "9.58", "trialTime": 10193, "trial_type": "mouselab-mdp", "trial_index": 47, "time_elapsed": 624188, "internal_node_id": "0.0-4.0-3.0-7.0"}}, {"uniqueid": "w47149558:a40339369", "current_trial": 48, "dateTime": 1664555620887, "trialdata": {"revealed_states": [], "num_clicks_accrued": [0, 0, 0, 0, 0, 0, 0, 0, 0, 0, 0, 0, 0], "stateRewards": ["", -4, -4, -24, 48, 2, 4, -24, -48, -2, 4, 24, 24], "withholdReward": true, "trial_id": "mdp_360934723192", "block": "test2", "trialIndex": 40, "score": 43.75, "costs": -1.25, "simulationMode": [null, null, null], "rewards": [-4, -4, 48], "path": ["0", "0", "1", "2", "4"], "rt": [3872, 463, 353], "actions": ["up", "up", "left"], "actionTimes": [4561, 5522, 6379], "queries": {"click": {"state": {"target": ["8", "11", "12", "7", "4"], "time": [1233, 2046, 2494, 3184, 3727]}, "edge": {"target": [], "time": []}}, "mouseover": {"state": {"target": ["8", "8", "5", "1", "11", "10", "12", "0", "7", "3", "2", "4", "2", "3"], "time": [821, 1121, 1589, 1672, 1822, 2221, 2372, 2775, 3091, 3389, 3488, 3555, 3889, 4119]}, "edge": {"target": [], "time": []}}, "mouseout": {"state": {"target": ["8", "8", "5", "1", "11", "10", "12", "0", "7", "3", "2", "4", "2", "3", "6", "8"], "time": [923, 1388, 1621, 1704, 2188, 2272, 2605, 2805, 3323, 3455, 3522, 3855, 3922, 8007, 8159, 11142]}, "edge": {"target": [], "time": []}}}, "displayed_time": "10.69", "trialTime": 11517, "trial_type": "mouselab-mdp", "trial_index": 48, "time_elapsed": 635753, "internal_node_id": "0.0-4.0-3.0-8.0"}}, {"uniqueid": "w47149558:a40339369", "current_trial": 49, "dateTime": 1664555640923, "trialdata": {"revealed_states": [], "num_clicks_accrued": [0, 0, 0, 0, 0, 0, 0, 0, 0, 0, 0, 0, 0], "stateRewards": ["", -4, -4, 24, -48, 2, 4, -24, -48, -2, -8, -24, 24], "withholdReward": true, "trial_id": "mdp_565569130486", "block": "test2", "trialIndex": 41, "score": 18.25, "costs": -2.75, "simulationMode": [null, null, null], "rewards": [-4, -4, 24], "path": ["0", "0", "1", "2", "3"], "rt": [15983, 40, 377], "actions": ["up", "up", "right"], "actionTimes": [16808, 17340, 18212], "queries": {"click": {"state": {"target": ["4", "12", "8", "7", "11", "3", "2", "1", "5", "10", "9"], "time": [1248, 1929, 2510, 3079, 3582, 4122, 6667, 7263, 8081, 9263, 13049]}, "edge": {"target": [], "time": []}}, "mouseover": {"state": {"target": ["4", "10", "12", "8", "6", "7", "1", "11", "3", "9", "2", "2", "1", "5", "5", "5", "6", "6", "9", "10", "9", "9", "9", "6", "6"], "time": [1092, 1558, 1592, 2342, 2626, 2978, 3259, 3326, 3993, 6028, 6260, 6613, 7028, 7594, 7712, 7946, 8463, 8772, 8911, 9129, 12413, 12679, 12948, 15864, 16015]}, "edge": {"target": [], "time": []}}, "mouseout": {"state": {"target": ["0", "4", "10", "12", "8", "6", "7", "1", "11", "3", "9", "4", "2", "2", "1", "5", "5", "5", "6", "6", "5", "9", "10", "9", "9", "9", "8", "6", "6", "5", "12"], "time": [941, 1376, 1575, 2142, 2609, 2643, 3243, 3276, 3842, 4227, 6077, 6227, 6277, 6812, 7361, 7645, 7745, 8211, 8613, 8829, 8861, 9028, 9362, 12429, 12729, 13163, 15831, 15947, 16365, 19166, 19415]}, "edge": {"target": [], "time": []}}}, "displayed_time": "18.70", "trialTime": 19987, "trial_type": "mouselab-mdp", "trial_index": 49, "time_elapsed": 655789, "internal_node_id": "0.0-4.0-3.0-9.0"}}, {"uniqueid": "w47149558:a40339369", "current_trial": 50, "dateTime": 1664555651933, "trialdata": {"revealed_states": [], "num_clicks_accrued": [0, 0, 0, 0, 0, 0, 0, 0, 0, 0, 0, 0, 0], "stateRewards": ["", -2, -8, 48, 24, -2, 8, -48, -24, -2, 4, -48, 48], "withholdReward": true, "trial_id": "mdp_295220852217", "block": "test2", "trialIndex": 42, "score": 54.75, "costs": -0.25, "simulationMode": [null, null, null], "rewards": [-2, 4, 48], "path": ["0", "0", "9", "10", "12"], "rt": [1544, 186, 96], "actions": ["left", "left", "down"], "actionTimes": [2790, 3480, 4073], "queries": {"click": {"state": {"target": ["12"], "time": [1956]}, "edge": {"target": [], "time": []}}, "mouseover": {"state": {"target": ["12", "9", "9"], "time": [1841, 2290, 2390]}, "edge": {"target": [], "time": []}}, "mouseout": {"state": {"target": ["0", "12", "9", "9", "12"], "time": [1559, 2074, 2307, 4959, 5174]}, "edge": {"target": [], "time": []}}}, "displayed_time": "10.25", "trialTime": 10954, "trial_type": "mouselab-mdp", "trial_index": 50, "time_elapsed": 666799, "internal_node_id": "0.0-4.0-3.0-10.0"}}, {"uniqueid": "w47149558:a40339369", "current_trial": 51, "dateTime": 1664555664880, "trialdata": {"revealed_states": [], "num_clicks_accrued": [0, 0, 0, 0, 0, 0, 0, 0, 0, 0, 0, 0, 0], "stateRewards": ["", -4, -8, -24, 24, 4, 4, -48, -48, -4, -4, 24, -48], "withholdReward": true, "trial_id": "mdp_431592223624", "block": "test2", "trialIndex": 43, "score": 18.5, "costs": -2.5, "simulationMode": [null, null, null], "rewards": [-4, -4, 24], "path": ["0", "0", "9", "10", "11"], "rt": [9416, 401, 133], "actions": ["left", "left", "up"], "actionTimes": [10157, 11049, 11680], "queries": {"click": {"state": {"target": ["12", "7", "11", "8", "4", "3", "10", "9", "2", "1"], "time": [1383, 2154, 2828, 3622, 4347, 4850, 7131, 8165, 8839, 9428]}, "edge": {"target": [], "time": []}}, "mouseover": {"state": {"target": ["12", "6", "7", "1", "11", "9", "8", "5", "2", "4", "4", "2", "3", "1", "9", "10", "9", "2", "1"], "time": [1175, 1842, 1992, 2375, 2691, 3142, 3560, 3809, 3959, 4009, 4211, 4559, 4725, 5043, 6560, 6961, 8011, 8544, 9027]}, "edge": {"target": [], "time": []}}, "mouseout": {"state": {"target": ["0", "12", "6", "7", "1", "11", "9", "8", "5", "2", "4", "4", "2", "3", "1", "9", "10", "12", "9", "2", "1", "10", "12"], "time": [943, 1658, 1924, 2308, 2408, 3065, 3192, 3760, 3859, 3992, 4058, 4511, 4643, 4992, 5159, 6745, 7294, 7862, 8460, 9010, 9545, 12712, 12745]}, "edge": {"target": [], "time": []}}}, "displayed_time": "12.18", "trialTime": 12898, "trial_type": "mouselab-mdp", "trial_index": 51, "time_elapsed": 679746, "internal_node_id": "0.0-4.0-3.0-11.0"}}, {"uniqueid": "w47149558:a40339369", "current_trial": 52, "dateTime": 1664555674950, "trialdata": {"revealed_states": [], "num_clicks_accrued": [0, 0, 0, 0, 0, 0, 0, 0, 0, 0, 0, 0, 0], "stateRewards": ["", 2, -4, -48, 24, -4, 4, 24, 24, 2, -8, -24, -48], "withholdReward": true, "trial_id": "mdp_807654778305", "block": "test2", "trialIndex": 44, "score": 27.5, "costs": -1.5, "simulationMode": [null, null, null], "rewards": [-4, 4, 24], "path": ["0", "0", "5", "6", "8"], "rt": [6207, 25, 181], "actions": ["right", "right", "down"], "actionTimes": [7275, 7800, 8473], "queries": {"click": {"state": {"target": ["12", "11", "8", "7", "4", "3"], "time": [1666, 2821, 3578, 4148, 4741, 5281]}, "edge": {"target": [], "time": []}}, "mouseover": {"state": {"target": ["0", "9", "12", "11", "5", "8", "6", "7", "4", "2", "3", "5"], "time": [1189, 1303, 1605, 2722, 3105, 3238, 3788, 3973, 4639, 4989, 5173, 5422]}, "edge": {"target": [], "time": []}}, "mouseout": {"state": {"target": ["0", "0", "9", "12", "11", "5", "8", "6", "7", "4", "2", "3", "5", "12"], "time": [886, 1220, 1387, 1804, 2938, 3171, 3755, 3871, 4307, 4855, 5039, 5389, 5439, 9292]}, "edge": {"target": [], "time": []}}}, "displayed_time": "9.07", "trialTime": 10026, "trial_type": "mouselab-mdp", "trial_index": 52, "time_elapsed": 689816, "internal_node_id": "0.0-4.0-3.0-12.0"}}, {"uniqueid": "w47149558:a40339369", "current_trial": 53, "dateTime": 1664555685627, "trialdata": {"revealed_states": [], "num_clicks_accrued": [0, 0, 0, 0, 0, 0, 0, 0, 0, 0, 0, 0, 0], "stateRewards": ["", 4, 4, -24, -48, -4, 4, -48, 24, 4, -8, -48, 48], "withholdReward": true, "trial_id": "mdp_566768794366", "block": "test2", "trialIndex": 45, "score": 48.75, "costs": -0.25, "simulationMode": [null, null, null], "rewards": [4, -8, 48], "path": ["0", "0", "9", "10", "12"], "rt": [1521, 4, 44], "actions": ["left", "left", "down"], "actionTimes": [2178, 2678, 3233], "queries": {"click": {"state": {"target": ["12"], "time": [1243]}, "edge": {"target": [], "time": []}}, "mouseover": {"state": {"target": ["12", "11", "11", "10"], "time": [1120, 1487, 1662, 1687]}, "edge": {"target": [], "time": []}}, "mouseout": {"state": {"target": ["9", "0", "12", "11", "11", "10", "10"], "time": [420, 770, 1370, 1536, 1687, 4104, 4154]}, "edge": {"target": [], "time": []}}}, "displayed_time": "9.66", "trialTime": 10631, "trial_type": "mouselab-mdp", "trial_index": 53, "time_elapsed": 700492, "internal_node_id": "0.0-4.0-3.0-13.0"}}, {"uniqueid": "w47149558:a40339369", "current_trial": 54, "dateTime": 1664555695171, "trialdata": {"revealed_states": [], "num_clicks_accrued": [0, 0, 0, 0, 0, 0, 0, 0, 0, 0, 0, 0, 0], "stateRewards": ["", 4, -4, 48, 24, 2, 4, 24, -24, 2, 4, 24, 48], "withholdReward": true, "trial_id": "mdp_736351885282", "block": "test2", "trialIndex": 46, "score": 58.75, "costs": -0.25, "simulationMode": [null, null, null], "rewards": [2, 4, 48], "path": ["0", "0", "9", "10", "12"], "rt": [1415, 121, 104], "actions": ["left", "left", "down"], "actionTimes": [2291, 2903, 3504], "queries": {"click": {"state": {"target": ["12"], "time": [1302]}, "edge": {"target": [], "time": []}}, "mouseover": {"state": {"target": ["12"], "time": [1080]}, "edge": {"target": [], "time": []}}, "mouseout": {"state": {"target": ["5", "0", "12"], "time": [480, 997, 1514]}, "edge": {"target": [], "time": []}}}, "displayed_time": "8.88", "trialTime": 9498, "trial_type": "mouselab-mdp", "trial_index": 54, "time_elapsed": 710037, "internal_node_id": "0.0-4.0-3.0-14.0"}}, {"uniqueid": "w47149558:a40339369", "current_trial": 55, "dateTime": 1664555707051, "trialdata": {"revealed_states": [], "num_clicks_accrued": [0, 0, 0, 0, 0, 0, 0, 0, 0, 0, 0, 0, 0], "stateRewards": ["", -4, 4, 24, 24, -2, 8, 24, -48, 4, -8, -24, -48], "withholdReward": true, "trial_id": "mdp_651542905861", "block": "test2", "trialIndex": 47, "score": 33.25, "costs": -1.75, "simulationMode": [null, null, null], "rewards": [-2, 8, 24], "path": ["0", "0", "5", "6", "7"], "rt": [6481, 126, 107], "actions": ["right", "right", "up"], "actionTimes": [7317, 7934, 8533], "queries": {"click": {"state": {"target": ["12", "8", "7", "11", "4", "3", "6"], "time": [1346, 2318, 3622, 4385, 4857, 5206, 6256]}, "edge": {"target": [], "time": []}}, "mouseover": {"state": {"target": ["12", "9", "0", "5", "8", "7", "7", "7", "7", "11", "4", "2", "3", "6"], "time": [1171, 1755, 1971, 2005, 2105, 2588, 2889, 3155, 3415, 4223, 4690, 5006, 5141, 5973]}, "edge": {"target": [], "time": []}}, "mouseout": {"state": {"target": ["9", "0", "0", "12", "9", "0", "5", "8", "7", "7", "7", "7", "11", "4", "2", "3", "6"], "time": [421, 538, 922, 1606, 1957, 1988, 2023, 2422, 2757, 3022, 3272, 3757, 4540, 4973, 5056, 5323, 6390]}, "edge": {"target": [], "time": []}}}, "displayed_time": "9.03", "trialTime": 11833, "trial_type": "mouselab-mdp", "trial_index": 55, "time_elapsed": 721917, "internal_node_id": "0.0-4.0-3.0-15.0"}}, {"uniqueid": "w47149558:a40339369", "current_trial": 56, "dateTime": 1664555716644, "trialdata": {"revealed_states": [], "num_clicks_accrued": [0, 0, 0, 0, 0, 0, 0, 0, 0, 0, 0, 0, 0], "stateRewards": ["", -2, 4, 24, 48, 2, 4, -48, -48, 2, 8, 48, -48], "withholdReward": true, "trial_id": "mdp_409609775558", "block": "test2", "trialIndex": 48, "score": 62.25, "costs": -0.75, "simulationMode": [null, null, null], "rewards": [2, 8, 48], "path": ["0", "0", "9", "10", "11"], "rt": [2882, 100, 436], "actions": ["left", "left", "up"], "actionTimes": [3936, 4534, 5470], "queries": {"click": {"state": {"target": ["7", "12", "11"], "time": [1560, 2229, 2926]}, "edge": {"target": [], "time": []}}, "mouseover": {"state": {"target": ["7", "5", "12", "9", "11", "11"], "time": [1383, 1731, 2101, 2448, 2565, 2800]}, "edge": {"target": [], "time": []}}, "mouseout": {"state": {"target": ["0", "7", "5", "12", "9", "11", "11"], "time": [1164, 1715, 1748, 2332, 2498, 2582, 3066]}, "edge": {"target": [], "time": []}}}, "displayed_time": "9.05", "trialTime": 9548, "trial_type": "mouselab-mdp", "trial_index": 56, "time_elapsed": 731510, "internal_node_id": "0.0-4.0-3.0-16.0"}}, {"uniqueid": "w47149558:a40339369", "current_trial": 57, "dateTime": 1664555726423, "trialdata": {"revealed_states": [], "num_clicks_accrued": [0, 0, 0, 0, 0, 0, 0, 0, 0, 0, 0, 0, 0], "stateRewards": ["", -4, 4, 24, 24, 4, -8, 48, -48, -2, -8, 24, 24], "withholdReward": true, "trial_id": "mdp_395264223239", "block": "test2", "trialIndex": 49, "score": 48.25, "costs": -0.75, "simulationMode": [null, null, null], "rewards": [4, -8, 48], "path": ["0", "0", "5", "6", "7"], "rt": [3215, 146, 110], "actions": ["right", "right", "up"], "actionTimes": [4076, 4719, 5349], "queries": {"click": {"state": {"target": ["11", "12", "7"], "time": [1824, 2370, 3069]}, "edge": {"target": [], "time": []}}, "mouseover": {"state": {"target": ["9", "11", "11", "10", "12", "7", "6", "8"], "time": [1052, 1169, 1703, 2019, 2136, 2987, 3237, 3470]}, "edge": {"target": [], "time": []}}, "mouseout": {"state": {"target": ["0", "9", "11", "11", "10", "12", "7", "6", "8"], "time": [1020, 1119, 1303, 1986, 2086, 2536, 3220, 3270, 6371]}, "edge": {"target": [], "time": []}}}, "displayed_time": "8.86", "trialTime": 9727, "trial_type": "mouselab-mdp", "trial_index": 57, "time_elapsed": 741289, "internal_node_id": "0.0-4.0-3.0-17.0"}}, {"uniqueid": "w47149558:a40339369", "current_trial": 58, "dateTime": 1664555737291, "trialdata": {"revealed_states": [], "num_clicks_accrued": [0, 0, 0, 0, 0, 0, 0, 0, 0, 0, 0, 0, 0], "stateRewards": ["", 4, -8, 24, 48, 2, 4, 48, 48, 2, 8, -48, -48], "withholdReward": false, "trial_id": "mdp_783704746330", "block": "test2", "trialIndex": 50, "score": 58.25, "costs": -0.75, "simulationMode": [null, null, null], "rewards": [2, 4, 48], "path": ["0", "0", "5", "6", "7"], "rt": [2578, 16, 105], "actions": ["right", "right", "up"], "actionTimes": [3355, 3873, 4477], "queries": {"click": {"state": {"target": ["11", "12", "7"], "time": [1281, 1932, 2460]}, "edge": {"target": [], "time": []}}, "mouseover": {"state": {"target": ["11", "10", "12", "5", "7", "6"], "time": [1070, 1470, 1856, 2187, 2270, 2604]}, "edge": {"target": [], "time": []}}, "mouseout": {"state": {"target": ["0", "11", "10", "12", "5", "7", "6", "7", "6"], "time": [638, 1437, 1503, 2120, 2221, 2571, 2687, 5372, 10340]}, "edge": {"target": [], "time": []}}}, "displayed_time": "9.78", "trialTime": 10810, "trial_type": "mouselab-mdp", "trial_index": 58, "time_elapsed": 752157, "internal_node_id": "0.0-4.0-3.0-18.0"}}, {"uniqueid": "w47149558:a40339369", "current_trial": 59, "dateTime": 1664555747670, "trialdata": {"revealed_states": [], "num_clicks_accrued": [0, 0, 0, 0, 0, 0, 0, 0, 0, 0, 0, 0, 0], "stateRewards": ["", -2, 8, 48, 24, 2, -4, 48, -48, 2, 8, 24, -24], "withholdReward": false, "trial_id": "mdp_176207245985", "block": "test2", "trialIndex": 51, "score": 50, "costs": -1, "simulationMode": [null, null, null], "rewards": [2, -4, 48], "path": ["0", "0", "5", "6", "7"], "rt": [3311, 177, 496], "actions": ["right", "right", "up"], "actionTimes": [4106, 4784, 5772], "queries": {"click": {"state": {"target": ["12", "11", "8", "7"], "time": [1458, 1997, 2645, 3261]}, "edge": {"target": [], "time": []}}, "mouseover": {"state": {"target": ["12", "10", "11", "9", "0", "8", "7"], "time": [1357, 1771, 1821, 2155, 2222, 2555, 3074]}, "edge": {"target": [], "time": []}}, "mouseout": {"state": {"target": ["0", "12", "10", "11", "9", "0", "8", "7", "8"], "time": [957, 1589, 1788, 2122, 2188, 2255, 2839, 3523, 10107]}, "edge": {"target": [], "time": []}}}, "displayed_time": "9.80", "trialTime": 10335, "trial_type": "mouselab-mdp", "trial_index": 59, "time_elapsed": 762536, "internal_node_id": "0.0-4.0-3.0-19.0"}}, {"uniqueid": "w47149558:a40339369", "current_trial": 60, "dateTime": 1664555758846, "trialdata": {"revealed_states": [], "num_clicks_accrued": [0, 0, 0, 0, 0, 0, 0, 0, 0, 0, 0, 0, 0], "stateRewards": ["", -2, -4, -48, -48, 4, 8, 24, -48, 4, -8, 24, 24], "withholdReward": false, "trial_id": "mdp_749799219195", "block": "test2", "trialIndex": 52, "score": 23.5, "costs": -1.5, "simulationMode": [null, null, null], "rewards": [4, -8, 24], "path": ["0", "0", "9", "10", "12"], "rt": [4554, 72, 80], "actions": ["left", "left", "down"], "actionTimes": [5517, 6083, 6658], "queries": {"click": {"state": {"target": ["12", "11", "8", "7", "4", "3"], "time": [1611, 2507, 3193, 3665, 4356, 4717]}, "edge": {"target": [], "time": []}}, "mouseover": {"state": {"target": ["9", "12", "9", "11", "11", "5", "8", "8", "7", "2", "4", "3", "5"], "time": [1277, 1527, 1926, 2110, 2378, 2759, 2793, 3026, 3510, 4093, 4243, 4594, 4978]}, "edge": {"target": [], "time": []}}, "mouseout": {"state": {"target": ["9", "0", "9", "12", "9", "11", "11", "5", "8", "8", "7", "2", "4", "3", "5", "0", "9"], "time": [642, 1262, 1293, 1709, 2009, 2176, 2609, 2776, 2860, 3293, 3760, 4177, 4460, 4827, 10962, 10996, 11063]}, "edge": {"target": [], "time": []}}}, "displayed_time": "9.96", "trialTime": 11129, "trial_type": "mouselab-mdp", "trial_index": 60, "time_elapsed": 773712, "internal_node_id": "0.0-4.0-3.0-20.0"}}, {"uniqueid": "w47149558:a40339369", "current_trial": 61, "dateTime": 1664555770041, "trialdata": {"revealed_states": [], "num_clicks_accrued": [0, 0, 0, 0, 0, 0, 0, 0, 0, 0, 0, 0, 0], "stateRewards": ["", -4, 4, -48, -48, -4, 8, -24, 24, 2, -4, 48, 48], "withholdReward": true, "trial_id": "mdp_821566905048", "block": "test2", "trialIndex": 53, "score": 50.5, "costs": -0.5, "simulationMode": [null, null, null], "rewards": [2, -4, 48], "path": ["0", "0", "9", "10", "12"], "rt": [2246, 133, 172], "actions": ["left", "left", "down"], "actionTimes": [3401, 4027, 4698], "queries": {"click": {"state": {"target": ["8", "12"], "time": [1785, 2422]}, "edge": {"target": [], "time": []}}, "mouseover": {"state": {"target": ["0", "8", "12", "10"], "time": [1342, 1710, 2291, 2608]}, "edge": {"target": [], "time": []}}, "mouseout": {"state": {"target": ["0", "0", "8", "12", "10", "11", "12"], "time": [1042, 1348, 2025, 2592, 2642, 5560, 5760]}, "edge": {"target": [], "time": []}}}, "displayed_time": "10.15", "trialTime": 11152, "trial_type": "mouselab-mdp", "trial_index": 61, "time_elapsed": 784907, "internal_node_id": "0.0-4.0-3.0-21.0"}}, {"uniqueid": "w47149558:a40339369", "current_trial": 62, "dateTime": 1664555780301, "trialdata": {"revealed_states": [], "num_clicks_accrued": [0, 0, 0, 0, 0, 0, 0, 0, 0, 0, 0, 0, 0], "stateRewards": ["", 2, 8, -48, -24, 4, 4, 24, 48, 4, -4, -48, 48], "withholdReward": true, "trial_id": "mdp_665096999232", "block": "test2", "trialIndex": 54, "score": 60.75, "costs": -0.25, "simulationMode": [null, null, null], "rewards": [4, 4, 48], "path": ["0", "0", "5", "6", "8"], "rt": [1751, 70, 177], "actions": ["right", "right", "down"], "actionTimes": [2385, 2955, 3627], "queries": {"click": {"state": {"target": ["8"], "time": [1447]}, "edge": {"target": [], "time": []}}, "mouseover": {"state": {"target": ["8", "12", "12"], "time": [1337, 1748, 1982]}, "edge": {"target": [], "time": []}}, "mouseout": {"state": {"target": ["0", "8", "12", "12", "8"], "time": [766, 1615, 1965, 8101, 8402]}, "edge": {"target": [], "time": []}}}, "displayed_time": "9.63", "trialTime": 10197, "trial_type": "mouselab-mdp", "trial_index": 62, "time_elapsed": 795167, "internal_node_id": "0.0-4.0-3.0-22.0"}}, {"uniqueid": "w47149558:a40339369", "current_trial": 63, "dateTime": 1664555790131, "trialdata": {"revealed_states": [], "num_clicks_accrued": [0, 0, 0, 0, 0, 0, 0, 0, 0, 0, 0, 0, 0], "stateRewards": ["", -4, -4, -48, 48, -4, -8, -24, -48, -2, 8, 48, 24], "withholdReward": false, "trial_id": "mdp_365393526663", "block": "test2", "trialIndex": 55, "score": 58.25, "costs": -0.75, "simulationMode": [null, null, null], "rewards": [-2, 8, 48], "path": ["0", "0", "9", "10", "11"], "rt": [3150, 54, 184], "actions": ["left", "left", "up"], "actionTimes": [3838, 4393, 5075], "queries": {"click": {"state": {"target": ["8", "7", "11"], "time": [1540, 2322, 2911]}, "edge": {"target": [], "time": []}}, "mouseover": {"state": {"target": ["0", "8", "7", "11", "10", "12"], "time": [838, 1475, 2154, 2720, 3037, 3103]}, "edge": {"target": [], "time": []}}, "mouseout": {"state": {"target": ["0", "0", "8", "7", "11", "10", "12"], "time": [518, 852, 1721, 2470, 3020, 3087, 3405]}, "edge": {"target": [], "time": []}}}, "displayed_time": "8.69", "trialTime": 9777, "trial_type": "mouselab-mdp", "trial_index": 63, "time_elapsed": 804997, "internal_node_id": "0.0-4.0-3.0-23.0"}}, {"uniqueid": "w47149558:a40339369", "current_trial": 64, "dateTime": 1664555800406, "trialdata": {"revealed_states": [], "num_clicks_accrued": [0, 0, 0, 0, 0, 0, 0, 0, 0, 0, 0, 0, 0], "stateRewards": ["", 2, -4, 48, -48, -2, 8, -48, 24, -2, -8, 48, 48], "withholdReward": true, "trial_id": "mdp_949326095747", "block": "test2", "trialIndex": 56, "score": 42.5, "costs": -0.5, "simulationMode": [null, null, null], "rewards": [-2, -8, 48], "path": ["0", "0", "9", "10", "12"], "rt": [2348, 147, 215], "actions": ["left", "left", "down"], "actionTimes": [3098, 3733, 4451], "queries": {"click": {"state": {"target": ["7", "12"], "time": [1503, 2202]}, "edge": {"target": [], "time": []}}, "mouseover": {"state": {"target": ["5", "7", "0", "12", "10", "11"], "time": [967, 1369, 1717, 2034, 2434, 2484]}, "edge": {"target": [], "time": []}}, "mouseout": {"state": {"target": ["0", "5", "7", "0", "12", "10", "11", "11", "10", "10", "10", "12"], "time": [516, 984, 1668, 1733, 2400, 2467, 5302, 5368, 6419, 6586, 6802, 6852]}, "edge": {"target": [], "time": []}}}, "displayed_time": "9.75", "trialTime": 10229, "trial_type": "mouselab-mdp", "trial_index": 64, "time_elapsed": 815271, "internal_node_id": "0.0-4.0-3.0-24.0"}}, {"uniqueid": "w47149558:a40339369", "current_trial": 65, "dateTime": 1664555815150, "trialdata": {"revealed_states": [], "num_clicks_accrued": [0, 0, 0, 0, 0, 0, 0, 0, 0, 0, 0, 0, 0], "stateRewards": ["", -2, 8, 24, -48, -2, -4, 24, 48, 2, 8, -48, -48], "withholdReward": true, "trial_id": "mdp_562228697607", "block": "test2", "trialIndex": 57, "score": 46.75, "costs": -0.25, "simulationMode": [null, null, null], "rewards": [-2, -4, 48], "path": ["0", "0", "5", "6", "8"], "rt": [1234, 120, 93], "actions": ["right", "right", "down"], "actionTimes": [1846, 2463, 3053], "queries": {"click": {"state": {"target": ["8"], "time": [1134]}, "edge": {"target": [], "time": []}}, "mouseover": {"state": {"target": ["8"], "time": [974]}, "edge": {"target": [], "time": []}}, "mouseout": {"state": {"target": ["0", "8", "9", "10"], "time": [741, 1241, 5826, 6126]}, "edge": {"target": [], "time": []}}}, "displayed_time": "8.61", "trialTime": 14693, "trial_type": "mouselab-mdp", "trial_index": 65, "time_elapsed": 830015, "internal_node_id": "0.0-4.0-3.0-25.0"}}, {"uniqueid": "w47149558:a40339369", "current_trial": 66, "dateTime": 1664555825118, "trialdata": {"revealed_states": [], "num_clicks_accrued": [0, 0, 0, 0, 0, 0, 0, 0, 0, 0, 0, 0, 0], "stateRewards": ["", 2, -8, 48, -24, 2, 8, 24, -24, 4, -4, -48, -48], "withholdReward": true, "trial_id": "mdp_130946197263", "block": "test2", "trialIndex": 58, "score": 45.5, "costs": -1.5, "simulationMode": [null, null, null], "rewards": [2, -8, 48], "path": ["0", "0", "1", "2", "3"], "rt": [4525, 83, 603], "actions": ["up", "up", "right"], "actionTimes": [5520, 6105, 7209], "queries": {"click": {"state": {"target": ["8", "12", "11", "7", "4", "3"], "time": [1735, 2436, 2920, 3607, 4489, 4838]}, "edge": {"target": [], "time": []}}, "mouseover": {"state": {"target": ["8", "12", "11", "7", "7", "2", "4", "2", "3", "1"], "time": [1586, 2285, 2751, 3186, 3472, 4169, 4202, 4619, 4820, 5086]}, "edge": {"target": [], "time": []}}, "mouseout": {"state": {"target": ["0", "8", "12", "11", "7", "7", "2", "4", "2", "3", "1"], "time": [1185, 2035, 2569, 3052, 3309, 3854, 4185, 4602, 4686, 5004, 7921]}, "edge": {"target": [], "time": []}}}, "displayed_time": "9.00", "trialTime": 9917, "trial_type": "mouselab-mdp", "trial_index": 66, "time_elapsed": 839984, "internal_node_id": "0.0-4.0-3.0-26.0"}}, {"uniqueid": "w47149558:a40339369", "current_trial": 67, "dateTime": 1664555835450, "trialdata": {"revealed_states": [], "num_clicks_accrued": [0, 0, 0, 0, 0, 0, 0, 0, 0, 0, 0, 0, 0], "stateRewards": ["", 2, 4, 48, 24, -4, 8, 48, 48, 2, -4, -48, -24], "withholdReward": true, "trial_id": "mdp_822099887466", "block": "test2", "trialIndex": 59, "score": 58.75, "costs": -0.25, "simulationMode": [null, null, null], "rewards": [2, 4, 48], "path": ["0", "0", "1", "2", "3"], "rt": [1715, 82, 62], "actions": ["up", "up", "right"], "actionTimes": [2531, 3112, 3673], "queries": {"click": {"state": {"target": ["3"], "time": [1579]}, "edge": {"target": [], "time": []}}, "mouseover": {"state": {"target": ["3", "2"], "time": [1411, 1775]}, "edge": {"target": [], "time": []}}, "mouseout": {"state": {"target": ["3", "2", "11", "9"], "time": [1759, 1826, 6745, 7144]}, "edge": {"target": [], "time": []}}}, "displayed_time": "9.82", "trialTime": 10286, "trial_type": "mouselab-mdp", "trial_index": 67, "time_elapsed": 850316, "internal_node_id": "0.0-4.0-3.0-27.0"}}, {"uniqueid": "w47149558:a40339369", "current_trial": 68, "dateTime": 1664555845941, "trialdata": {"revealed_states": [], "num_clicks_accrued": [0, 0, 0, 0, 0, 0, 0, 0, 0, 0, 0, 0, 0], "stateRewards": ["", 2, 4, -48, -24, 2, 8, 24, 48, -2, 4, 48, -48], "withholdReward": true, "trial_id": "mdp_551894842204", "block": "test2", "trialIndex": 60, "score": 54, "costs": -1, "simulationMode": [null, null, null], "rewards": [-2, 4, 48], "path": ["0", "0", "9", "10", "11"], "rt": [3237, 150, 159], "actions": ["left", "left", "up"], "actionTimes": [3988, 4633, 5295], "queries": {"click": {"state": {"target": ["3", "4", "12", "11"], "time": [1382, 1967, 2595, 3103]}, "edge": {"target": [], "time": []}}, "mouseover": {"state": {"target": ["1", "2", "3", "1", "4", "11", "12", "11", "1"], "time": [982, 1048, 1265, 1650, 1765, 2115, 2466, 3018, 3266]}, "edge": {"target": [], "time": []}}, "mouseout": {"state": {"target": ["5", "0", "1", "2", "3", "1", "4", "11", "12", "11", "1", "6"], "time": [482, 949, 1015, 1200, 1551, 1682, 2066, 2148, 2732, 3216, 3283, 6200]}, "edge": {"target": [], "time": []}}}, "displayed_time": "9.75", "trialTime": 10446, "trial_type": "mouselab-mdp", "trial_index": 68, "time_elapsed": 860807, "internal_node_id": "0.0-4.0-3.0-28.0"}}, {"uniqueid": "w47149558:a40339369", "current_trial": 69, "dateTime": 1664555855730, "trialdata": {"revealed_states": [], "num_clicks_accrued": [0, 0, 0, 0, 0, 0, 0, 0, 0, 0, 0, 0, 0], "stateRewards": ["", -4, 8, 24, -24, 4, 8, -24, -48, 2, 4, 24, -24], "withholdReward": true, "trial_id": "mdp_782187007008", "block": "test2", "trialIndex": 61, "score": 33.25, "costs": -1.75, "simulationMode": [null, null, null], "rewards": [2, 4, 24], "path": ["0", "0", "9", "10", "11"], "rt": [5795, 87, 136], "actions": ["left", "left", "up"], "actionTimes": [6490, 7067, 7698], "queries": {"click": {"state": {"target": ["8", "12", "11", "7", "4", "3", "10"], "time": [1133, 1866, 2451, 3074, 3692, 4262, 5574]}, "edge": {"target": [], "time": []}}, "mouseover": {"state": {"target": ["0", "8", "12", "12", "11", "7", "7", "2", "4", "2", "3", "1", "9", "10"], "time": [775, 1008, 1441, 1742, 2277, 2659, 2961, 3342, 3561, 3893, 4128, 4443, 5244, 5328]}, "edge": {"target": [], "time": []}}, "mouseout": {"state": {"target": ["0", "0", "8", "12", "12", "11", "7", "7", "2", "4", "2", "3", "1", "9", "10", "9"], "time": [576, 808, 1325, 1475, 2044, 2576, 2693, 3261, 3376, 3860, 3976, 4393, 4476, 5294, 5710, 9229]}, "edge": {"target": [], "time": []}}}, "displayed_time": "8.70", "trialTime": 9741, "trial_type": "mouselab-mdp", "trial_index": 69, "time_elapsed": 870596, "internal_node_id": "0.0-4.0-3.0-29.0"}}, {"uniqueid": "w47149558:a40339369", "current_trial": 70, "dateTime": 1664555889018, "trialdata": {"rt": 33282, "stimulus": "<h1> End of block! </h1>\n\nYou have reached the end of the block 2/4. If you need a short break, feel free to take one now before moving on.\n\n<br><br>\nIn the next block, you will complete another 30 rounds of this game.\n\n<br><br>\n<div style='text-align: center;'>Press <code>space</code> to begin.</div>\n<br><br>\n<div style='text-align: center;'>(If the experiment doesn't continue, try clicking on the text and then pressing <code>space</code>.)</div>", "response": " ", "trial_id": "mdp_ready_3", "trial_type": "html-keyboard-response", "trial_index": 70, "time_elapsed": 903884, "internal_node_id": "0.0-4.0-4.0"}}, {"uniqueid": "w47149558:a40339369", "current_trial": 71, "dateTime": 1664555899292, "trialdata": {"revealed_states": [], "num_clicks_accrued": [0, 0, 0, 0, 0, 0, 0, 0, 0, 0, 0, 0, 0], "stateRewards": ["", 4, -4, 48, -48, -4, -4, 48, -48, 4, 4, -48, -24], "withholdReward": true, "trial_id": "mdp_490058671112", "block": "test3", "trialIndex": 62, "score": 44, "costs": -1, "simulationMode": [null, null, null], "rewards": [-4, -4, 48], "path": ["0", "0", "5", "6", "7"], "rt": [3270, 141, 53], "actions": ["right", "right", "up"], "actionTimes": [4626, 5255, 5801], "queries": {"click": {"state": {"target": ["4", "12", "8", "7"], "time": [1854, 2522, 3327, 3778]}, "edge": {"target": [], "time": []}}, "mouseover": {"state": {"target": ["4", "10", "12", "8", "8", "6", "7", "1"], "time": [1695, 2145, 2362, 2879, 3112, 3496, 3579, 3963]}, "edge": {"target": [], "time": []}}, "mouseout": {"state": {"target": ["0", "0", "4", "10", "12", "8", "8", "6", "7", "1", "12"], "time": [978, 1530, 1996, 2181, 2729, 2895, 3477, 3546, 3913, 3982, 7448]}, "edge": {"target": [], "time": []}}}, "displayed_time": "9.36", "trialTime": 10222, "trial_type": "mouselab-mdp", "trial_index": 71, "time_elapsed": 914157, "internal_node_id": "0.0-4.0-5.0-0.0"}}, {"uniqueid": "w47149558:a40339369", "current_trial": 72, "dateTime": 1664555908889, "trialdata": {"revealed_states": [], "num_clicks_accrued": [0, 0, 0, 0, 0, 0, 0, 0, 0, 0, 0, 0, 0], "stateRewards": ["", 4, -4, 24, 48, 4, 8, -24, -24, -2, 4, 48, 48], "withholdReward": true, "trial_id": "mdp_624998450453", "block": "test3", "trialIndex": 63, "score": 54.75, "costs": -0.25, "simulationMode": [null, null, null], "rewards": [-2, 4, 48], "path": ["0", "0", "9", "10", "11"], "rt": [1346, 76, 76], "actions": ["left", "left", "up"], "actionTimes": [2108, 2686, 3253], "queries": {"click": {"state": {"target": ["11"], "time": [1221]}, "edge": {"target": [], "time": []}}, "mouseover": {"state": {"target": ["11", "10"], "time": [1008, 1508]}, "edge": {"target": [], "time": []}}, "mouseout": {"state": {"target": ["0", "11", "10", "12"], "time": [610, 1458, 1542, 7343]}, "edge": {"target": [], "time": []}}}, "displayed_time": "8.76", "trialTime": 9546, "trial_type": "mouselab-mdp", "trial_index": 72, "time_elapsed": 923755, "internal_node_id": "0.0-4.0-5.0-1.0"}}, {"uniqueid": "w47149558:a40339369", "current_trial": 73, "dateTime": 1664555919522, "trialdata": {"revealed_states": [], "num_clicks_accrued": [0, 0, 0, 0, 0, 0, 0, 0, 0, 0, 0, 0, 0], "stateRewards": ["", -2, 8, 48, 24, 2, -4, 48, -48, 2, 8, 24, -24], "withholdReward": false, "trial_id": "mdp_176207245985", "block": "test3", "trialIndex": 64, "score": 50.75, "costs": -0.25, "simulationMode": [null, null, null], "rewards": [2, -4, 48], "path": ["0", "0", "5", "6", "7"], "rt": [1811, 133, 90], "actions": ["right", "right", "up"], "actionTimes": [2540, 3167, 3756], "queries": {"click": {"state": {"target": ["7"], "time": [1519]}, "edge": {"target": [], "time": []}}, "mouseover": {"state": {"target": ["7", "6", "6"], "time": [1080, 1781, 1948]}, "edge": {"target": [], "time": []}}, "mouseout": {"state": {"target": ["11", "1", "0", "7", "6", "6", "6"], "time": [79, 129, 913, 1731, 1881, 1964, 9216]}, "edge": {"target": [], "time": []}}}, "displayed_time": "8.73", "trialTime": 10580, "trial_type": "mouselab-mdp", "trial_index": 73, "time_elapsed": 934387, "internal_node_id": "0.0-4.0-5.0-2.0"}}, {"uniqueid": "w47149558:a40339369", "current_trial": 74, "dateTime": 1664555929552, "trialdata": {"revealed_states": [], "num_clicks_accrued": [0, 0, 0, 0, 0, 0, 0, 0, 0, 0, 0, 0, 0], "stateRewards": ["", -2, 8, 24, -48, -4, -8, -24, -48, -4, 8, -24, 48], "withholdReward": true, "trial_id": "mdp_464339499860", "block": "test3", "trialIndex": 65, "score": 56, "costs": -1, "simulationMode": [null, null, null], "rewards": [-4, 8, 48], "path": ["0", "0", "9", "10", "12"], "rt": [3129, 59, 38], "actions": ["left", "left", "down"], "actionTimes": [3833, 4393, 4922], "queries": {"click": {"state": {"target": ["11", "7", "8", "12"], "time": [1230, 1907, 2381, 2945]}, "edge": {"target": [], "time": []}}, "mouseover": {"state": {"target": ["9", "11", "9", "9", "5", "7", "8", "12"], "time": [848, 1115, 1448, 1582, 1648, 1748, 2215, 2784]}, "edge": {"target": [], "time": []}}, "mouseout": {"state": {"target": ["9", "11", "9", "9", "5", "7", "8", "12"], "time": [983, 1350, 1566, 1599, 1665, 2015, 2482, 3136]}, "edge": {"target": [], "time": []}}}, "displayed_time": "8.71", "trialTime": 9974, "trial_type": "mouselab-mdp", "trial_index": 74, "time_elapsed": 944418, "internal_node_id": "0.0-4.0-5.0-3.0"}}, {"uniqueid": "w47149558:a40339369", "current_trial": 75, "dateTime": 1664555939699, "trialdata": {"revealed_states": [], "num_clicks_accrued": [0, 0, 0, 0, 0, 0, 0, 0, 0, 0, 0, 0, 0], "stateRewards": ["", 4, 8, -48, 24, -2, 8, -48, -48, -4, 4, 48, -48], "withholdReward": true, "trial_id": "mdp_693807815190", "block": "test3", "trialIndex": 66, "score": 52, "costs": -1, "simulationMode": [null, null, null], "rewards": [-4, 4, 48], "path": ["0", "0", "9", "10", "11"], "rt": [3360, 70, 107], "actions": ["left", "left", "up"], "actionTimes": [3916, 4484, 5088], "queries": {"click": {"state": {"target": ["4", "3", "12", "11"], "time": [1154, 1681, 2274, 3068]}, "edge": {"target": [], "time": []}}, "mouseover": {"state": {"target": ["1", "4", "2", "3", "0", "12", "5", "11"], "time": [779, 1029, 1379, 1512, 1946, 2097, 2613, 2863]}, "edge": {"target": [], "time": []}}, "mouseout": {"state": {"target": ["0", "1", "4", "2", "3", "0", "12", "5", "11"], "time": [714, 845, 1313, 1446, 1796, 1962, 2379, 2629, 3164]}, "edge": {"target": [], "time": []}}}, "displayed_time": "9.56", "trialTime": 10098, "trial_type": "mouselab-mdp", "trial_index": 75, "time_elapsed": 954565, "internal_node_id": "0.0-4.0-5.0-4.0"}}, {"uniqueid": "w47149558:a40339369", "current_trial": 76, "dateTime": 1664555950375, "trialdata": {"revealed_states": [], "num_clicks_accrued": [0, 0, 0, 0, 0, 0, 0, 0, 0, 0, 0, 0, 0], "stateRewards": ["", -2, 4, -24, 48, 4, -8, 48, -48, 2, -8, 48, 24], "withholdReward": true, "trial_id": "mdp_501111216502", "block": "test3", "trialIndex": 67, "score": 48.75, "costs": -0.25, "simulationMode": [null, null, null], "rewards": [4, -8, 48], "path": ["0", "0", "5", "6", "7"], "rt": [1520, 84, 36], "actions": ["right", "right", "up"], "actionTimes": [2326, 2902, 3436], "queries": {"click": {"state": {"target": ["7"], "time": [1391]}, "edge": {"target": [], "time": []}}, "mouseover": {"state": {"target": ["7"], "time": [1248]}, "edge": {"target": [], "time": []}}, "mouseout": {"state": {"target": ["5", "7", "1", "9"], "time": [314, 1648, 9034, 10351]}, "edge": {"target": [], "time": []}}}, "displayed_time": "9.81", "trialTime": 10623, "trial_type": "mouselab-mdp", "trial_index": 76, "time_elapsed": 965241, "internal_node_id": "0.0-4.0-5.0-5.0"}}, {"uniqueid": "w47149558:a40339369", "current_trial": 77, "dateTime": 1664555960286, "trialdata": {"revealed_states": [], "num_clicks_accrued": [0, 0, 0, 0, 0, 0, 0, 0, 0, 0, 0, 0, 0], "stateRewards": ["", -2, -8, -48, 24, 2, -4, -48, 48, 2, 4, 24, -24], "withholdReward": false, "trial_id": "mdp_849341543762", "block": "test3", "trialIndex": 68, "score": 50, "costs": -1, "simulationMode": [null, null, null], "rewards": [2, -4, 48], "path": ["0", "0", "5", "6", "8"], "rt": [3135, 203, 161], "actions": ["right", "right", "down"], "actionTimes": [3922, 4615, 5272], "queries": {"click": {"state": {"target": ["12", "11", "7", "8"], "time": [1257, 1939, 2494, 2906]}, "edge": {"target": [], "time": []}}, "mouseover": {"state": {"target": ["12", "9", "10", "11", "7", "6", "8"], "time": [1176, 1576, 1626, 1794, 2260, 2609, 2726]}, "edge": {"target": [], "time": []}}, "mouseout": {"state": {"target": ["9", "0", "12", "9", "10", "11", "7", "6", "8", "7", "1", "0"], "time": [459, 893, 1359, 1609, 1643, 2076, 2593, 2626, 3045, 3160, 8513, 8578]}, "edge": {"target": [], "time": []}}}, "displayed_time": "8.79", "trialTime": 9858, "trial_type": "mouselab-mdp", "trial_index": 77, "time_elapsed": 975152, "internal_node_id": "0.0-4.0-5.0-6.0"}}, {"uniqueid": "w47149558:a40339369", "current_trial": 78, "dateTime": 1664555969976, "trialdata": {"revealed_states": [], "num_clicks_accrued": [0, 0, 0, 0, 0, 0, 0, 0, 0, 0, 0, 0, 0], "stateRewards": ["", -4, -4, -24, 24, -4, 4, -24, 48, -2, 4, 48, -48], "withholdReward": true, "trial_id": "mdp_774757609669", "block": "test3", "trialIndex": 69, "score": 52.75, "costs": -0.25, "simulationMode": [null, null, null], "rewards": [-4, 4, 48], "path": ["0", "0", "5", "6", "8"], "rt": [1376, 148, 134], "actions": ["right", "right", "down"], "actionTimes": [2109, 2751, 3387], "queries": {"click": {"state": {"target": ["8"], "time": [1259]}, "edge": {"target": [], "time": []}}, "mouseover": {"state": {"target": ["5", "8"], "time": [901, 1118]}, "edge": {"target": [], "time": []}}, "mouseout": {"state": {"target": ["0", "5", "8"], "time": [851, 951, 1452]}, "edge": {"target": [], "time": []}}}, "displayed_time": "8.73", "trialTime": 9636, "trial_type": "mouselab-mdp", "trial_index": 78, "time_elapsed": 984842, "internal_node_id": "0.0-4.0-5.0-7.0"}}, {"uniqueid": "w47149558:a40339369", "current_trial": 79, "dateTime": 1664555981266, "trialdata": {"revealed_states": [], "num_clicks_accrued": [0, 0, 0, 0, 0, 0, 0, 0, 0, 0, 0, 0, 0], "stateRewards": ["", -4, 8, -24, -24, 4, -8, 48, -24, -4, -8, -24, -48], "withholdReward": false, "trial_id": "mdp_391766721791", "block": "test3", "trialIndex": 70, "score": 48.25, "costs": -0.75, "simulationMode": [null, null, null], "rewards": [4, -8, 48], "path": ["0", "0", "5", "6", "7"], "rt": [2558, 640, 249], "actions": ["right", "right", "up"], "actionTimes": [3166, 4294, 5039], "queries": {"click": {"state": {"target": ["12", "11", "7"], "time": [1042, 1595, 2184]}, "edge": {"target": [], "time": []}}, "mouseover": {"state": {"target": ["12", "10", "11", "7", "6", "8"], "time": [835, 1402, 1451, 2035, 2286, 2385]}, "edge": {"target": [], "time": []}}, "mouseout": {"state": {"target": ["0", "12", "10", "11", "7", "6", "8"], "time": [751, 1335, 1418, 1735, 2271, 2335, 6120]}, "edge": {"target": [], "time": []}}}, "displayed_time": "9.61", "trialTime": 11238, "trial_type": "mouselab-mdp", "trial_index": 79, "time_elapsed": 996132, "internal_node_id": "0.0-4.0-5.0-8.0"}}, {"uniqueid": "w47149558:a40339369", "current_trial": 80, "dateTime": 1664555997608, "trialdata": {"revealed_states": [], "num_clicks_accrued": [0, 0, 0, 0, 0, 0, 0, 0, 0, 0, 0, 0, 0], "stateRewards": ["", 2, -4, -24, -24, -2, -8, -48, 24, -4, -8, 24, 24], "withholdReward": true, "trial_id": "mdp_521351546461", "block": "test3", "trialIndex": 71, "score": 16.5, "costs": -2.5, "simulationMode": [null, null, null], "rewards": [-2, -8, 24], "path": ["0", "0", "5", "6", "8"], "rt": [12493, 70, 50], "actions": ["right", "right", "down"], "actionTimes": [13309, 13880, 14426], "queries": {"click": {"state": {"target": ["11", "12", "8", "7", "4", "3", "10", "6", "9", "5"], "time": [1964, 2510, 3260, 4078, 4728, 5551, 7488, 8875, 9787, 10808]}, "edge": {"target": [], "time": []}}, "mouseover": {"state": {"target": ["11", "10", "12", "8", "6", "7", "4", "2", "3", "2", "3", "10", "9", "5", "6", "0", "9", "9", "5"], "time": [1838, 2188, 2305, 3072, 3488, 3989, 4601, 4889, 5073, 5256, 5440, 7078, 8358, 8573, 8673, 9326, 9357, 9608, 10425]}, "edge": {"target": [], "time": []}}, "mouseout": {"state": {"target": ["0", "11", "10", "12", "8", "6", "7", "4", "2", "3", "2", "3", "11", "10", "9", "5", "6", "0", "9", "10", "9", "6", "5", "8"], "time": [1041, 2139, 2273, 2754, 3438, 3538, 4221, 4872, 4955, 5206, 5273, 5673, 5872, 8357, 8373, 8641, 9024, 9341, 9390, 9576, 9924, 10324, 10941, 15760]}, "edge": {"target": [], "time": []}}}, "displayed_time": "14.94", "trialTime": 16295, "trial_type": "mouselab-mdp", "trial_index": 80, "time_elapsed": 1012474, "internal_node_id": "0.0-4.0-5.0-9.0"}}, {"uniqueid": "w47149558:a40339369", "current_trial": 81, "dateTime": 1664556006902, "trialdata": {"revealed_states": [], "num_clicks_accrued": [0, 0, 0, 0, 0, 0, 0, 0, 0, 0, 0, 0, 0], "stateRewards": ["", -2, 4, 24, 48, 2, 4, -48, -48, -2, 8, 48, -24], "withholdReward": true, "trial_id": "mdp_305701202606", "block": "test3", "trialIndex": 72, "score": 58.5, "costs": -0.5, "simulationMode": [null, null, null], "rewards": [-2, 8, 48], "path": ["0", "0", "9", "10", "11"], "rt": [2293, 69, 91], "actions": ["left", "left", "up"], "actionTimes": [2997, 3570, 4158], "queries": {"click": {"state": {"target": ["12", "11"], "time": [1633, 2109]}, "edge": {"target": [], "time": []}}, "mouseover": {"state": {"target": ["12", "12", "10", "11"], "time": [1082, 1352, 1883, 1966]}, "edge": {"target": [], "time": []}}, "mouseout": {"state": {"target": ["0", "12", "12", "10", "11", "2", "9"], "time": [1000, 1149, 1867, 1932, 2250, 5134, 5250]}, "edge": {"target": [], "time": []}}}, "displayed_time": "8.70", "trialTime": 9245, "trial_type": "mouselab-mdp", "trial_index": 81, "time_elapsed": 1021768, "internal_node_id": "0.0-4.0-5.0-10.0"}}, {"uniqueid": "w47149558:a40339369", "current_trial": 82, "dateTime": 1664556017045, "trialdata": {"revealed_states": [], "num_clicks_accrued": [0, 0, 0, 0, 0, 0, 0, 0, 0, 0, 0, 0, 0], "stateRewards": ["", -4, 4, 24, 24, 4, -8, 48, -48, -2, -8, 24, 24], "withholdReward": true, "trial_id": "mdp_395264223239", "block": "test3", "trialIndex": 73, "score": 48, "costs": -1, "simulationMode": [null, null, null], "rewards": [4, -8, 48], "path": ["0", "0", "5", "6", "7"], "rt": [3307, 39, 365], "actions": ["right", "right", "up"], "actionTimes": [3924, 4466, 5341], "queries": {"click": {"state": {"target": ["12", "11", "8", "7"], "time": [1226, 1946, 2531, 3002]}, "edge": {"target": [], "time": []}}, "mouseover": {"state": {"target": ["12", "11", "5", "8", "6", "7", "1"], "time": [1074, 1608, 2241, 2358, 2675, 2775, 3321]}, "edge": {"target": [], "time": []}}, "mouseout": {"state": {"target": ["0", "12", "11", "5", "8", "6", "7", "1", "1", "0"], "time": [807, 1391, 2091, 2291, 2642, 2725, 3141, 7643, 7943, 8027]}, "edge": {"target": [], "time": []}}}, "displayed_time": "9.62", "trialTime": 10092, "trial_type": "mouselab-mdp", "trial_index": 82, "time_elapsed": 1031911, "internal_node_id": "0.0-4.0-5.0-11.0"}}, {"uniqueid": "w47149558:a40339369", "current_trial": 83, "dateTime": 1664556026401, "trialdata": {"revealed_states": [], "num_clicks_accrued": [0, 0, 0, 0, 0, 0, 0, 0, 0, 0, 0, 0, 0], "stateRewards": ["", 2, -4, 48, -24, 4, -8, -24, 48, -2, -4, 24, -48], "withholdReward": true, "trial_id": "mdp_357328205509", "block": "test3", "trialIndex": 74, "score": 48, "costs": -1, "simulationMode": [null, null, null], "rewards": [4, -8, 48], "path": ["0", "0", "5", "6", "8"], "rt": [2785, 163, 78], "actions": ["right", "right", "down"], "actionTimes": [3502, 4168, 4750], "queries": {"click": {"state": {"target": ["11", "12", "7", "8"], "time": [1156, 1574, 2105, 2594]}, "edge": {"target": [], "time": []}}, "mouseover": {"state": {"target": ["9", "11", "10", "12", "5", "7", "8", "5", "1"], "time": [853, 1019, 1303, 1470, 1769, 1919, 2403, 2719, 2754]}, "edge": {"target": [], "time": []}}, "mouseout": {"state": {"target": ["12", "0", "9", "11", "10", "12", "5", "7", "8", "5", "1", "11", "11", "0", "5"], "time": [235, 836, 902, 1270, 1402, 1686, 1836, 2236, 2703, 2737, 2769, 6704, 7105, 8107, 8172]}, "edge": {"target": [], "time": []}}}, "displayed_time": "8.72", "trialTime": 9307, "trial_type": "mouselab-mdp", "trial_index": 83, "time_elapsed": 1041267, "internal_node_id": "0.0-4.0-5.0-12.0"}}, {"uniqueid": "w47149558:a40339369", "current_trial": 84, "dateTime": 1664556037272, "trialdata": {"revealed_states": [], "num_clicks_accrued": [0, 0, 0, 0, 0, 0, 0, 0, 0, 0, 0, 0, 0], "stateRewards": ["", -2, -8, -24, 48, -2, -8, -48, -48, 2, -8, -48, 24], "withholdReward": false, "trial_id": "mdp_288324580942", "block": "test3", "trialIndex": 75, "score": 42.5, "costs": -0.5, "simulationMode": [null, null, null], "rewards": [-2, -8, 48], "path": ["0", "0", "1", "2", "4"], "rt": [1915, 85, 3], "actions": ["up", "up", "left"], "actionTimes": [2512, 3099, 3601], "queries": {"click": {"state": {"target": ["11", "4"], "time": [1173, 1536]}, "edge": {"target": [], "time": []}}, "mouseover": {"state": {"target": ["11", "4", "3"], "time": [997, 1413, 1730]}, "edge": {"target": [], "time": []}}, "mouseout": {"state": {"target": ["0", "0", "11", "4", "3", "2", "2", "9"], "time": [213, 696, 1280, 1646, 1780, 4581, 4631, 10233]}, "edge": {"target": [], "time": []}}}, "displayed_time": "9.60", "trialTime": 10817, "trial_type": "mouselab-mdp", "trial_index": 84, "time_elapsed": 1052137, "internal_node_id": "0.0-4.0-5.0-13.0"}}, {"uniqueid": "w47149558:a40339369", "current_trial": 85, "dateTime": 1664556047696, "trialdata": {"revealed_states": [], "num_clicks_accrued": [0, 0, 0, 0, 0, 0, 0, 0, 0, 0, 0, 0, 0], "stateRewards": ["", -4, -4, 24, 48, 4, -4, -24, 24, -4, -4, 24, 24], "withholdReward": true, "trial_id": "mdp_357725458160", "block": "test3", "trialIndex": 76, "score": 44, "costs": -1, "simulationMode": [null, null, null], "rewards": [-4, -4, 48], "path": ["0", "0", "1", "2", "4"], "rt": [3137, 50, 300], "actions": ["up", "up", "left"], "actionTimes": [3927, 4476, 5293], "queries": {"click": {"state": {"target": ["8", "7", "11", "4"], "time": [1461, 2049, 2571, 2961]}, "edge": {"target": [], "time": []}}, "mouseover": {"state": {"target": ["0", "5", "8", "6", "7", "11", "4", "2", "3"], "time": [941, 1091, 1257, 1758, 1824, 2475, 2892, 3159, 3225]}, "edge": {"target": [], "time": []}}, "mouseout": {"state": {"target": ["0", "0", "5", "8", "6", "7", "11", "4", "2", "3", "2"], "time": [741, 1074, 1124, 1724, 1807, 2191, 2692, 3108, 3208, 3459, 7077]}, "edge": {"target": [], "time": []}}}, "displayed_time": "9.79", "trialTime": 10365, "trial_type": "mouselab-mdp", "trial_index": 85, "time_elapsed": 1062561, "internal_node_id": "0.0-4.0-5.0-14.0"}}, {"uniqueid": "w47149558:a40339369", "current_trial": 86, "dateTime": 1664556058447, "trialdata": {"revealed_states": [], "num_clicks_accrued": [0, 0, 0, 0, 0, 0, 0, 0, 0, 0, 0, 0, 0], "stateRewards": ["", 2, -8, 24, 24, 4, -4, -24, -48, 4, 8, 24, 24], "withholdReward": false, "trial_id": "mdp_249803813713", "block": "test3", "trialIndex": 77, "score": 39.25, "costs": -1.75, "simulationMode": [null, null, null], "rewards": [4, 8, 24], "path": ["0", "0", "9", "10", "11"], "rt": [4955, 79, 107], "actions": ["left", "left", "up"], "actionTimes": [6034, 6607, 7203], "queries": {"click": {"state": {"target": ["12", "4", "3", "8", "7", "11", "10"], "time": [1696, 2472, 2936, 3621, 4011, 4475, 5029]}, "edge": {"target": [], "time": []}}, "mouseover": {"state": {"target": ["12", "10", "4", "3", "6", "8", "6", "7", "1", "11", "10"], "time": [1510, 1876, 2345, 2811, 3177, 3477, 3776, 3877, 4177, 4260, 4794]}, "edge": {"target": [], "time": []}}, "mouseout": {"state": {"target": ["7", "0", "12", "0", "12", "10", "4", "3", "6", "8", "6", "7", "1", "11", "10"], "time": [476, 492, 509, 1374, 1827, 1926, 2627, 3027, 3261, 3728, 3827, 4128, 4194, 4744, 5128]}, "edge": {"target": [], "time": []}}}, "displayed_time": "10.08", "trialTime": 10698, "trial_type": "mouselab-mdp", "trial_index": 86, "time_elapsed": 1073313, "internal_node_id":