{"condition": 0, "counterbalance": 0, "assignmentId": "a85790534", "workerId": "w57002701", "hitId": "h27303456", "currenttrial": 959, "bonus": 0, "data": [{"uniqueid": "w57002701:a85790534", "current_trial": 0, "dateTime": 1664555556658, "trialdata": {"success": true, "trial_type": "fullscreen", "trial_index": 0, "time_elapsed": 8459, "internal_node_id": "0.0-0.0"}}, {"uniqueid": "w57002701:a85790534", "current_trial": 1, "dateTime": 1664555591053, "trialdata": {"view_history": [{"page_index": 0, "viewing_time": 34390}], "rt": 34391, "trial_id": "exp_instructions_distractor", "trial_type": "instructions", "trial_index": 1, "time_elapsed": 42855, "internal_node_id": "0.0-1.0"}}, {"uniqueid": "w57002701:a85790534", "current_trial": 2, "dateTime": 1664555682435, "trialdata": {"view_history": [{"page_index": 0, "viewing_time": 91378}], "rt": 91379, "trial_id": "color_game_instructions", "trial_type": "instructions", "trial_index": 2, "time_elapsed": 134237, "internal_node_id": "0.0-2.0"}}, {"uniqueid": "w57002701:a85790534", "current_trial": 3, "dateTime": 1664555702594, "trialdata": {"rt": 20157, "stimulus": "<h1> Get ready to start the game! </h1>\n\nThank you for reading the instructions. Get ready start with the first of 5 block(s) of this game.\n<br><br>\nIn this first block, you will complete 90 rounds of this game before moving on.\n<br><br>\nRemember, the better you perform, the bigger your bonus will be!\n<br><br>\n<div style='text-align: center;'>Press <code>space</code> to begin.</div>", "response": " ", "trial_id": "stroop_1_ready_1", "trial_type": "html-keyboard-response", "trial_index": 3, "time_elapsed": 154396, "internal_node_id": "0.0-3.0"}}, {"uniqueid": "w57002701:a85790534", "current_trial": 4, "dateTime": 1664555704796, "trialdata": {"rt": 2197, "stimulus": "<p id='stroop-text' class='stroop-green'>MONKEY</p>", "response": "g", "stimulus-type": "unrelated", "word": "MONKEY", "color": "green", "correct_response": "g", "trial_id": "stroop-trial-1-unrelated-2", "trial_type": "html-keyboard-response", "trial_index": 4, "time_elapsed": 156598, "internal_node_id": "0.0-4.0-0.0"}}, {"uniqueid": "w57002701:a85790534", "current_trial": 5, "dateTime": 1664555706524, "trialdata": {"rt": 1222, "stimulus": "<p id='stroop-text' class='stroop-red'>FORK</p>", "response": "r", "stimulus-type": "unrelated", "word": "FORK", "color": "red", "correct_response": "r", "trial_id": "stroop-trial-1-unrelated-23", "trial_type": "html-keyboard-response", "trial_index": 5, "time_elapsed": 158325, "internal_node_id": "0.0-4.0-1.0"}}, {"uniqueid": "w57002701:a85790534", "current_trial": 6, "dateTime": 1664555709297, "trialdata": {"rt": 2269, "stimulus": "<p id='stroop-text' class='stroop-blue'>YELLOW</p>", "response": "b", "stimulus-type": "incongruent", "word": "yellow", "color": "blue", "correct_response": "b", "trial_id": "stroop-trial-1-incongruent-18", "trial_type": "html-keyboard-response", "trial_index": 6, "time_elapsed": 161099, "internal_node_id": "0.0-4.0-2.0"}}, {"uniqueid": "w57002701:a85790534", "current_trial": 7, "dateTime": 1664555711003, "trialdata": {"rt": 1202, "stimulus": "<p id='stroop-text' class='stroop-green'>RED</p>", "response": "r", "stimulus-type": "incongruent", "word": "red", "color": "green", "correct_response": "g", "trial_id": "stroop-trial-1-incongruent-10", "trial_type": "html-keyboard-response", "trial_index": 7, "time_elapsed": 162805, "internal_node_id": "0.0-4.0-3.0"}}, {"uniqueid": "w57002701:a85790534", "current_trial": 8, "dateTime": 1664555716009, "trialdata": {"rt": 4501, "stimulus": "<p id='stroop-text' class='stroop-blue'>GREEN</p>", "response": "b", "stimulus-type": "incongruent", "word": "green", "color": "blue", "correct_response": "b", "trial_id": "stroop-trial-1-incongruent-5", "trial_type": "html-keyboard-response", "trial_index": 8, "time_elapsed": 167811, "internal_node_id": "0.0-4.0-4.0"}}, {"uniqueid": "w57002701:a85790534", "current_trial": 9, "dateTime": 1664555717955, "trialdata": {"rt": 1443, "stimulus": "<p id='stroop-text' class='stroop-yellow'>FORK</p>", "response": "y", "stimulus-type": "unrelated", "word": "FORK", "color": "yellow", "correct_response": "y", "trial_id": "stroop-trial-1-unrelated-14", "trial_type": "html-keyboard-response", "trial_index": 9, "time_elapsed": 169757, "internal_node_id": "0.0-4.0-5.0"}}, {"uniqueid": "w57002701:a85790534", "current_trial": 10, "dateTime": 1664555719506, "trialdata": {"rt": 1049, "stimulus": "<p id='stroop-text' class='stroop-yellow'>YELLOW</p>", "response": "y", "stimulus-type": "congruent", "word": "yellow", "color": "yellow", "correct_response": "y", "trial_id": "stroop-trial-1-congruent-3", "trial_type": "html-keyboard-response", "trial_index": 10, "time_elapsed": 171308, "internal_node_id": "0.0-4.0-6.0"}}, {"uniqueid": "w57002701:a85790534", "current_trial": 11, "dateTime": 1664555722222, "trialdata": {"rt": 2210, "stimulus": "<p id='stroop-text' class='stroop-blue'>BLUE</p>", "response": "b", "stimulus-type": "congruent", "word": "blue", "color": "blue", "correct_response": "b", "trial_id": "stroop-trial-1-congruent-16", "trial_type": "html-keyboard-response", "trial_index": 11, "time_elapsed": 174024, "internal_node_id": "0.0-4.0-7.0"}}, {"uniqueid": "w57002701:a85790534", "current_trial": 12, "dateTime": 1664555723935, "trialdata": {"rt": 1211, "stimulus": "<p id='stroop-text' class='stroop-blue'>SHIP</p>", "response": "b", "stimulus-type": "unrelated", "word": "SHIP", "color": "blue", "correct_response": "b", "trial_id": "stroop-trial-1-unrelated-20", "trial_type": "html-keyboard-response", "trial_index": 12, "time_elapsed": 175737, "internal_node_id": "0.0-4.0-8.0"}}, {"uniqueid": "w57002701:a85790534", "current_trial": 13, "dateTime": 1664555725399, "trialdata": {"rt": 962, "stimulus": "<p id='stroop-text' class='stroop-yellow'>BLUE</p>", "response": "y", "stimulus-type": "incongruent", "word": "blue", "color": "yellow", "correct_response": "y", "trial_id": "stroop-trial-1-incongruent-25", "trial_type": "html-keyboard-response", "trial_index": 13, "time_elapsed": 177201, "internal_node_id": "0.0-4.0-9.0"}}, {"uniqueid": "w57002701:a85790534", "current_trial": 14, "dateTime": 1664555727300, "trialdata": {"rt": 1396, "stimulus": "<p id='stroop-text' class='stroop-yellow'>DOG</p>", "response": "y", "stimulus-type": "unrelated", "word": "DOG", "color": "yellow", "correct_response": "y", "trial_id": "stroop-trial-1-unrelated-19", "trial_type": "html-keyboard-response", "trial_index": 14, "time_elapsed": 179102, "internal_node_id": "0.0-4.0-10.0"}}, {"uniqueid": "w57002701:a85790534", "current_trial": 15, "dateTime": 1664555728711, "trialdata": {"rt": 908, "stimulus": "<p id='stroop-text' class='stroop-yellow'>YELLOW</p>", "response": "y", "stimulus-type": "congruent", "word": "yellow", "color": "yellow", "correct_response": "y", "trial_id": "stroop-trial-1-congruent-8", "trial_type": "html-keyboard-response", "trial_index": 15, "time_elapsed": 180513, "internal_node_id": "0.0-4.0-11.0"}}, {"uniqueid": "w57002701:a85790534", "current_trial": 16, "dateTime": 1664555729849, "trialdata": {"rt": 636, "stimulus": "<p id='stroop-text' class='stroop-yellow'>GREEN</p>", "response": "y", "stimulus-type": "incongruent", "word": "green", "color": "yellow", "correct_response": "y", "trial_id": "stroop-trial-1-incongruent-17", "trial_type": "html-keyboard-response", "trial_index": 16, "time_elapsed": 181651, "internal_node_id": "0.0-4.0-12.0"}}, {"uniqueid": "w57002701:a85790534", "current_trial": 17, "dateTime": 1664555730991, "trialdata": {"rt": 639, "stimulus": "<p id='stroop-text' class='stroop-yellow'>RED</p>", "response": "y", "stimulus-type": "incongruent", "word": "red", "color": "yellow", "correct_response": "y", "trial_id": "stroop-trial-1-incongruent-3", "trial_type": "html-keyboard-response", "trial_index": 17, "time_elapsed": 182793, "internal_node_id": "0.0-4.0-13.0"}}, {"uniqueid": "w57002701:a85790534", "current_trial": 18, "dateTime": 1664555732430, "trialdata": {"rt": 935, "stimulus": "<p id='stroop-text' class='stroop-red'>RED</p>", "response": "r", "stimulus-type": "congruent", "word": "red", "color": "red", "correct_response": "r", "trial_id": "stroop-trial-1-congruent-30", "trial_type": "html-keyboard-response", "trial_index": 18, "time_elapsed": 184231, "internal_node_id": "0.0-4.0-14.0"}}, {"uniqueid": "w57002701:a85790534", "current_trial": 19, "dateTime": 1664555733800, "trialdata": {"rt": 866, "stimulus": "<p id='stroop-text' class='stroop-red'>BLUE</p>", "response": "b", "stimulus-type": "incongruent", "word": "blue", "color": "red", "correct_response": "r", "trial_id": "stroop-trial-1-incongruent-13", "trial_type": "html-keyboard-response", "trial_index": 19, "time_elapsed": 185602, "internal_node_id": "0.0-4.0-15.0"}}, {"uniqueid": "w57002701:a85790534", "current_trial": 20, "dateTime": 1664555738494, "trialdata": {"rt": 4190, "stimulus": "<p id='stroop-text' class='stroop-green'>WINDOW</p>", "response": "g", "stimulus-type": "unrelated", "word": "WINDOW", "color": "green", "correct_response": "g", "trial_id": "stroop-trial-1-unrelated-29", "trial_type": "html-keyboard-response", "trial_index": 20, "time_elapsed": 190296, "internal_node_id": "0.0-4.0-16.0"}}, {"uniqueid": "w57002701:a85790534", "current_trial": 21, "dateTime": 1664555739841, "trialdata": {"rt": 845, "stimulus": "<p id='stroop-text' class='stroop-yellow'>RED</p>", "response": "y", "stimulus-type": "incongruent", "word": "red", "color": "yellow", "correct_response": "y", "trial_id": "stroop-trial-1-incongruent-15", "trial_type": "html-keyboard-response", "trial_index": 21, "time_elapsed": 191643, "internal_node_id": "0.0-4.0-17.0"}}, {"uniqueid": "w57002701:a85790534", "current_trial": 22, "dateTime": 1664555741507, "trialdata": {"rt": 1164, "stimulus": "<p id='stroop-text' class='stroop-blue'>BLUE</p>", "response": "b", "stimulus-type": "congruent", "word": "blue", "color": "blue", "correct_response": "b", "trial_id": "stroop-trial-1-congruent-5", "trial_type": "html-keyboard-response", "trial_index": 22, "time_elapsed": 193309, "internal_node_id": "0.0-4.0-18.0"}}, {"uniqueid": "w57002701:a85790534", "current_trial": 23, "dateTime": 1664555744044, "trialdata": {"rt": 2035, "stimulus": "<p id='stroop-text' class='stroop-red'>YELLOW</p>", "response": "r", "stimulus-type": "incongruent", "word": "yellow", "color": "red", "correct_response": "r", "trial_id": "stroop-trial-1-incongruent-4", "trial_type": "html-keyboard-response", "trial_index": 23, "time_elapsed": 195845, "internal_node_id": "0.0-4.0-19.0"}}, {"uniqueid": "w57002701:a85790534", "current_trial": 24, "dateTime": 1664555748131, "trialdata": {"rt": 3584, "stimulus": "<p id='stroop-text' class='stroop-yellow'>GREEN</p>", "response": "y", "stimulus-type": "incongruent", "word": "green", "color": "yellow", "correct_response": "y", "trial_id": "stroop-trial-1-incongruent-29", "trial_type": "html-keyboard-response", "trial_index": 24, "time_elapsed": 199933, "internal_node_id": "0.0-4.0-20.0"}}, {"uniqueid": "w57002701:a85790534", "current_trial": 25, "dateTime": 1664555749284, "trialdata": {"rt": 647, "stimulus": "<p id='stroop-text' class='stroop-yellow'>YELLOW</p>", "response": "y", "stimulus-type": "congruent", "word": "yellow", "color": "yellow", "correct_response": "y", "trial_id": "stroop-trial-1-congruent-15", "trial_type": "html-keyboard-response", "trial_index": 25, "time_elapsed": 201086, "internal_node_id": "0.0-4.0-21.0"}}, {"uniqueid": "w57002701:a85790534", "current_trial": 26, "dateTime": 1664555751514, "trialdata": {"rt": 1728, "stimulus": "<p id='stroop-text' class='stroop-red'>BLUE</p>", "response": "r", "stimulus-type": "incongruent", "word": "blue", "color": "red", "correct_response": "r", "trial_id": "stroop-trial-1-incongruent-16", "trial_type": "html-keyboard-response", "trial_index": 26, "time_elapsed": 203315, "internal_node_id": "0.0-4.0-22.0"}}, {"uniqueid": "w57002701:a85790534", "current_trial": 27, "dateTime": 1664555752850, "trialdata": {"rt": 834, "stimulus": "<p id='stroop-text' class='stroop-yellow'>BLUE</p>", "response": "y", "stimulus-type": "incongruent", "word": "blue", "color": "yellow", "correct_response": "y", "trial_id": "stroop-trial-1-incongruent-9", "trial_type": "html-keyboard-response", "trial_index": 27, "time_elapsed": 204651, "internal_node_id": "0.0-4.0-23.0"}}, {"uniqueid": "w57002701:a85790534", "current_trial": 28, "dateTime": 1664555754289, "trialdata": {"rt": 937, "stimulus": "<p id='stroop-text' class='stroop-green'>RED</p>", "response": "g", "stimulus-type": "incongruent", "word": "red", "color": "green", "correct_response": "g", "trial_id": "stroop-trial-1-incongruent-19", "trial_type": "html-keyboard-response", "trial_index": 28, "time_elapsed": 206090, "internal_node_id": "0.0-4.0-24.0"}}, {"uniqueid": "w57002701:a85790534", "current_trial": 29, "dateTime": 1664555755539, "trialdata": {"rt": 749, "stimulus": "<p id='stroop-text' class='stroop-red'>WINDOW</p>", "response": "r", "stimulus-type": "unrelated", "word": "WINDOW", "color": "red", "correct_response": "r", "trial_id": "stroop-trial-1-unrelated-24", "trial_type": "html-keyboard-response", "trial_index": 29, "time_elapsed": 207341, "internal_node_id": "0.0-4.0-25.0"}}, {"uniqueid": "w57002701:a85790534", "current_trial": 30, "dateTime": 1664555756545, "trialdata": {"rt": 501, "stimulus": "<p id='stroop-text' class='stroop-red'>RED</p>", "response": "r", "stimulus-type": "congruent", "word": "red", "color": "red", "correct_response": "r", "trial_id": "stroop-trial-1-congruent-22", "trial_type": "html-keyboard-response", "trial_index": 30, "time_elapsed": 208347, "internal_node_id": "0.0-4.0-26.0"}}, {"uniqueid": "w57002701:a85790534", "current_trial": 31, "dateTime": 1664555757888, "trialdata": {"rt": 840, "stimulus": "<p id='stroop-text' class='stroop-red'>YELLOW</p>", "response": "r", "stimulus-type": "incongruent", "word": "yellow", "color": "red", "correct_response": "r", "trial_id": "stroop-trial-1-incongruent-27", "trial_type": "html-keyboard-response", "trial_index": 31, "time_elapsed": 209689, "internal_node_id": "0.0-4.0-27.0"}}, {"uniqueid": "w57002701:a85790534", "current_trial": 32, "dateTime": 1664555758992, "trialdata": {"rt": 603, "stimulus": "<p id='stroop-text' class='stroop-yellow'>BOTTLE</p>", "response": "y", "stimulus-type": "unrelated", "word": "BOTTLE", "color": "yellow", "correct_response": "y", "trial_id": "stroop-trial-1-unrelated-17", "trial_type": "html-keyboard-response", "trial_index": 32, "time_elapsed": 210794, "internal_node_id": "0.0-4.0-28.0"}}, {"uniqueid": "w57002701:a85790534", "current_trial": 33, "dateTime": 1664555760491, "trialdata": {"rt": 993, "stimulus": "<p id='stroop-text' class='stroop-red'>BLUE</p>", "response": "r", "stimulus-type": "incongruent", "word": "blue", "color": "red", "correct_response": "r", "trial_id": "stroop-trial-1-incongruent-28", "trial_type": "html-keyboard-response", "trial_index": 33, "time_elapsed": 212292, "internal_node_id": "0.0-4.0-29.0"}}, {"uniqueid": "w57002701:a85790534", "current_trial": 34, "dateTime": 1664555761765, "trialdata": {"rt": 769, "stimulus": "<p id='stroop-text' class='stroop-green'>GREEN</p>", "response": "g", "stimulus-type": "congruent", "word": "green", "color": "green", "correct_response": "g", "trial_id": "stroop-trial-1-congruent-12", "trial_type": "html-keyboard-response", "trial_index": 34, "time_elapsed": 213566, "internal_node_id": "0.0-4.0-30.0"}}, {"uniqueid": "w57002701:a85790534", "current_trial": 35, "dateTime": 1664555762838, "trialdata": {"rt": 571, "stimulus": "<p id='stroop-text' class='stroop-red'>RED</p>", "response": "r", "stimulus-type": "congruent", "word": "red", "color": "red", "correct_response": "r", "trial_id": "stroop-trial-1-congruent-13", "trial_type": "html-keyboard-response", "trial_index": 35, "time_elapsed": 214640, "internal_node_id": "0.0-4.0-31.0"}}, {"uniqueid": "w57002701:a85790534", "current_trial": 36, "dateTime": 1664555763842, "trialdata": {"rt": 501, "stimulus": "<p id='stroop-text' class='stroop-yellow'>BLUE</p>", "response": "y", "stimulus-type": "incongruent", "word": "blue", "color": "yellow", "correct_response": "y", "trial_id": "stroop-trial-1-incongruent-22", "trial_type": "html-keyboard-response", "trial_index": 36, "time_elapsed": 215643, "internal_node_id": "0.0-4.0-32.0"}}, {"uniqueid": "w57002701:a85790534", "current_trial": 37, "dateTime": 1664555764928, "trialdata": {"rt": 583, "stimulus": "<p id='stroop-text' class='stroop-blue'>BLUE</p>", "response": "b", "stimulus-type": "congruent", "word": "blue", "color": "blue", "correct_response": "b", "trial_id": "stroop-trial-1-congruent-24", "trial_type": "html-keyboard-response", "trial_index": 37, "time_elapsed": 216729, "internal_node_id": "0.0-4.0-33.0"}}, {"uniqueid": "w57002701:a85790534", "current_trial": 38, "dateTime": 1664555766130, "trialdata": {"rt": 700, "stimulus": "<p id='stroop-text' class='stroop-yellow'>YELLOW</p>", "response": "y", "stimulus-type": "congruent", "word": "yellow", "color": "yellow", "correct_response": "y", "trial_id": "stroop-trial-1-congruent-10", "trial_type": "html-keyboard-response", "trial_index": 38, "time_elapsed": 217931, "internal_node_id": "0.0-4.0-34.0"}}, {"uniqueid": "w57002701:a85790534", "current_trial": 39, "dateTime": 1664555767838, "trialdata": {"rt": 1206, "stimulus": "<p id='stroop-text' class='stroop-blue'>BRAIN</p>", "response": "b", "stimulus-type": "unrelated", "word": "BRAIN", "color": "blue", "correct_response": "b", "trial_id": "stroop-trial-1-unrelated-5", "trial_type": "html-keyboard-response", "trial_index": 39, "time_elapsed": 219640, "internal_node_id": "0.0-4.0-35.0"}}, {"uniqueid": "w57002701:a85790534", "current_trial": 40, "dateTime": 1664555769414, "trialdata": {"rt": 1074, "stimulus": "<p id='stroop-text' class='stroop-green'>SHIP</p>", "response": "g", "stimulus-type": "unrelated", "word": "SHIP", "color": "green", "correct_response": "g", "trial_id": "stroop-trial-1-unrelated-1", "trial_type": "html-keyboard-response", "trial_index": 40, "time_elapsed": 221216, "internal_node_id": "0.0-4.0-36.0"}}, {"uniqueid": "w57002701:a85790534", "current_trial": 41, "dateTime": 1664555770913, "trialdata": {"rt": 995, "stimulus": "<p id='stroop-text' class='stroop-blue'>BLUE</p>", "response": "b", "stimulus-type": "congruent", "word": "blue", "color": "blue", "correct_response": "b", "trial_id": "stroop-trial-1-congruent-21", "trial_type": "html-keyboard-response", "trial_index": 41, "time_elapsed": 222715, "internal_node_id": "0.0-4.0-37.0"}}, {"uniqueid": "w57002701:a85790534", "current_trial": 42, "dateTime": 1664555771924, "trialdata": {"rt": 509, "stimulus": "<p id='stroop-text' class='stroop-blue'>SHIP</p>", "response": "b", "stimulus-type": "unrelated", "word": "SHIP", "color": "blue", "correct_response": "b", "trial_id": "stroop-trial-1-unrelated-21", "trial_type": "html-keyboard-response", "trial_index": 42, "time_elapsed": 223726, "internal_node_id": "0.0-4.0-38.0"}}, {"uniqueid": "w57002701:a85790534", "current_trial": 43, "dateTime": 1664555772841, "trialdata": {"rt": 415, "stimulus": "<p id='stroop-text' class='stroop-blue'>BOTTLE</p>", "response": "b", "stimulus-type": "unrelated", "word": "BOTTLE", "color": "blue", "correct_response": "b", "trial_id": "stroop-trial-1-unrelated-7", "trial_type": "html-keyboard-response", "trial_index": 43, "time_elapsed": 224643, "internal_node_id": "0.0-4.0-39.0"}}, {"uniqueid": "w57002701:a85790534", "current_trial": 44, "dateTime": 1664555773727, "trialdata": {"rt": 385, "stimulus": "<p id='stroop-text' class='stroop-blue'>BLUE</p>", "response": "b", "stimulus-type": "congruent", "word": "blue", "color": "blue", "correct_response": "b", "trial_id": "stroop-trial-1-congruent-18", "trial_type": "html-keyboard-response", "trial_index": 44, "time_elapsed": 225529, "internal_node_id": "0.0-4.0-40.0"}}, {"uniqueid": "w57002701:a85790534", "current_trial": 45, "dateTime": 1664555774926, "trialdata": {"rt": 695, "stimulus": "<p id='stroop-text' class='stroop-red'>BRIDGE</p>", "response": "r", "stimulus-type": "unrelated", "word": "BRIDGE", "color": "red", "correct_response": "r", "trial_id": "stroop-trial-1-unrelated-30", "trial_type": "html-keyboard-response", "trial_index": 45, "time_elapsed": 226728, "internal_node_id": "0.0-4.0-41.0"}}, {"uniqueid": "w57002701:a85790534", "current_trial": 46, "dateTime": 1664555776228, "trialdata": {"rt": 799, "stimulus": "<p id='stroop-text' class='stroop-blue'>BRIDGE</p>", "response": "b", "stimulus-type": "unrelated", "word": "BRIDGE", "color": "blue", "correct_response": "b", "trial_id": "stroop-trial-1-unrelated-9", "trial_type": "html-keyboard-response", "trial_index": 46, "time_elapsed": 228030, "internal_node_id": "0.0-4.0-42.0"}}, {"uniqueid": "w57002701:a85790534", "current_trial": 47, "dateTime": 1664555777868, "trialdata": {"rt": 1135, "stimulus": "<p id='stroop-text' class='stroop-red'>RED</p>", "response": "r", "stimulus-type": "congruent", "word": "red", "color": "red", "correct_response": "r", "trial_id": "stroop-trial-1-congruent-9", "trial_type": "html-keyboard-response", "trial_index": 47, "time_elapsed": 229670, "internal_node_id": "0.0-4.0-43.0"}}, {"uniqueid": "w57002701:a85790534", "current_trial": 48, "dateTime": 1664555779016, "trialdata": {"rt": 646, "stimulus": "<p id='stroop-text' class='stroop-red'>SHIP</p>", "response": "r", "stimulus-type": "unrelated", "word": "SHIP", "color": "red", "correct_response": "r", "trial_id": "stroop-trial-1-unrelated-22", "trial_type": "html-keyboard-response", "trial_index": 48, "time_elapsed": 230818, "internal_node_id": "0.0-4.0-44.0"}}, {"uniqueid": "w57002701:a85790534", "current_trial": 49, "dateTime": 1664555780829, "trialdata": {"rt": 1310, "stimulus": "<p id='stroop-text' class='stroop-green'>BLUE</p>", "response": "g", "stimulus-type": "incongruent", "word": "blue", "color": "green", "correct_response": "g", "trial_id": "stroop-trial-1-incongruent-7", "trial_type": "html-keyboard-response", "trial_index": 49, "time_elapsed": 232631, "internal_node_id": "0.0-4.0-45.0"}}, {"uniqueid": "w57002701:a85790534", "current_trial": 50, "dateTime": 1664555783625, "trialdata": {"rt": 2294, "stimulus": "<p id='stroop-text' class='stroop-blue'>RED</p>", "response": "b", "stimulus-type": "incongruent", "word": "red", "color": "blue", "correct_response": "b", "trial_id": "stroop-trial-1-incongruent-6", "trial_type": "html-keyboard-response", "trial_index": 50, "time_elapsed": 235427, "internal_node_id": "0.0-4.0-46.0"}}, {"uniqueid": "w57002701:a85790534", "current_trial": 51, "dateTime": 1664555785033, "trialdata": {"rt": 904, "stimulus": "<p id='stroop-text' class='stroop-blue'>YELLOW</p>", "response": "b", "stimulus-type": "incongruent", "word": "yellow", "color": "blue", "correct_response": "b", "trial_id": "stroop-trial-1-incongruent-20", "trial_type": "html-keyboard-response", "trial_index": 51, "time_elapsed": 236835, "internal_node_id": "0.0-4.0-47.0"}}, {"uniqueid": "w57002701:a85790534", "current_trial": 52, "dateTime": 1664555785932, "trialdata": {"rt": 395, "stimulus": "<p id='stroop-text' class='stroop-blue'>BLUE</p>", "response": "b", "stimulus-type": "congruent", "word": "blue", "color": "blue", "correct_response": "b", "trial_id": "stroop-trial-1-congruent-23", "trial_type": "html-keyboard-response", "trial_index": 52, "time_elapsed": 237734, "internal_node_id": "0.0-4.0-48.0"}}, {"uniqueid": "w57002701:a85790534", "current_trial": 53, "dateTime": 1664555787127, "trialdata": {"rt": 692, "stimulus": "<p id='stroop-text' class='stroop-green'>RED</p>", "response": "g", "stimulus-type": "incongruent", "word": "red", "color": "green", "correct_response": "g", "trial_id": "stroop-trial-1-incongruent-30", "trial_type": "html-keyboard-response", "trial_index": 53, "time_elapsed": 238929, "internal_node_id": "0.0-4.0-49.0"}}, {"uniqueid": "w57002701:a85790534", "current_trial": 54, "dateTime": 1664555788234, "trialdata": {"rt": 605, "stimulus": "<p id='stroop-text' class='stroop-red'>RED</p>", "response": "r", "stimulus-type": "congruent", "word": "red", "color": "red", "correct_response": "r", "trial_id": "stroop-trial-1-congruent-17", "trial_type": "html-keyboard-response", "trial_index": 54, "time_elapsed": 240036, "internal_node_id": "0.0-4.0-50.0"}}, {"uniqueid": "w57002701:a85790534", "current_trial": 55, "dateTime": 1664555789435, "trialdata": {"rt": 698, "stimulus": "<p id='stroop-text' class='stroop-yellow'>BLUE</p>", "response": "y", "stimulus-type": "incongruent", "word": "blue", "color": "yellow", "correct_response": "y", "trial_id": "stroop-trial-1-incongruent-12", "trial_type": "html-keyboard-response", "trial_index": 55, "time_elapsed": 241237, "internal_node_id": "0.0-4.0-51.0"}}, {"uniqueid": "w57002701:a85790534", "current_trial": 56, "dateTime": 1664555790982, "trialdata": {"rt": 1042, "stimulus": "<p id='stroop-text' class='stroop-green'>RED</p>", "response": "g", "stimulus-type": "incongruent", "word": "red", "color": "green", "correct_response": "g", "trial_id": "stroop-trial-1-incongruent-23", "trial_type": "html-keyboard-response", "trial_index": 56, "time_elapsed": 242784, "internal_node_id": "0.0-4.0-52.0"}}, {"uniqueid": "w57002701:a85790534", "current_trial": 57, "dateTime": 1664555792137, "trialdata": {"rt": 652, "stimulus": "<p id='stroop-text' class='stroop-yellow'>YELLOW</p>", "response": "y", "stimulus-type": "congruent", "word": "yellow", "color": "yellow", "correct_response": "y", "trial_id": "stroop-trial-1-congruent-27", "trial_type": "html-keyboard-response", "trial_index": 57, "time_elapsed": 243939, "internal_node_id": "0.0-4.0-53.0"}}, {"uniqueid": "w57002701:a85790534", "current_trial": 58, "dateTime": 1664555795413, "trialdata": {"rt": 2774, "stimulus": "<p id='stroop-text' class='stroop-blue'>BLUE</p>", "response": "b", "stimulus-type": "congruent", "word": "blue", "color": "blue", "correct_response": "b", "trial_id": "stroop-trial-1-congruent-28", "trial_type": "html-keyboard-response", "trial_index": 58, "time_elapsed": 247215, "internal_node_id": "0.0-4.0-54.0"}}, {"uniqueid": "w57002701:a85790534", "current_trial": 59, "dateTime": 1664555796650, "trialdata": {"rt": 733, "stimulus": "<p id='stroop-text' class='stroop-green'>DOG</p>", "response": "g", "stimulus-type": "unrelated", "word": "DOG", "color": "green", "correct_response": "g", "trial_id": "stroop-trial-1-unrelated-25", "trial_type": "html-keyboard-response", "trial_index": 59, "time_elapsed": 248452, "internal_node_id": "0.0-4.0-55.0"}}, {"uniqueid": "w57002701:a85790534", "current_trial": 60, "dateTime": 1664555797732, "trialdata": {"rt": 576, "stimulus": "<p id='stroop-text' class='stroop-green'>STONE</p>", "response": "g", "stimulus-type": "unrelated", "word": "STONE", "color": "green", "correct_response": "g", "trial_id": "stroop-trial-1-unrelated-15", "trial_type": "html-keyboard-response", "trial_index": 60, "time_elapsed": 249533, "internal_node_id": "0.0-4.0-56.0"}}, {"uniqueid": "w57002701:a85790534", "current_trial": 61, "dateTime": 1664555798815, "trialdata": {"rt": 580, "stimulus": "<p id='stroop-text' class='stroop-blue'>BLUE</p>", "response": "b", "stimulus-type": "congruent", "word": "blue", "color": "blue", "correct_response": "b", "trial_id": "stroop-trial-1-congruent-14", "trial_type": "html-keyboard-response", "trial_index": 61, "time_elapsed": 250617, "internal_node_id": "0.0-4.0-57.0"}}, {"uniqueid": "w57002701:a85790534", "current_trial": 62, "dateTime": 1664555799899, "trialdata": {"rt": 578, "stimulus": "<p id='stroop-text' class='stroop-green'>WINDOW</p>", "response": "g", "stimulus-type": "unrelated", "word": "WINDOW", "color": "green", "correct_response": "g", "trial_id": "stroop-trial-1-unrelated-3", "trial_type": "html-keyboard-response", "trial_index": 62, "time_elapsed": 251701, "internal_node_id": "0.0-4.0-58.0"}}, {"uniqueid": "w57002701:a85790534", "current_trial": 63, "dateTime": 1664555800822, "trialdata": {"rt": 421, "stimulus": "<p id='stroop-text' class='stroop-blue'>BLUE</p>", "response": "g", "stimulus-type": "congruent", "word": "blue", "color": "blue", "correct_response": "b", "trial_id": "stroop-trial-1-congruent-7", "trial_type": "html-keyboard-response", "trial_index": 63, "time_elapsed": 252624, "internal_node_id": "0.0-4.0-59.0"}}, {"uniqueid": "w57002701:a85790534", "current_trial": 64, "dateTime": 1664555802768, "trialdata": {"rt": 1445, "stimulus": "<p id='stroop-text' class='stroop-green'>YELLOW</p>", "response": "g", "stimulus-type": "incongruent", "word": "yellow", "color": "green", "correct_response": "g", "trial_id": "stroop-trial-1-incongruent-21", "trial_type": "html-keyboard-response", "trial_index": 64, "time_elapsed": 254570, "internal_node_id": "0.0-4.0-60.0"}}, {"uniqueid": "w57002701:a85790534", "current_trial": 65, "dateTime": 1664555803729, "trialdata": {"rt": 455, "stimulus": "<p id='stroop-text' class='stroop-green'>RED</p>", "response": "g", "stimulus-type": "incongruent", "word": "red", "color": "green", "correct_response": "g", "trial_id": "stroop-trial-1-incongruent-24", "trial_type": "html-keyboard-response", "trial_index": 65, "time_elapsed": 255531, "internal_node_id": "0.0-4.0-61.0"}}, {"uniqueid": "w57002701:a85790534", "current_trial": 66, "dateTime": 1664555805730, "trialdata": {"rt": 1498, "stimulus": "<p id='stroop-text' class='stroop-red'>SHIP</p>", "response": "r", "stimulus-type": "unrelated", "word": "SHIP", "color": "red", "correct_response": "r", "trial_id": "stroop-trial-1-unrelated-26", "trial_type": "html-keyboard-response", "trial_index": 66, "time_elapsed": 257532, "internal_node_id": "0.0-4.0-62.0"}}, {"uniqueid": "w57002701:a85790534", "current_trial": 67, "dateTime": 1664555807297, "trialdata": {"rt": 1062, "stimulus": "<p id='stroop-text' class='stroop-green'>YELLOW</p>", "response": "g", "stimulus-type": "incongruent", "word": "yellow", "color": "green", "correct_response": "g", "trial_id": "stroop-trial-1-incongruent-2", "trial_type": "html-keyboard-response", "trial_index": 67, "time_elapsed": 259099, "internal_node_id": "0.0-4.0-63.0"}}, {"uniqueid": "w57002701:a85790534", "current_trial": 68, "dateTime": 1664555809190, "trialdata": {"rt": 1391, "stimulus": "<p id='stroop-text' class='stroop-yellow'>YELLOW</p>", "response": "y", "stimulus-type": "congruent", "word": "yellow", "color": "yellow", "correct_response": "y", "trial_id": "stroop-trial-1-congruent-11", "trial_type": "html-keyboard-response", "trial_index": 68, "time_elapsed": 260992, "internal_node_id": "0.0-4.0-64.0"}}, {"uniqueid": "w57002701:a85790534", "current_trial": 69, "dateTime": 1664555811314, "trialdata": {"rt": 1621, "stimulus": "<p id='stroop-text' class='stroop-green'>WINDOW</p>", "response": "g", "stimulus-type": "unrelated", "word": "WINDOW", "color": "green", "correct_response": "g", "trial_id": "stroop-trial-1-unrelated-28", "trial_type": "html-keyboard-response", "trial_index": 69, "time_elapsed": 263116, "internal_node_id": "0.0-4.0-65.0"}}, {"uniqueid": "w57002701:a85790534", "current_trial": 70, "dateTime": 1664555813282, "trialdata": {"rt": 1463, "stimulus": "<p id='stroop-text' class='stroop-red'>RED</p>", "response": "r", "stimulus-type": "congruent", "word": "red", "color": "red", "correct_response": "r", "trial_id": "stroop-trial-1-congruent-20", "trial_type": "html-keyboard-response", "trial_index": 70, "time_elapsed": 265084, "internal_node_id": "0.0-4.0-66.0"}}, {"uniqueid": "w57002701:a85790534", "current_trial": 71, "dateTime": 1664555814474, "trialdata": {"rt": 687, "stimulus": "<p id='stroop-text' class='stroop-blue'>BLUE</p>", "response": "b", "stimulus-type": "congruent", "word": "blue", "color": "blue", "correct_response": "b", "trial_id": "stroop-trial-1-congruent-19", "trial_type": "html-keyboard-response", "trial_index": 71, "time_elapsed": 266276, "internal_node_id": "0.0-4.0-67.0"}}, {"uniqueid": "w57002701:a85790534", "current_trial": 72, "dateTime": 1664555815911, "trialdata": {"rt": 934, "stimulus": "<p id='stroop-text' class='stroop-blue'>BLUE</p>", "response": "b", "stimulus-type": "congruent", "word": "blue", "color": "blue", "correct_response": "b", "trial_id": "stroop-trial-1-congruent-26", "trial_type": "html-keyboard-response", "trial_index": 72, "time_elapsed": 267713, "internal_node_id": "0.0-4.0-68.0"}}, {"uniqueid": "w57002701:a85790534", "current_trial": 73, "dateTime": 1664555817106, "trialdata": {"rt": 689, "stimulus": "<p id='stroop-text' class='stroop-yellow'>YELLOW</p>", "response": "y", "stimulus-type": "congruent", "word": "yellow", "color": "yellow", "correct_response": "y", "trial_id": "stroop-trial-1-congruent-25", "trial_type": "html-keyboard-response", "trial_index": 73, "time_elapsed": 268907, "internal_node_id": "0.0-4.0-69.0"}}, {"uniqueid": "w57002701:a85790534", "current_trial": 74, "dateTime": 1664555818304, "trialdata": {"rt": 694, "stimulus": "<p id='stroop-text' class='stroop-blue'>FORK</p>", "response": "b", "stimulus-type": "unrelated", "word": "FORK", "color": "blue", "correct_response": "b", "trial_id": "stroop-trial-1-unrelated-10", "trial_type": "html-keyboard-response", "trial_index": 74, "time_elapsed": 270106, "internal_node_id": "0.0-4.0-70.0"}}, {"uniqueid": "w57002701:a85790534", "current_trial": 75, "dateTime": 1664555819483, "trialdata": {"rt": 675, "stimulus": "<p id='stroop-text' class='stroop-blue'>SHIP</p>", "response": "b", "stimulus-type": "unrelated", "word": "SHIP", "color": "blue", "correct_response": "b", "trial_id": "stroop-trial-1-unrelated-12", "trial_type": "html-keyboard-response", "trial_index": 75, "time_elapsed": 271285, "internal_node_id": "0.0-4.0-71.0"}}, {"uniqueid": "w57002701:a85790534", "current_trial": 76, "dateTime": 1664555823085, "trialdata": {"rt": 3099, "stimulus": "<p id='stroop-text' class='stroop-yellow'>RED</p>", "response": "y", "stimulus-type": "incongruent", "word": "red", "color": "yellow", "correct_response": "y", "trial_id": "stroop-trial-1-incongruent-11", "trial_type": "html-keyboard-response", "trial_index": 76, "time_elapsed": 274887, "internal_node_id": "0.0-4.0-72.0"}}, {"uniqueid": "w57002701:a85790534", "current_trial": 77, "dateTime": 1664555824911, "trialdata": {"rt": 1320, "stimulus": "<p id='stroop-text' class='stroop-green'>GREEN</p>", "response": "g", "stimulus-type": "congruent", "word": "green", "color": "green", "correct_response": "g", "trial_id": "stroop-trial-1-congruent-6", "trial_type": "html-keyboard-response", "trial_index": 77, "time_elapsed": 276713, "internal_node_id": "0.0-4.0-73.0"}}, {"uniqueid": "w57002701:a85790534", "current_trial": 78, "dateTime": 1664555826070, "trialdata": {"rt": 655, "stimulus": "<p id='stroop-text' class='stroop-blue'>GREEN</p>", "response": "b", "stimulus-type": "incongruent", "word": "green", "color": "blue", "correct_response": "b", "trial_id": "stroop-trial-1-incongruent-26", "trial_type": "html-keyboard-response", "trial_index": 78, "time_elapsed": 277871, "internal_node_id": "0.0-4.0-74.0"}}, {"uniqueid": "w57002701:a85790534", "current_trial": 79, "dateTime": 1664555827428, "trialdata": {"rt": 853, "stimulus": "<p id='stroop-text' class='stroop-blue'>YELLOW</p>", "response": "b", "stimulus-type": "incongruent", "word": "yellow", "color": "blue", "correct_response": "b", "trial_id": "stroop-trial-1-incongruent-1", "trial_type": "html-keyboard-response", "trial_index": 79, "time_elapsed": 279230, "internal_node_id": "0.0-4.0-75.0"}}, {"uniqueid": "w57002701:a85790534", "current_trial": 80, "dateTime": 1664555828508, "trialdata": {"rt": 575, "stimulus": "<p id='stroop-text' class='stroop-green'>BRIDGE</p>", "response": "g", "stimulus-type": "unrelated", "word": "BRIDGE", "color": "green", "correct_response": "g", "trial_id": "stroop-trial-1-unrelated-6", "trial_type": "html-keyboard-response", "trial_index": 80, "time_elapsed": 280310, "internal_node_id": "0.0-4.0-76.0"}}, {"uniqueid": "w57002701:a85790534", "current_trial": 81, "dateTime": 1664555829488, "trialdata": {"rt": 475, "stimulus": "<p id='stroop-text' class='stroop-yellow'>BRAIN</p>", "response": "y", "stimulus-type": "unrelated", "word": "BRAIN", "color": "yellow", "correct_response": "y", "trial_id": "stroop-trial-1-unrelated-11", "trial_type": "html-keyboard-response", "trial_index": 81, "time_elapsed": 281290, "internal_node_id": "0.0-4.0-77.0"}}, {"uniqueid": "w57002701:a85790534", "current_trial": 82, "dateTime": 1664555830842, "trialdata": {"rt": 852, "stimulus": "<p id='stroop-text' class='stroop-green'>YELLOW</p>", "response": "g", "stimulus-type": "incongruent", "word": "yellow", "color": "green", "correct_response": "g", "trial_id": "stroop-trial-1-incongruent-14", "trial_type": "html-keyboard-response", "trial_index": 82, "time_elapsed": 282644, "internal_node_id": "0.0-4.0-78.0"}}, {"uniqueid": "w57002701:a85790534", "current_trial": 83, "dateTime": 1664555831928, "trialdata": {"rt": 581, "stimulus": "<p id='stroop-text' class='stroop-green'>GREEN</p>", "response": "g", "stimulus-type": "congruent", "word": "green", "color": "green", "correct_response": "g", "trial_id": "stroop-trial-1-congruent-1", "trial_type": "html-keyboard-response", "trial_index": 83, "time_elapsed": 283730, "internal_node_id": "0.0-4.0-79.0"}}, {"uniqueid": "w57002701:a85790534", "current_trial": 84, "dateTime": 1664555833113, "trialdata": {"rt": 680, "stimulus": "<p id='stroop-text' class='stroop-blue'>SHIP</p>", "response": "b", "stimulus-type": "unrelated", "word": "SHIP", "color": "blue", "correct_response": "b", "trial_id": "stroop-trial-1-unrelated-4", "trial_type": "html-keyboard-response", "trial_index": 84, "time_elapsed": 284914, "internal_node_id": "0.0-4.0-80.0"}}, {"uniqueid": "w57002701:a85790534", "current_trial": 85, "dateTime": 1664555834155, "trialdata": {"rt": 539, "stimulus": "<p id='stroop-text' class='stroop-yellow'>YELLOW</p>", "response": "y", "stimulus-type": "congruent", "word": "yellow", "color": "yellow", "correct_response": "y", "trial_id": "stroop-trial-1-congruent-4", "trial_type": "html-keyboard-response", "trial_index": 85, "time_elapsed": 285957, "internal_node_id": "0.0-4.0-81.0"}}, {"uniqueid": "w57002701:a85790534", "current_trial": 86, "dateTime": 1664555835088, "trialdata": {"rt": 430, "stimulus": "<p id='stroop-text' class='stroop-blue'>YELLOW</p>", "response": "g", "stimulus-type": "incongruent", "word": "yellow", "color": "blue", "correct_response": "b", "trial_id": "stroop-trial-1-incongruent-8", "trial_type": "html-keyboard-response", "trial_index": 86, "time_elapsed": 286890, "internal_node_id": "0.0-4.0-82.0"}}, {"uniqueid": "w57002701:a85790534", "current_trial": 87, "dateTime": 1664555837670, "trialdata": {"rt": 2079, "stimulus": "<p id='stroop-text' class='stroop-yellow'>YELLOW</p>", "response": "y", "stimulus-type": "congruent", "word": "yellow", "color": "yellow", "correct_response": "y", "trial_id": "stroop-trial-1-congruent-29", "trial_type": "html-keyboard-response", "trial_index": 87, "time_elapsed": 289471, "internal_node_id": "0.0-4.0-83.0"}}, {"uniqueid": "w57002701:a85790534", "current_trial": 88, "dateTime": 1664555838820, "trialdata": {"rt": 647, "stimulus": "<p id='stroop-text' class='stroop-green'>BRAIN</p>", "response": "g", "stimulus-type": "unrelated", "word": "BRAIN", "color": "green", "correct_response": "g", "trial_id": "stroop-trial-1-unrelated-16", "trial_type": "html-keyboard-response", "trial_index": 88, "time_elapsed": 290622, "internal_node_id": "0.0-4.0-84.0"}}, {"uniqueid": "w57002701:a85790534", "current_trial": 89, "dateTime": 1664555839826, "trialdata": {"rt": 503, "stimulus": "<p id='stroop-text' class='stroop-blue'>CHAIR</p>", "response": "b", "stimulus-type": "unrelated", "word": "CHAIR", "color": "blue", "correct_response": "b", "trial_id": "stroop-trial-1-unrelated-18", "trial_type": "html-keyboard-response", "trial_index": 89, "time_elapsed": 291628, "internal_node_id": "0.0-4.0-85.0"}}, {"uniqueid": "w57002701:a85790534", "current_trial": 90, "dateTime": 1664555841071, "trialdata": {"rt": 743, "stimulus": "<p id='stroop-text' class='stroop-red'>RED</p>", "response": "r", "stimulus-type": "congruent", "word": "red", "color": "red", "correct_response": "r", "trial_id": "stroop-trial-1-congruent-2", "trial_type": "html-keyboard-response", "trial_index": 90, "time_elapsed": 292873, "internal_node_id": "0.0-4.0-86.0"}}, {"uniqueid": "w57002701:a85790534", "current_trial": 91, "dateTime": 1664555842301, "trialdata": {"rt": 726, "stimulus": "<p id='stroop-text' class='stroop-yellow'>BOAT</p>", "response": "y", "stimulus-type": "unrelated", "word": "BOAT", "color": "yellow", "correct_response": "y", "trial_id": "stroop-trial-1-unrelated-13", "trial_type": "html-keyboard-response", "trial_index": 91, "time_elapsed": 294103, "internal_node_id": "0.0-4.0-87.0"}}, {"uniqueid": "w57002701:a85790534", "current_trial": 92, "dateTime": 1664555843342, "trialdata": {"rt": 538, "stimulus": "<p id='stroop-text' class='stroop-yellow'>STONE</p>", "response": "y", "stimulus-type": "unrelated", "word": "STONE", "color": "yellow", "correct_response": "y", "trial_id": "stroop-trial-1-unrelated-8", "trial_type": "html-keyboard-response", "trial_index": 92, "time_elapsed": 295143, "internal_node_id": "0.0-4.0-88.0"}}, {"uniqueid": "w57002701:a85790534", "current_trial": 93, "dateTime": 1664555844483, "trialdata": {"rt": 638, "stimulus": "<p id='stroop-text' class='stroop-green'>BRIDGE</p>", "response": "g", "stimulus-type": "unrelated", "word": "BRIDGE", "color": "green", "correct_response": "g", "trial_id": "stroop-trial-1-unrelated-27", "trial_type": "html-keyboard-response", "trial_index": 93, "time_elapsed": 296285, "internal_node_id": "0.0-4.0-89.0"}}, {"uniqueid": "w57002701:a85790534", "current_trial": 94, "dateTime": 1664555993729, "trialdata": {"rt": 148738, "stimulus": "  <h1> End of block! </h1>\n\n  You have reached the end of the block 1/5. If you need a short break, feel free to take one now before moving on.\n\n  <br><br>\n  In the next block, you will complete another 90 rounds of this game.\n\n  <br><br>\n  <div style='text-align: center;'>Press <code>space</code> to begin.</div>\n  <br><br>\n<div style='text-align: center;'>(If the experiment doesn't continue, try clicking on the text and then pressing <code>space</code>.)</div>", "response": " ", "trial_id": "stroop_1_ready_2", "trial_type": "html-keyboard-response", "trial_index": 94, "time_elapsed": 445531, "internal_node_id": "0.0-5.0"}}, {"uniqueid": "w57002701:a85790534", "current_trial": 95, "dateTime": 1664555995038, "trialdata": {"rt": 1307, "stimulus": "<p id='stroop-text' class='stroop-green'>GREEN</p>", "response": "g", "stimulus-type": "congruent", "word": "green", "color": "green", "correct_response": "g", "trial_id": "stroop-trial-1-congruent-7", "trial_type": "html-keyboard-response", "trial_index": 95, "time_elapsed": 446840, "internal_node_id": "0.0-6.0-0.0"}}, {"uniqueid": "w57002701:a85790534", "current_trial": 96, "dateTime": 1664555996152, "trialdata": {"rt": 609, "stimulus": "<p id='stroop-text' class='stroop-yellow'>BRIDGE</p>", "response": "y", "stimulus-type": "unrelated", "word": "BRIDGE", "color": "yellow", "correct_response": "y", "trial_id": "stroop-trial-1-unrelated-4", "trial_type": "html-keyboard-response", "trial_index": 96, "time_elapsed": 447953, "internal_node_id": "0.0-6.0-1.0"}}, {"uniqueid": "w57002701:a85790534", "current_trial": 97, "dateTime": 1664555997345, "trialdata": {"rt": 691, "stimulus": "<p id='stroop-text' class='stroop-red'>BLUE</p>", "response": "r", "stimulus-type": "incongruent", "word": "blue", "color": "red", "correct_response": "r", "trial_id": "stroop-trial-1-incongruent-22", "trial_type": "html-keyboard-response", "trial_index": 97, "time_elapsed": 449147, "internal_node_id": "0.0-6.0-2.0"}}, {"uniqueid": "w57002701:a85790534", "current_trial": 98, "dateTime": 1664555998331, "trialdata": {"rt": 483, "stimulus": "<p id='stroop-text' class='stroop-red'>MONKEY</p>", "response": "r", "stimulus-type": "unrelated", "word": "MONKEY", "color": "red", "correct_response": "r", "trial_id": "stroop-trial-1-unrelated-1", "trial_type": "html-keyboard-response", "trial_index": 98, "time_elapsed": 450133, "internal_node_id": "0.0-6.0-3.0"}}, {"uniqueid": "w57002701:a85790534", "current_trial": 99, "dateTime": 1664555999382, "trialdata": {"rt": 548, "stimulus": "<p id='stroop-text' class='stroop-green'>GREEN</p>", "response": "g", "stimulus-type": "congruent", "word": "green", "color": "green", "correct_response": "g", "trial_id": "stroop-trial-1-congruent-20", "trial_type": "html-keyboard-response", "trial_index": 99, "time_elapsed": 451184, "internal_node_id": "0.0-6.0-4.0"}}, {"uniqueid": "w57002701:a85790534", "current_trial": 100, "dateTime": 1664556000446, "trialdata": {"rt": 561, "stimulus": "<p id='stroop-text' class='stroop-green'>BOTTLE</p>", "response": "g", "stimulus-type": "unrelated", "word": "BOTTLE", "color": "green", "correct_response": "g", "trial_id": "stroop-trial-1-unrelated-24", "trial_type": "html-keyboard-response", "trial_index": 100, "time_elapsed": 452248, "internal_node_id": "0.0-6.0-5.0"}}, {"uniqueid": "w57002701:a85790534", "current_trial": 101, "dateTime": 1664556001450, "trialdata": {"rt": 502, "stimulus": "<p id='stroop-text' class='stroop-red'>RED</p>", "response": "r", "stimulus-type": "congruent", "word": "red", "color": "red", "correct_response": "r", "trial_id": "stroop-trial-1-congruent-13", "trial_type": "html-keyboard-response", "trial_index": 101, "time_elapsed": 453252, "internal_node_id": "0.0-6.0-6.0"}}, {"uniqueid": "w57002701:a85790534", "current_trial": 102, "dateTime": 1664556002466, "trialdata": {"rt": 514, "stimulus": "<p id='stroop-text' class='stroop-yellow'>WINDOW</p>", "response": "y", "stimulus-type": "unrelated", "word": "WINDOW", "color": "yellow", "correct_response": "y", "trial_id": "stroop-trial-1-unrelated-16", "trial_type": "html-keyboard-response", "trial_index": 102, "time_elapsed": 454268, "internal_node_id": "0.0-6.0-7.0"}}, {"uniqueid": "w57002701:a85790534", "current_trial": 103, "dateTime": 1664556003559, "trialdata": {"rt": 590, "stimulus": "<p id='stroop-text' class='stroop-blue'>RED</p>", "response": "b", "stimulus-type": "incongruent", "word": "red", "color": "blue", "correct_response": "b", "trial_id": "stroop-trial-1-incongruent-20", "trial_type": "html-keyboard-response", "trial_index": 103, "time_elapsed": 455361, "internal_node_id": "0.0-6.0-8.0"}}, {"uniqueid": "w57002701:a85790534", "current_trial": 104, "dateTime": 1664556004573, "trialdata": {"rt": 508, "stimulus": "<p id='stroop-text' class='stroop-blue'>BLUE</p>", "response": "b", "stimulus-type": "congruent", "word": "blue", "color": "blue", "correct_response": "b", "trial_id": "stroop-trial-1-congruent-4", "trial_type": "html-keyboard-response", "trial_index": 104, "time_elapsed": 456374, "internal_node_id": "0.0-6.0-9.0"}}, {"uniqueid": "w57002701:a85790534", "current_trial": 105, "dateTime": 1664556005752, "trialdata": {"rt": 677, "stimulus": "<p id='stroop-text' class='stroop-red'>RED</p>", "response": "r", "stimulus-type": "congruent", "word": "red", "color": "red", "correct_response": "r", "trial_id": "stroop-trial-1-congruent-18", "trial_type": "html-keyboard-response", "trial_index": 105, "time_elapsed": 457553, "internal_node_id": "0.0-6.0-10.0"}}, {"uniqueid": "w57002701:a85790534", "current_trial": 106, "dateTime": 1664556006887, "trialdata": {"rt": 632, "stimulus": "<p id='stroop-text' class='stroop-green'>BLUE</p>", "response": "g", "stimulus-type": "incongruent", "word": "blue", "color": "green", "correct_response": "g", "trial_id": "stroop-trial-1-incongruent-15", "trial_type": "html-keyboard-response", "trial_index": 106, "time_elapsed": 458688, "internal_node_id": "0.0-6.0-11.0"}}, {"uniqueid": "w57002701:a85790534", "current_trial": 107, "dateTime": 1664556007822, "trialdata": {"rt": 431, "stimulus": "<p id='stroop-text' class='stroop-green'>GREEN</p>", "response": "g", "stimulus-type": "congruent", "word": "green", "color": "green", "correct_response": "g", "trial_id": "stroop-trial-1-congruent-16", "trial_type": "html-keyboard-response", "trial_index": 107, "time_elapsed": 459623, "internal_node_id": "0.0-6.0-12.0"}}, {"uniqueid": "w57002701:a85790534", "current_trial": 108, "dateTime": 1664556008841, "trialdata": {"rt": 515, "stimulus": "<p id='stroop-text' class='stroop-yellow'>RED</p>", "response": "y", "stimulus-type": "incongruent", "word": "red", "color": "yellow", "correct_response": "y", "trial_id": "stroop-trial-1-incongruent-7", "trial_type": "html-keyboard-response", "trial_index": 108, "time_elapsed": 460642, "internal_node_id": "0.0-6.0-13.0"}}, {"uniqueid": "w57002701:a85790534", "current_trial": 109, "dateTime": 1664556010197, "trialdata": {"rt": 854, "stimulus": "<p id='stroop-text' class='stroop-blue'>FORK</p>", "response": "b", "stimulus-type": "unrelated", "word": "FORK", "color": "blue", "correct_response": "b", "trial_id": "stroop-trial-1-unrelated-22", "trial_type": "html-keyboard-response", "trial_index": 109, "time_elapsed": 461998, "internal_node_id": "0.0-6.0-14.0"}}, {"uniqueid": "w57002701:a85790534", "current_trial": 110, "dateTime": 1664556011213, "trialdata": {"rt": 513, "stimulus": "<p id='stroop-text' class='stroop-blue'>YELLOW</p>", "response": "b", "stimulus-type": "incongruent", "word": "yellow", "color": "blue", "correct_response": "b", "trial_id": "stroop-trial-1-incongruent-17", "trial_type": "html-keyboard-response", "trial_index": 110, "time_elapsed": 463015, "internal_node_id": "0.0-6.0-15.0"}}, {"uniqueid": "w57002701:a85790534", "current_trial": 111, "dateTime": 1664556012229, "trialdata": {"rt": 513, "stimulus": "<p id='stroop-text' class='stroop-green'>BRAIN</p>", "response": "g", "stimulus-type": "unrelated", "word": "BRAIN", "color": "green", "correct_response": "g", "trial_id": "stroop-trial-1-unrelated-15", "trial_type": "html-keyboard-response", "trial_index": 111, "time_elapsed": 464031, "internal_node_id": "0.0-6.0-16.0"}}, {"uniqueid": "w57002701:a85790534", "current_trial": 112, "dateTime": 1664556013222, "trialdata": {"rt": 490, "stimulus": "<p id='stroop-text' class='stroop-green'>YELLOW</p>", "response": "g", "stimulus-type": "incongruent", "word": "yellow", "color": "green", "correct_response": "g", "trial_id": "stroop-trial-1-incongruent-10", "trial_type": "html-keyboard-response", "trial_index": 112, "time_elapsed": 465024, "internal_node_id": "0.0-6.0-17.0"}}, {"uniqueid": "w57002701:a85790534", "current_trial": 113, "dateTime": 1664556014117, "trialdata": {"rt": 392, "stimulus": "<p id='stroop-text' class='stroop-green'>BOTTLE</p>", "response": "g", "stimulus-type": "unrelated", "word": "BOTTLE", "color": "green", "correct_response": "g", "trial_id": "stroop-trial-1-unrelated-5", "trial_type": "html-keyboard-response", "trial_index": 113, "time_elapsed": 465918, "internal_node_id": "0.0-6.0-18.0"}}, {"uniqueid": "w57002701:a85790534", "current_trial": 114, "dateTime": 1664556014972, "trialdata": {"rt": 351, "stimulus": "<p id='stroop-text' class='stroop-yellow'>YELLOW</p>", "response": "y", "stimulus-type": "congruent", "word": "yellow", "color": "yellow", "correct_response": "y", "trial_id": "stroop-trial-1-congruent-11", "trial_type": "html-keyboard-response", "trial_index": 114, "time_elapsed": 466773, "internal_node_id": "0.0-6.0-19.0"}}, {"uniqueid": "w57002701:a85790534", "current_trial": 115, "dateTime": 1664556015955, "trialdata": {"rt": 478, "stimulus": "<p id='stroop-text' class='stroop-red'>YELLOW</p>", "response": "r", "stimulus-type": "incongruent", "word": "yellow", "color": "red", "correct_response": "r", "trial_id": "stroop-trial-1-incongruent-24", "trial_type": "html-keyboard-response", "trial_index": 115, "time_elapsed": 467757, "internal_node_id": "0.0-6.0-20.0"}}, {"uniqueid": "w57002701:a85790534", "current_trial": 116, "dateTime": 1664556016941, "trialdata": {"rt": 482, "stimulus": "<p id='stroop-text' class='stroop-green'>GREEN</p>", "response": "g", "stimulus-type": "congruent", "word": "green", "color": "green", "correct_response": "g", "trial_id": "stroop-trial-1-congruent-6", "trial_type": "html-keyboard-response", "trial_index": 116, "time_elapsed": 468743, "internal_node_id": "0.0-6.0-21.0"}}, {"uniqueid": "w57002701:a85790534", "current_trial": 117, "dateTime": 1664556017872, "trialdata": {"rt": 426, "stimulus": "<p id='stroop-text' class='stroop-green'>GREEN</p>", "response": "g", "stimulus-type": "congruent", "word": "green", "color": "green", "correct_response": "g", "trial_id": "stroop-trial-1-congruent-25", "trial_type": "html-keyboard-response", "trial_index": 117, "time_elapsed": 469673, "internal_node_id": "0.0-6.0-22.0"}}, {"uniqueid": "w57002701:a85790534", "current_trial": 118, "dateTime": 1664556018803, "trialdata": {"rt": 428, "stimulus": "<p id='stroop-text' class='stroop-red'>GREEN</p>", "response": "y", "stimulus-type": "incongruent", "word": "green", "color": "red", "correct_response": "r", "trial_id": "stroop-trial-1-incongruent-29", "trial_type": "html-keyboard-response", "trial_index": 118, "time_elapsed": 470605, "internal_node_id": "0.0-6.0-23.0"}}, {"uniqueid": "w57002701:a85790534", "current_trial": 119, "dateTime": 1664556020079, "trialdata": {"rt": 770, "stimulus": "<p id='stroop-text' class='stroop-red'>BLUE</p>", "response": "r", "stimulus-type": "incongruent", "word": "blue", "color": "red", "correct_response": "r", "trial_id": "stroop-trial-1-incongruent-12", "trial_type": "html-keyboard-response", "trial_index": 119, "time_elapsed": 471880, "internal_node_id": "0.0-6.0-24.0"}}, {"uniqueid": "w57002701:a85790534", "current_trial": 120, "dateTime": 1664556021095, "trialdata": {"rt": 514, "stimulus": "<p id='stroop-text' class='stroop-yellow'>YELLOW</p>", "response": "y", "stimulus-type": "congruent", "word": "yellow", "color": "yellow", "correct_response": "y", "trial_id": "stroop-trial-1-congruent-8", "trial_type": "html-keyboard-response", "trial_index": 120, "time_elapsed": 472896, "internal_node_id": "0.0-6.0-25.0"}}, {"uniqueid": "w57002701:a85790534", "current_trial": 121, "dateTime": 1664556022283, "trialdata": {"rt": 686, "stimulus": "<p id='stroop-text' class='stroop-blue'>RED</p>", "response": "b", "stimulus-type": "incongruent", "word": "red", "color": "blue", "correct_response": "b", "trial_id": "stroop-trial-1-incongruent-3", "trial_type": "html-keyboard-response", "trial_index": 121, "time_elapsed": 474084, "internal_node_id": "0.0-6.0-26.0"}}, {"uniqueid": "w57002701:a85790534", "current_trial": 122, "dateTime": 1664556023528, "trialdata": {"rt": 742, "stimulus": "<p id='stroop-text' class='stroop-green'>YELLOW</p>", "response": "y", "stimulus-type": "incongruent", "word": "yellow", "color": "green", "correct_response": "g", "trial_id": "stroop-trial-1-incongruent-30", "trial_type": "html-keyboard-response", "trial_index": 122, "time_elapsed": 475329, "internal_node_id": "0.0-6.0-27.0"}}, {"uniqueid": "w57002701:a85790534", "current_trial": 123, "dateTime": 1664556025734, "trialdata": {"rt": 1703, "stimulus": "<p id='stroop-text' class='stroop-green'>FORK</p>", "response": "g", "stimulus-type": "unrelated", "word": "FORK", "color": "green", "correct_response": "g", "trial_id": "stroop-trial-1-unrelated-10", "trial_type": "html-keyboard-response", "trial_index": 123, "time_elapsed": 477535, "internal_node_id": "0.0-6.0-28.0"}}, {"uniqueid": "w57002701:a85790534", "current_trial": 124, "dateTime": 1664556026857, "trialdata": {"rt": 618, "stimulus": "<p id='stroop-text' class='stroop-yellow'>BOTTLE</p>", "response": "y", "stimulus-type": "unrelated", "word": "BOTTLE", "color": "yellow", "correct_response": "y", "trial_id": "stroop-trial-1-unrelated-13", "trial_type": "html-keyboard-response", "trial_index": 124, "time_elapsed": 478658, "internal_node_id": "0.0-6.0-29.0"}}, {"uniqueid": "w57002701:a85790534", "current_trial": 125, "dateTime": 1664556028441, "trialdata": {"rt": 1081, "stimulus": "<p id='stroop-text' class='stroop-blue'>STONE</p>", "response": "b", "stimulus-type": "unrelated", "word": "STONE", "color": "blue", "correct_response": "b", "trial_id": "stroop-trial-1-unrelated-8", "trial_type": "html-keyboard-response", "trial_index": 125, "time_elapsed": 480243, "internal_node_id": "0.0-6.0-30.0"}}, {"uniqueid": "w57002701:a85790534", "current_trial": 126, "dateTime": 1664556029675, "trialdata": {"rt": 730, "stimulus": "<p id='stroop-text' class='stroop-red'>RED</p>", "response": "r", "stimulus-type": "congruent", "word": "red", "color": "red", "correct_response": "r", "trial_id": "stroop-trial-1-congruent-9", "trial_type": "html-keyboard-response", "trial_index": 126, "time_elapsed": 481477, "internal_node_id": "0.0-6.0-31.0"}}, {"uniqueid": "w57002701:a85790534", "current_trial": 127, "dateTime": 1664556032256, "trialdata": {"rt": 2078, "stimulus": "<p id='stroop-text' class='stroop-blue'>BRAIN</p>", "response": "b", "stimulus-type": "unrelated", "word": "BRAIN", "color": "blue", "correct_response": "b", "trial_id": "stroop-trial-1-unrelated-28", "trial_type": "html-keyboard-response", "trial_index": 127, "time_elapsed": 484058, "internal_node_id": "0.0-6.0-32.0"}}, {"uniqueid": "w57002701:a85790534", "current_trial": 128, "dateTime": 1664556033369, "trialdata": {"rt": 610, "stimulus": "<p id='stroop-text' class='stroop-yellow'>YELLOW</p>", "response": "y", "stimulus-type": "congruent", "word": "yellow", "color": "yellow", "correct_response": "y", "trial_id": "stroop-trial-1-congruent-2", "trial_type": "html-keyboard-response", "trial_index": 128, "time_elapsed": 485171, "internal_node_id": "0.0-6.0-33.0"}}, {"uniqueid": "w57002701:a85790534", "current_trial": 129, "dateTime": 1664556034617, "trialdata": {"rt": 744, "stimulus": "<p id='stroop-text' class='stroop-red'>BOAT</p>", "response": "r", "stimulus-type": "unrelated", "word": "BOAT", "color": "red", "correct_response": "r", "trial_id": "stroop-trial-1-unrelated-27", "trial_type": "html-keyboard-response", "trial_index": 129, "time_elapsed": 486419, "internal_node_id": "0.0-6.0-34.0"}}, {"uniqueid": "w57002701:a85790534", "current_trial": 130, "dateTime": 1664556035744, "trialdata": {"rt": 622, "stimulus": "<p id='stroop-text' class='stroop-blue'>RED</p>", "response": "b", "stimulus-type": "incongruent", "word": "red", "color": "blue", "correct_response": "b", "trial_id": "stroop-trial-1-incongruent-14", "trial_type": "html-keyboard-response", "trial_index": 130, "time_elapsed": 487545, "internal_node_id": "0.0-6.0-35.0"}}, {"uniqueid": "w57002701:a85790534", "current_trial": 131, "dateTime": 1664556036872, "trialdata": {"rt": 625, "stimulus": "<p id='stroop-text' class='stroop-yellow'>GREEN</p>", "response": "y", "stimulus-type": "incongruent", "word": "green", "color": "yellow", "correct_response": "y", "trial_id": "stroop-trial-1-incongruent-2", "trial_type": "html-keyboard-response", "trial_index": 131, "time_elapsed": 488674, "internal_node_id": "0.0-6.0-36.0"}}, {"uniqueid": "w57002701:a85790534", "current_trial": 132, "dateTime": 1664556038430, "trialdata": {"rt": 1056, "stimulus": "<p id='stroop-text' class='stroop-blue'>YELLOW</p>", "response": "b", "stimulus-type": "incongruent", "word": "yellow", "color": "blue", "correct_response": "b", "trial_id": "stroop-trial-1-incongruent-6", "trial_type": "html-keyboard-response", "trial_index": 132, "time_elapsed": 490232, "internal_node_id": "0.0-6.0-37.0"}}, {"uniqueid": "w57002701:a85790534", "current_trial": 133, "dateTime": 1664556039587, "trialdata": {"rt": 652, "stimulus": "<p id='stroop-text' class='stroop-green'>GREEN</p>", "response": "g", "stimulus-type": "congruent", "word": "green", "color": "green", "correct_response": "g", "trial_id": "stroop-trial-1-congruent-19", "trial_type": "html-keyboard-response", "trial_index": 133, "time_elapsed": 491389, "internal_node_id": "0.0-6.0-38.0"}}, {"uniqueid": "w57002701:a85790534", "current_trial": 134, "dateTime": 1664556040711, "trialdata": {"rt": 620, "stimulus": "<p id='stroop-text' class='stroop-yellow'>YELLOW</p>", "response": "y", "stimulus-type": "congruent", "word": "yellow", "color": "yellow", "correct_response": "y", "trial_id": "stroop-trial-1-congruent-14", "trial_type": "html-keyboard-response", "trial_index": 134, "time_elapsed": 492513, "internal_node_id": "0.0-6.0-39.0"}}, {"uniqueid": "w57002701:a85790534", "current_trial": 135, "dateTime": 1664556041769, "trialdata": {"rt": 555, "stimulus": "<p id='stroop-text' class='stroop-yellow'>RED</p>", "response": "y", "stimulus-type": "incongruent", "word": "red", "color": "yellow", "correct_response": "y", "trial_id": "stroop-trial-1-incongruent-26", "trial_type": "html-keyboard-response", "trial_index": 135, "time_elapsed": 493571, "internal_node_id": "0.0-6.0-40.0"}}, {"uniqueid": "w57002701:a85790534", "current_trial": 136, "dateTime": 1664556042869, "trialdata": {"rt": 596, "stimulus": "<p id='stroop-text' class='stroop-blue'>GREEN</p>", "response": "g", "stimulus-type": "incongruent", "word": "green", "color": "blue", "correct_response": "b", "trial_id": "stroop-trial-1-incongruent-1", "trial_type": "html-keyboard-response", "trial_index": 136, "time_elapsed": 494671, "internal_node_id": "0.0-6.0-41.0"}}, {"uniqueid": "w57002701:a85790534", "current_trial": 137, "dateTime": 1664556045515, "trialdata": {"rt": 2143, "stimulus": "<p id='stroop-text' class='stroop-green'>BLUE</p>", "response": "g", "stimulus-type": "incongruent", "word": "blue", "color": "green", "correct_response": "g", "trial_id": "stroop-trial-1-incongruent-18", "trial_type": "html-keyboard-response", "trial_index": 137, "time_elapsed": 497317, "internal_node_id": "0.0-6.0-42.0"}}, {"uniqueid": "w57002701:a85790534", "current_trial": 138, "dateTime": 1664556046648, "trialdata": {"rt": 631, "stimulus": "<p id='stroop-text' class='stroop-red'>BOTTLE</p>", "response": "r", "stimulus-type": "unrelated", "word": "BOTTLE", "color": "red", "correct_response": "r", "trial_id": "stroop-trial-1-unrelated-9", "trial_type": "html-keyboard-response", "trial_index": 138, "time_elapsed": 498450, "internal_node_id": "0.0-6.0-43.0"}}, {"uniqueid": "w57002701:a85790534", "current_trial": 139, "dateTime": 1664556047986, "trialdata": {"rt": 834, "stimulus": "<p id='stroop-text' class='stroop-green'>WINDOW</p>", "response": "g", "stimulus-type": "unrelated", "word": "WINDOW", "color": "green", "correct_response": "g", "trial_id": "stroop-trial-1-unrelated-11", "trial_type": "html-keyboard-response", "trial_index": 139, "time_elapsed": 499787, "internal_node_id": "0.0-6.0-44.0"}}, {"uniqueid": "w57002701:a85790534", "current_trial": 140, "dateTime": 1664556049129, "trialdata": {"rt": 638, "stimulus": "<p id='stroop-text' class='stroop-yellow'>DOG</p>", "response": "y", "stimulus-type": "unrelated", "word": "DOG", "color": "yellow", "correct_response": "y", "trial_id": "stroop-trial-1-unrelated-3", "trial_type": "html-keyboard-response", "trial_index": 140, "time_elapsed": 500930, "internal_node_id": "0.0-6.0-45.0"}}, {"uniqueid": "w57002701:a85790534", "current_trial": 141, "dateTime": 1664556050215, "trialdata": {"rt": 581, "stimulus": "<p id='stroop-text' class='stroop-blue'>BLUE</p>", "response": "b", "stimulus-type": "congruent", "word": "blue", "color": "blue", "correct_response": "b", "trial_id": "stroop-trial-1-congruent-10", "trial_type": "html-keyboard-response", "trial_index": 141, "time_elapsed": 502016, "internal_node_id": "0.0-6.0-46.0"}}, {"uniqueid": "w57002701:a85790534", "current_trial": 142, "dateTime": 1664556051649, "trialdata": {"rt": 930, "stimulus": "<p id='stroop-text' class='stroop-red'>BOTTLE</p>", "response": "r", "stimulus-type": "unrelated", "word": "BOTTLE", "color": "red", "correct_response": "r", "trial_id": "stroop-trial-1-unrelated-29", "trial_type": "html-keyboard-response", "trial_index": 142, "time_elapsed": 503451, "internal_node_id": "0.0-6.0-47.0"}}, {"uniqueid": "w57002701:a85790534", "current_trial": 143, "dateTime": 1664556053943, "trialdata": {"rt": 1789, "stimulus": "<p id='stroop-text' class='stroop-blue'>BOTTLE</p>", "response": "b", "stimulus-type": "unrelated", "word": "BOTTLE", "color": "blue", "correct_response": "b", "trial_id": "stroop-trial-1-unrelated-7", "trial_type": "html-keyboard-response", "trial_index": 143, "time_elapsed": 505745, "internal_node_id": "0.0-6.0-48.0"}}, {"uniqueid": "w57002701:a85790534", "current_trial": 144, "dateTime": 1664556055076, "trialdata": {"rt": 629, "stimulus": "<p id='stroop-text' class='stroop-yellow'>BOAT</p>", "response": "y", "stimulus-type": "unrelated", "word": "BOAT", "color": "yellow", "correct_response": "y", "trial_id": "stroop-trial-1-unrelated-21", "trial_type": "html-keyboard-response", "trial_index": 144, "time_elapsed": 506878, "internal_node_id": "0.0-6.0-49.0"}}, {"uniqueid": "w57002701:a85790534", "current_trial": 145, "dateTime": 1664556056370, "trialdata": {"rt": 791, "stimulus": "<p id='stroop-text' class='stroop-blue'>BLUE</p>", "response": "b", "stimulus-type": "congruent", "word": "blue", "color": "blue", "correct_response": "b", "trial_id": "stroop-trial-1-congruent-23", "trial_type": "html-keyboard-response", "trial_index": 145, "time_elapsed": 508172, "internal_node_id": "0.0-6.0-50.0"}}, {"uniqueid": "w57002701:a85790534", "current_trial": 146, "dateTime": 1664556057481, "trialdata": {"rt": 608, "stimulus": "<p id='stroop-text' class='stroop-yellow'>YELLOW</p>", "response": "y", "stimulus-type": "congruent", "word": "yellow", "color": "yellow", "correct_response": "y", "trial_id": "stroop-trial-1-congruent-17", "trial_type": "html-keyboard-response", "trial_index": 146, "time_elapsed": 509283, "internal_node_id": "0.0-6.0-51.0"}}, {"uniqueid": "w57002701:a85790534", "current_trial": 147, "dateTime": 1664556058998, "trialdata": {"rt": 1014, "stimulus": "<p id='stroop-text' class='stroop-green'>FORK</p>", "response": "g", "stimulus-type": "unrelated", "word": "FORK", "color": "green", "correct_response": "g", "trial_id": "stroop-trial-1-unrelated-26", "trial_type": "html-keyboard-response", "trial_index": 147, "time_elapsed": 510800, "internal_node_id": "0.0-6.0-52.0"}}, {"uniqueid": "w57002701:a85790534", "current_trial": 148, "dateTime": 1664556059943, "trialdata": {"rt": 440, "stimulus": "<p id='stroop-text' class='stroop-green'>WINDOW</p>", "response": "g", "stimulus-type": "unrelated", "word": "WINDOW", "color": "green", "correct_response": "g", "trial_id": "stroop-trial-1-unrelated-25", "trial_type": "html-keyboard-response", "trial_index": 148, "time_elapsed": 511744, "internal_node_id": "0.0-6.0-53.0"}}, {"uniqueid": "w57002701:a85790534", "current_trial": 149, "dateTime": 1664556061216, "trialdata": {"rt": 769, "stimulus": "<p id='stroop-text' class='stroop-blue'>BLUE</p>", "response": "b", "stimulus-type": "congruent", "word": "blue", "color": "blue", "correct_response": "b", "trial_id": "stroop-trial-1-congruent-30", "trial_type": "html-keyboard-response", "trial_index": 149, "time_elapsed": 513017, "internal_node_id": "0.0-6.0-54.0"}}, {"uniqueid": "w57002701:a85790534", "current_trial": 150, "dateTime": 1664556062330, "trialdata": {"rt": 610, "stimulus": "<p id='stroop-text' class='stroop-red'>BOTTLE</p>", "response": "r", "stimulus-type": "unrelated", "word": "BOTTLE", "color": "red", "correct_response": "r", "trial_id": "stroop-trial-1-unrelated-18", "trial_type": "html-keyboard-response", "trial_index": 150, "time_elapsed": 514132, "internal_node_id": "0.0-6.0-55.0"}}, {"uniqueid": "w57002701:a85790534", "current_trial": 151, "dateTime": 1664556063521, "trialdata": {"rt": 686, "stimulus": "<p id='stroop-text' class='stroop-red'>RED</p>", "response": "r", "stimulus-type": "congruent", "word": "red", "color": "red", "correct_response": "r", "trial_id": "stroop-trial-1-congruent-12", "trial_type": "html-keyboard-response", "trial_index": 151, "time_elapsed": 515322, "internal_node_id": "0.0-6.0-56.0"}}, {"uniqueid": "w57002701:a85790534", "current_trial": 152, "dateTime": 1664556064450, "trialdata": {"rt": 425, "stimulus": "<p id='stroop-text' class='stroop-red'>GREEN</p>", "response": "r", "stimulus-type": "incongruent", "word": "green", "color": "red", "correct_response": "r", "trial_id": "stroop-trial-1-incongruent-11", "trial_type": "html-keyboard-response", "trial_index": 152, "time_elapsed": 516252, "internal_node_id": "0.0-6.0-57.0"}}, {"uniqueid": "w57002701:a85790534", "current_trial": 153, "dateTime": 1664556065602, "trialdata": {"rt": 648, "stimulus": "<p id='stroop-text' class='stroop-yellow'>YELLOW</p>", "response": "y", "stimulus-type": "congruent", "word": "yellow", "color": "yellow", "correct_response": "y", "trial_id": "stroop-trial-1-congruent-22", "trial_type": "html-keyboard-response", "trial_index": 153, "time_elapsed": 517403, "internal_node_id": "0.0-6.0-58.0"}}, {"uniqueid": "w57002701:a85790534", "current_trial": 154, "dateTime": 1664556066764, "trialdata": {"rt": 659, "stimulus": "<p id='stroop-text' class='stroop-blue'>RED</p>", "response": "b", "stimulus-type": "incongruent", "word": "red", "color": "blue", "correct_response": "b", "trial_id": "stroop-trial-1-incongruent-9", "trial_type": "html-keyboard-response", "trial_index": 154, "time_elapsed": 518565, "internal_node_id": "0.0-6.0-59.0"}}, {"uniqueid": "w57002701:a85790534", "current_trial": 155, "dateTime": 1664556067965, "trialdata": {"rt": 699, "stimulus": "<p id='stroop-text' class='stroop-yellow'>YELLOW</p>", "response": "y", "stimulus-type": "congruent", "word": "yellow", "color": "yellow", "correct_response": "y", "trial_id": "stroop-trial-1-congruent-15", "trial_type": "html-keyboard-response", "trial_index": 155, "time_elapsed": 519767, "internal_node_id": "0.0-6.0-60.0"}}, {"uniqueid": "w57002701:a85790534", "current_trial": 156, "dateTime": 1664556069470, "trialdata": {"rt": 1002, "stimulus": "<p id='stroop-text' class='stroop-green'>BLUE</p>", "response": "g", "stimulus-type": "incongruent", "word": "blue", "color": "green", "correct_response": "g", "trial_id": "stroop-trial-1-incongruent-28", "trial_type": "html-keyboard-response", "trial_index": 156, "time_elapsed": 521271, "internal_node_id": "0.0-6.0-61.0"}}, {"uniqueid": "w57002701:a85790534", "current_trial": 157, "dateTime": 1664556070628, "trialdata": {"rt": 653, "stimulus": "<p id='stroop-text' class='stroop-red'>RED</p>", "response": "r", "stimulus-type": "congruent", "word": "red", "color": "red", "correct_response": "r", "trial_id": "stroop-trial-1-congruent-29", "trial_type": "html-keyboard-response", "trial_index": 157, "time_elapsed": 522430, "internal_node_id": "0.0-6.0-62.0"}}, {"uniqueid": "w57002701:a85790534", "current_trial": 158, "dateTime": 1664556071957, "trialdata": {"rt": 826, "stimulus": "<p id='stroop-text' class='stroop-yellow'>RED</p>", "response": "y", "stimulus-type": "incongruent", "word": "red", "color": "yellow", "correct_response": "y", "trial_id": "stroop-trial-1-incongruent-21", "trial_type": "html-keyboard-response", "trial_index": 158, "time_elapsed": 523758, "internal_node_id": "0.0-6.0-63.0"}}, {"uniqueid": "w57002701:a85790534", "current_trial": 159, "dateTime": 1664556073326, "trialdata": {"rt": 865, "stimulus": "<p id='stroop-text' class='stroop-red'>CHAIR</p>", "response": "r", "stimulus-type": "unrelated", "word": "CHAIR", "color": "red", "correct_response": "r", "trial_id": "stroop-trial-1-unrelated-14", "trial_type": "html-keyboard-response", "trial_index": 159, "time_elapsed": 525127, "internal_node_id": "0.0-6.0-64.0"}}, {"uniqueid": "w57002701:a85790534", "current_trial": 160, "dateTime": 1664556074583, "trialdata": {"rt": 753, "stimulus": "<p id='stroop-text' class='stroop-yellow'>YELLOW</p>", "response": "y", "stimulus-type": "congruent", "word": "yellow", "color": "yellow", "correct_response": "y", "trial_id": "stroop-trial-1-congruent-24", "trial_type": "html-keyboard-response", "trial_index": 160, "time_elapsed": 526384, "internal_node_id": "0.0-6.0-65.0"}}, {"uniqueid": "w57002701:a85790534", "current_trial": 161, "dateTime": 1664556075991, "trialdata": {"rt": 905, "stimulus": "<p id='stroop-text' class='stroop-blue'>YELLOW</p>", "response": "b", "stimulus-type": "incongruent", "word": "yellow", "color": "blue", "correct_response": "b", "trial_id": "stroop-trial-1-incongruent-8", "trial_type": "html-keyboard-response", "trial_index": 161, "time_elapsed": 527792, "internal_node_id": "0.0-6.0-66.0"}}, {"uniqueid": "w57002701:a85790534", "current_trial": 162, "dateTime": 1664556077598, "trialdata": {"rt": 1103, "stimulus": "<p id='stroop-text' class='stroop-red'>DOG</p>", "response": "r", "stimulus-type": "unrelated", "word": "DOG", "color": "red", "correct_response": "r", "trial_id": "stroop-trial-1-unrelated-12", "trial_type": "html-keyboard-response", "trial_index": 162, "time_elapsed": 529399, "internal_node_id": "0.0-6.0-67.0"}}, {"uniqueid": "w57002701:a85790534", "current_trial": 163, "dateTime": 1664556078548, "trialdata": {"rt": 446, "stimulus": "<p id='stroop-text' class='stroop-red'>RED</p>", "response": "r", "stimulus-type": "congruent", "word": "red", "color": "red", "correct_response": "r", "trial_id": "stroop-trial-1-congruent-3", "trial_type": "html-keyboard-response", "trial_index": 163, "time_elapsed": 530350, "internal_node_id": "0.0-6.0-68.0"}}, {"uniqueid": "w57002701:a85790534", "current_trial": 164, "dateTime": 1664556079387, "trialdata": {"rt": 336, "stimulus": "<p id='stroop-text' class='stroop-red'>YELLOW</p>", "response": "r", "stimulus-type": "incongruent", "word": "yellow", "color": "red", "correct_response": "r", "trial_id": "stroop-trial-1-incongruent-16", "trial_type": "html-keyboard-response", "trial_index": 164, "time_elapsed": 531188, "internal_node_id": "0.0-6.0-69.0"}}, {"uniqueid": "w57002701:a85790534", "current_trial": 165, "dateTime": 1664556081001, "trialdata": {"rt": 1111, "stimulus": "<p id='stroop-text' class='stroop-blue'>DOG</p>", "response": "b", "stimulus-type": "unrelated", "word": "DOG", "color": "blue", "correct_response": "b", "trial_id": "stroop-trial-1-unrelated-23", "trial_type": "html-keyboard-response", "trial_index": 165, "time_elapsed": 532803, "internal_node_id": "0.0-6.0-70.0"}}, {"uniqueid": "w57002701:a85790534", "current_trial": 166, "dateTime": 1664556083206, "trialdata": {"rt": 1703, "stimulus": "<p id='stroop-text' class='stroop-green'>FORK</p>", "response": "g", "stimulus-type": "unrelated", "word": "FORK", "color": "green", "correct_response": "g", "trial_id": "stroop-trial-1-unrelated-2", "trial_type": "html-keyboard-response", "trial_index": 166, "time_elapsed": 535008, "internal_node_id": "0.0-6.0-71.0"}}, {"uniqueid": "w57002701:a85790534", "current_trial": 167, "dateTime": 1664556084916, "trialdata": {"rt": 1207, "stimulus": "<p id='stroop-text' class='stroop-blue'>FORK</p>", "response": "y", "stimulus-type": "unrelated", "word": "FORK", "color": "blue", "correct_response": "b", "trial_id": "stroop-trial-1-unrelated-30", "trial_type": "html-keyboard-response", "trial_index": 167, "time_elapsed": 536718, "internal_node_id": "0.0-6.0-72.0"}}, {"uniqueid": "w57002701:a85790534", "current_trial": 168, "dateTime": 1664556086779, "trialdata": {"rt": 1360, "stimulus": "<p id='stroop-text' class='stroop-yellow'>GREEN</p>", "response": "y", "stimulus-type": "incongruent", "word": "green", "color": "yellow", "correct_response": "y", "trial_id": "stroop-trial-1-incongruent-5", "trial_type": "html-keyboard-response", "trial_index": 168, "time_elapsed": 538580, "internal_node_id": "0.0-6.0-73.0"}}, {"uniqueid": "w57002701:a85790534", "current_trial": 169, "dateTime": 1664556087726, "trialdata": {"rt": 443, "stimulus": "<p id='stroop-text' class='stroop-yellow'>RED</p>", "response": "y", "stimulus-type": "incongruent", "word": "red", "color": "yellow", "correct_response": "y", "trial_id": "stroop-trial-1-incongruent-25", "trial_type": "html-keyboard-response", "trial_index": 169, "time_elapsed": 539527, "internal_node_id": "0.0-6.0-74.0"}}, {"uniqueid": "w57002701:a85790534", "current_trial": 170, "dateTime": 1664556088637, "trialdata": {"rt": 408, "stimulus": "<p id='stroop-text' class='stroop-yellow'>SHIP</p>", "response": "y", "stimulus-type": "unrelated", "word": "SHIP", "color": "yellow", "correct_response": "y", "trial_id": "stroop-trial-1-unrelated-20", "trial_type": "html-keyboard-response", "trial_index": 170, "time_elapsed": 540438, "internal_node_id": "0.0-6.0-75.0"}}, {"uniqueid": "w57002701:a85790534", "current_trial": 171, "dateTime": 1664556090128, "trialdata": {"rt": 989, "stimulus": "<p id='stroop-text' class='stroop-red'>GREEN</p>", "response": "r", "stimulus-type": "incongruent", "word": "green", "color": "red", "correct_response": "r", "trial_id": "stroop-trial-1-incongruent-23", "trial_type": "html-keyboard-response", "trial_index": 171, "time_elapsed": 541930, "internal_node_id": "0.0-6.0-76.0"}}, {"uniqueid": "w57002701:a85790534", "current_trial": 172, "dateTime": 1664556091716, "trialdata": {"rt": 1085, "stimulus": "<p id='stroop-text' class='stroop-blue'>BLUE</p>", "response": "b", "stimulus-type": "congruent", "word": "blue", "color": "blue", "correct_response": "b", "trial_id": "stroop-trial-1-congruent-28", "trial_type": "html-keyboard-response", "trial_index": 172, "time_elapsed": 543518, "internal_node_id": "0.0-6.0-77.0"}}, {"uniqueid": "w57002701:a85790534", "current_trial": 173, "dateTime": 1664556092668, "trialdata": {"rt": 448, "stimulus": "<p id='stroop-text' class='stroop-blue'>BLUE</p>", "response": "b", "stimulus-type": "congruent", "word": "blue", "color": "blue", "correct_response": "b", "trial_id": "stroop-trial-1-congruent-21", "trial_type": "html-keyboard-response", "trial_index": 173, "time_elapsed": 544469, "internal_node_id": "0.0-6.0-78.0"}}, {"uniqueid": "w57002701:a85790534", "current_trial": 174, "dateTime": 1664556093794, "trialdata": {"rt": 622, "stimulus": "<p id='stroop-text' class='stroop-red'>BRIDGE</p>", "response": "r", "stimulus-type": "unrelated", "word": "BRIDGE", "color": "red", "correct_response": "r", "trial_id": "stroop-trial-1-unrelated-17", "trial_type": "html-keyboard-response", "trial_index": 174, "time_elapsed": 545596, "internal_node_id": "0.0-6.0-79.0"}}, {"uniqueid": "w57002701:a85790534", "current_trial": 175, "dateTime": 1664556095158, "trialdata": {"rt": 860, "stimulus": "<p id='stroop-text' class='stroop-blue'>GREEN</p>", "response": "g", "stimulus-type": "incongruent", "word": "green", "color": "blue", "correct_response": "b", "trial_id": "stroop-trial-1-incongruent-27", "trial_type": "html-keyboard-response", "trial_index": 175, "time_elapsed": 546960, "internal_node_id": "0.0-6.0-80.0"}}, {"uniqueid": "w57002701:a85790534", "current_trial": 176, "dateTime": 1664556097733, "trialdata": {"rt": 2071, "stimulus": "<p id='stroop-text' class='stroop-blue'>BOAT</p>", "response": "b", "stimulus-type": "unrelated", "word": "BOAT", "color": "blue", "correct_response": "b", "trial_id": "stroop-trial-1-unrelated-19", "trial_type": "html-keyboard-response", "trial_index": 176, "time_elapsed": 549535, "internal_node_id": "0.0-6.0-81.0"}}, {"uniqueid": "w57002701:a85790534", "current_trial": 177, "dateTime": 1664556098838, "trialdata": {"rt": 602, "stimulus": "<p id='stroop-text' class='stroop-red'>GREEN</p>", "response": "r", "stimulus-type": "incongruent", "word": "green", "color": "red", "correct_response": "r", "trial_id": "stroop-trial-1-incongruent-13", "trial_type": "html-keyboard-response", "trial_index": 177, "time_elapsed": 550640, "internal_node_id": "0.0-6.0-82.0"}}, {"uniqueid": "w57002701:a85790534", "current_trial": 178, "dateTime": 1664556100072, "trialdata": {"rt": 729, "stimulus": "<p id='stroop-text' class='stroop-blue'>BLUE</p>", "response": "b", "stimulus-type": "congruent", "word": "blue", "color": "blue", "correct_response": "b", "trial_id": "stroop-trial-1-congruent-1", "trial_type": "html-keyboard-response", "trial_index": 178, "time_elapsed": 551874, "internal_node_id": "0.0-6.0-83.0"}}, {"uniqueid": "w57002701:a85790534", "current_trial": 179, "dateTime": 1664556101056, "trialdata": {"rt": 481, "stimulus": "<p id='stroop-text' class='stroop-red'>RED</p>", "response": "r", "stimulus-type": "congruent", "word": "red", "color": "red", "correct_response": "r", "trial_id": "stroop-trial-1-congruent-27", "trial_type": "html-keyboard-response", "trial_index": 179, "time_elapsed": 552858, "internal_node_id": "0.0-6.0-84.0"}}, {"uniqueid": "w57002701:a85790534", "current_trial": 180, "dateTime": 1664556102165, "trialdata": {"rt": 605, "stimulus": "<p id='stroop-text' class='stroop-green'>GREEN</p>", "response": "g", "stimulus-type": "congruent", "word": "green", "color": "green", "correct_response": "g", "trial_id": "stroop-trial-1-congruent-5", "trial_type": "html-keyboard-response", "trial_index": 180, "time_elapsed": 553967, "internal_node_id": "0.0-6.0-85.0"}}, {"uniqueid": "w57002701:a85790534", "current_trial": 181, "dateTime": 1664556103329, "trialdata": {"rt": 660, "stimulus": "<p id='stroop-text' class='stroop-blue'>YELLOW</p>", "response": "b", "stimulus-type": "incongruent", "word": "yellow", "color": "blue", "correct_response": "b", "trial_id": "stroop-trial-1-incongruent-19", "trial_type": "html-keyboard-response", "trial_index": 181, "time_elapsed": 555131, "internal_node_id": "0.0-6.0-86.0"}}, {"uniqueid": "w57002701:a85790534", "current_trial": 182, "dateTime": 1664556104651, "trialdata": {"rt": 819, "stimulus": "<p id='stroop-text' class='stroop-green'>GREEN</p>", "response": "g", "stimulus-type": "congruent", "word": "green", "color": "green", "correct_response": "g", "trial_id": "stroop-trial-1-congruent-26", "trial_type": "html-keyboard-response", "trial_index": 182, "time_elapsed": 556453, "internal_node_id": "0.0-6.0-87.0"}}, {"uniqueid": "w57002701:a85790534", "current_trial": 183, "dateTime": 1664556105898, "trialdata": {"rt": 744, "stimulus": "<p id='stroop-text' class='stroop-blue'>CHAIR</p>", "response": "b", "stimulus-type": "unrelated", "word": "CHAIR", "color": "blue", "correct_response": "b", "trial_id": "stroop-trial-1-unrelated-6", "trial_type": "html-keyboard-response", "trial_index": 183, "time_elapsed": 557700, "internal_node_id": "0.0-6.0-88.0"}}, {"uniqueid": "w57002701:a85790534", "current_trial": 184, "dateTime": 1664556107025, "trialdata": {"rt": 623, "stimulus": "<p id='stroop-text' class='stroop-red'>GREEN</p>", "response": "r", "stimulus-type": "incongruent", "word": "green", "color": "red", "correct_response": "r", "trial_id": "stroop-trial-1-incongruent-4", "trial_type": "html-keyboard-response", "trial_index": 184, "time_elapsed": 558827, "internal_node_id": "0.0-6.0-89.0"}}, {"uniqueid": "w57002701:a85790534", "current_trial": 185, "dateTime": 1664556109788, "trialdata": {"rt": 2259, "stimulus": "  <h1> End of block! </h1>\n\n  You have reached the end of the block 2/5. If you need a short break, feel free to take one now before moving on.\n\n  <br><br>\n  In the next block, you will complete another 90 rounds of this game.\n\n  <br><br>\n  <div style='text-align: center;'>Press <code>space</code> to begin.</div>\n  <br><br>\n<div style='text-align: center;'>(If the experiment doesn't continue, try clicking on the text and then pressing <code>space</code>.)</div>", "response": " ", "trial_id": "stroop_1_ready_3", "trial_type": "html-keyboard-response", "trial_index": 185, "time_elapsed": 561590, "internal_node_id": "0.0-7.0"}}, {"uniqueid": "w57002701:a85790534", "current_trial": 186, "dateTime": 1664556110908, "trialdata": {"rt": 1118, "stimulus": "<p id='stroop-text' class='stroop-blue'>BLUE</p>", "response": "b", "stimulus-type": "congruent", "word": "blue", "color": "blue", "correct_response": "b", "trial_id": "stroop-trial-1-congruent-27", "trial_type": "html-keyboard-response", "trial_index": 186, "time_elapsed": 562710, "internal_node_id": "0.0-8.0-0.0"}}, {"uniqueid": "w57002701:a85790534", "current_trial": 187, "dateTime": 1664556112102, "trialdata": {"rt": 691, "stimulus": "<p id='stroop-text' class='stroop-green'>CHAIR</p>", "response": "g", "stimulus-type": "unrelated", "word": "CHAIR", "color": "green", "correct_response": "g", "trial_id": "stroop-trial-1-unrelated-28", "trial_type": "html-keyboard-response", "trial_index": 187, "time_elapsed": 563904, "internal_node_id": "0.0-8.0-1.0"}}, {"uniqueid": "w57002701:a85790534", "current_trial": 188, "dateTime": 1664556113784, "trialdata": {"rt": 1177, "stimulus": "<p id='stroop-text' class='stroop-red'>YELLOW</p>", "response": "r", "stimulus-type": "incongruent", "word": "yellow", "color": "red", "correct_response": "r", "trial_id": "stroop-trial-1-incongruent-2", "trial_type": "html-keyboard-response", "trial_index": 188, "time_elapsed": 565586, "internal_node_id": "0.0-8.0-2.0"}}, {"uniqueid": "w57002701:a85790534", "current_trial": 189, "dateTime": 1664556114923, "trialdata": {"rt": 636, "stimulus": "<p id='stroop-text' class='stroop-blue'>YELLOW</p>", "response": "g", "stimulus-type": "incongruent", "word": "yellow", "color": "blue", "correct_response": "b", "trial_id": "stroop-trial-1-incongruent-4", "trial_type": "html-keyboard-response", "trial_index": 189, "time_elapsed": 566725, "internal_node_id": "0.0-8.0-3.0"}}, {"uniqueid": "w57002701:a85790534", "current_trial": 190, "dateTime": 1664556116585, "trialdata": {"rt": 1156, "stimulus": "<p id='stroop-text' class='stroop-red'>SHIP</p>", "response": "r", "stimulus-type": "unrelated", "word": "SHIP", "color": "red", "correct_response": "r", "trial_id": "stroop-trial-1-unrelated-27", "trial_type": "html-keyboard-response", "trial_index": 190, "time_elapsed": 568387, "internal_node_id": "0.0-8.0-4.0"}}, {"uniqueid": "w57002701:a85790534", "current_trial": 191, "dateTime": 1664556117756, "trialdata": {"rt": 667, "stimulus": "<p id='stroop-text' class='stroop-yellow'>YELLOW</p>", "response": "y", "stimulus-type": "congruent", "word": "yellow", "color": "yellow", "correct_response": "y", "trial_id": "stroop-trial-1-congruent-7", "trial_type": "html-keyboard-response", "trial_index": 191, "time_elapsed": 569558, "internal_node_id": "0.0-8.0-5.0"}}, {"uniqueid": "w57002701:a85790534", "current_trial": 192, "dateTime": 1664556118847, "trialdata": {"rt": 585, "stimulus": "<p id='stroop-text' class='stroop-blue'>BRIDGE</p>", "response": "b", "stimulus-type": "unrelated", "word": "BRIDGE", "color": "blue", "correct_response": "b", "trial_id": "stroop-trial-1-unrelated-13", "trial_type": "html-keyboard-response", "trial_index": 192, "time_elapsed": 570649, "internal_node_id": "0.0-8.0-6.0"}}, {"uniqueid": "w57002701:a85790534", "current_trial": 193, "dateTime": 1664556120222, "trialdata": {"rt": 870, "stimulus": "<p id='stroop-text' class='stroop-green'>BRAIN</p>", "response": "g", "stimulus-type": "unrelated", "word": "BRAIN", "color": "green", "correct_response": "g", "trial_id": "stroop-trial-1-unrelated-6", "trial_type": "html-keyboard-response", "trial_index": 193, "time_elapsed": 572024, "internal_node_id": "0.0-8.0-7.0"}}, {"uniqueid": "w57002701:a85790534", "current_trial": 194, "dateTime": 1664556125175, "trialdata": {"rt": 4449, "stimulus": "<p id='stroop-text' class='stroop-yellow'>RED</p>", "response": "y", "stimulus-type": "incongruent", "word": "red", "color": "yellow", "correct_response": "y", "trial_id": "stroop-trial-1-incongruent-11", "trial_type": "html-keyboard-response", "trial_index": 194, "time_elapsed": 576977, "internal_node_id": "0.0-8.0-8.0"}}, {"uniqueid": "w57002701:a85790534", "current_trial": 195, "dateTime": 1664556126277, "trialdata": {"rt": 596, "stimulus": "<p id='stroop-text' class='stroop-yellow'>RED</p>", "response": "y", "stimulus-type": "incongruent", "word": "red", "color": "yellow", "correct_response": "y", "trial_id": "stroop-trial-1-incongruent-15", "trial_type": "html-keyboard-response", "trial_index": 195, "time_elapsed": 578079, "internal_node_id": "0.0-8.0-9.0"}}, {"uniqueid": "w57002701:a85790534", "current_trial": 196, "dateTime": 1664556127748, "trialdata": {"rt": 969, "stimulus": "<p id='stroop-text' class='stroop-red'>RED</p>", "response": "r", "stimulus-type": "congruent", "word": "red", "color": "red", "correct_response": "r", "trial_id": "stroop-trial-1-congruent-30", "trial_type": "html-keyboard-response", "trial_index": 196, "time_elapsed": 579550, "internal_node_id": "0.0-8.0-10.0"}}, {"uniqueid": "w57002701:a85790534", "current_trial": 197, "dateTime": 1664556129855, "trialdata": {"rt": 1603, "stimulus": "<p id='stroop-text' class='stroop-yellow'>BOAT</p>", "response": "y", "stimulus-type": "unrelated", "word": "BOAT", "color": "yellow", "correct_response": "y", "trial_id": "stroop-trial-1-unrelated-1", "trial_type": "html-keyboard-response", "trial_index": 197, "time_elapsed": 581657, "internal_node_id": "0.0-8.0-11.0"}}, {"uniqueid": "w57002701:a85790534", "current_trial": 198, "dateTime": 1664556132086, "trialdata": {"rt": 1727, "stimulus": "<p id='stroop-text' class='stroop-red'>RED</p>", "response": "r", "stimulus-type": "congruent", "word": "red", "color": "red", "correct_response": "r", "trial_id": "stroop-trial-1-congruent-22", "trial_type": "html-keyboard-response", "trial_index": 198, "time_elapsed": 583888, "internal_node_id": "0.0-8.0-12.0"}}, {"uniqueid": "w57002701:a85790534", "current_trial": 199, "dateTime": 1664556135454, "trialdata": {"rt": 2866, "stimulus": "<p id='stroop-text' class='stroop-blue'>BLUE</p>", "response": "b", "stimulus-type": "congruent", "word": "blue", "color": "blue", "correct_response": "b", "trial_id": "stroop-trial-1-congruent-16", "trial_type": "html-keyboard-response", "trial_index": 199, "time_elapsed": 587256, "internal_node_id": "0.0-8.0-13.0"}}, {"uniqueid": "w57002701:a85790534", "current_trial": 200, "dateTime": 1664556136916, "trialdata": {"rt": 958, "stimulus": "<p id='stroop-text' class='stroop-green'>GREEN</p>", "response": "g", "stimulus-type": "congruent", "word": "green", "color": "green", "correct_response": "g", "trial_id": "stroop-trial-1-congruent-14", "trial_type": "html-keyboard-response", "trial_index": 200, "time_elapsed": 588717, "internal_node_id": "0.0-8.0-14.0"}}, {"uniqueid": "w57002701:a85790534", "current_trial": 201, "dateTime": 1664556138825, "trialdata": {"rt": 1406, "stimulus": "<p id='stroop-text' class='stroop-yellow'>YELLOW</p>", "response": "y", "stimulus-type": "congruent", "word": "yellow", "color": "yellow", "correct_response": "y", "trial_id": "stroop-trial-1-congruent-12", "trial_type": "html-keyboard-response", "trial_index": 201, "time_elapsed": 590627, "internal_node_id": "0.0-8.0-15.0"}}, {"uniqueid": "w57002701:a85790534", "current_trial": 202, "dateTime": 1664556139884, "trialdata": {"rt": 556, "stimulus": "<p id='stroop-text' class='stroop-yellow'>YELLOW</p>", "response": "y", "stimulus-type": "congruent", "word": "yellow", "color": "yellow", "correct_response": "y", "trial_id": "stroop-trial-1-congruent-20", "trial_type": "html-keyboard-response", "trial_index": 202, "time_elapsed": 591685, "internal_node_id": "0.0-8.0-16.0"}}, {"uniqueid": "w57002701:a85790534", "current_trial": 203, "dateTime": 1664556142066, "trialdata": {"rt": 1678, "stimulus": "<p id='stroop-text' class='stroop-blue'>BLUE</p>", "response": "b", "stimulus-type": "congruent", "word": "blue", "color": "blue", "correct_response": "b", "trial_id": "stroop-trial-1-congruent-13", "trial_type": "html-keyboard-response", "trial_index": 203, "time_elapsed": 593867, "internal_node_id": "0.0-8.0-17.0"}}, {"uniqueid": "w57002701:a85790534", "current_trial": 204, "dateTime": 1664556144462, "trialdata": {"rt": 1894, "stimulus": "<p id='stroop-text' class='stroop-green'>GREEN</p>", "response": "g", "stimulus-type": "congruent", "word": "green", "color": "green", "correct_response": "g", "trial_id": "stroop-trial-1-congruent-23", "trial_type": "html-keyboard-response", "trial_index": 204, "time_elapsed": 596264, "internal_node_id": "0.0-8.0-18.0"}}, {"uniqueid": "w57002701:a85790534", "current_trial": 205, "dateTime": 1664556145630, "trialdata": {"rt": 665, "stimulus": "<p id='stroop-text' class='stroop-yellow'>YELLOW</p>", "response": "y", "stimulus-type": "congruent", "word": "yellow", "color": "yellow", "correct_response": "y", "trial_id": "stroop-trial-1-congruent-25", "trial_type": "html-keyboard-response", "trial_index": 205, "time_elapsed": 597431, "internal_node_id": "0.0-8.0-19.0"}}, {"uniqueid": "w57002701:a85790534", "current_trial": 206, "dateTime": 1664556147390, "trialdata": {"rt": 1257, "stimulus": "<p id='stroop-text' class='stroop-green'>GREEN</p>", "response": "g", "stimulus-type": "congruent", "word": "green", "color": "green", "correct_response": "g", "trial_id": "stroop-trial-1-congruent-1", "trial_type": "html-keyboard-response", "trial_index": 206, "time_elapsed": 599191, "internal_node_id": "0.0-8.0-20.0"}}, {"uniqueid": "w57002701:a85790534", "current_trial": 207, "dateTime": 1664556148587, "trialdata": {"rt": 694, "stimulus": "<p id='stroop-text' class='stroop-green'>BLUE</p>", "response": "g", "stimulus-type": "incongruent", "word": "blue", "color": "green", "correct_response": "g", "trial_id": "stroop-trial-1-incongruent-23", "trial_type": "html-keyboard-response", "trial_index": 207, "time_elapsed": 600388, "internal_node_id": "0.0-8.0-21.0"}}, {"uniqueid": "w57002701:a85790534", "current_trial": 208, "dateTime": 1664556151130, "trialdata": {"rt": 2037, "stimulus": "<p id='stroop-text' class='stroop-blue'>STONE</p>", "response": "b", "stimulus-type": "unrelated", "word": "STONE", "color": "blue", "correct_response": "b", "trial_id": "stroop-trial-1-unrelated-10", "trial_type": "html-keyboard-response", "trial_index": 208, "time_elapsed": 602931, "internal_node_id": "0.0-8.0-22.0"}}, {"uniqueid": "w57002701:a85790534", "current_trial": 209, "dateTime": 1664556154776, "trialdata": {"rt": 3142, "stimulus": "<p id='stroop-text' class='stroop-red'>BOAT</p>", "response": "b", "stimulus-type": "unrelated", "word": "BOAT", "color": "red", "correct_response": "r", "trial_id": "stroop-trial-1-unrelated-30", "trial_type": "html-keyboard-response", "trial_index": 209, "time_elapsed": 606577, "internal_node_id": "0.0-8.0-23.0"}}, {"uniqueid": "w57002701:a85790534", "current_trial": 210, "dateTime": 1664556157965, "trialdata": {"rt": 2688, "stimulus": "<p id='stroop-text' class='stroop-blue'>GREEN</p>", "response": "b", "stimulus-type": "incongruent", "word": "green", "color": "blue", "correct_response": "b", "trial_id": "stroop-trial-1-incongruent-30", "trial_type": "html-keyboard-response", "trial_index": 210, "time_elapsed": 609767, "internal_node_id": "0.0-8.0-24.0"}}, {"uniqueid": "w57002701:a85790534", "current_trial": 211, "dateTime": 1664556158969, "trialdata": {"rt": 499, "stimulus": "<p id='stroop-text' class='stroop-blue'>SHIP</p>", "response": "b", "stimulus-type": "unrelated", "word": "SHIP", "color": "blue", "correct_response": "b", "trial_id": "stroop-trial-1-unrelated-23", "trial_type": "html-keyboard-response", "trial_index": 211, "time_elapsed": 610771, "internal_node_id": "0.0-8.0-25.0"}}, {"uniqueid": "w57002701:a85790534", "current_trial": 212, "dateTime": 1664556160180, "trialdata": {"rt": 707, "stimulus": "<p id='stroop-text' class='stroop-yellow'>RED</p>", "response": "y", "stimulus-type": "incongruent", "word": "red", "color": "yellow", "correct_response": "y", "trial_id": "stroop-trial-1-incongruent-29", "trial_type": "html-keyboard-response", "trial_index": 212, "time_elapsed": 611982, "internal_node_id": "0.0-8.0-26.0"}}, {"uniqueid": "w57002701:a85790534", "current_trial": 213, "dateTime": 1664556161489, "trialdata": {"rt": 805, "stimulus": "<p id='stroop-text' class='stroop-red'>RED</p>", "response": "r", "stimulus-type": "congruent", "word": "red", "color": "red", "correct_response": "r", "trial_id": "stroop-trial-1-congruent-26", "trial_type": "html-keyboard-response", "trial_index": 213, "time_elapsed": 613291, "internal_node_id": "0.0-8.0-27.0"}}, {"uniqueid": "w57002701:a85790534", "current_trial": 214, "dateTime": 1664556162509, "trialdata": {"rt": 518, "stimulus": "<p id='stroop-text' class='stroop-red'>RED</p>", "response": "r", "stimulus-type": "congruent", "word": "red", "color": "red", "correct_response": "r", "trial_id": "stroop-trial-1-congruent-3", "trial_type": "html-keyboard-response", "trial_index": 214, "time_elapsed": 614310, "internal_node_id": "0.0-8.0-28.0"}}, {"uniqueid": "w57002701:a85790534", "current_trial": 215, "dateTime": 1664556164595, "trialdata": {"rt": 1582, "stimulus": "<p id='stroop-text' class='stroop-yellow'>GREEN</p>", "response": "y", "stimulus-type": "incongruent", "word": "green", "color": "yellow", "correct_response": "y", "trial_id": "stroop-trial-1-incongruent-21", "trial_type": "html-keyboard-response", "trial_index": 215, "time_elapsed": 616397, "internal_node_id": "0.0-8.0-29.0"}}, {"uniqueid": "w57002701:a85790534", "current_trial": 216, "dateTime": 1664556166520, "trialdata": {"rt": 1422, "stimulus": "<p id='stroop-text' class='stroop-blue'>YELLOW</p>", "response": "b", "stimulus-type": "incongruent", "word": "yellow", "color": "blue", "correct_response": "b", "trial_id": "stroop-trial-1-incongruent-20", "trial_type": "html-keyboard-response", "trial_index": 216, "time_elapsed": 618321, "internal_node_id": "0.0-8.0-30.0"}}, {"uniqueid": "w57002701:a85790534", "current_trial": 217, "dateTime": 1664556168354, "trialdata": {"rt": 1331, "stimulus": "<p id='stroop-text' class='stroop-red'>GREEN</p>", "response": "r", "stimulus-type": "incongruent", "word": "green", "color": "red", "correct_response": "r", "trial_id": "stroop-trial-1-incongruent-27", "trial_type": "html-keyboard-response", "trial_index": 217, "time_elapsed": 620156, "internal_node_id": "0.0-8.0-31.0"}}, {"uniqueid": "w57002701:a85790534", "current_trial": 218, "dateTime": 1664556169459, "trialdata": {"rt": 602, "stimulus": "<p id='stroop-text' class='stroop-yellow'>RED</p>", "response": "y", "stimulus-type": "incongruent", "word": "red", "color": "yellow", "correct_response": "y", "trial_id": "stroop-trial-1-incongruent-5", "trial_type": "html-keyboard-response", "trial_index": 218, "time_elapsed": 621261, "internal_node_id": "0.0-8.0-32.0"}}, {"uniqueid": "w57002701:a85790534", "current_trial": 219, "dateTime": 1664556170642, "trialdata": {"rt": 680, "stimulus": "<p id='stroop-text' class='stroop-blue'>MONKEY</p>", "response": "b", "stimulus-type": "unrelated", "word": "MONKEY", "color": "blue", "correct_response": "b", "trial_id": "stroop-trial-1-unrelated-24", "trial_type": "html-keyboard-response", "trial_index": 219, "time_elapsed": 622444, "internal_node_id": "0.0-8.0-33.0"}}, {"uniqueid": "w57002701:a85790534", "current_trial": 220, "dateTime": 1664556171575, "trialdata": {"rt": 430, "stimulus": "<p id='stroop-text' class='stroop-blue'>BRAIN</p>", "response": "b", "stimulus-type": "unrelated", "word": "BRAIN", "color": "blue", "correct_response": "b", "trial_id": "stroop-trial-1-unrelated-22", "trial_type": "html-keyboard-response", "trial_index": 220, "time_elapsed": 623377, "internal_node_id": "0.0-8.0-34.0"}}, {"uniqueid": "w57002701:a85790534", "current_trial": 221, "dateTime": 1664556172634, "trialdata": {"rt": 555, "stimulus": "<p id='stroop-text' class='stroop-green'>GREEN</p>", "response": "g", "stimulus-type": "congruent", "word": "green", "color": "green", "correct_response": "g", "trial_id": "stroop-trial-1-congruent-24", "trial_type": "html-keyboard-response", "trial_index": 221, "time_elapsed": 624435, "internal_node_id": "0.0-8.0-35.0"}}, {"uniqueid": "w57002701:a85790534", "current_trial": 222, "dateTime": 1664556173661, "trialdata": {"rt": 522, "stimulus": "<p id='stroop-text' class='stroop-red'>BRAIN</p>", "response": "r", "stimulus-type": "unrelated", "word": "BRAIN", "color": "red", "correct_response": "r", "trial_id": "stroop-trial-1-unrelated-9", "trial_typ