{"condition": 0, "counterbalance": 0, "assignmentId": "a98205172", "workerId": "w35007263", "hitId": "h10667681", "currenttrial": 959, "bonus": 0, "data": [{"uniqueid": "w35007263:a98205172", "current_trial": 0, "dateTime": 1664555205039, "trialdata": {"success": true, "trial_type": "fullscreen", "trial_index": 0, "time_elapsed": 175592, "internal_node_id": "0.0-0.0"}}, {"uniqueid": "w35007263:a98205172", "current_trial": 1, "dateTime": 1664555264787, "trialdata": {"view_history": [{"page_index": 0, "viewing_time": 59713}], "rt": 59716, "trial_id": "exp_instructions_distractor", "trial_type": "instructions", "trial_index": 1, "time_elapsed": 235342, "internal_node_id": "0.0-1.0"}}, {"uniqueid": "w35007263:a98205172", "current_trial": 2, "dateTime": 1664555312292, "trialdata": {"view_history": [{"page_index": 0, "viewing_time": 47494}], "rt": 47495, "trial_id": "color_game_instructions", "trial_type": "instructions", "trial_index": 2, "time_elapsed": 282847, "internal_node_id": "0.0-2.0"}}, {"uniqueid": "w35007263:a98205172", "current_trial": 3, "dateTime": 1664555335902, "trialdata": {"rt": 23603, "stimulus": "<h1> Get ready to start the game! </h1>\n\nThank you for reading the instructions. Get ready start with the first of 5 block(s) of this game.\n<br><br>\nIn this first block, you will complete 90 rounds of this game before moving on.\n<br><br>\nRemember, the better you perform, the bigger your bonus will be!\n<br><br>\n<div style='text-align: center;'>Press <code>space</code> to begin.</div>", "response": " ", "trial_id": "stroop_1_ready_1", "trial_type": "html-keyboard-response", "trial_index": 3, "time_elapsed": 306457, "internal_node_id": "0.0-3.0"}}, {"uniqueid": "w35007263:a98205172", "current_trial": 4, "dateTime": 1664555337850, "trialdata": {"rt": 1901, "stimulus": "<p id='stroop-text' class='stroop-yellow'>RED</p>", "response": "y", "stimulus-type": "incongruent", "word": "red", "color": "yellow", "correct_response": "y", "trial_id": "stroop-trial-1-incongruent-7", "trial_type": "html-keyboard-response", "trial_index": 4, "time_elapsed": 308404, "internal_node_id": "0.0-4.0-0.0"}}, {"uniqueid": "w35007263:a98205172", "current_trial": 5, "dateTime": 1664555339877, "trialdata": {"rt": 1518, "stimulus": "<p id='stroop-text' class='stroop-yellow'>YELLOW</p>", "response": "y", "stimulus-type": "congruent", "word": "yellow", "color": "yellow", "correct_response": "y", "trial_id": "stroop-trial-1-congruent-20", "trial_type": "html-keyboard-response", "trial_index": 5, "time_elapsed": 310431, "internal_node_id": "0.0-4.0-1.0"}}, {"uniqueid": "w35007263:a98205172", "current_trial": 6, "dateTime": 1664555341967, "trialdata": {"rt": 1566, "stimulus": "<p id='stroop-text' class='stroop-yellow'>WINDOW</p>", "response": "y", "stimulus-type": "unrelated", "word": "WINDOW", "color": "yellow", "correct_response": "y", "trial_id": "stroop-trial-1-unrelated-1", "trial_type": "html-keyboard-response", "trial_index": 6, "time_elapsed": 312521, "internal_node_id": "0.0-4.0-2.0"}}, {"uniqueid": "w35007263:a98205172", "current_trial": 7, "dateTime": 1664555343505, "trialdata": {"rt": 1025, "stimulus": "<p id='stroop-text' class='stroop-yellow'>GREEN</p>", "response": "y", "stimulus-type": "incongruent", "word": "green", "color": "yellow", "correct_response": "y", "trial_id": "stroop-trial-1-incongruent-14", "trial_type": "html-keyboard-response", "trial_index": 7, "time_elapsed": 314059, "internal_node_id": "0.0-4.0-3.0"}}, {"uniqueid": "w35007263:a98205172", "current_trial": 8, "dateTime": 1664555345634, "trialdata": {"rt": 1613, "stimulus": "<p id='stroop-text' class='stroop-red'>RED</p>", "response": "r", "stimulus-type": "congruent", "word": "red", "color": "red", "correct_response": "r", "trial_id": "stroop-trial-1-congruent-23", "trial_type": "html-keyboard-response", "trial_index": 8, "time_elapsed": 316188, "internal_node_id": "0.0-4.0-4.0"}}, {"uniqueid": "w35007263:a98205172", "current_trial": 9, "dateTime": 1664555347227, "trialdata": {"rt": 1079, "stimulus": "<p id='stroop-text' class='stroop-blue'>CHAIR</p>", "response": "b", "stimulus-type": "unrelated", "word": "CHAIR", "color": "blue", "correct_response": "b", "trial_id": "stroop-trial-1-unrelated-23", "trial_type": "html-keyboard-response", "trial_index": 9, "time_elapsed": 317781, "internal_node_id": "0.0-4.0-5.0"}}, {"uniqueid": "w35007263:a98205172", "current_trial": 10, "dateTime": 1664555348923, "trialdata": {"rt": 1180, "stimulus": "<p id='stroop-text' class='stroop-blue'>CHAIR</p>", "response": "b", "stimulus-type": "unrelated", "word": "CHAIR", "color": "blue", "correct_response": "b", "trial_id": "stroop-trial-1-unrelated-19", "trial_type": "html-keyboard-response", "trial_index": 10, "time_elapsed": 319478, "internal_node_id": "0.0-4.0-6.0"}}, {"uniqueid": "w35007263:a98205172", "current_trial": 11, "dateTime": 1664555350531, "trialdata": {"rt": 1098, "stimulus": "<p id='stroop-text' class='stroop-yellow'>RED</p>", "response": "y", "stimulus-type": "incongruent", "word": "red", "color": "yellow", "correct_response": "y", "trial_id": "stroop-trial-1-incongruent-13", "trial_type": "html-keyboard-response", "trial_index": 11, "time_elapsed": 321085, "internal_node_id": "0.0-4.0-7.0"}}, {"uniqueid": "w35007263:a98205172", "current_trial": 12, "dateTime": 1664555352024, "trialdata": {"rt": 980, "stimulus": "<p id='stroop-text' class='stroop-blue'>RED</p>", "response": "b", "stimulus-type": "incongruent", "word": "red", "color": "blue", "correct_response": "b", "trial_id": "stroop-trial-1-incongruent-6", "trial_type": "html-keyboard-response", "trial_index": 12, "time_elapsed": 322579, "internal_node_id": "0.0-4.0-8.0"}}, {"uniqueid": "w35007263:a98205172", "current_trial": 13, "dateTime": 1664555353978, "trialdata": {"rt": 1434, "stimulus": "<p id='stroop-text' class='stroop-green'>RED</p>", "response": "g", "stimulus-type": "incongruent", "word": "red", "color": "green", "correct_response": "g", "trial_id": "stroop-trial-1-incongruent-11", "trial_type": "html-keyboard-response", "trial_index": 13, "time_elapsed": 324532, "internal_node_id": "0.0-4.0-9.0"}}, {"uniqueid": "w35007263:a98205172", "current_trial": 14, "dateTime": 1664555355487, "trialdata": {"rt": 999, "stimulus": "<p id='stroop-text' class='stroop-yellow'>YELLOW</p>", "response": "y", "stimulus-type": "congruent", "word": "yellow", "color": "yellow", "correct_response": "y", "trial_id": "stroop-trial-1-congruent-3", "trial_type": "html-keyboard-response", "trial_index": 14, "time_elapsed": 326041, "internal_node_id": "0.0-4.0-10.0"}}, {"uniqueid": "w35007263:a98205172", "current_trial": 15, "dateTime": 1664555357127, "trialdata": {"rt": 1129, "stimulus": "<p id='stroop-text' class='stroop-blue'>YELLOW</p>", "response": "b", "stimulus-type": "incongruent", "word": "yellow", "color": "blue", "correct_response": "b", "trial_id": "stroop-trial-1-incongruent-16", "trial_type": "html-keyboard-response", "trial_index": 15, "time_elapsed": 327681, "internal_node_id": "0.0-4.0-11.0"}}, {"uniqueid": "w35007263:a98205172", "current_trial": 16, "dateTime": 1664555358851, "trialdata": {"rt": 1214, "stimulus": "<p id='stroop-text' class='stroop-red'>CHAIR</p>", "response": "r", "stimulus-type": "unrelated", "word": "CHAIR", "color": "red", "correct_response": "r", "trial_id": "stroop-trial-1-unrelated-4", "trial_type": "html-keyboard-response", "trial_index": 16, "time_elapsed": 329405, "internal_node_id": "0.0-4.0-12.0"}}, {"uniqueid": "w35007263:a98205172", "current_trial": 17, "dateTime": 1664555360447, "trialdata": {"rt": 1087, "stimulus": "<p id='stroop-text' class='stroop-blue'>RED</p>", "response": "b", "stimulus-type": "incongruent", "word": "red", "color": "blue", "correct_response": "b", "trial_id": "stroop-trial-1-incongruent-28", "trial_type": "html-keyboard-response", "trial_index": 17, "time_elapsed": 331001, "internal_node_id": "0.0-4.0-13.0"}}, {"uniqueid": "w35007263:a98205172", "current_trial": 18, "dateTime": 1664555361862, "trialdata": {"rt": 904, "stimulus": "<p id='stroop-text' class='stroop-yellow'>BLUE</p>", "response": "y", "stimulus-type": "incongruent", "word": "blue", "color": "yellow", "correct_response": "y", "trial_id": "stroop-trial-1-incongruent-24", "trial_type": "html-keyboard-response", "trial_index": 18, "time_elapsed": 332417, "internal_node_id": "0.0-4.0-14.0"}}, {"uniqueid": "w35007263:a98205172", "current_trial": 19, "dateTime": 1664555363207, "trialdata": {"rt": 825, "stimulus": "<p id='stroop-text' class='stroop-yellow'>MONKEY</p>", "response": "y", "stimulus-type": "unrelated", "word": "MONKEY", "color": "yellow", "correct_response": "y", "trial_id": "stroop-trial-1-unrelated-17", "trial_type": "html-keyboard-response", "trial_index": 19, "time_elapsed": 333761, "internal_node_id": "0.0-4.0-15.0"}}, {"uniqueid": "w35007263:a98205172", "current_trial": 20, "dateTime": 1664555364493, "trialdata": {"rt": 771, "stimulus": "<p id='stroop-text' class='stroop-blue'>BOAT</p>", "response": "b", "stimulus-type": "unrelated", "word": "BOAT", "color": "blue", "correct_response": "b", "trial_id": "stroop-trial-1-unrelated-27", "trial_type": "html-keyboard-response", "trial_index": 20, "time_elapsed": 335047, "internal_node_id": "0.0-4.0-16.0"}}, {"uniqueid": "w35007263:a98205172", "current_trial": 21, "dateTime": 1664555366213, "trialdata": {"rt": 1204, "stimulus": "<p id='stroop-text' class='stroop-green'>BLUE</p>", "response": "g", "stimulus-type": "incongruent", "word": "blue", "color": "green", "correct_response": "g", "trial_id": "stroop-trial-1-incongruent-3", "trial_type": "html-keyboard-response", "trial_index": 21, "time_elapsed": 336768, "internal_node_id": "0.0-4.0-17.0"}}, {"uniqueid": "w35007263:a98205172", "current_trial": 22, "dateTime": 1664555367644, "trialdata": {"rt": 923, "stimulus": "<p id='stroop-text' class='stroop-red'>BLUE</p>", "response": "r", "stimulus-type": "incongruent", "word": "blue", "color": "red", "correct_response": "r", "trial_id": "stroop-trial-1-incongruent-18", "trial_type": "html-keyboard-response", "trial_index": 22, "time_elapsed": 338198, "internal_node_id": "0.0-4.0-18.0"}}, {"uniqueid": "w35007263:a98205172", "current_trial": 23, "dateTime": 1664555369295, "trialdata": {"rt": 1141, "stimulus": "<p id='stroop-text' class='stroop-red'>RED</p>", "response": "r", "stimulus-type": "congruent", "word": "red", "color": "red", "correct_response": "r", "trial_id": "stroop-trial-1-congruent-25", "trial_type": "html-keyboard-response", "trial_index": 23, "time_elapsed": 339850, "internal_node_id": "0.0-4.0-19.0"}}, {"uniqueid": "w35007263:a98205172", "current_trial": 24, "dateTime": 1664555370952, "trialdata": {"rt": 1143, "stimulus": "<p id='stroop-text' class='stroop-yellow'>BLUE</p>", "response": "y", "stimulus-type": "incongruent", "word": "blue", "color": "yellow", "correct_response": "y", "trial_id": "stroop-trial-1-incongruent-26", "trial_type": "html-keyboard-response", "trial_index": 24, "time_elapsed": 341506, "internal_node_id": "0.0-4.0-20.0"}}, {"uniqueid": "w35007263:a98205172", "current_trial": 25, "dateTime": 1664555372528, "trialdata": {"rt": 1065, "stimulus": "<p id='stroop-text' class='stroop-blue'>BRIDGE</p>", "response": "b", "stimulus-type": "unrelated", "word": "BRIDGE", "color": "blue", "correct_response": "b", "trial_id": "stroop-trial-1-unrelated-14", "trial_type": "html-keyboard-response", "trial_index": 25, "time_elapsed": 343082, "internal_node_id": "0.0-4.0-21.0"}}, {"uniqueid": "w35007263:a98205172", "current_trial": 26, "dateTime": 1664555374353, "trialdata": {"rt": 1314, "stimulus": "<p id='stroop-text' class='stroop-red'>BLUE</p>", "response": "r", "stimulus-type": "incongruent", "word": "blue", "color": "red", "correct_response": "r", "trial_id": "stroop-trial-1-incongruent-5", "trial_type": "html-keyboard-response", "trial_index": 26, "time_elapsed": 344908, "internal_node_id": "0.0-4.0-22.0"}}, {"uniqueid": "w35007263:a98205172", "current_trial": 27, "dateTime": 1664555376182, "trialdata": {"rt": 1320, "stimulus": "<p id='stroop-text' class='stroop-blue'>WINDOW</p>", "response": "b", "stimulus-type": "unrelated", "word": "WINDOW", "color": "blue", "correct_response": "b", "trial_id": "stroop-trial-1-unrelated-22", "trial_type": "html-keyboard-response", "trial_index": 27, "time_elapsed": 346735, "internal_node_id": "0.0-4.0-23.0"}}, {"uniqueid": "w35007263:a98205172", "current_trial": 28, "dateTime": 1664555377610, "trialdata": {"rt": 918, "stimulus": "<p id='stroop-text' class='stroop-green'>GREEN</p>", "response": "g", "stimulus-type": "congruent", "word": "green", "color": "green", "correct_response": "g", "trial_id": "stroop-trial-1-congruent-22", "trial_type": "html-keyboard-response", "trial_index": 28, "time_elapsed": 348164, "internal_node_id": "0.0-4.0-24.0"}}, {"uniqueid": "w35007263:a98205172", "current_trial": 29, "dateTime": 1664555379622, "trialdata": {"rt": 1495, "stimulus": "<p id='stroop-text' class='stroop-red'>RED</p>", "response": "r", "stimulus-type": "congruent", "word": "red", "color": "red", "correct_response": "r", "trial_id": "stroop-trial-1-congruent-19", "trial_type": "html-keyboard-response", "trial_index": 29, "time_elapsed": 350177, "internal_node_id": "0.0-4.0-25.0"}}, {"uniqueid": "w35007263:a98205172", "current_trial": 30, "dateTime": 1664555381064, "trialdata": {"rt": 933, "stimulus": "<p id='stroop-text' class='stroop-green'>GREEN</p>", "response": "g", "stimulus-type": "congruent", "word": "green", "color": "green", "correct_response": "g", "trial_id": "stroop-trial-1-congruent-8", "trial_type": "html-keyboard-response", "trial_index": 30, "time_elapsed": 351618, "internal_node_id": "0.0-4.0-26.0"}}, {"uniqueid": "w35007263:a98205172", "current_trial": 31, "dateTime": 1664555382420, "trialdata": {"rt": 845, "stimulus": "<p id='stroop-text' class='stroop-blue'>GREEN</p>", "response": "b", "stimulus-type": "incongruent", "word": "green", "color": "blue", "correct_response": "b", "trial_id": "stroop-trial-1-incongruent-27", "trial_type": "html-keyboard-response", "trial_index": 31, "time_elapsed": 352974, "internal_node_id": "0.0-4.0-27.0"}}, {"uniqueid": "w35007263:a98205172", "current_trial": 32, "dateTime": 1664555383821, "trialdata": {"rt": 878, "stimulus": "<p id='stroop-text' class='stroop-yellow'>BOTTLE</p>", "response": "y", "stimulus-type": "unrelated", "word": "BOTTLE", "color": "yellow", "correct_response": "y", "trial_id": "stroop-trial-1-unrelated-25", "trial_type": "html-keyboard-response", "trial_index": 32, "time_elapsed": 354375, "internal_node_id": "0.0-4.0-28.0"}}, {"uniqueid": "w35007263:a98205172", "current_trial": 33, "dateTime": 1664555385452, "trialdata": {"rt": 1120, "stimulus": "<p id='stroop-text' class='stroop-red'>GREEN</p>", "response": "r", "stimulus-type": "incongruent", "word": "green", "color": "red", "correct_response": "r", "trial_id": "stroop-trial-1-incongruent-8", "trial_type": "html-keyboard-response", "trial_index": 33, "time_elapsed": 356007, "internal_node_id": "0.0-4.0-29.0"}}, {"uniqueid": "w35007263:a98205172", "current_trial": 34, "dateTime": 1664555387716, "trialdata": {"rt": 1750, "stimulus": "<p id='stroop-text' class='stroop-red'>GREEN</p>", "response": "r", "stimulus-type": "incongruent", "word": "green", "color": "red", "correct_response": "r", "trial_id": "stroop-trial-1-incongruent-10", "trial_type": "html-keyboard-response", "trial_index": 34, "time_elapsed": 358270, "internal_node_id": "0.0-4.0-30.0"}}, {"uniqueid": "w35007263:a98205172", "current_trial": 35, "dateTime": 1664555389107, "trialdata": {"rt": 885, "stimulus": "<p id='stroop-text' class='stroop-yellow'>STONE</p>", "response": "y", "stimulus-type": "unrelated", "word": "STONE", "color": "yellow", "correct_response": "y", "trial_id": "stroop-trial-1-unrelated-5", "trial_type": "html-keyboard-response", "trial_index": 35, "time_elapsed": 359661, "internal_node_id": "0.0-4.0-31.0"}}, {"uniqueid": "w35007263:a98205172", "current_trial": 36, "dateTime": 1664555390611, "trialdata": {"rt": 992, "stimulus": "<p id='stroop-text' class='stroop-yellow'>FORK</p>", "response": "y", "stimulus-type": "unrelated", "word": "FORK", "color": "yellow", "correct_response": "y", "trial_id": "stroop-trial-1-unrelated-18", "trial_type": "html-keyboard-response", "trial_index": 36, "time_elapsed": 361165, "internal_node_id": "0.0-4.0-32.0"}}, {"uniqueid": "w35007263:a98205172", "current_trial": 37, "dateTime": 1664555392422, "trialdata": {"rt": 1302, "stimulus": "<p id='stroop-text' class='stroop-green'>GREEN</p>", "response": "g", "stimulus-type": "congruent", "word": "green", "color": "green", "correct_response": "g", "trial_id": "stroop-trial-1-congruent-11", "trial_type": "html-keyboard-response", "trial_index": 37, "time_elapsed": 362976, "internal_node_id": "0.0-4.0-33.0"}}, {"uniqueid": "w35007263:a98205172", "current_trial": 38, "dateTime": 1664555393845, "trialdata": {"rt": 913, "stimulus": "<p id='stroop-text' class='stroop-yellow'>BRIDGE</p>", "response": "y", "stimulus-type": "unrelated", "word": "BRIDGE", "color": "yellow", "correct_response": "y", "trial_id": "stroop-trial-1-unrelated-28", "trial_type": "html-keyboard-response", "trial_index": 38, "time_elapsed": 364399, "internal_node_id": "0.0-4.0-34.0"}}, {"uniqueid": "w35007263:a98205172", "current_trial": 39, "dateTime": 1664555395586, "trialdata": {"rt": 1227, "stimulus": "<p id='stroop-text' class='stroop-green'>STONE</p>", "response": "g", "stimulus-type": "unrelated", "word": "STONE", "color": "green", "correct_response": "g", "trial_id": "stroop-trial-1-unrelated-6", "trial_type": "html-keyboard-response", "trial_index": 39, "time_elapsed": 366140, "internal_node_id": "0.0-4.0-35.0"}}, {"uniqueid": "w35007263:a98205172", "current_trial": 40, "dateTime": 1664555396792, "trialdata": {"rt": 694, "stimulus": "<p id='stroop-text' class='stroop-yellow'>STONE</p>", "response": "y", "stimulus-type": "unrelated", "word": "STONE", "color": "yellow", "correct_response": "y", "trial_id": "stroop-trial-1-unrelated-24", "trial_type": "html-keyboard-response", "trial_index": 40, "time_elapsed": 367346, "internal_node_id": "0.0-4.0-36.0"}}, {"uniqueid": "w35007263:a98205172", "current_trial": 41, "dateTime": 1664555398062, "trialdata": {"rt": 760, "stimulus": "<p id='stroop-text' class='stroop-yellow'>BLUE</p>", "response": "y", "stimulus-type": "incongruent", "word": "blue", "color": "yellow", "correct_response": "y", "trial_id": "stroop-trial-1-incongruent-29", "trial_type": "html-keyboard-response", "trial_index": 41, "time_elapsed": 368616, "internal_node_id": "0.0-4.0-37.0"}}, {"uniqueid": "w35007263:a98205172", "current_trial": 42, "dateTime": 1664555399330, "trialdata": {"rt": 762, "stimulus": "<p id='stroop-text' class='stroop-yellow'>YELLOW</p>", "response": "y", "stimulus-type": "congruent", "word": "yellow", "color": "yellow", "correct_response": "y", "trial_id": "stroop-trial-1-congruent-17", "trial_type": "html-keyboard-response", "trial_index": 42, "time_elapsed": 369885, "internal_node_id": "0.0-4.0-38.0"}}, {"uniqueid": "w35007263:a98205172", "current_trial": 43, "dateTime": 1664555400500, "trialdata": {"rt": 658, "stimulus": "<p id='stroop-text' class='stroop-yellow'>RED</p>", "response": "y", "stimulus-type": "incongruent", "word": "red", "color": "yellow", "correct_response": "y", "trial_id": "stroop-trial-1-incongruent-4", "trial_type": "html-keyboard-response", "trial_index": 43, "time_elapsed": 371054, "internal_node_id": "0.0-4.0-39.0"}}, {"uniqueid": "w35007263:a98205172", "current_trial": 44, "dateTime": 1664555401687, "trialdata": {"rt": 664, "stimulus": "<p id='stroop-text' class='stroop-yellow'>YELLOW</p>", "response": "y", "stimulus-type": "congruent", "word": "yellow", "color": "yellow", "correct_response": "y", "trial_id": "stroop-trial-1-congruent-24", "trial_type": "html-keyboard-response", "trial_index": 44, "time_elapsed": 372242, "internal_node_id": "0.0-4.0-40.0"}}, {"uniqueid": "w35007263:a98205172", "current_trial": 45, "dateTime": 1664555403033, "trialdata": {"rt": 840, "stimulus": "<p id='stroop-text' class='stroop-red'>BRAIN</p>", "response": "r", "stimulus-type": "unrelated", "word": "BRAIN", "color": "red", "correct_response": "r", "trial_id": "stroop-trial-1-unrelated-10", "trial_type": "html-keyboard-response", "trial_index": 45, "time_elapsed": 373587, "internal_node_id": "0.0-4.0-41.0"}}, {"uniqueid": "w35007263:a98205172", "current_trial": 46, "dateTime": 1664555404501, "trialdata": {"rt": 960, "stimulus": "<p id='stroop-text' class='stroop-blue'>GREEN</p>", "response": "b", "stimulus-type": "incongruent", "word": "green", "color": "blue", "correct_response": "b", "trial_id": "stroop-trial-1-incongruent-1", "trial_type": "html-keyboard-response", "trial_index": 46, "time_elapsed": 375055, "internal_node_id": "0.0-4.0-42.0"}}, {"uniqueid": "w35007263:a98205172", "current_trial": 47, "dateTime": 1664555405953, "trialdata": {"rt": 944, "stimulus": "<p id='stroop-text' class='stroop-green'>YELLOW</p>", "response": "g", "stimulus-type": "incongruent", "word": "yellow", "color": "green", "correct_response": "g", "trial_id": "stroop-trial-1-incongruent-25", "trial_type": "html-keyboard-response", "trial_index": 47, "time_elapsed": 376507, "internal_node_id": "0.0-4.0-43.0"}}, {"uniqueid": "w35007263:a98205172", "current_trial": 48, "dateTime": 1664555407147, "trialdata": {"rt": 686, "stimulus": "<p id='stroop-text' class='stroop-green'>GREEN</p>", "response": "g", "stimulus-type": "congruent", "word": "green", "color": "green", "correct_response": "g", "trial_id": "stroop-trial-1-congruent-14", "trial_type": "html-keyboard-response", "trial_index": 48, "time_elapsed": 377701, "internal_node_id": "0.0-4.0-44.0"}}, {"uniqueid": "w35007263:a98205172", "current_trial": 49, "dateTime": 1664555408239, "trialdata": {"rt": 580, "stimulus": "<p id='stroop-text' class='stroop-green'>GREEN</p>", "response": "g", "stimulus-type": "congruent", "word": "green", "color": "green", "correct_response": "g", "trial_id": "stroop-trial-1-congruent-29", "trial_type": "html-keyboard-response", "trial_index": 49, "time_elapsed": 378793, "internal_node_id": "0.0-4.0-45.0"}}, {"uniqueid": "w35007263:a98205172", "current_trial": 50, "dateTime": 1664555409470, "trialdata": {"rt": 719, "stimulus": "<p id='stroop-text' class='stroop-blue'>BLUE</p>", "response": "b", "stimulus-type": "congruent", "word": "blue", "color": "blue", "correct_response": "b", "trial_id": "stroop-trial-1-congruent-26", "trial_type": "html-keyboard-response", "trial_index": 50, "time_elapsed": 380024, "internal_node_id": "0.0-4.0-46.0"}}, {"uniqueid": "w35007263:a98205172", "current_trial": 51, "dateTime": 1664555410746, "trialdata": {"rt": 768, "stimulus": "<p id='stroop-text' class='stroop-green'>RED</p>", "response": "g", "stimulus-type": "incongruent", "word": "red", "color": "green", "correct_response": "g", "trial_id": "stroop-trial-1-incongruent-19", "trial_type": "html-keyboard-response", "trial_index": 51, "time_elapsed": 381300, "internal_node_id": "0.0-4.0-47.0"}}, {"uniqueid": "w35007263:a98205172", "current_trial": 52, "dateTime": 1664555412025, "trialdata": {"rt": 758, "stimulus": "<p id='stroop-text' class='stroop-red'>GREEN</p>", "response": "r", "stimulus-type": "incongruent", "word": "green", "color": "red", "correct_response": "r", "trial_id": "stroop-trial-1-incongruent-15", "trial_type": "html-keyboard-response", "trial_index": 52, "time_elapsed": 382579, "internal_node_id": "0.0-4.0-48.0"}}, {"uniqueid": "w35007263:a98205172", "current_trial": 53, "dateTime": 1664555413777, "trialdata": {"rt": 1238, "stimulus": "<p id='stroop-text' class='stroop-green'>BOAT</p>", "response": "g", "stimulus-type": "unrelated", "word": "BOAT", "color": "green", "correct_response": "g", "trial_id": "stroop-trial-1-unrelated-26", "trial_type": "html-keyboard-response", "trial_index": 53, "time_elapsed": 384332, "internal_node_id": "0.0-4.0-49.0"}}, {"uniqueid": "w35007263:a98205172", "current_trial": 54, "dateTime": 1664555415038, "trialdata": {"rt": 750, "stimulus": "<p id='stroop-text' class='stroop-red'>RED</p>", "response": "r", "stimulus-type": "congruent", "word": "red", "color": "red", "correct_response": "r", "trial_id": "stroop-trial-1-congruent-27", "trial_type": "html-keyboard-response", "trial_index": 54, "time_elapsed": 385592, "internal_node_id": "0.0-4.0-50.0"}}, {"uniqueid": "w35007263:a98205172", "current_trial": 55, "dateTime": 1664555416456, "trialdata": {"rt": 907, "stimulus": "<p id='stroop-text' class='stroop-yellow'>BRIDGE</p>", "response": "y", "stimulus-type": "unrelated", "word": "BRIDGE", "color": "yellow", "correct_response": "y", "trial_id": "stroop-trial-1-unrelated-8", "trial_type": "html-keyboard-response", "trial_index": 55, "time_elapsed": 387010, "internal_node_id": "0.0-4.0-51.0"}}, {"uniqueid": "w35007263:a98205172", "current_trial": 56, "dateTime": 1664555417797, "trialdata": {"rt": 811, "stimulus": "<p id='stroop-text' class='stroop-yellow'>YELLOW</p>", "response": "y", "stimulus-type": "congruent", "word": "yellow", "color": "yellow", "correct_response": "y", "trial_id": "stroop-trial-1-congruent-2", "trial_type": "html-keyboard-response", "trial_index": 56, "time_elapsed": 388351, "internal_node_id": "0.0-4.0-52.0"}}, {"uniqueid": "w35007263:a98205172", "current_trial": 57, "dateTime": 1664555419050, "trialdata": {"rt": 745, "stimulus": "<p id='stroop-text' class='stroop-yellow'>CHAIR</p>", "response": "y", "stimulus-type": "unrelated", "word": "CHAIR", "color": "yellow", "correct_response": "y", "trial_id": "stroop-trial-1-unrelated-11", "trial_type": "html-keyboard-response", "trial_index": 57, "time_elapsed": 389604, "internal_node_id": "0.0-4.0-53.0"}}, {"uniqueid": "w35007263:a98205172", "current_trial": 58, "dateTime": 1664555420658, "trialdata": {"rt": 1098, "stimulus": "<p id='stroop-text' class='stroop-yellow'>STONE</p>", "response": "y", "stimulus-type": "unrelated", "word": "STONE", "color": "yellow", "correct_response": "y", "trial_id": "stroop-trial-1-unrelated-30", "trial_type": "html-keyboard-response", "trial_index": 58, "time_elapsed": 391212, "internal_node_id": "0.0-4.0-54.0"}}, {"uniqueid": "w35007263:a98205172", "current_trial": 59, "dateTime": 1664555421934, "trialdata": {"rt": 765, "stimulus": "<p id='stroop-text' class='stroop-green'>YELLOW</p>", "response": "g", "stimulus-type": "incongruent", "word": "yellow", "color": "green", "correct_response": "g", "trial_id": "stroop-trial-1-incongruent-17", "trial_type": "html-keyboard-response", "trial_index": 59, "time_elapsed": 392488, "internal_node_id": "0.0-4.0-55.0"}}, {"uniqueid": "w35007263:a98205172", "current_trial": 60, "dateTime": 1664555423390, "trialdata": {"rt": 948, "stimulus": "<p id='stroop-text' class='stroop-blue'>WINDOW</p>", "response": "b", "stimulus-type": "unrelated", "word": "WINDOW", "color": "blue", "correct_response": "b", "trial_id": "stroop-trial-1-unrelated-7", "trial_type": "html-keyboard-response", "trial_index": 60, "time_elapsed": 393944, "internal_node_id": "0.0-4.0-56.0"}}, {"uniqueid": "w35007263:a98205172", "current_trial": 61, "dateTime": 1664555424773, "trialdata": {"rt": 866, "stimulus": "<p id='stroop-text' class='stroop-green'>SHIP</p>", "response": "g", "stimulus-type": "unrelated", "word": "SHIP", "color": "green", "correct_response": "g", "trial_id": "stroop-trial-1-unrelated-2", "trial_type": "html-keyboard-response", "trial_index": 61, "time_elapsed": 395327, "internal_node_id": "0.0-4.0-57.0"}}, {"uniqueid": "w35007263:a98205172", "current_trial": 62, "dateTime": 1664555426574, "trialdata": {"rt": 1294, "stimulus": "<p id='stroop-text' class='stroop-green'>BLUE</p>", "response": "g", "stimulus-type": "incongruent", "word": "blue", "color": "green", "correct_response": "g", "trial_id": "stroop-trial-1-incongruent-2", "trial_type": "html-keyboard-response", "trial_index": 62, "time_elapsed": 397128, "internal_node_id": "0.0-4.0-58.0"}}, {"uniqueid": "w35007263:a98205172", "current_trial": 63, "dateTime": 1664555427810, "trialdata": {"rt": 717, "stimulus": "<p id='stroop-text' class='stroop-green'>GREEN</p>", "response": "g", "stimulus-type": "congruent", "word": "green", "color": "green", "correct_response": "g", "trial_id": "stroop-trial-1-congruent-1", "trial_type": "html-keyboard-response", "trial_index": 63, "time_elapsed": 398365, "internal_node_id": "0.0-4.0-59.0"}}, {"uniqueid": "w35007263:a98205172", "current_trial": 64, "dateTime": 1664555429291, "trialdata": {"rt": 974, "stimulus": "<p id='stroop-text' class='stroop-blue'>YELLOW</p>", "response": "b", "stimulus-type": "incongruent", "word": "yellow", "color": "blue", "correct_response": "b", "trial_id": "stroop-trial-1-incongruent-12", "trial_type": "html-keyboard-response", "trial_index": 64, "time_elapsed": 399845, "internal_node_id": "0.0-4.0-60.0"}}, {"uniqueid": "w35007263:a98205172", "current_trial": 65, "dateTime": 1664555430683, "trialdata": {"rt": 875, "stimulus": "<p id='stroop-text' class='stroop-red'>DOG</p>", "response": "r", "stimulus-type": "unrelated", "word": "DOG", "color": "red", "correct_response": "r", "trial_id": "stroop-trial-1-unrelated-29", "trial_type": "html-keyboard-response", "trial_index": 65, "time_elapsed": 401237, "internal_node_id": "0.0-4.0-61.0"}}, {"uniqueid": "w35007263:a98205172", "current_trial": 66, "dateTime": 1664555432068, "trialdata": {"rt": 865, "stimulus": "<p id='stroop-text' class='stroop-green'>BOTTLE</p>", "response": "g", "stimulus-type": "unrelated", "word": "BOTTLE", "color": "green", "correct_response": "g", "trial_id": "stroop-trial-1-unrelated-13", "trial_type": "html-keyboard-response", "trial_index": 66, "time_elapsed": 402622, "internal_node_id": "0.0-4.0-62.0"}}, {"uniqueid": "w35007263:a98205172", "current_trial": 67, "dateTime": 1664555433377, "trialdata": {"rt": 800, "stimulus": "<p id='stroop-text' class='stroop-red'>RED</p>", "response": "r", "stimulus-type": "congruent", "word": "red", "color": "red", "correct_response": "r", "trial_id": "stroop-trial-1-congruent-16", "trial_type": "html-keyboard-response", "trial_index": 67, "time_elapsed": 403931, "internal_node_id": "0.0-4.0-63.0"}}, {"uniqueid": "w35007263:a98205172", "current_trial": 68, "dateTime": 1664555434825, "trialdata": {"rt": 939, "stimulus": "<p id='stroop-text' class='stroop-red'>YELLOW</p>", "response": "r", "stimulus-type": "incongruent", "word": "yellow", "color": "red", "correct_response": "r", "trial_id": "stroop-trial-1-incongruent-22", "trial_type": "html-keyboard-response", "trial_index": 68, "time_elapsed": 405380, "internal_node_id": "0.0-4.0-64.0"}}, {"uniqueid": "w35007263:a98205172", "current_trial": 69, "dateTime": 1664555436359, "trialdata": {"rt": 1021, "stimulus": "<p id='stroop-text' class='stroop-green'>GREEN</p>", "response": "g", "stimulus-type": "congruent", "word": "green", "color": "green", "correct_response": "g", "trial_id": "stroop-trial-1-congruent-30", "trial_type": "html-keyboard-response", "trial_index": 69, "time_elapsed": 406914, "internal_node_id": "0.0-4.0-65.0"}}, {"uniqueid": "w35007263:a98205172", "current_trial": 70, "dateTime": 1664555437681, "trialdata": {"rt": 802, "stimulus": "<p id='stroop-text' class='stroop-yellow'>YELLOW</p>", "response": "y", "stimulus-type": "congruent", "word": "yellow", "color": "yellow", "correct_response": "y", "trial_id": "stroop-trial-1-congruent-12", "trial_type": "html-keyboard-response", "trial_index": 70, "time_elapsed": 408236, "internal_node_id": "0.0-4.0-66.0"}}, {"uniqueid": "w35007263:a98205172", "current_trial": 71, "dateTime": 1664555439105, "trialdata": {"rt": 895, "stimulus": "<p id='stroop-text' class='stroop-blue'>RED</p>", "response": "b", "stimulus-type": "incongruent", "word": "red", "color": "blue", "correct_response": "b", "trial_id": "stroop-trial-1-incongruent-23", "trial_type": "html-keyboard-response", "trial_index": 71, "time_elapsed": 409660, "internal_node_id": "0.0-4.0-67.0"}}, {"uniqueid": "w35007263:a98205172", "current_trial": 72, "dateTime": 1664555440544, "trialdata": {"rt": 919, "stimulus": "<p id='stroop-text' class='stroop-red'>BRIDGE</p>", "response": "r", "stimulus-type": "unrelated", "word": "BRIDGE", "color": "red", "correct_response": "r", "trial_id": "stroop-trial-1-unrelated-21", "trial_type": "html-keyboard-response", "trial_index": 72, "time_elapsed": 411098, "internal_node_id": "0.0-4.0-68.0"}}, {"uniqueid": "w35007263:a98205172", "current_trial": 73, "dateTime": 1664555441839, "trialdata": {"rt": 786, "stimulus": "<p id='stroop-text' class='stroop-red'>MONKEY</p>", "response": "r", "stimulus-type": "unrelated", "word": "MONKEY", "color": "red", "correct_response": "r", "trial_id": "stroop-trial-1-unrelated-9", "trial_type": "html-keyboard-response", "trial_index": 73, "time_elapsed": 412393, "internal_node_id": "0.0-4.0-69.0"}}, {"uniqueid": "w35007263:a98205172", "current_trial": 74, "dateTime": 1664555443193, "trialdata": {"rt": 849, "stimulus": "<p id='stroop-text' class='stroop-blue'>BLUE</p>", "response": "b", "stimulus-type": "congruent", "word": "blue", "color": "blue", "correct_response": "b", "trial_id": "stroop-trial-1-congruent-9", "trial_type": "html-keyboard-response", "trial_index": 74, "time_elapsed": 413748, "internal_node_id": "0.0-4.0-70.0"}}, {"uniqueid": "w35007263:a98205172", "current_trial": 75, "dateTime": 1664555444756, "trialdata": {"rt": 1052, "stimulus": "<p id='stroop-text' class='stroop-red'>WINDOW</p>", "response": "r", "stimulus-type": "unrelated", "word": "WINDOW", "color": "red", "correct_response": "r", "trial_id": "stroop-trial-1-unrelated-15", "trial_type": "html-keyboard-response", "trial_index": 75, "time_elapsed": 415310, "internal_node_id": "0.0-4.0-71.0"}}, {"uniqueid": "w35007263:a98205172", "current_trial": 76, "dateTime": 1664555446158, "trialdata": {"rt": 887, "stimulus": "<p id='stroop-text' class='stroop-yellow'>YELLOW</p>", "response": "y", "stimulus-type": "congruent", "word": "yellow", "color": "yellow", "correct_response": "y", "trial_id": "stroop-trial-1-congruent-15", "trial_type": "html-keyboard-response", "trial_index": 76, "time_elapsed": 416713, "internal_node_id": "0.0-4.0-72.0"}}, {"uniqueid": "w35007263:a98205172", "current_trial": 77, "dateTime": 1664555447404, "trialdata": {"rt": 730, "stimulus": "<p id='stroop-text' class='stroop-green'>GREEN</p>", "response": "g", "stimulus-type": "congruent", "word": "green", "color": "green", "correct_response": "g", "trial_id": "stroop-trial-1-congruent-28", "trial_type": "html-keyboard-response", "trial_index": 77, "time_elapsed": 417958, "internal_node_id": "0.0-4.0-73.0"}}, {"uniqueid": "w35007263:a98205172", "current_trial": 78, "dateTime": 1664555448673, "trialdata": {"rt": 760, "stimulus": "<p id='stroop-text' class='stroop-red'>SHIP</p>", "response": "r", "stimulus-type": "unrelated", "word": "SHIP", "color": "red", "correct_response": "r", "trial_id": "stroop-trial-1-unrelated-12", "trial_type": "html-keyboard-response", "trial_index": 78, "time_elapsed": 419227, "internal_node_id": "0.0-4.0-74.0"}}, {"uniqueid": "w35007263:a98205172", "current_trial": 79, "dateTime": 1664555450157, "trialdata": {"rt": 963, "stimulus": "<p id='stroop-text' class='stroop-blue'>BLUE</p>", "response": "b", "stimulus-type": "congruent", "word": "blue", "color": "blue", "correct_response": "b", "trial_id": "stroop-trial-1-congruent-6", "trial_type": "html-keyboard-response", "trial_index": 79, "time_elapsed": 420711, "internal_node_id": "0.0-4.0-75.0"}}, {"uniqueid": "w35007263:a98205172", "current_trial": 80, "dateTime": 1664555452092, "trialdata": {"rt": 1415, "stimulus": "<p id='stroop-text' class='stroop-red'>BLUE</p>", "response": "r", "stimulus-type": "incongruent", "word": "blue", "color": "red", "correct_response": "r", "trial_id": "stroop-trial-1-incongruent-21", "trial_type": "html-keyboard-response", "trial_index": 80, "time_elapsed": 422646, "internal_node_id": "0.0-4.0-76.0"}}, {"uniqueid": "w35007263:a98205172", "current_trial": 81, "dateTime": 1664555453423, "trialdata": {"rt": 814, "stimulus": "<p id='stroop-text' class='stroop-blue'>BLUE</p>", "response": "b", "stimulus-type": "congruent", "word": "blue", "color": "blue", "correct_response": "b", "trial_id": "stroop-trial-1-congruent-5", "trial_type": "html-keyboard-response", "trial_index": 81, "time_elapsed": 423977, "internal_node_id": "0.0-4.0-77.0"}}, {"uniqueid": "w35007263:a98205172", "current_trial": 82, "dateTime": 1664555454988, "trialdata": {"rt": 1053, "stimulus": "<p id='stroop-text' class='stroop-blue'>RED</p>", "response": "b", "stimulus-type": "incongruent", "word": "red", "color": "blue", "correct_response": "b", "trial_id": "stroop-trial-1-incongruent-30", "trial_type": "html-keyboard-response", "trial_index": 82, "time_elapsed": 425542, "internal_node_id": "0.0-4.0-78.0"}}, {"uniqueid": "w35007263:a98205172", "current_trial": 83, "dateTime": 1664555456237, "trialdata": {"rt": 740, "stimulus": "<p id='stroop-text' class='stroop-green'>GREEN</p>", "response": "g", "stimulus-type": "congruent", "word": "green", "color": "green", "correct_response": "g", "trial_id": "stroop-trial-1-congruent-4", "trial_type": "html-keyboard-response", "trial_index": 83, "time_elapsed": 426791, "internal_node_id": "0.0-4.0-79.0"}}, {"uniqueid": "w35007263:a98205172", "current_trial": 84, "dateTime": 1664555457624, "trialdata": {"rt": 873, "stimulus": "<p id='stroop-text' class='stroop-yellow'>CHAIR</p>", "response": "y", "stimulus-type": "unrelated", "word": "CHAIR", "color": "yellow", "correct_response": "y", "trial_id": "stroop-trial-1-unrelated-20", "trial_type": "html-keyboard-response", "trial_index": 84, "time_elapsed": 428179, "internal_node_id": "0.0-4.0-80.0"}}, {"uniqueid": "w35007263:a98205172", "current_trial": 85, "dateTime": 1664555458918, "trialdata": {"rt": 745, "stimulus": "<p id='stroop-text' class='stroop-red'>RED</p>", "response": "r", "stimulus-type": "congruent", "word": "red", "color": "red", "correct_response": "r", "trial_id": "stroop-trial-1-congruent-13", "trial_type": "html-keyboard-response", "trial_index": 85, "time_elapsed": 429472, "internal_node_id": "0.0-4.0-81.0"}}, {"uniqueid": "w35007263:a98205172", "current_trial": 86, "dateTime": 1664555460334, "trialdata": {"rt": 886, "stimulus": "<p id='stroop-text' class='stroop-blue'>BLUE</p>", "response": "b", "stimulus-type": "congruent", "word": "blue", "color": "blue", "correct_response": "b", "trial_id": "stroop-trial-1-congruent-21", "trial_type": "html-keyboard-response", "trial_index": 86, "time_elapsed": 430888, "internal_node_id": "0.0-4.0-82.0"}}, {"uniqueid": "w35007263:a98205172", "current_trial": 87, "dateTime": 1664555461761, "trialdata": {"rt": 916, "stimulus": "<p id='stroop-text' class='stroop-red'>RED</p>", "response": "r", "stimulus-type": "congruent", "word": "red", "color": "red", "correct_response": "r", "trial_id": "stroop-trial-1-congruent-18", "trial_type": "html-keyboard-response", "trial_index": 87, "time_elapsed": 432316, "internal_node_id": "0.0-4.0-83.0"}}, {"uniqueid": "w35007263:a98205172", "current_trial": 88, "dateTime": 1664555463025, "trialdata": {"rt": 753, "stimulus": "<p id='stroop-text' class='stroop-red'>RED</p>", "response": "r", "stimulus-type": "congruent", "word": "red", "color": "red", "correct_response": "r", "trial_id": "stroop-trial-1-congruent-10", "trial_type": "html-keyboard-response", "trial_index": 88, "time_elapsed": 433580, "internal_node_id": "0.0-4.0-84.0"}}, {"uniqueid": "w35007263:a98205172", "current_trial": 89, "dateTime": 1664555464334, "trialdata": {"rt": 795, "stimulus": "<p id='stroop-text' class='stroop-blue'>BOAT</p>", "response": "b", "stimulus-type": "unrelated", "word": "BOAT", "color": "blue", "correct_response": "b", "trial_id": "stroop-trial-1-unrelated-16", "trial_type": "html-keyboard-response", "trial_index": 89, "time_elapsed": 434888, "internal_node_id": "0.0-4.0-85.0"}}, {"uniqueid": "w35007263:a98205172", "current_trial": 90, "dateTime": 1664555466531, "trialdata": {"rt": 1689, "stimulus": "<p id='stroop-text' class='stroop-red'>BOTTLE</p>", "response": "r", "stimulus-type": "unrelated", "word": "BOTTLE", "color": "red", "correct_response": "r", "trial_id": "stroop-trial-1-unrelated-3", "trial_type": "html-keyboard-response", "trial_index": 90, "time_elapsed": 437085, "internal_node_id": "0.0-4.0-86.0"}}, {"uniqueid": "w35007263:a98205172", "current_trial": 91, "dateTime": 1664555467816, "trialdata": {"rt": 775, "stimulus": "<p id='stroop-text' class='stroop-yellow'>YELLOW</p>", "response": "y", "stimulus-type": "congruent", "word": "yellow", "color": "yellow", "correct_response": "y", "trial_id": "stroop-trial-1-congruent-7", "trial_type": "html-keyboard-response", "trial_index": 91, "time_elapsed": 438371, "internal_node_id": "0.0-4.0-87.0"}}, {"uniqueid": "w35007263:a98205172", "current_trial": 92, "dateTime": 1664555469131, "trialdata": {"rt": 803, "stimulus": "<p id='stroop-text' class='stroop-yellow'>RED</p>", "response": "y", "stimulus-type": "incongruent", "word": "red", "color": "yellow", "correct_response": "y", "trial_id": "stroop-trial-1-incongruent-20", "trial_type": "html-keyboard-response", "trial_index": 92, "time_elapsed": 439686, "internal_node_id": "0.0-4.0-88.0"}}, {"uniqueid": "w35007263:a98205172", "current_trial": 93, "dateTime": 1664555470450, "trialdata": {"rt": 814, "stimulus": "<p id='stroop-text' class='stroop-red'>YELLOW</p>", "response": "r", "stimulus-type": "incongruent", "word": "yellow", "color": "red", "correct_response": "r", "trial_id": "stroop-trial-1-incongruent-9", "trial_type": "html-keyboard-response", "trial_index": 93, "time_elapsed": 441005, "internal_node_id": "0.0-4.0-89.0"}}, {"uniqueid": "w35007263:a98205172", "current_trial": 94, "dateTime": 1664555515724, "trialdata": {"rt": 44758, "stimulus": "  <h1> End of block! </h1>\n\n  You have reached the end of the block 1/5. If you need a short break, feel free to take one now before moving on.\n\n  <br><br>\n  In the next block, you will complete another 90 rounds of this game.\n\n  <br><br>\n  <div style='text-align: center;'>Press <code>space</code> to begin.</div>\n  <br><br>\n<div style='text-align: center;'>(If the experiment doesn't continue, try clicking on the text and then pressing <code>space</code>.)</div>", "response": " ", "trial_id": "stroop_1_ready_2", "trial_type": "html-keyboard-response", "trial_index": 94, "time_elapsed": 486279, "internal_node_id": "0.0-5.0"}}, {"uniqueid": "w35007263:a98205172", "current_trial": 95, "dateTime": 1664555516844, "trialdata": {"rt": 1107, "stimulus": "<p id='stroop-text' class='stroop-blue'>GREEN</p>", "response": "b", "stimulus-type": "incongruent", "word": "green", "color": "blue", "correct_response": "b", "trial_id": "stroop-trial-1-incongruent-23", "trial_type": "html-keyboard-response", "trial_index": 95, "time_elapsed": 487398, "internal_node_id": "0.0-6.0-0.0"}}, {"uniqueid": "w35007263:a98205172", "current_trial": 96, "dateTime": 1664555518372, "trialdata": {"rt": 1020, "stimulus": "<p id='stroop-text' class='stroop-green'>GREEN</p>", "response": "g", "stimulus-type": "congruent", "word": "green", "color": "green", "correct_response": "g", "trial_id": "stroop-trial-1-congruent-22", "trial_type": "html-keyboard-response", "trial_index": 96, "time_elapsed": 488927, "internal_node_id": "0.0-6.0-1.0"}}, {"uniqueid": "w35007263:a98205172", "current_trial": 97, "dateTime": 1664555519663, "trialdata": {"rt": 786, "stimulus": "<p id='stroop-text' class='stroop-green'>YELLOW</p>", "response": "g", "stimulus-type": "incongruent", "word": "yellow", "color": "green", "correct_response": "g", "trial_id": "stroop-trial-1-incongruent-8", "trial_type": "html-keyboard-response", "trial_index": 97, "time_elapsed": 490218, "internal_node_id": "0.0-6.0-2.0"}}, {"uniqueid": "w35007263:a98205172", "current_trial": 98, "dateTime": 1664555520955, "trialdata": {"rt": 780, "stimulus": "<p id='stroop-text' class='stroop-yellow'>YELLOW</p>", "response": "y", "stimulus-type": "congruent", "word": "yellow", "color": "yellow", "correct_response": "y", "trial_id": "stroop-trial-1-congruent-4", "trial_type": "html-keyboard-response", "trial_index": 98, "time_elapsed": 491510, "internal_node_id": "0.0-6.0-3.0"}}, {"uniqueid": "w35007263:a98205172", "current_trial": 99, "dateTime": 1664555522138, "trialdata": {"rt": 668, "stimulus": "<p id='stroop-text' class='stroop-red'>BLUE</p>", "response": "r", "stimulus-type": "incongruent", "word": "blue", "color": "red", "correct_response": "r", "trial_id": "stroop-trial-1-incongruent-14", "trial_type": "html-keyboard-response", "trial_index": 99, "time_elapsed": 492693, "internal_node_id": "0.0-6.0-4.0"}}, {"uniqueid": "w35007263:a98205172", "current_trial": 100, "dateTime": 1664555523518, "trialdata": {"rt": 865, "stimulus": "<p id='stroop-text' class='stroop-yellow'>GREEN</p>", "response": "y", "stimulus-type": "incongruent", "word": "green", "color": "yellow", "correct_response": "y", "trial_id": "stroop-trial-1-incongruent-16", "trial_type": "html-keyboard-response", "trial_index": 100, "time_elapsed": 494072, "internal_node_id": "0.0-6.0-5.0"}}, {"uniqueid": "w35007263:a98205172", "current_trial": 101, "dateTime": 1664555524891, "trialdata": {"rt": 859, "stimulus": "<p id='stroop-text' class='stroop-red'>SHIP</p>", "response": "r", "stimulus-type": "unrelated", "word": "SHIP", "color": "red", "correct_response": "r", "trial_id": "stroop-trial-1-unrelated-16", "trial_type": "html-keyboard-response", "trial_index": 101, "time_elapsed": 495446, "internal_node_id": "0.0-6.0-6.0"}}, {"uniqueid": "w35007263:a98205172", "current_trial": 102, "dateTime": 1664555525928, "trialdata": {"rt": 528, "stimulus": "<p id='stroop-text' class='stroop-red'>RED</p>", "response": "r", "stimulus-type": "congruent", "word": "red", "color": "red", "correct_response": "r", "trial_id": "stroop-trial-1-congruent-23", "trial_type": "html-keyboard-response", "trial_index": 102, "time_elapsed": 496482, "internal_node_id": "0.0-6.0-7.0"}}, {"uniqueid": "w35007263:a98205172", "current_trial": 103, "dateTime": 1664555527157, "trialdata": {"rt": 719, "stimulus": "<p id='stroop-text' class='stroop-yellow'>GREEN</p>", "response": "y", "stimulus-type": "incongruent", "word": "green", "color": "yellow", "correct_response": "y", "trial_id": "stroop-trial-1-incongruent-30", "trial_type": "html-keyboard-response", "trial_index": 103, "time_elapsed": 497712, "internal_node_id": "0.0-6.0-8.0"}}, {"uniqueid": "w35007263:a98205172", "current_trial": 104, "dateTime": 1664555529145, "trialdata": {"rt": 1478, "stimulus": "<p id='stroop-text' class='stroop-green'>RED</p>", "response": "g", "stimulus-type": "incongruent", "word": "red", "color": "green", "correct_response": "g", "trial_id": "stroop-trial-1-incongruent-25", "trial_type": "html-keyboard-response", "trial_index": 104, "time_elapsed": 499699, "internal_node_id": "0.0-6.0-9.0"}}, {"uniqueid": "w35007263:a98205172", "current_trial": 105, "dateTime": 1664555530335, "trialdata": {"rt": 676, "stimulus": "<p id='stroop-text' class='stroop-yellow'>YELLOW</p>", "response": "y", "stimulus-type": "congruent", "word": "yellow", "color": "yellow", "correct_response": "y", "trial_id": "stroop-trial-1-congruent-19", "trial_type": "html-keyboard-response", "trial_index": 105, "time_elapsed": 500890, "internal_node_id": "0.0-6.0-10.0"}}, {"uniqueid": "w35007263:a98205172", "current_trial": 106, "dateTime": 1664555531848, "trialdata": {"rt": 1002, "stimulus": "<p id='stroop-text' class='stroop-green'>GREEN</p>", "response": "g", "stimulus-type": "congruent", "word": "green", "color": "green", "correct_response": "g", "trial_id": "stroop-trial-1-congruent-5", "trial_type": "html-keyboard-response", "trial_index": 106, "time_elapsed": 502402, "internal_node_id": "0.0-6.0-11.0"}}, {"uniqueid": "w35007263:a98205172", "current_trial": 107, "dateTime": 1664555533166, "trialdata": {"rt": 802, "stimulus": "<p id='stroop-text' class='stroop-yellow'>YELLOW</p>", "response": "y", "stimulus-type": "congruent", "word": "yellow", "color": "yellow", "correct_response": "y", "trial_id": "stroop-trial-1-congruent-28", "trial_type": "html-keyboard-response", "trial_index": 107, "time_elapsed": 503720, "internal_node_id": "0.0-6.0-12.0"}}, {"uniqueid": "w35007263:a98205172", "current_trial": 108, "dateTime": 1664555534324, "trialdata": {"rt": 644, "stimulus": "<p id='stroop-text' class='stroop-red'>GREEN</p>", "response": "r", "stimulus-type": "incongruent", "word": "green", "color": "red", "correct_response": "r", "trial_id": "stroop-trial-1-incongruent-9", "trial_type": "html-keyboard-response", "trial_index": 108, "time_elapsed": 504878, "internal_node_id": "0.0-6.0-13.0"}}, {"uniqueid": "w35007263:a98205172", "current_trial": 109, "dateTime": 1664555535538, "trialdata": {"rt": 703, "stimulus": "<p id='stroop-text' class='stroop-red'>BOTTLE</p>", "response": "r", "stimulus-type": "unrelated", "word": "BOTTLE", "color": "red", "correct_response": "r", "trial_id": "stroop-trial-1-unrelated-9", "trial_type": "html-keyboard-response", "trial_index": 109, "time_elapsed": 506092, "internal_node_id": "0.0-6.0-14.0"}}, {"uniqueid": "w35007263:a98205172", "current_trial": 110, "dateTime": 1664555536683, "trialdata": {"rt": 623, "stimulus": "<p id='stroop-text' class='stroop-red'>RED</p>", "response": "r", "stimulus-type": "congruent", "word": "red", "color": "red", "correct_response": "r", "trial_id": "stroop-trial-1-congruent-30", "trial_type": "html-keyboard-response", "trial_index": 110, "time_elapsed": 507237, "internal_node_id": "0.0-6.0-15.0"}}, {"uniqueid": "w35007263:a98205172", "current_trial": 111, "dateTime": 1664555538026, "trialdata": {"rt": 815, "stimulus": "<p id='stroop-text' class='stroop-yellow'>YELLOW</p>", "response": "y", "stimulus-type": "congruent", "word": "yellow", "color": "yellow", "correct_response": "y", "trial_id": "stroop-trial-1-congruent-8", "trial_type": "html-keyboard-response", "trial_index": 111, "time_elapsed": 508580, "internal_node_id": "0.0-6.0-16.0"}}, {"uniqueid": "w35007263:a98205172", "current_trial": 112, "dateTime": 1664555539560, "trialdata": {"rt": 1020, "stimulus": "<p id='stroop-text' class='stroop-blue'>BOTTLE</p>", "response": "b", "stimulus-type": "unrelated", "word": "BOTTLE", "color": "blue", "correct_response": "b", "trial_id": "stroop-trial-1-unrelated-13", "trial_type": "html-keyboard-response", "trial_index": 112, "time_elapsed": 510114, "internal_node_id": "0.0-6.0-17.0"}}, {"uniqueid": "w35007263:a98205172", "current_trial": 113, "dateTime": 1664555540824, "trialdata": {"rt": 749, "stimulus": "<p id='stroop-text' class='stroop-yellow'>SHIP</p>", "response": "y", "stimulus-type": "unrelated", "word": "SHIP", "color": "yellow", "correct_response": "y", "trial_id": "stroop-trial-1-unrelated-26", "trial_type": "html-keyboard-response", "trial_index": 113, "time_elapsed": 511378, "internal_node_id": "0.0-6.0-18.0"}}, {"uniqueid": "w35007263:a98205172", "current_trial": 114, "dateTime": 1664555542284, "trialdata": {"rt": 945, "stimulus": "<p id='stroop-text' class='stroop-red'>CHAIR</p>", "response": "r", "stimulus-type": "unrelated", "word": "CHAIR", "color": "red", "correct_response": "r", "trial_id": "stroop-trial-1-unrelated-28", "trial_type": "html-keyboard-response", "trial_index": 114, "time_elapsed": 512838, "internal_node_id": "0.0-6.0-19.0"}}, {"uniqueid": "w35007263:a98205172", "current_trial": 115, "dateTime": 1664555543735, "trialdata": {"rt": 936, "stimulus": "<p id='stroop-text' class='stroop-yellow'>RED</p>", "response": "y", "stimulus-type": "incongruent", "word": "red", "color": "yellow", "correct_response": "y", "trial_id": "stroop-trial-1-incongruent-26", "trial_type": "html-keyboard-response", "trial_index": 115, "time_elapsed": 514289, "internal_node_id": "0.0-6.0-20.0"}}, {"uniqueid": "w35007263:a98205172", "current_trial": 116, "dateTime": 1664555545690, "trialdata": {"rt": 1443, "stimulus": "<p id='stroop-text' class='stroop-red'>GREEN</p>", "response": "r", "stimulus-type": "incongruent", "word": "green", "color": "red", "correct_response": "r", "trial_id": "stroop-trial-1-incongruent-3", "trial_type": "html-keyboard-response", "trial_index": 116, "time_elapsed": 516244, "internal_node_id": "0.0-6.0-21.0"}}, {"uniqueid": "w35007263:a98205172", "current_trial": 117, "dateTime": 1664555547075, "trialdata": {"rt": 867, "stimulus": "<p id='stroop-text' class='stroop-yellow'>BLUE</p>", "response": "y", "stimulus-type": "incongruent", "word": "blue", "color": "yellow", "correct_response": "y", "trial_id": "stroop-trial-1-incongruent-15", "trial_type": "html-keyboard-response", "trial_index": 117, "time_elapsed": 517629, "internal_node_id": "0.0-6.0-22.0"}}, {"uniqueid": "w35007263:a98205172", "current_trial": 118, "dateTime": 1664555548573, "trialdata": {"rt": 984, "stimulus": "<p id='stroop-text' class='stroop-green'>BOAT</p>", "response": "g", "stimulus-type": "unrelated", "word": "BOAT", "color": "green", "correct_response": "g", "trial_id": "stroop-trial-1-unrelated-1", "trial_type": "html-keyboard-response", "trial_index": 118, "time_elapsed": 519128, "internal_node_id": "0.0-6.0-23.0"}}, {"uniqueid": "w35007263:a98205172", "current_trial": 119, "dateTime": 1664555549832, "trialdata": {"rt": 747, "stimulus": "<p id='stroop-text' class='stroop-blue'>GREEN</p>", "response": "b", "stimulus-type": "incongruent", "word": "green", "color": "blue", "correct_response": "b", "trial_id": "stroop-trial-1-incongruent-6", "trial_type": "html-keyboard-response", "trial_index": 119, "time_elapsed": 520387, "internal_node_id": "0.0-6.0-24.0"}}, {"uniqueid": "w35007263:a98205172", "current_trial": 120, "dateTime": 1664555551060, "trialdata": {"rt": 717, "stimulus": "<p id='stroop-text' class='stroop-blue'>STONE</p>", "response": "b", "stimulus-type": "unrelated", "word": "STONE", "color": "blue", "correct_response": "b", "trial_id": "stroop-trial-1-unrelated-8", "trial_type": "html-keyboard-response", "trial_index": 120, "time_elapsed": 521614, "internal_node_id": "0.0-6.0-25.0"}}, {"uniqueid": "w35007263:a98205172", "current_trial": 121, "dateTime": 1664555552378, "trialdata": {"rt": 808, "stimulus": "<p id='stroop-text' class='stroop-green'>YELLOW</p>", "response": "g", "stimulus-type": "incongruent", "word": "yellow", "color": "green", "correct_response": "g", "trial_id": "stroop-trial-1-incongruent-18", "trial_type": "html-keyboard-response", "trial_index": 121, "time_elapsed": 522932, "internal_node_id": "0.0-6.0-26.0"}}, {"uniqueid": "w35007263:a98205172", "current_trial": 122, "dateTime": 1664555554016, "trialdata": {"rt": 1115, "stimulus": "<p id='stroop-text' class='stroop-red'>YELLOW</p>", "response": "r", "stimulus-type": "incongruent", "word": "yellow", "color": "red", "correct_response": "r", "trial_id": "stroop-trial-1-incongruent-2", "trial_type": "html-keyboard-response", "trial_index": 122, "time_elapsed": 524570, "internal_node_id": "0.0-6.0-27.0"}}, {"uniqueid": "w35007263:a98205172", "current_trial": 123, "dateTime": 1664555556178, "trialdata": {"rt": 1651, "stimulus": "<p id='stroop-text' class='stroop-yellow'>YELLOW</p>", "response": "y", "stimulus-type": "congruent", "word": "yellow", "color": "yellow", "correct_response": "y", "trial_id": "stroop-trial-1-congruent-25", "trial_type": "html-keyboard-response", "trial_index": 123, "time_elapsed": 526732, "internal_node_id": "0.0-6.0-28.0"}}, {"uniqueid": "w35007263:a98205172", "current_trial": 124, "dateTime": 1664555557721, "trialdata": {"rt": 1022, "stimulus": "<p id='stroop-text' class='stroop-blue'>BLUE</p>", "response": "b", "stimulus-type": "congruent", "word": "blue", "color": "blue", "correct_response": "b", "trial_id": "stroop-trial-1-congruent-12", "trial_type": "html-keyboard-response", "trial_index": 124, "time_elapsed": 528274, "internal_node_id": "0.0-6.0-29.0"}}, {"uniqueid": "w35007263:a98205172", "current_trial": 125, "dateTime": 1664555559987, "trialdata": {"rt": 1747, "stimulus": "<p id='stroop-text' class='stroop-yellow'>RED</p>", "response": "y", "stimulus-type": "incongruent", "word": "red", "color": "yellow", "correct_response": "y", "trial_id": "stroop-trial-1-incongruent-12", "trial_type": "html-keyboard-response", "trial_index": 125, "time_elapsed": 530541, "internal_node_id": "0.0-6.0-30.0"}}, {"uniqueid": "w35007263:a98205172", "current_trial": 126, "dateTime": 1664555561390, "trialdata": {"rt": 894, "stimulus": "<p id='stroop-text' class='stroop-blue'>BLUE</p>", "response": "b", "stimulus-type": "congruent", "word": "blue", "color": "blue", "correct_response": "b", "trial_id": "stroop-trial-1-congruent-7", "trial_type": "html-keyboard-response", "trial_index": 126, "time_elapsed": 531944, "internal_node_id": "0.0-6.0-31.0"}}, {"uniqueid": "w35007263:a98205172", "current_trial": 127, "dateTime": 1664555562540, "trialdata": {"rt": 640, "stimulus": "<p id='stroop-text' class='stroop-blue'>YELLOW</p>", "response": "b", "stimulus-type": "incongruent", "word": "yellow", "color": "blue", "correct_response": "b", "trial_id": "stroop-trial-1-incongruent-22", "trial_type": "html-keyboard-response", "trial_index": 127, "time_elapsed": 533094, "internal_node_id": "0.0-6.0-32.0"}}, {"uniqueid": "w35007263:a98205172", "current_trial": 128, "dateTime": 1664555563555, "trialdata": {"rt": 501, "stimulus": "<p id='stroop-text' class='stroop-blue'>BLUE</p>", "response": "b", "stimulus-type": "congruent", "word": "blue", "color": "blue", "correct_response": "b", "trial_id": "stroop-trial-1-congruent-3", "trial_type": "html-keyboard-response", "trial_index": 128, "time_elapsed": 534109, "internal_node_id": "0.0-6.0-33.0"}}, {"uniqueid": "w35007263:a98205172", "current_trial": 129, "dateTime": 1664555564815, "trialdata": {"rt": 736, "stimulus": "<p id='stroop-text' class='stroop-green'>BOTTLE</p>", "response": "g", "stimulus-type": "unrelated", "word": "BOTTLE", "color": "green", "correct_response": "g", "trial_id": "stroop-trial-1-unrelated-29", "trial_type": "html-keyboard-response", "trial_index": 129, "time_elapsed": 535369, "internal_node_id": "0.0-6.0-34.0"}}, {"uniqueid": "w35007263:a98205172", "current_trial": 130, "dateTime": 1664555566070, "trialdata": {"rt": 746, "stimulus": "<p id='stroop-text' class='stroop-yellow'>CHAIR</p>", "response": "y", "stimulus-type": "unrelated", "word": "CHAIR", "color": "yellow", "correct_response": "y", "trial_id": "stroop-trial-1-unrelated-7", "trial_type": "html-keyboard-response", "trial_index": 130, "time_elapsed": 536624, "internal_node_id": "0.0-6.0-35.0"}}, {"uniqueid": "w35007263:a98205172", "current_trial": 131, "dateTime": 1664555567351, "trialdata": {"rt": 771, "stimulus": "<p id='stroop-text' class='stroop-green'>DOG</p>", "response": "g", "stimulus-type": "unrelated", "word": "DOG", "color": "green", "correct_response": "g", "trial_id": "stroop-trial-1-unrelated-18", "trial_type": "html-keyboard-response", "trial_index": 131, "time_elapsed": 537906, "internal_node_id": "0.0-6.0-36.0"}}, {"uniqueid": "w35007263:a98205172", "current_trial": 132, "dateTime": 1664555568852, "trialdata": {"rt": 989, "stimulus": "<p id='stroop-text' class='stroop-green'>GREEN</p>", "response": "g", "stimulus-type": "congruent", "word": "green", "color": "green", "correct_response": "g", "trial_id": "stroop-trial-1-congruent-20", "trial_type": "html-keyboard-response", "trial_index": 132, "time_elapsed": 539406, "internal_node_id": "0.0-6.0-37.0"}}, {"uniqueid": "w35007263:a98205172", "current_trial": 133, "dateTime": 1664555570214, "trialdata": {"rt": 840, "stimulus": "<p id='stroop-text' class='stroop-blue'>BLUE</p>", "response": "b", "stimulus-type": "congruent", "word": "blue", "color": "blue", "correct_response": "b", "trial_id": "stroop-trial-1-congruent-24", "trial_type": "html-keyboard-response", "trial_index": 133, "time_elapsed": 540768, "internal_node_id": "0.0-6.0-38.0"}}, {"uniqueid": "w35007263:a98205172", "current_trial": 134, "dateTime": 1664555571231, "trialdata": {"rt": 511, "stimulus": "<p id='stroop-text' class='stroop-blue'>STONE</p>", "response": "b", "stimulus-type": "unrelated", "word": "STONE", "color": "blue", "correct_response": "b", "trial_id": "stroop-trial-1-unrelated-19", "trial_type": "html-keyboard-response", "trial_index": 134, "time_elapsed": 541786, "internal_node_id": "0.0-6.0-39.0"}}, {"uniqueid": "w35007263:a98205172", "current_trial": 135, "dateTime": 1664555572672, "trialdata": {"rt": 930, "stimulus": "<p id='stroop-text' class='stroop-green'>BRIDGE</p>", "response": "g", "stimulus-type": "unrelated", "word": "BRIDGE", "color": "green", "correct_response": "g", "trial_id": "stroop-trial-1-unrelated-25", "trial_type": "html-keyboard-response", "trial_index": 135, "time_elapsed": 543226, "internal_node_id": "0.0-6.0-40.0"}}, {"uniqueid": "w35007263:a98205172", "current_trial": 136, "dateTime": 1664555574030, "trialdata": {"rt": 841, "stimulus": "<p id='stroop-text' class='stroop-yellow'>GREEN</p>", "response": "y", "stimulus-type": "incongruent", "word": "green", "color": "yellow", "correct_response": "y", "trial_id": "stroop-trial-1-incongruent-29", "trial_type": "html-keyboard-response", "trial_index": 136, "time_elapsed": 544584, "internal_node_id": "0.0-6.0-41.0"}}, {"uniqueid": "w35007263:a98205172", "current_trial": 137, "dateTime": 1664555575532, "trialdata": {"rt": 984, "stimulus": "<p id='stroop-text' class='stroop-red'>STONE</p>", "response": "r", "stimulus-type": "unrelated", "word": "STONE", "color": "red", "correct_response": "r", "trial_id": "stroop-trial-1-unrelated-30", "trial_type": "html-keyboard-response", "trial_index": 137, "time_elapsed": 546086, "internal_node_id": "0.0-6.0-42.0"}}, {"uniqueid": "w35007263:a98205172", "current_trial": 138, "dateTime": 1664555576811, "trialdata": {"rt": 761, "stimulus": "<p id='stroop-text' class='stroop-blue'>BLUE</p>", "response": "b", "stimulus-type": "congruent", "word": "blue", "color": "blue", "correct_response": "b", "trial_id": "stroop-trial-1-congruent-2", "trial_type": "html-keyboard-response", "trial_index": 138, "time_elapsed": 547366, "internal_node_id": "0.0-6.0-43.0"}}, {"uniqueid": "w35007263:a98205172", "current_trial": 139, "dateTime": 1664555578052, "trialdata": {"rt": 724, "stimulus": "<p id='stroop-text' class='stroop-yellow'>YELLOW</p>", "response": "y", "stimulus-type": "congruent", "word": "yellow", "color": "yellow", "correct_response": "y", "trial_id": "stroop-trial-1-congruent-27", "trial_type": "html-keyboard-response", "trial_index": 139, "time_elapsed": 548606, "internal_node_id": "0.0-6.0-44.0"}}, {"uniqueid": "w35007263:a98205172", "current_trial": 140, "dateTime": 1664555579315, "trialdata": {"rt": 752, "stimulus": "<p id='stroop-text' class='stroop-blue'>BLUE</p>", "response": "b", "stimulus-type": "congruent", "word": "blue", "color": "blue", "correct_response": "b", "trial_id": "stroop-trial-1-congruent-11", "trial_type": "html-keyboard-response", "trial_index": 140, "time_elapsed": 549869, "internal_node_id": "0.0-6.0-45.0"}}, {"uniqueid": "w35007263:a98205172", "current_trial": 141, "dateTime": 1664555580557, "trialdata": {"rt": 728, "stimulus": "<p id='stroop-text' class='stroop-blue'>BLUE</p>", "response": "b", "stimulus-type": "congruent", "word": "blue", "color": "blue", "correct_response": "b", "trial_id": "stroop-trial-1-congruent-6", "trial_type": "html-keyboard-response", "trial_index": 141, "time_elapsed": 551111, "internal_node_id": "0.0-6.0-46.0"}}, {"uniqueid": "w35007263:a98205172", "current_trial": 142, "dateTime": 1664555581985, "trialdata": {"rt": 917, "stimulus": "<p id='stroop-text' class='stroop-red'>GREEN</p>", "response": "g", "stimulus-type": "incongruent", "word": "green", "color": "red", "correct_response": "r", "trial_id": "stroop-trial-1-incongruent-17", "trial_type": "html-keyboard-response", "trial_index": 142, "time_elapsed": 552540, "internal_node_id": "0.0-6.0-47.0"}}, {"uniqueid": "w35007263:a98205172", "current_trial": 143, "dateTime": 1664555584543, "trialdata": {"rt": 2043, "stimulus": "<p id='stroop-text' class='stroop-green'>YELLOW</p>", "response": "g", "stimulus-type": "incongruent", "word": "yellow", "color": "green", "correct_response": "g", "trial_id": "stroop-trial-1-incongruent-10", "trial_type": "html-keyboard-response", "trial_index": 143, "time_elapsed": 555097, "internal_node_id": "0.0-6.0-48.0"}}, {"uniqueid": "w35007263:a98205172", "current_trial": 144, "dateTime": 1664555586129, "trialdata": {"rt": 1057, "stimulus": "<p id='stroop-text' class='stroop-red'>SHIP</p>", "response": "r", "stimulus-type": "unrelated", "word": "SHIP", "color": "red", "correct_response": "r", "trial_id": "stroop-trial-1-unrelated-10", "trial_type": "html-keyboard-response", "trial_index": 144, "time_elapsed": 556683, "internal_node_id": "0.0-6.0-49.0"}}, {"uniqueid": "w35007263:a98205172", "current_trial": 145, "dateTime": 1664555587921, "trialdata": {"rt": 1278, "stimulus": "<p id='stroop-text' class='stroop-yellow'>SHIP</p>", "response": "y", "stimulus-type": "unrelated", "word": "SHIP", "color": "yellow", "correct_response": "y", "trial_id": "stroop-trial-1-unrelated-20", "trial_type": "html-keyboard-response", "trial_index": 145, "time_elapsed": 558475, "internal_node_id": "0.0-6.0-50.0"}}, {"uniqueid": "w35007263:a98205172", "current_trial": 146, "dateTime": 1664555589186, "trialdata": {"rt": 746, "stimulus": "<p id='stroop-text' class='stroop-yellow'>GREEN</p>", "response": "y", "stimulus-type": "incongruent", "word": "green", "color": "yellow", "correct_response": "y", "trial_id": "stroop-trial-1-incongruent-21", "trial_type": "html-keyboard-response", "trial_index": 146, "time_elapsed": 559740, "internal_node_id": "0.0-6.0-51.0"}}, {"uniqueid": "w35007263:a98205172", "current_trial": 147, "dateTime": 1664555590421, "trialdata": {"rt": 720, "stimulus": "<p id='stroop-text' class='stroop-yellow'>BLUE</p>", "response": "y", "stimulus-type": "incongruent", "word": "blue", "color": "yellow", "correct_response": "y", "trial_id": "stroop-trial-1-incongruent-1", "trial_type": "html-keyboard-response", "trial_index": 147, "time_elapsed": 560975, "internal_node_id": "0.0-6.0-52.0"}}, {"uniqueid": "w35007263:a98205172", "current_trial": 148, "dateTime": 1664555591749, "trialdata": {"rt": 812, "stimulus": "<p id='stroop-text' class='stroop-blue'>YELLOW</p>", "response": "b", "stimulus-type": "incongruent", "word": "yellow", "color": "blue", "correct_response": "b", "trial_id": "stroop-trial-1-incongruent-11", "trial_type": "html-keyboard-response", "trial_index": 148, "time_elapsed": 562303, "internal_node_id": "0.0-6.0-53.0"}}, {"uniqueid": "w35007263:a98205172", "current_trial": 149, "dateTime": 1664555593739, "trialdata": {"rt": 1481, "stimulus": "<p id='stroop-text' class='stroop-yellow'>GREEN</p>", "response": "y", "stimulus-type": "incongruent", "word": "green", "color": "yellow", "correct_response": "y", "trial_id": "stroop-trial-1-incongruent-5", "trial_type": "html-keyboard-response", "trial_index": 149, "time_elapsed": 564294, "internal_node_id": "0.0-6.0-54.0"}}, {"uniqueid": "w35007263:a98205172", "current_trial": 150, "dateTime": 1664555595039, "trialdata": {"rt": 780, "stimulus": "<p id='stroop-text' class='stroop-red'>GREEN</p>", "response": "r", "stimulus-type": "incongruent", "word": "green", "color": "red", "correct_response": "r", "trial_id": "stroop-trial-1-incongruent-28", "trial_type": "html-keyboard-response", "trial_index": 150, "time_elapsed": 565593, "internal_node_id": "0.0-6.0-55.0"}}, {"uniqueid": "w35007263:a98205172", "current_trial": 151, "dateTime": 1664555596323, "trialdata": {"rt": 764, "stimulus": "<p id='stroop-text' class='stroop-red'>YELLOW</p>", "response": "r", "stimulus-type": "incongruent", "word": "yellow", "color": "red", "correct_response": "r", "trial_id": "stroop-trial-1-incongruent-24", "trial_type": "html-keyboard-response", "trial_index": 151, "time_elapsed": 566878, "internal_node_id": "0.0-6.0-56.0"}}, {"uniqueid": "w35007263:a98205172", "current_trial": 152, "dateTime": 1664555597444, "trialdata": {"rt": 594, "stimulus": "<p id='stroop-text' class='stroop-red'>RED</p>", "response": "r", "stimulus-type": "congruent", "word": "red", "color": "red", "correct_response": "r", "trial_id": "stroop-trial-1-congruent-29", "trial_type": "html-keyboard-response", "trial_index": 152, "time_elapsed": 567998, "internal_node_id": "0.0-6.0-57.0"}}, {"uniqueid": "w35007263:a98205172", "current_trial": 153, "dateTime": 1664555599233, "trialdata": {"rt": 1262, "stimulus": "<p id='stroop-text' class='stroop-yellow'>BLUE</p>", "response": "y", "stimulus-type": "incongruent", "word": "blue", "color": "yellow", "correct_response": "y", "trial_id": "stroop-trial-1-incongruent-13", "trial_type": "html-keyboard-response", "trial_index": 153, "time_elapsed": 569787, "internal_node_id": "0.0-6.0-58.0"}}, {"uniqueid": "w35007263:a98205172", "current_trial": 154, "dateTime": 1664555601485, "trialdata": {"rt": 1733, "stimulus": "<p id='stroop-text' class='stroop-yellow'>BOAT</p>", "response": "y", "stimulus-type": "unrelated", "word": "BOAT", "color": "yellow", "correct_response": "y", "trial_id": "stroop-trial-1-unrelated-15", "trial_type": "html-keyboard-response", "trial_index": 154, "time_elapsed": 572040, "internal_node_id": "0.0-6.0-59.0"}}, {"uniqueid": "w35007263:a98205172", "current_trial": 155, "dateTime": 1664555602795, "trialdata": {"rt": 798, "stimulus": "<p id='stroop-text' class='stroop-green'>CHAIR</p>", "response": "g", "stimulus-type": "unrelated", "word": "CHAIR", "color": "green", "correct_response": "g", "trial_id": "stroop-trial-1-unrelated-24", "trial_type": "html-keyboard-response", "trial_index": 155, "time_elapsed": 573349, "internal_node_id": "0.0-6.0-60.0"}}, {"uniqueid": "w35007263:a98205172", "current_trial": 156, "dateTime": 1664555604182, "trialdata": {"rt": 874, "stimulus": "<p id='stroop-text' class='stroop-yellow'>YELLOW</p>", "response": "y", "stimulus-type": "congruent", "word": "yellow", "color": "yellow", "correct_response": "y", "trial_id": "stroop-trial-1-congruent-14", "trial_type": "html-keyboard-response", "trial_index": 156, "time_elapsed": 574736, "internal_node_id": "0.0-6.0-61.0"}}, {"uniqueid": "w35007263:a98205172", "current_trial": 157, "dateTime": 1664555605451, "trialdata": {"rt": 752, "stimulus": "<p id='stroop-text' class='stroop-red'>RED</p>", "response": "r", "stimulus-type": "congruent", "word": "red", "color": "red", "correct_response": "r", "trial_id": "stroop-trial-1-congruent-26", "trial_type": "html-keyboard-response", "trial_index": 157, "time_elapsed": 576005, "internal_node_id": "0.0-6.0-62.0"}}, {"uniqueid": "w35007263:a98205172", "current_trial": 158, "dateTime": 1664555606740, "trialdata": {"rt": 764, "stimulus": "<p id='stroop-text' class='stroop-blue'>BLUE</p>", "response": "b", "stimulus-type": "congruent", "word": "blue", "color": "blue", "correct_response": "b", "trial_id": "stroop-trial-1-congruent-21", "trial_type": "html-keyboard-response", "trial_index": 158, "time_elapsed": 577294, "internal_node_id": "0.0-6.0-63.0"}}, {"uniqueid": "w35007263:a98205172", "current_trial": 159, "dateTime": 1664555607994, "trialdata": {"rt": 739, "stimulus": "<p id='stroop-text' class='stroop-yellow'>MONKEY</p>", "response": "y", "stimulus-type": "unrelated", "word": "MONKEY", "color": "yellow", "correct_response": "y", "trial_id": "stroop-trial-1-unrelated-22", "trial_type": "html-keyboard-response", "trial_index": 159, "time_elapsed": 578548, "internal_node_id": "0.0-6.0-64.0"}}, {"uniqueid": "w35007263:a98205172", "current_trial": 160, "dateTime": 1664555609479, "trialdata": {"rt": 956, "stimulus": "<p id='stroop-text' class='stroop-green'>CHAIR</p>", "response": "g", "stimulus-type": "unrelated", "word": "CHAIR", "color": "green", "correct_response": "g", "trial_id": "stroop-trial-1-unrelated-12", "trial_type": "html-keyboard-response", "trial_index": 160, "time_elapsed": 580034, "internal_node_id": "0.0-6.0-65.0"}}, {"uniqueid": "w35007263:a98205172", "current_trial": 161, "dateTime": 1664555610745, "trialdata": {"rt": 747, "stimulus": "<p id='stroop-text' class='stroop-green'>YELLOW</p>", "response": "g", "stimulus-type": "incongruent", "word": "yellow", "color": "green", "correct_response": "g", "trial_id": "stroop-trial-1-incongruent-27", "trial_type": "html-keyboard-response", "trial_index": 161, "time_elapsed": 581299, "internal_node_id": "0.0-6.0-66.0"}}, {"uniqueid": "w35007263:a98205172", "current_trial": 162, "dateTime": 1664555611934, "trialdata": {"rt": 673, "stimulus": "<p id='stroop-text' class='stroop-red'>FORK</p>", "response": "r", "stimulus-type": "unrelated", "word": "FORK", "color": "red", "correct_response": "r", "trial_id": "stroop-trial-1-unrelated-2", "trial_type": "html-keyboard-response", "trial_index": 162, "time_elapsed": 582489, "internal_node_id": "0.0-6.0-67.0"}}, {"uniqueid": "w35007263:a98205172", "current_trial": 163, "dateTime": 1664555613133, "trialdata": {"rt": 681, "stimulus": "<p id='stroop-text' class='stroop-red'>CHAIR</p>", "response": "r", "stimulus-type": "unrelated", "word": "CHAIR", "color": "red", "correct_response": "r", "trial_id": "stroop-trial-1-unrelated-4", "trial_type": "html-keyboard-response", "trial_index": 163, "time_elapsed": 583687, "internal_node_id": "0.0-6.0-68.0"}}, {"uniqueid": "w35007263:a98205172", "current_trial": 164, "dateTime": 1664555614166, "trialdata": {"rt": 520, "stimulus": "<p id='stroop-text' class='stroop-blue'>RED</p>", "response": "b", "stimulus-type": "incongruent", "word": "red", "color": "blue", "correct_response": "b", "trial_id": "stroop-trial-1-incongruent-7", "trial_type": "html-keyboard-response", "trial_index": 164, "time_elapsed": 584721, "internal_node_id": "0.0-6.0-69.0"}}, {"uniqueid": "w35007263:a98205172", "current_trial": 165, "dateTime": 1664555615265, "trialdata": {"rt": 592, "stimulus": "<p id='stroop-text' class='stroop-yellow'>YELLOW</p>", "response": "y", "stimulus-type": "congruent", "word": "yellow", "color": "yellow", "correct_response": "y", "trial_id": "stroop-trial-1-congruent-15", "trial_type": "html-keyboard-response", "trial_index": 165, "time_elapsed": 585819, "internal_node_id": "0.0-6.0-70.0"}}, {"uniqueid": "w35007263:a98205172", "current_trial": 166, "dateTime": 1664555616567, "trialdata": {"rt": 785, "stimulus": "<p id='stroop-text' class='stroop-green'>GREEN</p>", "response": "g", "stimulus-type": "congruent", "word": "green", "color": "green", "correct_response": "g", "trial_id": "stroop-trial-1-congruent-16", "trial_type": "html-keyboard-response", "trial_index": 166, "time_elapsed": 587121, "internal_node_id": "0.0-6.0-71.0"}}, {"uniqueid": "w35007263:a98205172", "current_trial": 167, "dateTime": 1664555617907, "trialdata": {"rt": 824, "stimulus": "<p id='stroop-text' class='stroop-blue'>BLUE</p>", "response": "b", "stimulus-type": "congruent", "word": "blue", "color": "blue", "correct_response": "b", "trial_id": "stroop-trial-1-congruent-9", "trial_type": "html-keyboard-response", "trial_index": 167, "time_elapsed": 588461, "internal_node_id": "0.0-6.0-72.0"}}, {"uniqueid": "w35007263:a98205172", "current_trial": 168, "dateTime": 1664555619016, "trialdata": {"rt": 590, "stimulus": "<p id='stroop-text' class='stroop-blue'>BLUE</p>", "response": "b", "stimulus-type": "congruent", "word": "blue", "color": "blue", "correct_response": "b", "trial_id": "stroop-trial-1-congruent-18", "trial_type": "html-keyboard-response", "trial_index": 168, "time_elapsed": 589570, "internal_node_id": "0.0-6.0-73.0"}}, {"uniqueid": "w35007263:a98205172", "current_trial": 169, "dateTime": 1664555620113, "trialdata": {"rt": 568, "stimulus": "<p id='stroop-text' class='stroop-blue'>GREEN</p>", "response": "b", "stimulus-type": "incongruent", "word": "green", "color": "blue", "correct_response": "b", "trial_id": "stroop-trial-1-incongruent-20", "trial_type": "html-keyboard-response", "trial_index": 169, "time_elapsed": 590667, "internal_node_id": "0.0-6.0-74.0"}}, {"uniqueid": "w35007263:a98205172", "current_trial": 170, "dateTime": 1664555621417, "trialdata": {"rt": 791, "stimulus": "<p id='stroop-text' class='stroop-green'>FORK</p>", "response": "g", "stimulus-type": "unrelated", "word": "FORK", "color": "green", "correct_response": "g", "trial_id": "stroop-trial-1-unrelated-11", "trial_type": "html-keyboard-response", "trial_index": 170, "time_elapsed": 591972, "internal_node_id": "0.0-6.0-75.0"}}, {"uniqueid": "w35007263:a98205172", "current_trial": 171, "dateTime": 1664555622614, "trialdata": {"rt": 690, "stimulus": "<p id='stroop-text' class='stroop-blue'>BOAT</p>", "response": "g", "stimulus-type": "unrelated", "word": "BOAT", "color": "blue", "correct_response": "b", "trial_id": "stroop-trial-1-unrelated-6", "trial_type": "html-keyboard-response", "trial_index": 171, "time_elapsed": 593168, "internal_node_id": "0.0-6.0-76.0"}}, {"uniqueid": "w35007263:a98205172", "current_trial": 172, "dateTime": 1664555624430, "trialdata": {"rt": 1307, "stimulus": "<p id='stroop-text' class='stroop-blue'>WINDOW</p>", "response": "b", "stimulus-type": "unrelated", "word": "WINDOW", "color": "blue", "correct_response": "b", "trial_id": "stroop-trial-1-unrelated-17", "trial_type": "html-keyboard-response", "trial_index": 172, "time_elapsed": 594984, "internal_node_id": "0.0-6.0-77.0"}}, {"uniqueid": "w35007263:a98205172", "current_trial": 173, "dateTime": 1664555625954, "trialdata": {"rt": 1012, "stimulus": "<p id='stroop-text' class='stroop-green'>YELLOW</p>", "response": "y", "stimulus-type": "incongruent", "word": "yellow", "color": "green", "correct_response": "g", "trial_id": "stroop-trial-1-incongruent-19", "trial_type": "html-keyboard-response", "trial_index": 173, "time_elapsed": 596508, "internal_node_id": "0.0-6.0-78.0"}}, {"uniqueid": "w35007263:a98205172", "current_trial": 174, "dateTime": 1664555628269, "trialdata": {"rt": 1803, "stimulus": "<p id='stroop-text' class='stroop-green'>WINDOW</p>", "response": "g", "stimulus-type": "unrelated", "word": "WINDOW", "color": "green", "correct_response": "g", "trial_id": "stroop-trial-1-unrelated-14", "trial_type": "html-keyboard-response", "trial_index": 174, "time_elapsed": 598824, "internal_node_id": "0.0-6.0-79.0"}}, {"uniqueid": "w35007263:a98205172", "current_trial": 175, "dateTime": 1664555629773, "trialdata": {"rt": 990, "stimulus": "<p id='stroop-text' class='stroop-blue'>BLUE</p>", "response": "b", "stimulus-type": "congruent", "word": "blue", "color": "blue", "correct_response": "b", "trial_id": "stroop-trial-1-congruent-10", "trial_type": "html-keyboard-response", "trial_index": 175, "time_elapsed": 600328, "internal_node_id": "0.0-6.0-80.0"}}, {"uniqueid": "w35007263:a98205172", "current_trial": 176, "dateTime": 1664555631473, "trialdata": {"rt": 1192, "stimulus": "<p id='stroop-text' class='stroop-green'>GREEN</p>", "response": "g", "stimulus-type": "congruent", "word": "green", "color": "green", "correct_response": "g", "trial_id": "stroop-trial-1-congruent-17", "trial_type": "html-keyboard-response", "trial_index": 176, "time_elapsed": 602027, "internal_node_id": "0.0-6.0-81.0"}}, {"uniqueid": "w35007263:a98205172", "current_trial": 177, "dateTime": 1664555632916, "trialdata": {"rt": 921, "stimulus": "<p id='stroop-text' class='stroop-yellow'>YELLOW</p>", "response": "y", "stimulus-type": "congruent", "word": "yellow", "color": "yellow", "correct_response": "y", "trial_id": "stroop-trial-1-congruent-13", "trial_type": "html-keyboard-response", "trial_index": 177, "time_elapsed": 603471, "internal_node_id": "0.0-6.0-82.0"}}, {"uniqueid": "w35007263:a98205172", "current_trial": 178, "dateTime": 1664555634233, "trialdata": {"rt": 797, "stimulus": "<p id='stroop-text' class='stroop-red'>DOG</p>", "response": "r", "stimulus-type": "unrelated", "word": "DOG", "color": "red", "correct_response": "r", "trial_id": "stroop-trial-1-unrelated-23", "trial_type": "html-keyboard-response", "trial_index": 178, "time_elapsed": 604787, "internal_node_id": "0.0-6.0-83.0"}}, {"uniqueid": "w35007263:a98205172", "current_trial": 179, "dateTime": 1664555635503, "trialdata": {"rt": 739, "stimulus": "<p id='stroop-text' class='stroop-red'>WINDOW</p>", "response": "r", "stimulus-type": "unrelated", "word": "WINDOW", "color": "red", "correct_response": "r", "trial_id": "stroop-trial-1-unrelated-27", "trial_type": "html-keyboard-response", "trial_index": 179, "time_elapsed": 606057, "internal_node_id": "0.0-6.0-84.0"}}, {"uniqueid": "w35007263:a98205172", "current_trial": 180, "dateTime": 1664555636770, "trialdata": {"rt": 750, "stimulus": "<p id='stroop-text' class='stroop-red'>MONKEY</p>", "response": "r", "stimulus-type": "unrelated", "word": "MONKEY", "color": "red", "correct_response": "r", "trial_id": "stroop-trial-1-unrelated-21", "trial_type": "html-keyboard-response", "trial_index": 180, "time_elapsed": 607324, "internal_node_id": "0.0-6.0-85.0"}}, {"uniqueid": "w35007263:a98205172", "current_trial": 181, "dateTime": 1664555638209, "trialdata": {"rt": 912, "stimulus": "<p id='stroop-text' class='stroop-green'>RED</p>", "response": "g", "stimulus-type": "incongruent", "word": "red", "color": "green", "correct_response": "g", "trial_id": "stroop-trial-1-incongruent-4", "trial_type": "html-keyboard-response", "trial_index": 181, "time_elapsed": 608763, "internal_node_id": "0.0-6.0-86.0"}}, {"uniqueid": "w35007263:a98205172", "current_trial": 182, "dateTime": 1664555639547, "trialdata": {"rt": 823, "stimulus": "<p id='stroop-text' class='stroop-green'>BRIDGE</p>", "response": "g", "stimulus-type": "unrelated", "word": "BRIDGE", "color": "green", "correct_response": "g", "trial_id": "stroop-trial-1-unrelated-5", "trial_type": "html-keyboard-response", "trial_index": 182, "time_elapsed": 610101, "internal_node_id": "0.0-6.0-87.0"}}, {"uniqueid": "w35007263:a98205172", "current_trial": 183, "dateTime": 1664555640924, "trialdata": {"rt": 861, "stimulus": "<p id='stroop-text' class='stroop-yellow'>BRAIN</p>", "response": "y", "stimulus-type": "unrelated", "word": "BRAIN", "color": "yellow", "correct_response": "y", "trial_id": "stroop-trial-1-unrelated-3", "trial_type": "html-keyboard-response", "trial_index": 183, "time_elapsed": 611478, "internal_node_id": "0.0-6.0-88.0"}}, {"uniqueid": "w35007263:a98205172", "current_trial": 184, "dateTime": 1664555642194, "trialdata": {"rt": 747, "stimulus": "<p id='stroop-text' class='stroop-green'>GREEN</p>", "response": "y", "stimulus-type": "congruent", "word": "green", "color": "green", "correct_response": "g", "trial_id": "stroop-trial-1-congruent-1", "trial_type": "html-keyboard-response", "trial_index": 184, "time_elapsed": 612748, "internal_node_id": "0.0-6.0-89.0"}}, {"uniqueid": "w35007263:a98205172", "current_trial": 185, "dateTime": 1664555704087, "trialdata": {"rt": 61366, "stimulus": "  <h1> End of block! </h1>\n\n  You have reached the end of the block 2/5. If you need a short break, feel free to take one now before moving on.\n\n  <br><br>\n  In the next block, you will complete another 90 rounds of this game.\n\n  <br><br>\n  <div style='text-align: center;'>Press <code>space</code> to begin.</div>\n  <br><br>\n<div style='text-align: center;'>(If the experiment doesn't continue, try clicking on the text and then pressing <code>space</code>.)</div>", "response": " ", "trial_id": "stroop_1_ready_3", "trial_type": "html-keyboard-response", "trial_index": 185, "time_elapsed": 674642, "internal_node_id": "0.0-7.0"}}, {"uniqueid": "w35007263:a98205172", "current_trial": 186, "dateTime": 1664555705704, "trialdata": {"rt": 1595, "stimulus": "<p id='stroop-text' class='stroop-red'>RED</p>", "response": "r", "stimulus-type": "congruent", "word": "red", "color": "red", "correct_response": "r", "trial_id": "stroop-trial-1-congruent-22", "trial_type": "html-keyboard-response", "trial_index": 186, "time_elapsed": 676258, "internal_node_id": "0.0-8.0-0.0"}}, {"uniqueid": "w35007263:a98205172", "current_trial": 187, "dateTime": 1664555707014, "trialdata": {"rt": 792, "stimulus": "<p id='stroop-text' class='stroop-yellow'>WINDOW</p>", "response": "y", "stimulus-type": "unrelated", "word": "WINDOW", "color": "yellow", "correct_response": "y", "trial_id": "stroop-trial-1-unrelated-1", "trial_type": "html-keyboard-response", "trial_index": 187, "time_elapsed": 677569, "internal_node_id": "0.0-8.0-1.0"}}, {"uniqueid": "w35007263:a98205172", "current_trial": 188, "dateTime": 1664555708140, "trialdata": {"rt": 620, "stimulus": "<p id='stroop-text' class='stroop-red'>RED</p>", "response": "r", "stimulus-type": "congruent", "word": "red", "color": "red", "correct_response": "r", "trial_id": "stroop-trial-1-congruent-7", "trial_type": "html-keyboard-response", "trial_index": 188, "time_elapsed": 678695, "internal_node_id": "0.0-8.0-2.0"}}, {"uniqueid": "w35007263:a98205172", "current_trial": 189, "dateTime": 1664555709433, "trialdata": {"rt": 778, "stimulus": "<p id='stroop-text' class='stroop-green'>BRIDGE</p>", "response": "g", "stimulus-type": "unrelated", "word": "BRIDGE", "color": "green", "correct_response": "g", "trial_id": "stroop-trial-1-unrelated-12", "trial_type": "html-keyboard-response", "trial_index": 189, "time_elapsed": 679988, "internal_node_id": "0.0-8.0-3.0"}}, {"uniqueid": "w35007263:a98205172", "current_trial": 190, "dateTime": 1664555710774, "trialdata": {"rt": 818, "stimulus": "<p id='stroop-text' class='stroop-blue'>BLUE</p>", "response": "b", "stimulus-type": "congruent", "word": "blue", "color": "blue", "correct_response": "b", "trial_id": "stroop-trial-1-congruent-21", "trial_type": "html-keyboard-response", "trial_index": 190, "time_elapsed": 681329, "internal_node_id": "0.0-8.0-4.0"}}, {"uniqueid": "w35007263:a98205172", "current_trial": 191, "dateTime": 1664555712050, "trialdata": {"rt": 759, "stimulus": "<p id='stroop-text' class='stroop-yellow'>RED</p>", "response": "y", "stimulus-type": "incongruent", "word": "red", "color": "yellow", "correct_response": "y", "trial_id": "stroop-trial-1-incongruent-25", "trial_type": "html-keyboard-response", "trial_index": 191, "time_elapsed": 682604, "internal_node_id": "0.0-8.0-5.0"}}, {"uniqueid": "w35007263:a98205172", "current_trial": 192, "dateTime": 1664555713234, "trialdata": {"rt": 664, "stimulus": "<p id='stroop-text' class='stroop-red'>RED</p>", "response": "r", "stimulus-type": "congruent", "word": "red", "color": "red", "correct_response": "r", "trial_id": "stroop-trial-1-congruent-1", "trial_type": "html-keyboard-response", "trial_index": 192, "time_elapsed": 683789, "internal_node_id": "0.0-8.0-6.0"}}, {"uniqueid": "w35007263:a98205172", "current_trial": 193, "dateTime": 1664555714399, "trialdata": {"rt": 649, "stimulus": "<p id='stroop-text' class='stroop-yellow'>YELLOW</p>", "response": "y", "stimulus-type": "congruent", "word": "yellow", "color": "yellow", "correct_response": "y", "trial_id": "stroop-trial-1-congruent-11", "trial_type": "html-keyboard-response", "trial_index": 193, "time_elapsed": 684953, "internal_node_id": "0.0-8.0-7.0"}}, {"uniqueid": "w35007263:a98205172", "current_trial": 194, "dateTime": 1664555715601, "trialdata": {"rt": 681, "stimulus": "<p id='stroop-text' class='stroop-green'>GREEN</p>", "response": "g", "stimulus-type": "congruent", "word": "green", "color": "green", "correct_response": "g", "trial_id": "stroop-trial-1-congruent-8", "trial_type": "html-keyboard-response", "trial_index": 194, "time_elapsed": 686155, "internal_node_id": "0.0-8.0-8.0"}}, {"uniqueid": "w35007263:a98205172", "current_trial": 195, "dateTime": 1664555716953, "trialdata": {"rt": 831, "stimulus": "<p id='stroop-text' class='stroop-blue'>GREEN</p>", "response": "b", "stimulus-type": "incongruent", "word": "green", "color": "blue", "correct_response": "b", "trial_id": "stroop-trial-1-incongruent-30", "trial_type": "html-keyboard-response", "trial_index": 195, "time_elapsed": 687507, "internal_node_id": "0.0-8.0-9.0"}}, {"uniqueid": "w35007263:a98205172", "current_trial": 196, "dateTime": 1664555718560, "trialdata": {"rt": 1090, "stimulus": "<p id='stroop-text' class='stroop-green'>GREEN</p>", "response": "g", "stimulus-type": "congruent", "word": "green", "color": "green", "correct_response": "g", "trial_id": "stroop-trial-1-congruent-10", "trial_type": "html-keyboard-response", "trial_index": 196, "time_elapsed": 689114, "internal_node_id": "0.0-8.0-10.0"}}, {"uniqueid": "w35007263:a98205172", "current_trial": 197, "dateTime": 1664555719752, "trialdata": {"rt": 670, "stimulus": "<p id='stroop-text' class='stroop-red'>CHAIR</p>", "response": "r", "stimulus-type": "unrelated", "word": "CHAIR", "color": "red", "correct_response": "r", "trial_id": "stroop-trial-1-unrelated-4", "trial_type": "html-keyboard-response", "trial_index": 197, "time_elapsed": 690306, "internal_node_id": "0.0-8.0-11.0"}}, {"uniqueid": "w35007263:a98205172", "current_trial": 198, "dateTime": 1664555721028, "trialdata": {"rt": 760, "stimulus": "<p id='stroop-text' class='stroop-blue'>RED</p>", "response": "b", "stimulus-type": "incongruent", "word": "red", "color": "blue", "correct_response": "b", "trial_id": "stroop-trial-1-incongruent-21", "trial_type": "html-keyboard-response", "trial_index": 198, "time_elapsed": 691582, "internal_node_id": "0.0-8.0-12.0"}}, {"uniqueid": "w35007263:a98205172", "current_trial": 199, "dateTime": 1664555722097, "trialdata": {"rt": 551, "stimulus": "<p id='stroop-text' class='stroop-blue'>BLUE</p>", "response": "b", "stimulus-type": "congruent", "word": "blue", "color": "blue", "correct_response": "b", "trial_id": "stroop-trial-1-congruent-27", "trial_type": "html-keyboard-response", "trial_index": 199, "time_elapsed": 692651, "internal_node_id": "0.0-8.0-13.0"}}, {"uniqueid": "w35007263:a98205172", "current_trial": 200, "dateTime": 1664555723915, "trialdata": {"rt": 1289, "stimulus": "<p id='stroop-text' class='stroop-red'>CHAIR</p>", "response": "r", "stimulus-type": "unrelated", "word": "CHAIR", "color": "red", "correct_response": "r", "trial_id": "stroop-trial-1-unrelated-6", "trial_type": "html-keyboard-response", "trial_index": 200, "time_elapsed": 694467, "internal_node_id": "0.0-8.0-14.0"}}, {"uniqueid": "w35007263:a98205172", "current_trial": 201, "dateTime": 1664555725219, "trialdata": {"rt": 790, "stimulus": "<p id='stroop-text' class='stroop-blue'>BLUE</p>", "response": "b", "stimulus-type": "congruent", "word": "blue", "color": "blue", "correct_response": "b", "trial_id": "stroop-trial-1-congruent-3", "trial_type": "html-keyboard-response", "trial_index": 201, "time_elapsed": 695773, "internal_node_id": "0.0-8.0-15.0"}}, {"uniqueid": "w35007263:a98205172", "current_trial": 202, "dateTime": 1664555726472, "trialdata": {"rt": 735, "stimulus": "<p id='stroop-text' class='stroop-green'>BOAT</p>", "response": "g", "stimulus-type": "unrelated", "word": "BOAT", "color": "green", "correct_response": "g", "trial_id": "stroop-trial-1-unrelated-28", "trial_type": "html-keyboard-response", "trial_index": 202, "time_elapsed": 697026, "internal_node_id": "0.0-8.0-16.0"}}, {"uniqueid": "w35007263:a98205172", "current_trial": 203, "dateTime": 1664555727906, "trialdata": {"rt": 915, "stimulus": "<p id='stroop-text' class='stroop-red'>YELLOW</p>", "response": "r", "stimulus-type": "incongruent", "word": "yellow", "color": "red", "correct_response": "r", "trial_id": "stroop-trial-1-incongruent-24", "trial_type": "html-keyboard-response", "trial_index": 203, "time_elapsed": 698460, "internal_node_id": "0.0-8.0-17.0"}}, {"uniqueid": "w35007263:a98205172", "current_trial": 204, "dateTime": 1664555729796, "trialdata": {"rt": 1375, "stimulus": "<p id='stroop-text' class='stroop-green'>BOAT</p>", "response": "g", "stimulus-type": "unrelated", "word": "BOAT", "color": "green", "correct_response": "g", "trial_id": "stroop-trial-1-unrelated-30", "trial_type": "html-keyboard-response", "trial_index": 204, "time_elapsed": 700351, "internal_node_id": "0.0-8.0-18.0"}}, {"uniqueid": "w35007263:a98205172", "current_trial": 205, "dateTime": 1664555730989, "trialdata": {"rt": 685, "stimulus": "<p id='stroop-text' class='stroop-yellow'>YELLOW</p>", "response": "y", "stimulus-type": "congruent", "word": "yellow", "color": "yellow", "correct_response": "y", "trial_id": "stroop-trial-1-congruent-23", "trial_type": "html-keyboard-response", "trial_index": 205, "time_elapsed": 701543, "internal_node_id": "0.0-8.0-19.0"}}, {"uniqueid": "w35007263:a98205172", "current_trial": 206, "dateTime": 1664555732154, "trialdata": {"rt": 650, "stimulus": "<p id='stroop-text' class='stroop-yellow'>BRIDGE</p>", "response": "y", "stimulus-type": "unrelated", "word": "BRIDGE", "color": "yellow", "correct_response": "y", "trial_id": "stroop-trial-1-unrelated-15", "trial_type": "html-keyboard-response", "trial_index": 206, "time_elapsed": 702708, "internal_node_id": "0.0-8.0-20.0"}}, {"uniqueid": "w35007263:a98205172", "current_trial": 207, "dateTime": 1664555733471, "trialdata": {"rt": 802, "stimulus": "<p id='stroop-text' class='stroop-blue'>BLUE</p>", "response": "b", "stimulus-type": "congruent", "word": "blue", "color": "blue", "correct_response": "b", "trial_id": "stroop-trial-1-congruent-4", "trial_type": "html-keyboard-response", "trial_index": 207, "time_elapsed": 704026, "internal_node_id": "0.0-8.0-21.0"}}, {"uniqueid": "w35007263:a98205172", "current_trial": 208, "dateTime": 1664555735144, "trialdata": {"rt": 1153, "stimulus": "<p id='stroop-text' class='stroop-yellow'>RED</p>", "response": "y", "stimulus-type": "incongruent", "word": "red", "color": "yellow", "correct_response": "y", "trial_id": "stroop-trial-1-incongruent-18", "trial_type": "html-keyboard-response", "trial_index": 208, "time_elapsed": 705698, "internal_node_id": "0.0-8.0-22.0"}}, {"uniqueid": "w35007263:a98205172", "current_trial": 209, "dateTime": 1664555736750, "trialdata": {"rt": 1081, "stimulus": "<p id='stroop-text' class='stroop-green'>SHIP</p>", "response": "g", "stimulus-type": "unrelated", "word": "SHIP", "color": "green", "correct_response": "g", "trial_id": "stroop-trial-1-unrelated-17", "trial_type": "html-keyboard-response", "trial_index": 209, "time_elapsed": 707304, "internal_node_id": "0.0-8.0-23.0"}}, {"uniqueid": "w35007263:a98205172", "current_trial": 210, "dateTime": 1664555738040, "trialdata": {"rt": 772, "stimulus": "<p id='stroop-text' class='stroop-red'>YELLOW</p>", "response": "r", "stimulus-type": "incongruent", "word": "yellow", "color": "red", "correct_response": "r", "trial_id": "stroop-trial-1-incongruent-20", "trial_type": "html-keyboard-response", "trial_index": 210, "time_elapsed": 708594, "internal_node_id": "0.0-8.0-24.0"}}, {"uniqueid": "w35007263:a98205172", "current_trial": 211, "dateTime": 1664555739513, "trialdata": {"rt": 962, "stimulus": "<p id='stroop-text' class='stroop-red'>BLUE</p>", "response": "r", "stimulus-type": "incongruent", "word": "blue", "color": "red", "correct_response": "r", "trial_id": "stroop-trial-1-incongruent-22", "trial_type": "html-keyboard-response", "trial_index": 211, "time_elapsed": 710068, "internal_node_id": "0.0-8.0-25.0"}}, {"uniqueid": "w35007263:a98205172", "current_trial": 212, "dateTime": 1664555740804, "trialdata": {"rt": 777, "stimulus": "<p id='stroop-text' class='stroop-green'>GREEN</p>", "response": "g", "stimulus-type": "congruent", "word": "green", "color": "green", "correct_response": "g", "trial_id": "stroop-trial-1-congruent-28", "trial_type": "html-keyboard-response", "trial_index": 212, "time_elapsed": 711358, "internal_node_id": "0.0-8.0-26.0"}}, {"uniqueid": "w35007263:a98205172", "current_trial": 213, "dateTime": 1664555742343, "trialdata": {"rt": 1021, "stimulus": "<p id='stroop-text' class='stroop-yellow'>BLUE</p>", "response": "y", "stimulus-type": "incongruent", "word": "blue", "color": "yellow", "correct_response": "y", "trial_id": "stroop-trial-1-incongruent-4", "trial_type": "html-keyboard-response", "trial_index": 213, "time_elapsed": 712896, "internal_node_id": "0.0-8.0-27.0"}}, {"uniqueid": "w35007263:a98205172", "current_trial": 214, "dateTime": 1664555743568, "trialdata": {"rt": 713, "stimulus": "<p id='stroop-text' class='stroop-yellow'>SHIP</p>", "response": "y", "stimulus-type": "unrelated", "word": "SHIP", "color": "yellow", "correct_response": "y", "trial_id": "stroop-trial-1-unrelated-14", "trial_type": "html-keyboard-response", "trial_index": 214, "time_elapsed": 714123, "internal_node_id": "0.0-8.0-28.0"}}, {"uniqueid": "w35007263:a98205172", "current_trial": 215, "dateTime": 1664555745068, "trialdata": {"rt": 973, "stimulus": "<p id='stroop-text' class='stroop-red'>BLUE</p>", "response": "r", "stimulus-type": "incongruent", "word": "blue", "color": "red", "correct_response": "r", "trial_id": "stroop-trial-1-incongruent-26", "trial_type": "html-keyboard-response", "trial_index": 215, "time_elapsed": 715622, "internal_node_id": "0.0-8.0-29.0"}}, {"uniqueid": "w35007263:a98205172", "current_trial": 216, "dateTime": 1664555746621, "trialdata": {"rt": 1033, "stimulus": "<p id='stroop-text' class='stroop-green'>FORK</p>", "response": "g", "stimulus-type": "unrelated", "word": "FORK", "color": "green", "correct_response": "g", "trial_id": "stroop-trial-1-unrelated-18", "trial_type": "html-keyboard-response", "trial_index": 216, "time_elapsed": 717175, "internal_node_id": "0.0-8.0-30.0"}}, {"uniqueid": "w35007263:a98205172", "current_trial": 217, "dateTime": 1664555747904, "trialdata": {"rt": 772, "stimulus": "<p id='stroop-text' class='stroop-yellow'>YELLOW</p>", "response": "y", "stimulus-type": "congruent", "word": "yellow", "color": "yellow", "correct_response": "y", "trial_id": "stroop-trial-1-congruent-16", "trial_type": "html-keyboard-response", "trial_index": 217, "time_elapsed": 718458, "internal_node_id": "0.0-8.0-31.0"}}, {"uniqueid": "w35007263:a98205172", "current_trial": 218, "dateTime": 1664555749417, "trialdata": {"rt": 997, "stimulus": "<p id='stroop-text' class='stroop-green'>FORK</p>", "response": "g", "stimulus-type": "unrelated", "word": "FORK", "color": "green", "correct_response": "g", "trial_id": "stroop-trial-1-unrelated-23", "trial_type": "html-keyboard-response", "trial_index": 218, "time_elapsed": 719971, "internal_node_id": "0.0-8.0-32.0"}}, {"uniqueid": "w35007263:a98205172", "current_trial": 219, "dateTime": 1664555751011, "trialdata": {"rt": 1080, "stimulus": "<p id='stroop-text' class='stroop-green'>GREEN</p>", "response": "g", "stimulus-type": "congruent", "word": "green", "color": "green", "correct_response": "g", "trial_id": "stroop-trial-1-congruent-17", "trial_type": "html-keyboard-response", "trial_index": 219, "time_elapsed": 721566, "internal_node_id": "0.0-8.0-33.0"}}, {"uniqueid": "w35007263:a98205172", "current_trial": 220, "dateTime": 1664555752257, "trialdata": {"rt": 717, "stimulus": "<p id='stroop-text' class='stroop-yellow'>WINDOW</p>", "response": "y", "stimulus-type": "unrelated", "word": "WINDOW", "color": "yellow", "correct_response": "y", "trial_id": "stroop-trial-1-unrelated-9", "trial_type": "html-keyboard-response", "trial_index": 220, "time_elapsed": 722811, "internal_node_id": "0.0-8.0-34.0"}}, {"uniqueid": "w35007263:a98205172", "current_trial": 221, "dateTime": 1664555753447, "trialdata": {"rt": 672, "stimulus": "<p id='stroop-text' class='stroop-red'>CHAIR</p>", "response": "r", "stimulus-type": "unrelated", "word": "CHAIR", "color": "red", "correct_response": "r", "trial_id": "stroop-trial-1-unrelated-13", "trial_type": "html-keyboard-response", "trial_index": 221, "time_elapsed": 724001, "internal_node_id": "0.0-8.0-35.0"}}, {"uniqueid": "w35007263:a98205172", "current_trial": 222, "dateTime": 1664555755464, "trialdata": {"rt": 1501, "stimulus": "<p id='stroop-text' class='stroop-red'>GREEN</p>", "response": "r", "stimulus-type": "incongruent", "word": "green", "color": "red", "correct_response": "r", "trial