{"condition": 1, "counterbalance": 0, "assignmentId": "a17395195", "workerId": "w92205734", "hitId": "h87049922", "currenttrial": 137, "bonus": 0, "data": [{"uniqueid": "w92205734:a17395195", "current_trial": 0, "dateTime": 1664873473705, "trialdata": {"success": true, "trial_type": "fullscreen", "trial_index": 0, "time_elapsed": 6716, "internal_node_id": "0.0-0.0"}}, {"uniqueid": "w92205734:a17395195", "current_trial": 1, "dateTime": 1664873507809, "trialdata": {"view_history": [{"page_index": 0, "viewing_time": 34101}], "rt": 34101, "trial_id": "exp_instructions_no_distractor", "trial_type": "instructions", "trial_index": 1, "time_elapsed": 40821, "internal_node_id": "0.0-1.0"}}, {"uniqueid": "w92205734:a17395195", "current_trial": 2, "dateTime": 1664873512669, "trialdata": {"success": true, "trial_type": "fullscreen", "trial_index": 2, "time_elapsed": 45681, "internal_node_id": "0.0-2.0-0.0"}}, {"uniqueid": "w92205734:a17395195", "current_trial": 3, "dateTime": 1664873746576, "trialdata": {"view_history": [{"page_index": 0, "viewing_time": 81436}, {"page_index": 1, "viewing_time": 45159}, {"page_index": 2, "viewing_time": 39811}, {"page_index": 3, "viewing_time": 13056}, {"page_index": 4, "viewing_time": 54443}], "rt": 233905, "trial_id": "mouselab_instructions_1", "trial_type": "instructions", "trial_index": 3, "time_elapsed": 279588, "internal_node_id": "0.0-2.0-1.0"}}, {"uniqueid": "w92205734:a17395195", "current_trial": 4, "dateTime": 1664873764421, "trialdata": {"revealed_states": [], "num_clicks_accrued": [0, 0, 0, 0, 0, 0, 0, 0, 0, 0, 0, 0, 0], "stateRewards": ["", 10, -10, 10, 10, 10, -10, -10, 10, -10, -10, -10, 10], "withholdReward": false, "trial_id": "practice_1", "block": "test", "trialIndex": 0, "score": 11.5, "costs": -0.5, "simulationMode": [null, null, null], "rewards": [10, -10, 10], "path": ["0", "0", "5", "6", "8"], "rt": [9040, 1827, 401], "actions": ["right", "right", "down"], "actionTimes": [11233, 13570, 14462], "queries": {"click": {"state": {"target": ["5", "1"], "time": [4770, 9813]}, "edge": {"target": [], "time": []}}, "mouseover": {"state": {"target": ["5", "1"], "time": [4311, 9594]}, "edge": {"target": [], "time": []}}, "mouseout": {"state": {"target": ["0", "0", "5", "1", "5"], "time": [1711, 2044, 9460, 10010, 10143]}, "edge": {"target": [], "time": []}}}, "displayed_time": "14.96", "trialTime": 17619, "trial_type": "mouselab-mdp", "trial_index": 4, "time_elapsed": 297432, "internal_node_id": "0.0-2.0-2.0-0.0"}}, {"uniqueid": "w92205734:a17395195", "current_trial": 5, "dateTime": 1664873773366, "trialdata": {"revealed_states": [], "num_clicks_accrued": [0, 0, 0, 0, 0, 0, 0, 0, 0, 0, 0, 0, 0], "stateRewards": ["", 10, 10, -10, 10, -10, 10, 10, -10, 10, 10, 10, 10], "withholdReward": false, "trial_id": "practice_2", "block": "test", "trialIndex": 1, "score": 11.75, "costs": -0.25, "simulationMode": [null, null, null], "rewards": [10, 10, -10], "path": ["0", "0", "1", "2", "3"], "rt": [3576, 84, 66], "actions": ["up", "up", "right"], "actionTimes": [6150, 6751, 7316], "queries": {"click": {"state": {"target": ["5"], "time": [4476]}, "edge": {"target": [], "time": []}}, "mouseover": {"state": {"target": ["0", "0", "5", "0"], "time": [2803, 4016, 4366, 5199]}, "edge": {"target": [], "time": []}}, "mouseout": {"state": {"target": ["0", "0", "0", "5", "0"], "time": [2548, 2883, 4066, 4650, 5316]}, "edge": {"target": [], "time": []}}}, "displayed_time": "7.83", "trialTime": 8905, "trial_type": "mouselab-mdp", "trial_index": 5, "time_elapsed": 306378, "internal_node_id": "0.0-2.0-2.0-1.0"}}, {"uniqueid": "w92205734:a17395195", "current_trial": 6, "dateTime": 1664873877885, "trialdata": {"view_history": [{"page_index": 0, "viewing_time": 63148}, {"page_index": 1, "viewing_time": 27132}, {"page_index": 2, "viewing_time": 14238}], "rt": 104518, "trial_id": "mouselab_instructions_2_scarce", "trial_type": "instructions", "trial_index": 6, "time_elapsed": 410897, "internal_node_id": "0.0-2.0-3.0"}}, {"uniqueid": "w92205734:a17395195", "current_trial": 7, "dateTime": 1664873936892, "trialdata": {"rt": 59002, "response": {"Q0": "$-48 to $48", "Q1": "The cost is always $0.25.", "Q2": "The better I perform the higher my bonus will be.", "Q3": "No, the amount of cash at each node of the web may be different each time.", "Q4": "The values of the nodes walked through from start to finish.", "Q5": "No, the spider might forget to count the money on some rounds."}, "question_order": [0, 1, 2, 3, 4, 5], "correct": {"Q0": "$-48 to $48", "Q1": "The cost is always $0.25.", "Q2": "The better I perform the higher my bonus will be.", "Q3": "No, the amount of cash at each node of the web may be different each time.", "Q4": "The values of the nodes walked through from start to finish.", "Q5": "No, the spider might forget to count the money on some rounds."}, "trial_id": "mouselab_quiz_scarce", "trial_type": "survey-multi-choice", "trial_index": 7, "time_elapsed": 469904, "internal_node_id": "0.0-2.0-4.0"}}, {"uniqueid": "w92205734:a17395195", "current_trial": 8, "dateTime": 1664873985683, "trialdata": {"rt": 48784, "stimulus": "\n<h1> Get ready to start the game! </h1>\n\nThank you for reading the instructions. Get ready start with the first of 4 block(s) of this game.\n<br><br>\nIn this first block, you will complete 30 rounds of this game before moving on.\n<br><br>\nRemember, the more money the spider gets, the bigger your bonus will be!\n<br><br>\n<div style='text-align: center;'>Press <code>space</code> to begin.</div>\n\n<br><br>\n(If, at any point, the <code>space</code> key does not take you to the next page, click once on the text and try again.)", "response": " ", "trial_id": "mdp_ready_1", "trial_type": "html-keyboard-response", "trial_index": 8, "time_elapsed": 518695, "internal_node_id": "0.0-4.0-0.0"}}, {"uniqueid": "w92205734:a17395195", "current_trial": 9, "dateTime": 1664874004076, "trialdata": {"revealed_states": [], "num_clicks_accrued": [0, 0, 0, 0, 0, 0, 0, 0, 0, 0, 0, 0, 0], "stateRewards": ["", 2, 4, -48, 24, -4, -4, -24, 24, 2, -4, 24, -24], "withholdReward": true, "trial_id": "mdp_163600331068", "block": "test1", "trialIndex": 2, "score": -37.75, "costs": -0.75, "simulationMode": [null, null, null], "rewards": [2, 4, -48], "path": ["0", "0", "1", "2", "3"], "rt": [7947, 5114, 122], "actions": ["up", "up", "right"], "actionTimes": [10434, 16054, 16662], "queries": {"click": {"state": {"target": ["5", "1", "9"], "time": [5580, 7004, 8883]}, "edge": {"target": [], "time": []}}, "mouseover": {"state": {"target": ["9", "9", "0", "5", "1", "2", "9", "9", "12"], "time": [3723, 4823, 4973, 5207, 6239, 7323, 8490, 8640, 9139]}, "edge": {"target": [], "time": []}}, "mouseout": {"state": {"target": ["8", "0", "9", "9", "0", "5", "1", "2", "1", "9", "9", "12", "4"], "time": [2074, 3623, 4323, 4923, 5189, 6040, 7256, 8356, 8423, 8522, 9056, 9556, 12739]}, "edge": {"target": [], "time": []}}}, "displayed_time": "17.16", "trialTime": 18352, "trial_type": "mouselab-mdp", "trial_index": 9, "time_elapsed": 537088, "internal_node_id": "0.0-4.0-1.0-0.0"}}, {"uniqueid": "w92205734:a17395195", "current_trial": 10, "dateTime": 1664874016198, "trialdata": {"revealed_states": [], "num_clicks_accrued": [0, 0, 0, 0, 0, 0, 0, 0, 0, 0, 0, 0, 0], "stateRewards": ["", 2, 4, -24, -48, 4, -4, 24, 48, -4, -4, -24, 48], "withholdReward": true, "trial_id": "mdp_181958792175", "block": "test1", "trialIndex": 3, "score": 52.25, "costs": -0.75, "simulationMode": [null, null, null], "rewards": [4, -4, 48], "path": ["0", "0", "5", "6", "8"], "rt": [6659, 71, 130], "actions": ["right", "right", "down"], "actionTimes": [8737, 9303, 9929], "queries": {"click": {"state": {"target": ["4", "3", "8"], "time": [4049, 6377, 7130]}, "edge": {"target": [], "time": []}}, "mouseover": {"state": {"target": ["4", "1", "3", "8"], "time": [3666, 5748, 6116, 6898]}, "edge": {"target": [], "time": []}}, "mouseout": {"state": {"target": ["0", "4", "1", "3"], "time": [2215, 5432, 5815, 6749]}, "edge": {"target": [], "time": []}}}, "displayed_time": "11.08", "trialTime": 12084, "trial_type": "mouselab-mdp", "trial_index": 10, "time_elapsed": 549210, "internal_node_id": "0.0-4.0-1.0-1.0"}}, {"uniqueid": "w92205734:a17395195", "current_trial": 11, "dateTime": 1664874028083, "trialdata": {"revealed_states": [], "num_clicks_accrued": [0, 0, 0, 0, 0, 0, 0, 0, 0, 0, 0, 0, 0], "stateRewards": ["", -4, 4, -24, -24, -4, -8, 24, 48, 4, -4, 24, 48], "withholdReward": false, "trial_id": "mdp_175395325183", "block": "test1", "trialIndex": 4, "score": 40.75, "costs": -0.25, "simulationMode": [null, null, null], "rewards": [-4, -8, 48], "path": ["0", "0", "5", "6", "8"], "rt": [2250, 21, 69], "actions": ["right", "right", "down"], "actionTimes": [4123, 4632, 5213], "queries": {"click": {"state": {"target": ["8"], "time": [2689]}, "edge": {"target": [], "time": []}}, "mouseover": {"state": {"target": ["8"], "time": [2611]}, "edge": {"target": [], "time": []}}, "mouseout": {"state": {"target": ["8", "0", "0", "8"], "time": [1010, 1444, 2044, 2878]}, "edge": {"target": [], "time": []}}}, "displayed_time": "9.87", "trialTime": 11848, "trial_type": "mouselab-mdp", "trial_index": 11, "time_elapsed": 561095, "internal_node_id": "0.0-4.0-1.0-2.0"}}, {"uniqueid": "w92205734:a17395195", "current_trial": 12, "dateTime": 1664874044933, "trialdata": {"revealed_states": [], "num_clicks_accrued": [0, 0, 0, 0, 0, 0, 0, 0, 0, 0, 0, 0, 0], "stateRewards": ["", 2, 8, -48, 24, -4, 8, 48, -24, 2, 8, 24, 24], "withholdReward": false, "trial_id": "mdp_175372499314", "block": "test1", "trialIndex": 5, "score": 55.5, "costs": -1.5, "simulationMode": [null, null, null], "rewards": [-4, 8, 48], "path": ["0", "0", "5", "6", "7"], "rt": [7760, 173, 568], "actions": ["right", "right", "up"], "actionTimes": [10919, 11598, 12676], "queries": {"click": {"state": {"target": ["12", "3", "4", "8", "7", "11"], "time": [3911, 5595, 7048, 7756, 8670, 9768]}, "edge": {"target": [], "time": []}}, "mouseover": {"state": {"target": ["0", "12", "10", "11", "2", "3", "4", "1", "5", "8", "6", "7", "11", "11", "5", "5"], "time": [3476, 3708, 4358, 4475, 5308, 5475, 6842, 7291, 7358, 7441, 8258, 8358, 9058, 9508, 10007, 10193]}, "edge": {"target": [], "time": []}}, "mouseout": {"state": {"target": ["0", "0", "12", "10", "11", "2", "3", "4", "1", "5", "8", "6", "7", "11", "11", "5"], "time": [3243, 3558, 4325, 4425, 4858, 5376, 5792, 7241, 7325, 7391, 7925, 8274, 8858, 9241, 9941, 10058]}, "edge": {"target": [], "time": []}}}, "displayed_time": "13.18", "trialTime": 16812, "trial_type": "mouselab-mdp", "trial_index": 12, "time_elapsed": 577945, "internal_node_id": "0.0-4.0-1.0-3.0"}}, {"uniqueid": "w92205734:a17395195", "current_trial": 13, "dateTime": 1664874057295, "trialdata": {"revealed_states": [], "num_clicks_accrued": [0, 0, 0, 0, 0, 0, 0, 0, 0, 0, 0, 0, 0], "stateRewards": ["", 2, 8, -24, -48, 2, 4, -24, 48, 2, -8, 48, -24], "withholdReward": false, "trial_id": "mdp_791659307216", "block": "test1", "trialIndex": 6, "score": 58.5, "costs": -0.5, "simulationMode": [null, null, null], "rewards": [2, 4, 48], "path": ["0", "0", "5", "6", "8"], "rt": [3255, 133, 352], "actions": ["right", "right", "down"], "actionTimes": [4876, 5507, 6377], "queries": {"click": {"state": {"target": ["3", "8"], "time": [2500, 3389]}, "edge": {"target": [], "time": []}}, "mouseover": {"state": {"target": ["0", "5", "3", "5", "8", "6"], "time": [1754, 2074, 2358, 3024, 3324, 3940]}, "edge": {"target": [], "time": []}}, "mouseout": {"state": {"target": ["5", "0", "0", "5", "3", "5", "8"], "time": [1357, 1457, 2024, 2108, 2958, 3040, 3824]}, "edge": {"target": [], "time": []}}}, "displayed_time": "10.62", "trialTime": 12325, "trial_type": "mouselab-mdp", "trial_index": 13, "time_elapsed": 590307, "internal_node_id": "0.0-4.0-1.0-4.0"}}, {"uniqueid": "w92205734:a17395195", "current_trial": 14, "dateTime": 1664874067037, "trialdata": {"revealed_states": [], "num_clicks_accrued": [0, 0, 0, 0, 0, 0, 0, 0, 0, 0, 0, 0, 0], "stateRewards": ["", -2, -4, -48, 48, -2, -4, 24, 48, -4, -8, -24, 24], "withholdReward": false, "trial_id": "mdp_917590390609", "block": "test1", "trialIndex": 7, "score": 46.75, "costs": -0.25, "simulationMode": [null, null, null], "rewards": [-2, -4, 48], "path": ["0", "0", "1", "2", "4"], "rt": [2059, 47, 70], "actions": ["up", "up", "left"], "actionTimes": [2929, 3493, 4065], "queries": {"click": {"state": {"target": ["4"], "time": [1653]}, "edge": {"target": [], "time": []}}, "mouseover": {"state": {"target": ["4"], "time": [1461]}, "edge": {"target": [], "time": []}}, "mouseout": {"state": {"target": ["6", "4"], "time": [328, 1911]}, "edge": {"target": [], "time": []}}}, "displayed_time": "8.87", "trialTime": 9705, "trial_type": "mouselab-mdp", "trial_index": 14, "time_elapsed": 600049, "internal_node_id": "0.0-4.0-1.0-5.0"}}, {"uniqueid": "w92205734:a17395195", "current_trial": 15, "dateTime": 1664874081198, "trialdata": {"revealed_states": [], "num_clicks_accrued": [0, 0, 0, 0, 0, 0, 0, 0, 0, 0, 0, 0, 0], "stateRewards": ["", 2, 4, -24, -24, 4, 8, -48, 48, 2, 4, -24, -48], "withholdReward": true, "trial_id": "mdp_565165082781", "block": "test1", "trialIndex": 8, "score": 64.5, "costs": -0.5, "simulationMode": [null, null, null], "rewards": [4, 8, 48], "path": ["0", "0", "5", "6", "8"], "rt": [2967, 131, 106], "actions": ["right", "right", "down"], "actionTimes": [4512, 5148, 5758], "queries": {"click": {"state": {"target": ["4", "8"], "time": [2525, 3544]}, "edge": {"target": [], "time": []}}, "mouseover": {"state": {"target": ["4", "5", "8", "6"], "time": [2350, 3300, 3366, 4017]}, "edge": {"target": [], "time": []}}, "mouseout": {"state": {"target": ["0", "4", "5", "8"], "time": [1750, 3167, 3316, 4000]}, "edge": {"target": [], "time": []}}}, "displayed_time": "10.54", "trialTime": 14121, "trial_type": "mouselab-mdp", "trial_index": 15, "time_elapsed": 614210, "internal_node_id": "0.0-4.0-1.0-6.0"}}, {"uniqueid": "w92205734:a17395195", "current_trial": 16, "dateTime": 1664874093978, "trialdata": {"revealed_states": [], "num_clicks_accrued": [0, 0, 0, 0, 0, 0, 0, 0, 0, 0, 0, 0, 0], "stateRewards": ["", 2, 4, 48, -48, 2, 8, -24, 48, 4, 8, 48, -48], "withholdReward": true, "trial_id": "mdp_110142964375", "block": "test1", "trialIndex": 9, "score": 58.5, "costs": -0.5, "simulationMode": [null, null, null], "rewards": [2, 4, 48], "path": ["0", "0", "1", "2", "3"], "rt": [2884, 76, 74], "actions": ["up", "up", "right"], "actionTimes": [4579, 5163, 5744], "queries": {"click": {"state": {"target": ["4", "3"], "time": [2644, 3373]}, "edge": {"target": [], "time": []}}, "mouseover": {"state": {"target": ["1", "4", "3", "6"], "time": [2336, 2503, 3152, 3719]}, "edge": {"target": [], "time": []}}, "mouseout": {"state": {"target": ["6", "5", "0", "1", "4", "3"], "time": [1136, 1302, 1636, 2370, 2936, 3586]}, "edge": {"target": [], "time": []}}}, "displayed_time": "9.70", "trialTime": 12739, "trial_type": "mouselab-mdp", "trial_index": 16, "time_elapsed": 626990, "internal_node_id": "0.0-4.0-1.0-7.0"}}, {"uniqueid": "w92205734:a17395195", "current_trial": 17, "dateTime": 1664874106563, "trialdata": {"revealed_states": [], "num_clicks_accrued": [0, 0, 0, 0, 0, 0, 0, 0, 0, 0, 0, 0, 0], "stateRewards": ["", 4, -8, -24, 48, -4, 8, -24, -48, -4, -4, 24, 48], "withholdReward": true, "trial_id": "mdp_282352776624", "block": "test1", "trialIndex": 10, "score": 44, "costs": -1, "simulationMode": [null, null, null], "rewards": [-4, -4, 48], "path": ["0", "0", "9", "10", "12"], "rt": [3941, 415, 142], "actions": ["left", "left", "down"], "actionTimes": [5611, 6524, 7167], "queries": {"click": {"state": {"target": ["3", "8", "7", "12"], "time": [2353, 2941, 3678, 4444]}, "edge": {"target": [], "time": []}}, "mouseover": {"state": {"target": ["1", "3", "7", "6", "8", "6", "7", "1", "10", "12", "10"], "time": [2025, 2241, 2659, 2708, 2808, 3275, 3559, 4041, 4141, 4408, 4692]}, "edge": {"target": [], "time": []}}, "mouseout": {"state": {"target": ["6", "5", "0", "1", "3", "7", "6", "8", "6", "7", "1", "10", "12", "10"], "time": [1342, 1525, 1958, 2125, 2558, 2675, 2758, 3242, 3342, 3975, 4058, 4258, 4658, 4742]}, "edge": {"target": [], "time": []}}}, "displayed_time": "11.67", "trialTime": 12546, "trial_type": "mouselab-mdp", "trial_index": 17, "time_elapsed": 639575, "internal_node_id": "0.0-4.0-1.0-8.0"}}, {"uniqueid": "w92205734:a17395195", "current_trial": 18, "dateTime": 1664874120512, "trialdata": {"revealed_states": [], "num_clicks_accrued": [0, 0, 0, 0, 0, 0, 0, 0, 0, 0, 0, 0, 0], "stateRewards": ["", 4, 8, 24, 24, 2, -4, 48, -24, -4, 8, -24, 24], "withholdReward": true, "trial_id": "mdp_932292142091", "block": "test1", "trialIndex": 11, "score": 49.5, "costs": -1.5, "simulationMode": [null, null, null], "rewards": [2, -4, 48], "path": ["0", "0", "5", "6", "7"], "rt": [6670, 73, 120], "actions": ["right", "right", "up"], "actionTimes": [8883, 9445, 10075], "queries": {"click": {"state": {"target": ["3", "4", "12", "11", "8", "7"], "time": [3142, 3905, 5017, 5732, 6446, 7281]}, "edge": {"target": [], "time": []}}, "mouseover": {"state": {"target": ["0", "1", "3", "2", "4", "4", "12", "10", "11", "0", "8", "6", "7", "5"], "time": [2788, 2905, 3088, 3571, 3604, 3822, 4688, 5471, 5521, 6038, 6422, 6721, 7188, 7654]}, "edge": {"target": [], "time": []}}, "mouseout": {"state": {"target": ["0", "0", "1", "3", "2", "4", "4", "12", "12", "10", "11", "0", "8", "6", "7", "5"], "time": [2455, 2838, 2921, 3421, 3588, 3654, 4138, 5280, 5438, 5488, 5940, 6054, 6688, 6822, 7555, 7899]}, "edge": {"target": [], "time": []}}}, "displayed_time": "11.21", "trialTime": 13910, "trial_type": "mouselab-mdp", "trial_index": 18, "time_elapsed": 653524, "internal_node_id": "0.0-4.0-1.0-9.0"}}, {"uniqueid": "w92205734:a17395195", "current_trial": 19, "dateTime": 1664874134831, "trialdata": {"revealed_states": [], "num_clicks_accrued": [0, 0, 0, 0, 0, 0, 0, 0, 0, 0, 0, 0, 0], "stateRewards": ["", -2, 8, 24, -48, -2, -4, 24, 48, 2, 8, -48, -48], "withholdReward": true, "trial_id": "mdp_562228697607", "block": "test1", "trialIndex": 12, "score": 45, "costs": -2, "simulationMode": [null, null, null], "rewards": [-2, -4, 48], "path": ["0", "0", "5", "6", "8"], "rt": [8441, 54, 198], "actions": ["right", "right", "down"], "actionTimes": [11233, 11793, 12504], "queries": {"click": {"state": {"target": ["3", "4", "12", "11", "8", "5", "6", "7"], "time": [3911, 4599, 6056, 6821, 7759, 8930, 9242, 9902]}, "edge": {"target": [], "time": []}}, "mouseover": {"state": {"target": ["1", "3", "2", "4", "10", "12", "10", "11", "5", "8", "6", "5", "6", "7"], "time": [3339, 3706, 4306, 4506, 5872, 5973, 6539, 6639, 7456, 7506, 8372, 8805, 9189, 9839]}, "edge": {"target": [], "time": []}}, "mouseout": {"state": {"target": ["5", "0", "1", "3", "2", "4", "10", "12", "10", "11", "5", "8", "6", "5", "6", "6", "7"], "time": [2556, 3289, 3373, 4272, 4356, 5539, 5889, 6490, 6589, 7357, 7472, 8307, 8756, 9123, 9589, 9805, 10090]}, "edge": {"target": [], "time": []}}}, "displayed_time": "13.01", "trialTime": 14281, "trial_type": "mouselab-mdp", "trial_index": 19, "time_elapsed": 667843, "internal_node_id": "0.0-4.0-1.0-10.0"}}, {"uniqueid": "w92205734:a17395195", "current_trial": 20, "dateTime": 1664874150699, "trialdata": {"revealed_states": [], "num_clicks_accrued": [0, 0, 0, 0, 0, 0, 0, 0, 0, 0, 0, 0, 0], "stateRewards": ["", 2, -8, -24, -48, -2, -4, 48, 48, 4, 8, 48, 48], "withholdReward": true, "trial_id": "mdp_347285045422", "block": "test1", "trialIndex": 13, "score": 46.25, "costs": -0.75, "simulationMode": [null, null, null], "rewards": [-2, -4, 48], "path": ["0", "0", "5", "6", "8"], "rt": [2738, 455, 82], "actions": ["right", "right", "down"], "actionTimes": [9177, 10143, 10720], "queries": {"click": {"state": {"target": ["8", "5", "6"], "time": [7211, 8087, 8337]}, "edge": {"target": [], "time": []}}, "mouseover": {"state": {"target": ["0", "8", "5", "6"], "time": [6638, 7020, 7688, 8254]}, "edge": {"target": [], "time": []}}, "mouseout": {"state": {"target": ["8", "0", "0", "8", "5", "6"], "time": [6104, 6370, 6904, 7454, 8220, 8654]}, "edge": {"target": [], "time": []}}}, "displayed_time": "15.44", "trialTime": 15832, "trial_type": "mouselab-mdp", "trial_index": 20, "time_elapsed": 683711, "internal_node_id": "0.0-4.0-1.0-11.0"}}, {"uniqueid": "w92205734:a17395195", "current_trial": 21, "dateTime": 1664874168434, "trialdata": {"revealed_states": [], "num_clicks_accrued": [0, 0, 0, 0, 0, 0, 0, 0, 0, 0, 0, 0, 0], "stateRewards": ["", -4, 4, 24, 24, -2, 8, 24, -48, 4, -8, -24, -48], "withholdReward": true, "trial_id": "mdp_651542905861", "block": "test1", "trialIndex": 14, "score": 26, "costs": -3, "simulationMode": [null, null, null], "rewards": [-4, 4, 24], "path": ["0", "0", "1", "2", "3"], "rt": [11951, 1098, 890], "actions": ["up", "up", "right"], "actionTimes": [13319, 14913, 16306], "queries": {"click": {"state": {"target": ["8", "7", "4", "12", "11", "3", "6", "5", "1", "9", "10", "2"], "time": [1834, 2447, 3414, 4030, 4617, 5125, 7279, 7753, 8271, 8740, 9274, 9838]}, "edge": {"target": [], "time": []}}, "mouseover": {"state": {"target": ["5", "8", "6", "7", "1", "2", "4", "10", "12", "10", "11", "1", "3", "5", "5", "6", "5", "1", "9", "10", "2"], "time": [1550, 1782, 2149, 2316, 3115, 3215, 3299, 3832, 3915, 4332, 4416, 4849, 4966, 5949, 6516, 7198, 7599, 8199, 8715, 9215, 9749]}, "edge": {"target": [], "time": []}}, "mouseout": {"state": {"target": ["6", "5", "5", "8", "6", "7", "1", "2", "4", "10", "12", "10", "11", "1", "3", "5", "5", "6", "5", "1", "9", "10", "2"], "time": [1015, 1149, 1583, 2083, 2249, 2716, 3149, 3232, 3699, 3865, 4299, 4365, 4767, 4865, 5299, 6082, 7082, 7465, 7999, 8515, 9165, 9499, 10067]}, "edge": {"target": [], "time": []}}}, "displayed_time": "16.80", "trialTime": 17696, "trial_type": "mouselab-mdp", "trial_index": 21, "time_elapsed": 701446, "internal_node_id": "0.0-4.0-1.0-12.0"}}, {"uniqueid": "w92205734:a17395195", "current_trial": 22, "dateTime": 1664874179893, "trialdata": {"revealed_states": [], "num_clicks_accrued": [0, 0, 0, 0, 0, 0, 0, 0, 0, 0, 0, 0, 0], "stateRewards": ["", -2, -4, -24, 48, -4, 8, 48, 48, 2, 8, -48, -24], "withholdReward": true, "trial_id": "mdp_136376573354", "block": "test1", "trialIndex": 15, "score": 56, "costs": -1, "simulationMode": [null, null, null], "rewards": [-4, 8, 48], "path": ["0", "0", "5", "6", "8"], "rt": [3549, 66, 64], "actions": ["right", "right", "down"], "actionTimes": [5552, 6111, 6676], "queries": {"click": {"state": {"target": ["3", "8", "5", "6"], "time": [2596, 3315, 4369, 4615]}, "edge": {"target": [], "time": []}}, "mouseover": {"state": {"target": ["3", "6", "8", "5", "6"], "time": [2477, 3127, 3194, 4245, 4561]}, "edge": {"target": [], "time": []}}, "mouseout": {"state": {"target": ["3", "1", "0", "3", "6", "8", "5", "6"], "time": [1644, 1710, 2345, 2895, 3144, 3578, 4511, 4828]}, "edge": {"target": [], "time": []}}}, "displayed_time": "11.00", "trialTime": 11418, "trial_type": "mouselab-mdp", "trial_index": 22, "time_elapsed": 712905, "internal_node_id": "0.0-4.0-1.0-13.0"}}, {"uniqueid": "w92205734:a17395195", "current_trial": 23, "dateTime": 1664874189328, "trialdata": {"revealed_states": [], "num_clicks_accrued": [0, 0, 0, 0, 0, 0, 0, 0, 0, 0, 0, 0, 0], "stateRewards": ["", 2, -8, 24, 24, 2, 4, -48, -48, 4, 4, -24, 48], "withholdReward": true, "trial_id": "mdp_985707010949", "block": "test1", "trialIndex": 16, "score": 59.5, "costs": -1.5, "simulationMode": [null, null, null], "rewards": [4, 4, 48], "path": ["0", "0", "9", "10", "12"], "rt": [5121, 94, 146], "actions": ["left", "left", "down"], "actionTimes": [6035, 6615, 7267], "queries": {"click": {"state": {"target": ["8", "7", "3", "4", "11", "12"], "time": [1429, 1931, 2522, 3029, 3571, 3911]}, "edge": {"target": [], "time": []}}, "mouseover": {"state": {"target": ["8", "8", "6", "7", "3", "2", "4", "11", "11", "10", "12"], "time": [1121, 1337, 1671, 1787, 2504, 2788, 2837, 3237, 3455, 3721, 3887]}, "edge": {"target": [], "time": []}}, "mouseout": {"state": {"target": ["0", "8", "8", "6", "7", "3", "2", "4", "11", "11", "10", "12"], "time": [1054, 1154, 1621, 1737, 2121, 2754, 2821, 3187, 3287, 3687, 3787, 4421]}, "edge": {"target": [], "time": []}}}, "displayed_time": "8.92", "trialTime": 9397, "trial_type": "mouselab-mdp", "trial_index": 23, "time_elapsed": 722340, "internal_node_id": "0.0-4.0-1.0-14.0"}}, {"uniqueid": "w92205734:a17395195", "current_trial": 24, "dateTime": 1664874199898, "trialdata": {"revealed_states": [], "num_clicks_accrued": [0, 0, 0, 0, 0, 0, 0, 0, 0, 0, 0, 0, 0], "stateRewards": ["", 4, -8, -48, 48, -2, 8, -48, 48, -2, -4, 24, -48], "withholdReward": true, "trial_id": "mdp_400558136089", "block": "test1", "trialIndex": 17, "score": 47.5, "costs": -1.5, "simulationMode": [null, null, null], "rewards": [4, -8, 48], "path": ["0", "0", "1", "2", "4"], "rt": [5867, 53, 94], "actions": ["up", "up", "left"], "actionTimes": [7718, 8273, 8881], "queries": {"click": {"state": {"target": ["12", "11", "3", "4", "1", "2"], "time": [2637, 3178, 4115, 4531, 6251, 6493]}, "edge": {"target": [], "time": []}}, "mouseover": {"state": {"target": ["0", "12", "10", "11", "3", "2", "4", "1", "1", "2"], "time": [2320, 2586, 2953, 3069, 3986, 4319, 4469, 4819, 5837, 6436]}, "edge": {"target": [], "time": []}}, "mouseout": {"state": {"target": ["12", "0", "0", "12", "10", "11", "3", "2", "4", "1", "1", "2", "4", "11"], "time": [1453, 2036, 2386, 2870, 3019, 3670, 4304, 4403, 4770, 4853, 6386, 6654, 6719, 10386]}, "edge": {"target": [], "time": []}}}, "displayed_time": "9.85", "trialTime": 10533, "trial_type": "mouselab-mdp", "trial_index": 24, "time_elapsed": 732910, "internal_node_id": "0.0-4.0-1.0-15.0"}}, {"uniqueid": "w92205734:a17395195", "current_trial": 25, "dateTime": 1664874208937, "trialdata": {"revealed_states": [], "num_clicks_accrued": [0, 0, 0, 0, 0, 0, 0, 0, 0, 0, 0, 0, 0], "stateRewards": ["", -2, 4, -48, -48, 4, 4, 48, -48, 2, 8, 24, 48], "withholdReward": true, "trial_id": "mdp_686771069745", "block": "test1", "trialIndex": 18, "score": 62.25, "costs": -0.75, "simulationMode": [null, null, null], "rewards": [2, 8, 48], "path": ["0", "0", "9", "10", "12"], "rt": [3129, 16, 84], "actions": ["left", "left", "down"], "actionTimes": [3858, 4385, 4986], "queries": {"click": {"state": {"target": ["4", "3", "12"], "time": [1266, 1836, 2705]}, "edge": {"target": [], "time": []}}, "mouseover": {"state": {"target": ["1", "4", "2", "3", "10", "11", "10", "12"], "time": [1052, 1185, 1651, 1751, 2184, 2530, 2584, 2651]}, "edge": {"target": [], "time": []}}, "mouseout": {"state": {"target": ["9", "0", "1", "4", "4", "2", "3", "10", "11", "10", "12"], "time": [568, 668, 1101, 1426, 1585, 1718, 2018, 2285, 2568, 2618, 3118]}, "edge": {"target": [], "time": []}}}, "displayed_time": "8.73", "trialTime": 9004, "trial_type": "mouselab-mdp", "trial_index": 25, "time_elapsed": 741949, "internal_node_id": "0.0-4.0-1.0-16.0"}}, {"uniqueid": "w92205734:a17395195", "current_trial": 26, "dateTime": 1664874226410, "trialdata": {"revealed_states": [], "num_clicks_accrued": [0, 0, 0, 0, 0, 0, 0, 0, 0, 0, 0, 0, 0], "stateRewards": ["", -4, -4, 24, -48, 2, 4, -24, -48, -2, -8, -24, 24], "withholdReward": true, "trial_id": "mdp_565569130486", "block": "test1", "trialIndex": 19, "score": 18, "costs": -3, "simulationMode": [null, null, null], "rewards": [-4, -4, 24], "path": ["0", "0", "1", "2", "3"], "rt": [11807, 423, 102], "actions": ["up", "up", "right"], "actionTimes": [14971, 15883, 16479], "queries": {"click": {"state": {"target": ["12", "11", "3", "4", "7", "8", "5", "6", "1", "9", "10", "2"], "time": [3937, 4529, 5163, 5527, 6272, 6555, 7816, 8119, 8608, 8911, 9254, 9774]}, "edge": {"target": [], "time": []}}, "mouseover": {"state": {"target": ["0", "12", "10", "11", "2", "3", "2", "4", "7", "7", "6", "8", "6", "5", "6", "1", "9", "10", "2"], "time": [3643, 3927, 4326, 4393, 4910, 5093, 5343, 5393, 5809, 6144, 6426, 6543, 7143, 7243, 8010, 8543, 8810, 9176, 9611]}, "edge": {"target": [], "time": []}}, "mouseout": {"state": {"target": ["0", "0", "12", "10", "11", "2", "3", "2", "4", "7", "7", "6", "8", "6", "5", "6", "5", "1", "9", "10", "2", "3"], "time": [3328, 3677, 4293, 4360, 4743, 5026, 5309, 5376, 5709, 5826, 6356, 6476, 7009, 7193, 7960, 8310, 8376, 8743, 9126, 9443, 9926, 9976]}, "edge": {"target": [], "time": []}}}, "displayed_time": "16.99", "trialTime": 17436, "trial_type": "mouselab-mdp", "trial_index": 26, "time_elapsed": 759422, "internal_node_id": "0.0-4.0-1.0-17.0"}}, {"uniqueid": "w92205734:a17395195", "current_trial": 27, "dateTime": 1664874237118, "trialdata": {"revealed_states": [], "num_clicks_accrued": [0, 0, 0, 0, 0, 0, 0, 0, 0, 0, 0, 0, 0], "stateRewards": ["", -4, -8, 48, -24, 4, -8, 48, 48, -2, 4, -48, -24], "withholdReward": true, "trial_id": "mdp_925905402462", "block": "test1", "trialIndex": 20, "score": 40.25, "costs": -0.75, "simulationMode": [null, null, null], "rewards": [-4, -8, 48], "path": ["0", "0", "1", "2", "3"], "rt": [5023, 23, 4], "actions": ["up", "up", "right"], "actionTimes": [7384, 7904, 8419], "queries": {"click": {"state": {"target": ["3", "2", "1"], "time": [3098, 6145, 6416]}, "edge": {"target": [], "time": []}}, "mouseover": {"state": {"target": ["1", "2", "3", "2", "4", "2", "2", "1"], "time": [2731, 2797, 3064, 3314, 3431, 5715, 5965, 6364]}, "edge": {"target": [], "time": []}}, "mouseout": {"state": {"target": ["3", "0", "1", "2", "3", "2", "4", "2", "2", "1", "3"], "time": [1730, 2681, 2764, 2831, 3264, 3364, 5580, 5747, 6315, 6631, 6714]}, "edge": {"target": [], "time": []}}}, "displayed_time": "10.36", "trialTime": 10665, "trial_type": "mouselab-mdp", "trial_index": 27, "time_elapsed": 770129, "internal_node_id": "0.0-4.0-1.0-18.0"}}, {"uniqueid": "w92205734:a17395195", "current_trial": 28, "dateTime": 1664874247306, "trialdata": {"revealed_states": [], "num_clicks_accrued": [0, 0, 0, 0, 0, 0, 0, 0, 0, 0, 0, 0, 0], "stateRewards": ["", 4, 8, 48, -48, -4, 8, -24, -24, -4, 8, 48, 48], "withholdReward": true, "trial_id": "mdp_377640328420", "block": "test1", "trialIndex": 21, "score": 64.75, "costs": -0.25, "simulationMode": [null, null, null], "rewards": [4, 8, 48], "path": ["0", "0", "1", "2", "3"], "rt": [2526, 61, 80], "actions": ["up", "up", "right"], "actionTimes": [3424, 3986, 4571], "queries": {"click": {"state": {"target": ["3"], "time": [1981]}, "edge": {"target": [], "time": []}}, "mouseover": {"state": {"target": ["3", "2", "2", "3", "2", "4", "4"], "time": [1574, 1624, 1791, 1907, 2191, 2241, 2660]}, "edge": {"target": [], "time": []}}, "mouseout": {"state": {"target": ["0", "3", "2", "2", "3", "2", "4", "4", "4"], "time": [1042, 1591, 1674, 1857, 2159, 2224, 2325, 2958, 7374]}, "edge": {"target": [], "time": []}}}, "displayed_time": "9.90", "trialTime": 10148, "trial_type": "mouselab-mdp", "trial_index": 28, "time_elapsed": 780318, "internal_node_id": "0.0-4.0-1.0-19.0"}}, {"uniqueid": "w92205734:a17395195", "current_trial": 29, "dateTime": 1664874259609, "trialdata": {"revealed_states": [], "num_clicks_accrued": [0, 0, 0, 0, 0, 0, 0, 0, 0, 0, 0, 0, 0], "stateRewards": ["", 2, -8, 48, -24, -4, -8, -24, 48, -2, 4, 24, -48], "withholdReward": true, "trial_id": "mdp_186932504904", "block": "test1", "trialIndex": 22, "score": 46.25, "costs": -0.75, "simulationMode": [null, null, null], "rewards": [2, -8, 48], "path": ["0", "0", "1", "2", "3"], "rt": [2638, 43, 406], "actions": ["up", "up", "right"], "actionTimes": [3442, 3980, 4909], "queries": {"click": {"state": {"target": ["1", "2", "3"], "time": [1654, 1898, 2353]}, "edge": {"target": [], "time": []}}, "mouseover": {"state": {"target": ["1", "2", "3"], "time": [1236, 1852, 2069]}, "edge": {"target": [], "time": []}}, "mouseout": {"state": {"target": ["11", "9", "0", "1", "2", "3"], "time": [502, 687, 1137, 1819, 2052, 2553]}, "edge": {"target": [], "time": []}}}, "displayed_time": "8.80", "trialTime": 12263, "trial_type": "mouselab-mdp", "trial_index": 29, "time_elapsed": 792621, "internal_node_id": "0.0-4.0-1.0-20.0"}}, {"uniqueid": "w92205734:a17395195", "current_trial": 30, "dateTime": 1664874270737, "trialdata": {"revealed_states": [], "num_clicks_accrued": [0, 0, 0, 0, 0, 0, 0, 0, 0, 0, 0, 0, 0], "stateRewards": ["", -2, 4, -48, 24, -4, 8, 48, 24, -2, 4, -48, -24], "withholdReward": true, "trial_id": "mdp_740882974347", "block": "test1", "trialIndex": 23, "score": 55.5, "costs": -1.5, "simulationMode": [null, null, null], "rewards": [-4, 8, 48], "path": ["0", "0", "5", "6", "7"], "rt": [4622, 524, 109], "actions": ["right", "right", "up"], "actionTimes": [6224, 7255, 7856], "queries": {"click": {"state": {"target": ["3", "4", "11", "12", "8", "7"], "time": [2148, 2665, 3910, 4375, 4933, 5207]}, "edge": {"target": [], "time": []}}, "mouseover": {"state": {"target": ["1", "3", "2", "4", "9", "10", "11", "10", "12", "8", "6", "7"], "time": [1864, 2098, 2331, 2530, 3330, 3414, 3714, 4064, 4230, 4880, 5097, 5180]}, "edge": {"target": [], "time": []}}, "mouseout": {"state": {"target": ["1", "9", "1", "3", "2", "4", "9", "10", "11", "10", "12", "8", "6", "7"], "time": [1263, 1430, 1930, 2298, 2480, 2897, 3363, 3647, 4025, 4147, 4580, 5080, 5146, 5547]}, "edge": {"target": [], "time": []}}}, "displayed_time": "10.60", "trialTime": 11087, "trial_type": "mouselab-mdp", "trial_index": 30, "time_elapsed": 803749, "internal_node_id": "0.0-4.0-1.0-21.0"}}, {"uniqueid": "w92205734:a17395195", "current_trial": 31, "dateTime": 1664874284617, "trialdata": {"revealed_states": [], "num_clicks_accrued": [0, 0, 0, 0, 0, 0, 0, 0, 0, 0, 0, 0, 0], "stateRewards": ["", -4, 4, 24, 24, 4, -8, 48, -48, -2, -8, 24, 24], "withholdReward": true, "trial_id": "mdp_395264223239", "block": "test1", "trialIndex": 24, "score": 48.5, "costs": -0.5, "simulationMode": [null, null, null], "rewards": [4, -8, 48], "path": ["0", "0", "5", "6", "7"], "rt": [1830, 355, 104], "actions": ["right", "right", "up"], "actionTimes": [6258, 7124, 7722], "queries": {"click": {"state": {"target": ["8", "7"], "time": [4840, 5210]}, "edge": {"target": [], "time": []}}, "mouseover": {"state": {"target": ["8", "6", "7", "2"], "time": [4651, 5018, 5101, 5518]}, "edge": {"target": [], "time": []}}, "mouseout": {"state": {"target": ["5", "0", "0", "8", "6", "7"], "time": [3901, 4001, 4551, 4985, 5068, 5420]}, "edge": {"target": [], "time": []}}}, "displayed_time": "13.43", "trialTime": 13839, "trial_type": "mouselab-mdp", "trial_index": 31, "time_elapsed": 817629, "internal_node_id": "0.0-4.0-1.0-22.0"}}, {"uniqueid": "w92205734:a17395195", "current_trial": 32, "dateTime": 1664874298002, "trialdata": {"revealed_states": [], "num_clicks_accrued": [0, 0, 0, 0, 0, 0, 0, 0, 0, 0, 0, 0, 0], "stateRewards": ["", 2, 4, 48, -48, 2, -4, 48, 24, -2, -8, -24, 48], "withholdReward": false, "trial_id": "mdp_962424406744", "block": "test1", "trialIndex": 25, "score": 50.75, "costs": -0.25, "simulationMode": [null, null, null], "rewards": [2, -4, 48], "path": ["0", "0", "5", "6", "7"], "rt": [2100, 4, 63], "actions": ["right", "right", "up"], "actionTimes": [3774, 4289, 4865], "queries": {"click": {"state": {"target": ["7"], "time": [2798]}, "edge": {"target": [], "time": []}}, "mouseover": {"state": {"target": ["7", "7"], "time": [1884, 2435]}, "edge": {"target": [], "time": []}}, "mouseout": {"state": {"target": ["2", "0", "7", "7", "5"], "time": [1268, 1678, 1934, 10017, 10117]}, "edge": {"target": [], "time": []}}}, "displayed_time": "9.68", "trialTime": 13341, "trial_type": "mouselab-mdp", "trial_index": 32, "time_elapsed": 831014, "internal_node_id": "0.0-4.0-1.0-23.0"}}, {"uniqueid": "w92205734:a17395195", "current_trial": 33, "dateTime": 1664874309095, "trialdata": {"revealed_states": [], "num_clicks_accrued": [0, 0, 0, 0, 0, 0, 0, 0, 0, 0, 0, 0, 0], "stateRewards": ["", -4, -8, 24, 48, 2, -4, -24, 24, -4, 8, 48, 48], "withholdReward": false, "trial_id": "mdp_496672670022", "block": "test1", "trialIndex": 26, "score": 56.25, "costs": -0.75, "simulationMode": [null, null, null], "rewards": [-4, 8, 48], "path": ["0", "0", "9", "10", "12"], "rt": [3510, 75, 410], "actions": ["left", "left", "down"], "actionTimes": [6098, 6661, 7562], "queries": {"click": {"state": {"target": ["7", "8", "12"], "time": [3659, 4134, 5041]}, "edge": {"target": [], "time": []}}, "mouseover": {"state": {"target": ["5", "5", "7", "6", "8", "12", "10", "11"], "time": [2935, 3135, 3585, 3935, 4051, 5035, 5218, 5268]}, "edge": {"target": [], "time": []}}, "mouseout": {"state": {"target": ["0", "5", "5", "7", "6", "8", "12", "10", "11"], "time": [2886, 3019, 3518, 3885, 4001, 4385, 5202, 5251, 5318]}, "edge": {"target": [], "time": []}}}, "displayed_time": "10.59", "trialTime": 11052, "trial_type": "mouselab-mdp", "trial_index": 33, "time_elapsed": 842107, "internal_node_id": "0.0-4.0-1.0-24.0"}}, {"uniqueid": "w92205734:a17395195", "current_trial": 34, "dateTime": 1664874320838, "trialdata": {"revealed_states": [], "num_clicks_accrued": [0, 0, 0, 0, 0, 0, 0, 0, 0, 0, 0, 0, 0], "stateRewards": ["", -4, 8, 24, 24, 2, 4, -48, 24, -2, -4, -24, -24], "withholdReward": false, "trial_id": "mdp_752328329546", "block": "test1", "trialIndex": 27, "score": 31.5, "costs": -1.5, "simulationMode": [null, null, null], "rewards": [-4, 8, 24], "path": ["0", "0", "1", "2", "3"], "rt": [7514, 432, 100], "actions": ["up", "up", "right"], "actionTimes": [8996, 9937, 10555], "queries": {"click": {"state": {"target": ["3", "4", "12", "8", "7", "11"], "time": [2158, 2619, 3170, 3767, 4125, 5003]}, "edge": {"target": [], "time": []}}, "mouseover": {"state": {"target": ["0", "1", "3", "2", "4", "10", "12", "8", "6", "7", "11", "11", "2"], "time": [1485, 1905, 2089, 2371, 2505, 2921, 3038, 3655, 3971, 4055, 4474, 4956, 6038]}, "edge": {"target": [], "time": []}}, "mouseout": {"state": {"target": ["0", "1", "3", "2", "4", "10", "12", "8", "6", "7", "11", "11", "2"], "time": [1822, 1955, 2305, 2422, 2823, 2988, 3505, 3938, 4005, 4321, 4588, 5205, 6772]}, "edge": {"target": [], "time": []}}}, "displayed_time": "11.07", "trialTime": 11698, "trial_type": "mouselab-mdp", "trial_index": 34, "time_elapsed": 853850, "internal_node_id": "0.0-4.0-1.0-25.0"}}, {"uniqueid": "w92205734:a17395195", "current_trial": 35, "dateTime": 1664874333387, "trialdata": {"revealed_states": [], "num_clicks_accrued": [0, 0, 0, 0, 0, 0, 0, 0, 0, 0, 0, 0, 0], "stateRewards": ["", 4, -8, -24, 24, 2, -4, 24, 24, 2, -4, 48, 48], "withholdReward": false, "trial_id": "mdp_457607480918", "block": "test1", "trialIndex": 28, "score": 49, "costs": -2, "simulationMode": [null, null, null], "rewards": [2, -4, 48], "path": ["0", "0", "9", "10", "11"], "rt": [7019, 33, 24], "actions": ["left", "left", "up"], "actionTimes": [10293, 10816, 11373], "queries": {"click": {"state": {"target": ["8", "7", "3", "4", "11", "12", "10", "9"], "time": [4059, 4602, 5319, 5692, 6309, 6542, 8881, 9193]}, "edge": {"target": [], "time": []}}, "mouseover": {"state": {"target": ["5", "8", "6", "7", "3", "2", "4", "11", "10", "10", "11", "10", "12", "9", "10", "9"], "time": [3849, 4033, 4299, 4399, 5066, 5499, 5599, 5915, 5982, 6166, 6249, 6432, 6499, 7032, 8799, 9166]}, "edge": {"target": [], "time": []}}, "mouseout": {"state": {"target": ["2", "2", "1", "0", "5", "8", "6", "7", "3", "2", "4", "11", "10", "10", "11", "10", "12", "9", "10", "9"], "time": [523, 2984, 3033, 3516, 3916, 4249, 4350, 4766, 5482, 5549, 5882, 5949, 6083, 6216, 6415, 6465, 6950, 8749, 9082, 9532]}, "edge": {"target": [], "time": []}}}, "displayed_time": "11.88", "trialTime": 12509, "trial_type": "mouselab-mdp", "trial_index": 35, "time_elapsed": 866399, "internal_node_id": "0.0-4.0-1.0-26.0"}}, {"uniqueid": "w92205734:a17395195", "current_trial": 36, "dateTime": 1664874343999, "trialdata": {"revealed_states": [], "num_clicks_accrued": [0, 0, 0, 0, 0, 0, 0, 0, 0, 0, 0, 0, 0], "stateRewards": ["", 2, 4, -48, -48, 2, 4, 48, -24, -2, 8, 48, -48], "withholdReward": true, "trial_id": "mdp_258528916140", "block": "test1", "trialIndex": 29, "score": 58.25, "costs": -0.75, "simulationMode": [null, null, null], "rewards": [-2, 8, 48], "path": ["0", "0", "9", "10", "11"], "rt": [3172, 54, 11], "actions": ["left", "left", "up"], "actionTimes": [4994, 5541, 6066], "queries": {"click": {"state": {"target": ["3", "4", "11"], "time": [2544, 2901, 3456]}, "edge": {"target": [], "time": []}}, "mouseover": {"state": {"target": ["0", "3", "2", "4", "11", "11", "10", "10"], "time": [2253, 2420, 2670, 2720, 3103, 3304, 3620, 4520]}, "edge": {"target": [], "time": []}}, "mouseout": {"state": {"target": ["10", "0", "0", "3", "2", "4", "11", "11", "10", "10", "0", "5", "8"], "time": [1520, 2070, 2270, 2653, 2703, 3053, 3170, 3587, 3703, 7538, 8636, 8669, 8736]}, "edge": {"target": [], "time": []}}}, "displayed_time": "9.82", "trialTime": 10576, "trial_type": "mouselab-mdp", "trial_index": 36, "time_elapsed": 877011, "internal_node_id": "0.0-4.0-1.0-27.0"}}, {"uniqueid": "w92205734:a17395195", "current_trial": 37, "dateTime": 1664874353214, "trialdata": {"revealed_states": [], "num_clicks_accrued": [0, 0, 0, 0, 0, 0, 0, 0, 0, 0, 0, 0, 0], "stateRewards": ["", 2, 8, 48, 24, 2, 8, 48, 48, -2, -4, -24, -48], "withholdReward": true, "trial_id": "mdp_717636349175", "block": "test1", "trialIndex": 30, "score": 62.25, "costs": -0.75, "simulationMode": [null, null, null], "rewards": [2, 8, 48], "path": ["0", "0", "1", "2", "3"], "rt": [3144, 39, 12], "actions": ["up", "up", "right"], "actionTimes": [3965, 4507, 5030], "queries": {"click": {"state": {"target": ["11", "12", "3"], "time": [1266, 1868, 2529]}, "edge": {"target": [], "time": []}}, "mouseover": {"state": {"target": ["9", "11", "10", "12", "3", "2", "4"], "time": [1084, 1184, 1734, 1800, 2417, 2701, 2784]}, "edge": {"target": [], "time": []}}, "mouseout": {"state": {"target": ["0", "9", "11", "10", "12", "3", "2", "4"], "time": [1067, 1100, 1534, 1767, 2117, 2668, 2750, 3167]}, "edge": {"target": [], "time": []}}}, "displayed_time": "8.82", "trialTime": 9172, "trial_type": "mouselab-mdp", "trial_index": 37, "time_elapsed": 886226, "internal_node_id": "0.0-4.0-1.0-28.0"}}, {"uniqueid": "w92205734:a17395195", "current_trial": 38, "dateTime": 1664874362883, "trialdata": {"revealed_states": [], "num_clicks_accrued": [0, 0, 0, 0, 0, 0, 0, 0, 0, 0, 0, 0, 0], "stateRewards": ["", 2, -8, -48, 24, 4, 8, 48, -48, 2, -4, 24, 24], "withholdReward": true, "trial_id": "mdp_130475327289", "block": "test1", "trialIndex": 31, "score": 63.5, "costs": -1.5, "simulationMode": [null, null, null], "rewards": [4, 8, 48], "path": ["0", "0", "5", "6", "7"], "rt": [4010, 59, 66], "actions": ["right", "right", "up"], "actionTimes": [5227, 5776, 6366], "queries": {"click": {"state": {"target": ["3", "4", "11", "12", "8", "7"], "time": [1611, 2336, 3093, 3337, 3918, 4183]}, "edge": {"target": [], "time": []}}, "mouseover": {"state": {"target": ["3", "2", "4", "4", "11", "11", "10", "12", "8", "6", "7"], "time": [1533, 1816, 1900, 2283, 2616, 3023, 3233, 3316, 3800, 4083, 4166]}, "edge": {"target": [], "time": []}}, "mouseout": {"state": {"target": ["8", "0", "3", "2", "4", "4", "11", "11", "10", "12", "8", "6", "7"], "time": [683, 1383, 1783, 1866, 1966, 2550, 2866, 3199, 3266, 3600, 4066, 4116, 4400]}, "edge": {"target": [], "time": []}}}, "displayed_time": "9.22", "trialTime": 9623, "trial_type": "mouselab-mdp", "trial_index": 38, "time_elapsed": 895895, "internal_node_id": "0.0-4.0-1.0-29.0"}}, {"uniqueid": "w92205734:a17395195", "current_trial": 39, "dateTime": 1664874501689, "trialdata": {"rt": 138804, "stimulus": "<h1> End of block! </h1>\n\nYou have reached the end of the block 1/4. If you need a short break, feel free to take one now before moving on.\n\n<br><br>\nIn the next block, you will complete another 30 rounds of this game.\n\n<br><br>\n<div style='text-align: center;'>Press <code>space</code> to begin.</div>\n<br><br>\n<div style='text-align: center;'>(If the experiment doesn't continue, try clicking on the text and then pressing <code>space</code>.)</div>", "response": " ", "trial_id": "mdp_ready_2", "trial_type": "html-keyboard-response", "trial_index": 39, "time_elapsed": 1034701, "internal_node_id": "0.0-4.0-2.0"}}, {"uniqueid": "w92205734:a17395195", "current_trial": 40, "dateTime": 1664874513489, "trialdata": {"revealed_states": [], "num_clicks_accrued": [0, 0, 0, 0, 0, 0, 0, 0, 0, 0, 0, 0, 0], "stateRewards": ["", -2, 8, 24, -48, -4, -8, -24, -48, -4, 8, -24, 48], "withholdReward": true, "trial_id": "mdp_464339499860", "block": "test2", "trialIndex": 32, "score": 55.5, "costs": -1.5, "simulationMode": [null, null, null], "rewards": [-4, 8, 48], "path": ["0", "0", "9", "10", "12"], "rt": [6297, 18, 49], "actions": ["left", "left", "down"], "actionTimes": [8884, 9418, 9983], "queries": {"click": {"state": {"target": ["3", "4", "11", "12", "9", "10"], "time": [3855, 4562, 5344, 5766, 7544, 7824]}, "edge": {"target": [], "time": []}}, "mouseover": {"state": {"target": ["0", "1", "3", "2", "4", "4", "11", "10", "12", "9", "10"], "time": [3217, 3666, 3767, 4116, 4233, 4467, 5134, 5566, 5700, 6883, 7733]}, "edge": {"target": [], "time": []}}, "mouseout": {"state": {"target": ["6", "5", "0", "0", "1", "3", "2", "4", "4", "11", "10", "12", "9", "10"], "time": [2267, 2450, 2733, 3334, 3683, 4101, 4166, 4283, 4718, 5500, 5650, 5969, 7683, 8017]}, "edge": {"target": [], "time": []}}}, "displayed_time": "10.59", "trialTime": 11755, "trial_type": "mouselab-mdp", "trial_index": 40, "time_elapsed": 1046500, "internal_node_id": "0.0-4.0-3.0-0.0"}}, {"uniqueid": "w92205734:a17395195", "current_trial": 41, "dateTime": 1664874528432, "trialdata": {"revealed_states": [], "num_clicks_accrued": [0, 0, 0, 0, 0, 0, 0, 0, 0, 0, 0, 0, 0], "stateRewards": ["", -2, -8, 48, -24, 2, -4, -48, -24, -2, -4, -48, 48], "withholdReward": false, "trial_id": "mdp_143798438087", "block": "test2", "trialIndex": 33, "score": 46, "costs": -1, "simulationMode": [null, null, null], "rewards": [-2, -4, 48], "path": ["0", "0", "9", "10", "12"], "rt": [4035, 20, 208], "actions": ["left", "left", "down"], "actionTimes": [10686, 11205, 11926], "queries": {"click": {"state": {"target": ["12", "11", "9", "10"], "time": [7559, 8050, 9670, 9895]}, "edge": {"target": [], "time": []}}, "mouseover": {"state": {"target": ["0", "12", "12", "10", "11", "9", "10"], "time": [6951, 7067, 7368, 7784, 7867, 9468, 9834]}, "edge": {"target": [], "time": []}}, "mouseout": {"state": {"target": ["0", "0", "12", "12", "10", "11", "9", "10"], "time": [6735, 6984, 7084, 7751, 7834, 8351, 9785, 13517]}, "edge": {"target": [], "time": []}}}, "displayed_time": "14.65", "trialTime": 14900, "trial_type": "mouselab-mdp", "trial_index": 41, "time_elapsed": 1061444, "internal_node_id": "0.0-4.0-3.0-1.0"}}, {"uniqueid": "w92205734:a17395195", "current_trial": 42, "dateTime": 1664874537695, "trialdata": {"revealed_states": [], "num_clicks_accrued": [0, 0, 0, 0, 0, 0, 0, 0, 0, 0, 0, 0, 0], "stateRewards": ["", 4, -8, -24, 48, -4, 8, -24, -48, -4, -4, 24, 48], "withholdReward": true, "trial_id": "mdp_282352776624", "block": "test2", "trialIndex": 34, "score": 44.75, "costs": -0.25, "simulationMode": [null, null, null], "rewards": [-4, -4, 48], "path": ["0", "0", "9", "10", "12"], "rt": [1703, 34, 324], "actions": ["left", "left", "down"], "actionTimes": [2251, 2793, 3649], "queries": {"click": {"state": {"target": ["12"], "time": [1052]}, "edge": {"target": [], "time": []}}, "mouseover": {"state": {"target": ["12"], "time": [975]}, "edge": {"target": [], "time": []}}, "mouseout": {"state": {"target": ["0", "12", "10"], "time": [792, 5258, 5559]}, "edge": {"target": [], "time": []}}}, "displayed_time": "8.55", "trialTime": 9222, "trial_type": "mouselab-mdp", "trial_index": 42, "time_elapsed": 1070707, "internal_node_id": "0.0-4.0-3.0-2.0"}}, {"uniqueid": "w92205734:a17395195", "current_trial": 43, "dateTime": 1664874547717, "trialdata": {"revealed_states": [], "num_clicks_accrued": [0, 0, 0, 0, 0, 0, 0, 0, 0, 0, 0, 0, 0], "stateRewards": ["", -2, -8, -24, -48, -2, -4, 48, -48, 4, 4, -48, 48], "withholdReward": false, "trial_id": "mdp_156977432949", "block": "test2", "trialIndex": 35, "score": 60.25, "costs": -0.75, "simulationMode": [null, null, null], "rewards": [4, 4, 48], "path": ["0", "0", "9", "10", "12"], "rt": [2326, 196, 464], "actions": ["left", "left", "down"], "actionTimes": [3224, 3926, 4894], "queries": {"click": {"state": {"target": ["12", "10", "9"], "time": [1249, 1983, 2187]}, "edge": {"target": [], "time": []}}, "mouseover": {"state": {"target": ["12", "10", "9", "1"], "time": [1162, 1880, 2129, 2429]}, "edge": {"target": [], "time": []}}, "mouseout": {"state": {"target": ["10", "9", "0", "12", "10", "9", "1"], "time": [346, 462, 1046, 1563, 2096, 2363, 2479]}, "edge": {"target": [], "time": []}}}, "displayed_time": "8.90", "trialTime": 9982, "trial_type": "mouselab-mdp", "trial_index": 43, "time_elapsed": 1080729, "internal_node_id": "0.0-4.0-3.0-3.0"}}, {"uniqueid": "w92205734:a17395195", "current_trial": 44, "dateTime": 1664874557469, "trialdata": {"revealed_states": [], "num_clicks_accrued": [0, 0, 0, 0, 0, 0, 0, 0, 0, 0, 0, 0, 0], "stateRewards": ["", 2, -4, -24, -48, -2, 8, -24, 48, -2, 8, 24, -48], "withholdReward": true, "trial_id": "mdp_566582551557", "block": "test2", "trialIndex": 36, "score": 57.5, "costs": -1.5, "simulationMode": [null, null, null], "rewards": [-2, 8, 48], "path": ["0", "0", "5", "6", "8"], "rt": [5138, 24, 75], "actions": ["right", "right", "down"], "actionTimes": [6599, 7112, 7696], "queries": {"click": {"state": {"target": ["12", "11", "7", "8", "5", "6"], "time": [2315, 3138, 3878, 4194, 5508, 5698]}, "edge": {"target": [], "time": []}}, "mouseover": {"state": {"target": ["0", "12", "12", "10", "11", "1", "6", "7", "6", "8", "3", "3", "5", "6"], "time": [1787, 1920, 2254, 2837, 2920, 3420, 3620, 3820, 4037, 4086, 4537, 4937, 5304, 5653]}, "edge": {"target": [], "time": []}}, "mouseout": {"state": {"target": ["1", "0", "0", "0", "12", "12", "10", "11", "1", "6", "7", "6", "8", "3", "3", "5", "6"], "time": [1054, 1103, 1570, 1820, 1953, 2787, 2870, 3337, 3503, 3770, 4003, 4070, 4387, 4654, 5070, 5620, 5903]}, "edge": {"target": [], "time": []}}}, "displayed_time": "9.46", "trialTime": 9709, "trial_type": "mouselab-mdp", "trial_index": 44, "time_elapsed": 1090481, "internal_node_id": "0.0-4.0-3.0-4.0"}}, {"uniqueid": "w92205734:a17395195", "current_trial": 45, "dateTime": 1664874568489, "trialdata": {"revealed_states": [], "num_clicks_accrued": [0, 0, 0, 0, 0, 0, 0, 0, 0, 0, 0, 0, 0], "stateRewards": ["", -4, 8, -24, -24, 2, 4, 48, 48, -2, 4, 24, -48], "withholdReward": true, "trial_id": "mdp_397308196941", "block": "test2", "trialIndex": 37, "score": 58.75, "costs": -0.25, "simulationMode": [null, null, null], "rewards": [2, 4, 48], "path": ["0", "0", "5", "6", "8"], "rt": [2484, 162, 13], "actions": ["right", "right", "down"], "actionTimes": [5153, 5813, 6314], "queries": {"click": {"state": {"target": ["8"], "time": [3837]}, "edge": {"target": [], "time": []}}, "mouseover": {"state": {"target": ["9", "0", "7", "8"], "time": [2702, 3351, 3451, 3700]}, "edge": {"target": [], "time": []}}, "mouseout": {"state": {"target": ["5", "0", "9", "0", "7", "8"], "time": [2568, 2617, 2901, 3418, 3467, 4000]}, "edge": {"target": [], "time": []}}}, "displayed_time": "10.67", "trialTime": 10977, "trial_type": "mouselab-mdp", "trial_index": 45, "time_elapsed": 1101501, "internal_node_id": "0.0-4.0-3.0-5.0"}}, {"uniqueid": "w92205734:a17395195", "current_trial": 46, "dateTime": 1664874582112, "trialdata": {"revealed_states": [], "num_clicks_accrued": [0, 0, 0, 0, 0, 0, 0, 0, 0, 0, 0, 0, 0], "stateRewards": ["", -2, -4, -24, -24, 4, 8, 24, 24, -2, 8, 48, 48], "withholdReward": true, "trial_id": "mdp_620787912291", "block": "test2", "trialIndex": 38, "score": 57, "costs": -2, "simulationMode": [null, null, null], "rewards": [-2, 8, 48], "path": ["0", "0", "9", "10", "11"], "rt": [6975, 31, 86], "actions": ["left", "left", "up"], "actionTimes": [8370, 8903, 9491], "queries": {"click": {"state": {"target": ["8", "7", "3", "4", "11", "12", "9", "10"], "time": [1790, 2925, 3373, 3742, 4336, 4558, 7097, 7464]}, "edge": {"target": [], "time": []}}, "mouseover": {"state": {"target": ["8", "7", "3", "2", "4", "10", "10", "11", "10", "12", "9", "10", "10", "9", "10", "1"], "time": [1789, 2855, 3221, 3538, 3621, 4022, 4205, 4288, 4471, 4521, 6588, 6738, 6972, 7054, 7388, 7704]}, "edge": {"target": [], "time": []}}, "mouseout": {"state": {"target": ["12", "0", "8", "8", "7", "3", "2", "4", "10", "10", "11", "10", "12", "9", "10", "10", "9", "10", "1"], "time": [1121, 1555, 2005, 2255, 3138, 3505, 3571, 3938, 4071, 4255, 4438, 4505, 4856, 6688, 6805, 7022, 7338, 7605, 7721]}, "edge": {"target": [], "time": []}}}, "displayed_time": "10.39", "trialTime": 13572, "trial_type": "mouselab-mdp", "trial_index": 46, "time_elapsed": 1115124, "internal_node_id": "0.0-4.0-3.0-6.0"}}, {"uniqueid": "w92205734:a17395195", "current_trial": 47, "dateTime": 1664874592256, "trialdata": {"revealed_states": [], "num_clicks_accrued": [0, 0, 0, 0, 0, 0, 0, 0, 0, 0, 0, 0, 0], "stateRewards": ["", 2, 8, 48, 24, -4, 4, -48, 24, 2, 8, 48, 48], "withholdReward": true, "trial_id": "mdp_367344599162", "block": "test2", "trialIndex": 39, "score": 62.75, "costs": -0.25, "simulationMode": [null, null, null], "rewards": [2, 8, 48], "path": ["0", "0", "9", "10", "12"], "rt": [1902, 45, 22], "actions": ["left", "left", "down"], "actionTimes": [2523, 3054, 3581], "queries": {"click": {"state": {"target": ["12"], "time": [1260]}, "edge": {"target": [], "time": []}}, "mouseover": {"state": {"target": ["9", "12", "10", "11"], "time": [924, 1192, 1508, 1641]}, "edge": {"target": [], "time": []}}, "mouseout": {"state": {"target": ["0", "9", "12", "10", "11"], "time": [875, 1025, 1459, 1575, 8842]}, "edge": {"target": [], "time": []}}}, "displayed_time": "9.62", "trialTime": 10103, "trial_type": "mouselab-mdp", "trial_index": 47, "time_elapsed": 1125268, "internal_node_id": "0.0-4.0-3.0-7.0"}}, {"uniqueid": "w92205734:a17395195", "current_trial": 48, "dateTime": 1664874604588, "trialdata": {"revealed_states": [], "num_clicks_accrued": [0, 0, 0, 0, 0, 0, 0, 0, 0, 0, 0, 0, 0], "stateRewards": ["", 2, 8, -48, 24, -4, 8, 48, -24, 2, 8, 24, 24], "withholdReward": false, "trial_id": "mdp_175372499314", "block": "test2", "trialIndex": 40, "score": 55.5, "costs": -1.5, "simulationMode": [null, null, null], "rewards": [-4, 8, 48], "path": ["0", "0", "5", "6", "7"], "rt": [3575, 51, 132], "actions": ["right", "right", "up"], "actionTimes": [4944, 5496, 6128], "queries": {"click": {"state": {"target": ["12", "11", "3", "4", "7", "8"], "time": [1829, 2392, 2896, 3212, 3762, 4064]}, "edge": {"target": [], "time": []}}, "mouseover": {"state": {"target": ["0", "12", "10", "11", "1", "3", "2", "4", "1", "7", "6", "8"], "time": [1545, 1812, 2111, 2262, 2611, 2795, 3061, 3161, 3461, 3594, 3928, 4011]}, "edge": {"target": [], "time": []}}, "mouseout": {"state": {"target": ["9", "0", "0", "12", "10", "11", "1", "3", "2", "4", "1", "7", "6", "8"], "time": [878, 944, 1561, 2045, 2195, 2545, 2678, 3028, 3094, 3411, 3478, 3895, 3994, 4261]}, "edge": {"target": [], "time": []}}}, "displayed_time": "10.37", "trialTime": 12288, "trial_type": "mouselab-mdp", "trial_index": 48, "time_elapsed": 1137599, "internal_node_id": "0.0-4.0-3.0-8.0"}}, {"uniqueid": "w92205734:a17395195", "current_trial": 49, "dateTime": 1664874617011, "trialdata": {"revealed_states": [], "num_clicks_accrued": [0, 0, 0, 0, 0, 0, 0, 0, 0, 0, 0, 0, 0], "stateRewards": ["", 2, 4, 48, 48, -2, 4, 48, -24, -4, 8, -48, 48], "withholdReward": true, "trial_id": "mdp_407586865939", "block": "test2", "trialIndex": 41, "score": -39.25, "costs": -0.25, "simulationMode": [null, null, null], "rewards": [-4, 8, -48], "path": ["0", "0", "9", "10", "11"], "rt": [1599, 3573, 473], "actions": ["left", "left", "up"], "actionTimes": [3284, 7352, 8335], "queries": {"click": {"state": {"target": ["3"], "time": [2264]}, "edge": {"target": [], "time": []}}, "mouseover": {"state": {"target": ["3", "2", "4"], "time": [2162, 2395, 2512]}, "edge": {"target": [], "time": []}}, "mouseout": {"state": {"target": ["6", "0", "3", "2", "4", "9", "9", "10"], "time": [1095, 1562, 2328, 2428, 2929, 5512, 5978, 6279]}, "edge": {"target": [], "time": []}}}, "displayed_time": "11.69", "trialTime": 12380, "trial_type": "mouselab-mdp", "trial_index": 49, "time_elapsed": 1150023, "internal_node_id": "0.0-4.0-3.0-9.0"}}, {"uniqueid": "w92205734:a17395195", "current_trial": 50, "dateTime": 1664874626657, "trialdata": {"revealed_states": [], "num_clicks_accrued": [0, 0, 0, 0, 0, 0, 0, 0, 0, 0, 0, 0, 0], "stateRewards": ["", -2, 8, -48, 48, -4, -8, 24, 24, -2, -4, 48, -48], "withholdReward": true, "trial_id": "mdp_867247318592", "block": "test2", "trialIndex": 42, "score": 58.5, "costs": -0.5, "simulationMode": [null, null, null], "rewards": [-2, 8, 48], "path": ["0", "0", "1", "2", "4"], "rt": [2007, 32, 104], "actions": ["up", "up", "left"], "actionTimes": [3127, 3665, 4255], "queries": {"click": {"state": {"target": ["3", "4"], "time": [1546, 2071]}, "edge": {"target": [], "time": []}}, "mouseover": {"state": {"target": ["1", "3", "2", "4"], "time": [1333, 1517, 1783, 1983]}, "edge": {"target": [], "time": []}}, "mouseout": {"state": {"target": ["11", "1", "0", "0", "1", "3", "2", "4"], "time": [583, 783, 833, 1284, 1384, 1733, 1883, 2267]}, "edge": {"target": [], "time": []}}}, "displayed_time": "9.12", "trialTime": 9598, "trial_type": "mouselab-mdp", "trial_index": 50, "time_elapsed": 1159669, "internal_node_id": "0.0-4.0-3.0-10.0"}}, {"uniqueid": "w92205734:a17395195", "current_trial": 51, "dateTime": 1664874636307, "trialdata": {"revealed_states": [], "num_clicks_accrued": [0, 0, 0, 0, 0, 0, 0, 0, 0, 0, 0, 0, 0], "stateRewards": ["", -2, 8, -24, 24, 2, -8, 48, -24, 2, 8, -24, -24], "withholdReward": true, "trial_id": "mdp_674708270444", "block": "test2", "trialIndex": 43, "score": 45.5, "costs": -1.5, "simulationMode": [null, null, null], "rewards": [2, -8, 48], "path": ["0", "0", "5", "6", "7"], "rt": [4167, 23, 72], "actions": ["right", "right", "up"], "actionTimes": [5342, 5881, 6464], "queries": {"click": {"state": {"target": ["3", "4", "11", "12", "7", "8"], "time": [1517, 2242, 2772, 3140, 4225, 4494]}, "edge": {"target": [], "time": []}}, "mouseover": {"state": {"target": ["1", "3", "2", "4", "4", "4", "11", "11", "10", "12", "8", "8", "6", "7", "6", "8"], "time": [1325, 1424, 1658, 1758, 2058, 2194, 2475, 2742, 2974, 3108, 3424, 3791, 3891, 4208, 4391, 4457]}, "edge": {"target": [], "time": []}}, "mouseout": {"state": {"target": ["9", "0", "1", "3", "2", "4", "4", "4", "11", "11", "10", "12", "8", "8", "6", "7", "6", "8"], "time": [708, 1075, 1358, 1641, 1691, 1875, 2074, 2408, 2524, 2941, 3041, 3341, 3491, 3858, 4125, 4325, 4424, 4774]}, "edge": {"target": [], "time": []}}}, "displayed_time": "9.18", "trialTime": 9606, "trial_type": "mouselab-mdp", "trial_index": 51, "time_elapsed": 1169319, "internal_node_id": "0.0-4.0-3.0-11.0"}}, {"uniqueid": "w92205734:a17395195", "current_trial": 52, "dateTime": 1664874648142, "trialdata": {"revealed_states": [], "num_clicks_accrued": [0, 0, 0, 0, 0, 0, 0, 0, 0, 0, 0, 0, 0], "stateRewards": ["", -4, -4, -24, -48, -4, 8, -24, -48, 4, -8, 24, -24], "withholdReward": true, "trial_id": "mdp_924927483179", "block": "test2", "trialIndex": 44, "score": 22, "costs": -3, "simulationMode": [null, null, null], "rewards": [4, -8, 24], "path": ["0", "0", "9", "10", "11"], "rt": [8646, 7, 74], "actions": ["left", "left", "up"], "actionTimes": [9168, 9692, 10293], "queries": {"click": {"state": {"target": ["8", "7", "3", "4", "11", "12", "1", "2", "10", "9", "5", "6"], "time": [965, 1373, 2181, 2564, 3064, 3760, 4798, 5192, 6561, 6801, 7372, 7748]}, "edge": {"target": [], "time": []}}, "mouseover": {"state": {"target": ["5", "8", "6", "7", "1", "2", "3", "3", "2", "4", "11", "10", "12", "9", "10", "1", "2", "9", "10", "9", "0", "5", "6"], "time": [736, 936, 1169, 1269, 1602, 1752, 1819, 2020, 2335, 2486, 2902, 3219, 3370, 4252, 4369, 4702, 5169, 5852, 5902, 6752, 7002, 7302, 7652]}, "edge": {"target": [], "time": []}}, "mouseout": {"state": {"target": ["0", "5", "8", "6", "7", "1", "2", "3", "3", "2", "4", "11", "10", "12", "9", "10", "1", "2", "1", "9", "10", "9", "0", "5", "6", "11"], "time": [685, 802, 1136, 1236, 1552, 1669, 1785, 1836, 2302, 2369, 2752, 3186, 3286, 3885, 4302, 4586, 5102, 5486, 5569, 5869, 6702, 6968, 7252, 7585, 7935, 8018]}, "edge": {"target": [], "time": []}}}, "displayed_time": "10.79", "trialTime": 11785, "trial_type": "mouselab-mdp", "trial_index": 52, "time_elapsed": 1181153, "internal_node_id": "0.0-4.0-3.0-12.0"}}, {"uniqueid": "w92205734:a17395195", "current_trial": 53, "dateTime": 1664874659954, "trialdata": {"revealed_states": [], "num_clicks_accrued": [0, 0, 0, 0, 0, 0, 0, 0, 0, 0, 0, 0, 0], "stateRewards": ["", 2, -8, 24, -24, -2, 8, -48, -48, 2, -8, -24, -48], "withholdReward": false, "trial_id": "mdp_744278669205", "block": "test2", "trialIndex": 45, "score": -38.5, "costs": -1.5, "simulationMode": [null, null, null], "rewards": [-2, 8, -48], "path": ["0", "0", "5", "6", "7"], "rt": [4112, 3538, 303], "actions": ["right", "right", "up"], "actionTimes": [5532, 9561, 10359], "queries": {"click": {"state": {"target": ["3", "4", "11", "12", "8", "7"], "time": [1869, 2314, 2742, 3074, 3693, 3944]}, "edge": {"target": [], "time": []}}, "mouseover": {"state": {"target": ["3", "2", "4", "11", "10", "12", "8", "6", "7"], "time": [1789, 2073, 2156, 2639, 2923, 3022, 3606, 3823, 3889]}, "edge": {"target": [], "time": []}}, "mouseout": {"state": {"target": ["11", "3", "2", "4", "11", "10", "12", "8", "6", "7", "6", "5"], "time": [1106, 2023, 2122, 2506, 2872, 2989, 3239, 3789, 3872, 4089, 8622, 9055]}, "edge": {"target": [], "time": []}}}, "displayed_time": "10.87", "trialTime": 11768, "trial_type": "mouselab-mdp", "trial_index": 53, "time_elapsed": 1192966, "internal_node_id": "0.0-4.0-3.0-13.0"}}, {"uniqueid": "w92205734:a17395195", "current_trial": 54, "dateTime": 1664874668688, "trialdata": {"revealed_states": [], "num_clicks_accrued": [0, 0, 0, 0, 0, 0, 0, 0, 0, 0, 0, 0, 0], "stateRewards": ["", -4, -8, 48, -24, 4, -8, 48, 48, -2, 4, -48, -24], "withholdReward": true, "trial_id": "mdp_925905402462", "block": "test2", "trialIndex": 46, "score": 40.75, "costs": -0.25, "simulationMode": [null, null, null], "rewards": [-4, -8, 48], "path": ["0", "0", "1", "2", "3"], "rt": [1938, 32, 40], "actions": ["up", "up", "right"], "actionTimes": [2432, 2972, 3498], "queries": {"click": {"state": {"target": ["3"], "time": [1328]}, "edge": {"target": [], "time": []}}, "mouseover": {"state": {"target": ["1", "2", "3", "2", "4"], "time": [724, 790, 1174, 1524, 1640]}, "edge": {"target": [], "time": []}}, "mouseout": {"state": {"target": ["5", "1", "2", "3", "2", "4"], "time": [340, 757, 873, 1473, 1591, 2007]}, "edge": {"target": [], "time": []}}}, "displayed_time": "8.49", "trialTime": 8687, "trial_type": "mouselab-mdp", "trial_index": 54, "time_elapsed": 1201700, "internal_node_id": "0.0-4.0-3.0-14.0"}}, {"uniqueid": "w92205734:a17395195", "current_trial": 55, "dateTime": 1664874678371, "trialdata": {"revealed_states": [], "num_clicks_accrued": [0, 0, 0, 0, 0, 0, 0, 0, 0, 0, 0, 0, 0], "stateRewards": ["", 2, -4, 24, 48, -2, 4, -48, -48, -4, 4, 24, -24], "withholdReward": true, "trial_id": "mdp_900363662757", "block": "test2", "trialIndex": 47, "score": 50.5, "costs": -0.5, "simulationMode": [null, null, null], "rewards": [2, -4, 48], "path": ["0", "0", "1", "2", "4"], "rt": [3149, 542, 47], "actions": ["up", "up", "left"], "actionTimes": [4523, 5581, 6136], "queries": {"click": {"state": {"target": ["3", "4"], "time": [2095, 2565]}, "edge": {"target": [], "time": []}}, "mouseover": {"state": {"target": ["3", "3", "2", "4", "11"], "time": [1656, 2023, 2355, 2473, 2906]}, "edge": {"target": [], "time": []}}, "mouseout": {"state": {"target": ["1", "0", "3", "3", "2", "4", "11"], "time": [1222, 1506, 1689, 2339, 2406, 2822, 7839]}, "edge": {"target": [], "time": []}}}, "displayed_time": "9.38", "trialTime": 9636, "trial_type": "mouselab-mdp", "trial_index": 55, "time_elapsed": 1211382, "internal_node_id": "0.0-4.0-3.0-15.0"}}, {"uniqueid": "w92205734:a17395195", "current_trial": 56, "dateTime": 1664874686924, "trialdata": {"revealed_states": [], "num_clicks_accrued": [0, 0, 0, 0, 0, 0, 0, 0, 0, 0, 0, 0, 0], "stateRewards": ["", 2, -4, 48, -24, 4, -8, -24, 48, -2, -4, 24, -48], "withholdReward": false, "trial_id": "mdp_357328205509", "block": "test2", "trialIndex": 48, "score": 50.75, "costs": -0.25, "simulationMode": [null, null, null], "rewards": [2, -4, 48], "path": ["0", "0", "1", "2", "3"], "rt": [1459, 475, 90], "actions": ["up", "up", "right"], "actionTimes": [2411, 3394, 3992], "queries": {"click": {"state": {"target": ["3"], "time": [1348]}, "edge": {"target": [], "time": []}}, "mouseover": {"state": {"target": ["3", "2"], "time": [1251, 1518]}, "edge": {"target": [], "time": []}}, "mouseout": {"state": {"target": ["7", "3", "2"], "time": [635, 1485, 1585]}, "edge": {"target": [], "time": []}}}, "displayed_time": "7.95", "trialTime": 8503, "trial_type": "mouselab-mdp", "trial_index": 56, "time_elapsed": 1219936, "internal_node_id": "0.0-4.0-3.0-16.0"}}, {"uniqueid": "w92205734:a17395195", "current_trial": 57, "dateTime": 1664874697191, "trialdata": {"revealed_states": [], "num_clicks_accrued": [0, 0, 0, 0, 0, 0, 0, 0, 0, 0, 0, 0, 0], "stateRewards": ["", 2, 4, -48, -24, 2, 8, 24, 48, -2, 4, 48, -48], "withholdReward": true, "trial_id": "mdp_551894842204", "block": "test2", "trialIndex": 49, "score": 54, "costs": -1, "simulationMode": [null, null, null], "rewards": [-2, 4, 48], "path": ["0", "0", "9", "10", "11"], "rt": [2431, 1, 43], "actions": ["left", "left", "up"], "actionTimes": [3398, 3903, 4478], "queries": {"click": {"state": {"target": ["3", "4", "11", "12"], "time": [1302, 1704, 2220, 2484]}, "edge": {"target": [], "time": []}}, "mouseover": {"state": {"target": ["3", "2", "4", "11", "10", "12", "10"], "time": [1217, 1483, 1617, 2033, 2350, 2450, 2967]}, "edge": {"target": [], "time": []}}, "mouseout": {"state": {"target": ["1", "0", "0", "0", "3", "2", "4", "11", "10", "12"], "time": [383, 533, 700, 1084, 1468, 1533, 1900, 2334, 2400, 2917]}, "edge": {"target": [], "time": []}}}, "displayed_time": "9.97", "trialTime": 10219, "trial_type": "mouselab-mdp", "trial_index": 57, "time_elapsed": 1230203, "internal_node_id": "0.0-4.0-3.0-17.0"}}, {"uniqueid": "w92205734:a17395195", "current_trial": 58, "dateTime": 1664874706091, "trialdata": {"revealed_states": [], "num_clicks_accrued": [0, 0, 0, 0, 0, 0, 0, 0, 0, 0, 0, 0, 0], "stateRewards": ["", 2, -8, -48, 24, 4, 8, 48, -48, 2, -4, 24, 24], "withholdReward": true, "trial_id": "mdp_130475327289", "block": "test2", "trialIndex": 50, "score": 63.5, "costs": -1.5, "simulationMode": [null, null, null], "rewards": [4, 8, 48], "path": ["0", "0", "5", "6", "7"], "rt": [3472, 35, 93], "actions": ["right", "right", "up"], "actionTimes": [4022, 4562, 5186], "queries": {"click": {"state": {"target": ["3", "4", "11", "12", "8", "7"], "time": [920, 1315, 1806, 2194, 2780, 3040]}, "edge": {"target": [], "time": []}}, "mouseover": {"state": {"target": ["1", "3", "2", "4", "11", "10", "12", "8", "6", "7"], "time": [710, 860, 1126, 1210, 1728, 1993, 2160, 2643, 2926, 2976]}, "edge": {"target": [], "time": []}}, "mouseout": {"state": {"target": ["10", "0", "1", "3", "2", "4", "11", "10", "12", "8", "6", "7"], "time": [293, 676, 760, 1077, 1176, 1560, 1961, 2077, 2443, 2910, 2960, 3261]}, "edge": {"target": [], "time": []}}}, "displayed_time": "8.55", "trialTime": 8845, "trial_type": "mouselab-mdp", "trial_index": 58, "time_elapsed": 1239102, "internal_node_id": "0.0-4.0-3.0-18.0"}}, {"uniqueid": "w92205734:a17395195", "current_trial": 59, "dateTime": 1664874715283, "trialdata": {"revealed_states": [], "num_clicks_accrued": [0, 0, 0, 0, 0, 0, 0, 0, 0, 0, 0, 0, 0], "stateRewards": ["", 4, 4, 24, -24, -4, -8, 48, -24, 4, 4, 48, 24], "withholdReward": true, "trial_id": "mdp_822446942217", "block": "test2", "trialIndex": 51, "score": 60.25, "costs": -0.75, "simulationMode": [null, null, null], "rewards": [4, 4, 48], "path": ["0", "0", "9", "10", "11"], "rt": [2438, 406, 39], "actions": ["left", "left", "up"], "actionTimes": [3359, 4274, 4824], "queries": {"click": {"state": {"target": ["3", "4", "11"], "time": [1316, 1732, 2105]}, "edge": {"target": [], "time": []}}, "mouseover": {"state": {"target": ["3", "2", "4", "11", "10", "12", "9"], "time": [1217, 1467, 1534, 2018, 2267, 2417, 2667]}, "edge": {"target": [], "time": []}}, "mouseout": {"state": {"target": ["7", "5", "0", "3", "2", "4", "11", "10", "12", "9"], "time": [600, 784, 1068, 1450, 1501, 1884, 2217, 2334, 2601, 2734]}, "edge": {"target": [], "time": []}}}, "displayed_time": "8.92", "trialTime": 9146, "trial_type": "mouselab-mdp", "trial_index": 59, "time_elapsed": 1248295, "internal_node_id": "0.0-4.0-3.0-19.0"}}, {"uniqueid": "w92205734:a17395195", "current_trial": 60, "dateTime": 1664874725538, "trialdata": {"revealed_states": [], "num_clicks_accrued": [0, 0, 0, 0, 0, 0, 0, 0, 0, 0, 0, 0, 0], "stateRewards": ["", -2, 4, 24, 48, 2, 4, -48, -48, -2, 8, 48, -24], "withholdReward": true, "trial_id": "mdp_305701202606", "block": "test2", "trialIndex": 52, "score": 54.5, "costs": -0.5, "simulationMode": [null, null, null], "rewards": [-2, 4, 48], "path": ["0", "0", "1", "2", "4"], "rt": [1909, 4, 9], "actions": ["up", "up", "left"], "actionTimes": [2816, 3307, 3846], "queries": {"click": {"state": {"target": ["3", "4"], "time": [1281, 1753]}, "edge": {"target": [], "time": []}}, "mouseover": {"state": {"target": ["1", "3", "2", "4", "11"], "time": [1086, 1236, 1569, 1686, 2052]}, "edge": {"target": [], "time": []}}, "mouseout": {"state": {"target": ["9", "0", "1", "1", "3", "2", "4", "11"], "time": [52, 569, 802, 1135, 1486, 1635, 1969, 8169]}, "edge": {"target": [], "time": []}}}, "displayed_time": "9.91", "trialTime": 10202, "trial_type": "mouselab-mdp", "trial_index": 60, "time_elapsed": 1258549, "internal_node_id": "0.0-4.0-3.0-20.0"}}, {"uniqueid": "w92205734:a17395195", "current_trial": 61, "dateTime": 1664874735476, "trialdata": {"revealed_states": [], "num_clicks_accrued": [0, 0, 0, 0, 0, 0, 0, 0, 0, 0, 0, 0, 0], "stateRewards": ["", 2, 8, -48, 24, -2, 4, 48, 48, -2, -8, 48, 24], "withholdReward": true, "trial_id": "mdp_157355418411", "block": "test2", "trialIndex": 53, "score": 42.25, "costs": -0.75, "simulationMode": [null, null, null], "rewards": [-2, -8, 48], "path": ["0", "0", "9", "10", "11"], "rt": [2717, 20, 2], "actions": ["left", "left", "up"], "actionTimes": [3512, 4041, 4557], "queries": {"click": {"state": {"target": ["3", "4", "11"], "time": [1146, 1926, 2399]}, "edge": {"target": [], "time": []}}, "mouseover": {"state": {"target": ["3", "2", "4", "11", "10", "12"], "time": [1105, 1371, 1821, 2339, 2638, 2755]}, "edge": {"target": [], "time": []}}, "mouseout": {"state": {"target": ["10", "9", "3", "2", "4", "11", "10", "12"], "time": [271, 321, 1338, 1423, 2188, 2588, 2672, 2989]}, "edge": {"target": [], "time": []}}}, "displayed_time": "9.80", "trialTime": 9894, "trial_type": "mouselab-mdp", "trial_index": 61, "time_elapsed": 1268488, "internal_node_id": "0.0-4.0-3.0-21.0"}}, {"uniqueid": "w92205734:a17395195", "current_trial": 62, "dateTime": 1664874746124, "trialdata": {"revealed_states": [], "num_clicks_accrued": [0, 0, 0, 0, 0, 0, 0, 0, 0, 0, 0, 0, 0], "stateRewards": ["", 4, 8, -48, 24, -2, 8, -48, -48, -4, 4, 48, -48], "withholdReward": true, "trial_id": "mdp_693807815190", "block": "test2", "trialIndex": 54, "score": 52.75, "costs": -0.25, "simulationMode": [null, null, null], "rewards": [-4, 4, 48], "path": ["0", "0", "9", "10", "11"], "rt": [1443, 53, 352], "actions": ["left", "left", "up"], "actionTimes": [2537, 3082, 3947], "queries": {"click": {"state": {"target": ["11"], "time": [1492]}, "edge": {"target": [], "time": []}}, "mouseover": {"state": {"target": ["9", "11", "10", "12"], "time": [1261, 1344, 1661, 1845]}, "edge": {"target": [], "time": []}}, "mouseout": {"state": {"target": ["0", "9", "11", "10", "12"], "time": [1244, 1277, 1628, 1727, 2011]}, "edge": {"target": [], "time": []}}}, "displayed_time": "10.09", "trialTime": 10599, "trial_type": "mouselab-mdp", "trial_index": 62, "time_elapsed": 1279136, "internal_node_id": "0.0-4.0-3.0-22.0"}}, {"uniqueid": "w92205734:a17395195", "current_trial": 63, "dateTime": 1664874755123, "trialdata": {"revealed_states": [], "num_clicks_accrued": [0, 0, 0, 0, 0, 0, 0, 0, 0, 0, 0, 0, 0], "stateRewards": ["", -4, 4, -24, -24, -4, -8, 24, 48, 4, -4, 24, 48], "withholdReward": true, "trial_id": "mdp_175395325183", "block": "test2", "trialIndex": 55, "score": 52.5, "costs": -0.5, "simulationMode": [null, null, null], "rewards": [4, -4, 48], "path": ["0", "0", "9", "10", "12"], "rt": [2126, 1481, 54], "actions": ["left", "left", "down"], "actionTimes": [2515, 4496, 5037], "queries": {"click": {"state": {"target": ["11", "12"], "time": [787, 1450]}, "edge": {"target": [], "time": []}}, "mouseover": {"state": {"target": ["9", "11", "10", "12"], "time": [565, 648, 1265, 1382]}, "edge": {"target": [], "time": []}}, "mouseout": {"state": {"target": ["0", "9", "11", "10", "12", "12", "11"], "time": [182, 581, 1049, 1315, 1648, 6964, 8764]}, "edge": {"target": [], "time": []}}}, "displayed_time": "8.39", "trialTime": 8952, "trial_type": "mouselab-mdp", "trial_index": 63, "time_elapsed": 1288135, "internal_node_id": "0.0-4.0-3.0-23.0"}}, {"uniqueid": "w92205734:a17395195", "current_trial": 64, "dateTime": 1664874765091, "trialdata": {"revealed_states": [], "num_clicks_accrued": [0, 0, 0, 0, 0, 0, 0, 0, 0, 0, 0, 0, 0], "stateRewards": ["", 2, 4, 48, -48, 2, 4, 24, -24, 2, -4, -24, -48], "withholdReward": true, "trial_id": "mdp_706591889062", "block": "test2", "trialIndex": 56, "score": 57.75, "costs": -1.25, "simulationMode": [null, null, null], "rewards": [2, 4, 48], "path": ["0", "0", "1", "2", "3"], "rt": [4236, 516, 116], "actions": ["up", "up", "right"], "actionTimes": [5018, 6048, 6665], "queries": {"click": {"state": {"target": ["12", "11", "3", "1", "2"], "time": [1206, 1650, 2218, 3556, 4200]}, "edge": {"target": [], "time": []}}, "mouseover": {"state": {"target": ["12", "10", "11", "1", "3", "2", "4", "1", "2", "2"], "time": [1165, 1449, 1565, 1915, 2150, 2382, 2448, 3432, 3715, 4065]}, "edge": {"target": [], "time": []}}, "mouseout": {"state": {"target": ["0", "12", "10", "11", "1", "3", "2", "4", "1", "2", "3", "2"], "time": [949, 1415, 1515, 1832, 2015, 2365, 2415, 3199, 3665, 3750, 3948, 4315]}, "edge": {"target": [], "time": []}}}, "displayed_time": "8.78", "trialTime": 9922, "trial_type": "mouselab-mdp", "trial_index": 64, "time_elapsed": 1298103, "internal_node_id": "0.0-4.0-3.0-24.0"}}, {"uniqueid": "w92205734:a17395195", "current_trial": 65, "dateTime": 1664874775350, "trialdata": {"revealed_states": [], "num_clicks_accrued": [0, 0, 0, 0, 0, 0, 0, 0, 0, 0, 0, 0, 0], "stateRewards": ["", 2, -4, -48, 24, -4, 4, 24, 24, 2, -8, -24, -48], "withholdReward": false, "trial_id": "mdp_807654778305", "block": "test2", "trialIndex": 57, "score": 25.5, "costs": -1.5, "simulationMode": [null, null, null], "rewards": [2, -4, 24], "path": ["0", "0", "1", "2", "4"], "rt": [6565, 28, 19], "actions": ["up", "up", "left"], "actionTimes": [7386, 7922, 8447], "queries": {"click": {"state": {"target": ["3", "4", "11", "12", "8", "7"], "time": [1263, 1690, 2356, 2751, 3287, 3646]}, "edge": {"target": [], "time": []}}, "mouseover": {"state": {"target": ["3", "2", "4", "11", "10", "12", "8", "6", "7", "5"], "time": [1144, 1460, 1510, 2278, 2527, 2660, 3093, 3493, 3610, 6027]}, "edge": {"target": [], "time": []}}, "mouseout": {"state": {"target": ["7", "5", "0", "3", "2", "4", "11", "10", "12", "8", "6", "7", "7", "5"], "time": [477, 543, 944, 1427, 1493, 1944, 2494, 2610, 2927, 3460, 3543, 3810, 4194, 6194]}, "edge": {"target": [], "time": []}}}, "displayed_time": "9.82", "trialTime": 10210, "trial_type": "mouselab-mdp", "trial_index": 65, "time_elapsed": 1308362, "internal_node_id": "0.0-4.0-3.0-25.0"}}, {"uniqueid": "w92205734:a17395195", "current_trial": 66, "dateTime": 1664874785122, "trialdata": {"revealed_states": [], "num_clicks_accrued": [0, 0, 0, 0, 0, 0, 0, 0, 0, 0, 0, 0, 0], "stateRewards": ["", 4, -8, 48, 24, 4, -4, 48, 48, -4, 8, -48, 24], "withholdReward": false, "trial_id": "mdp_303828806348", "block": "test2", "trialIndex": 58, "score": 48.75, "costs": -0.25, "simulationMode": [null, null, null], "rewards": [4, -8, 48], "path": ["0", "0", "1", "2", "3"], "rt": [1547, 7, 380], "actions": ["up", "up", "right"], "actionTimes": [1982, 2496, 3402], "queries": {"click": {"state": {"target": ["3"], "time": [885]}, "edge": {"target": [], "time": []}}, "mouseover": {"state": {"target": ["1", "3", "2", "4"], "time": [655, 839, 1055, 1155]}, "edge": {"target": [], "time": []}}, "mouseout": {"state": {"target": ["1", "3", "2", "4"], "time": [721, 1038, 1088, 4521]}, "edge": {"target": [], "time": []}}}, "displayed_time": "9.44", "trialTime": 9727, "trial_type": "mouselab-mdp", "trial_index": 66, "time_elapsed": 1318134, "internal_node_id": "0.0-4.0-3.0-26.0"}}, {"uniqueid": "w92205734:a17395195", "current_trial": 67, "dateTime": 1664874792711, "trialdata": {"revealed_states": [], "num_clicks_accrued": [0, 0, 0, 0, 0, 0, 0, 0, 0, 0, 0, 0, 0], "stateRewards": ["", 4, 4, 48, -48, -2, 4, 48, -48, -4, 4, -24, -24], "withholdReward": true, "trial_id": "mdp_753324812898", "block": "test2", "trialIndex": 59, "score": -19.25, "costs": -0.25, "simulationMode": [null, null, null], "rewards": [-4, 4, -24], "path": ["0", "0", "9", "10", "11"], "rt": [1381, 1537, 84], "actions": ["left", "left", "up"], "actionTimes": [1706, 3759, 4339], "queries": {"click": {"state": {"target": ["3"], "time": [690]}, "edge": {"target": [], "time": []}}, "mouseover": {"state": {"target": ["3", "2", "4"], "time": [621, 904, 988]}, "edge": {"target": [], "time": []}}, "mouseout": {"state": {"target": ["9", "0", "3", "2", "4"], "time": [21, 455, 871, 954, 3105]}, "edge": {"target": [], "time": []}}}, "displayed_time": "7.33", "trialTime": 7532, "trial_type": "mouselab-mdp", "trial_index": 67, "time_elapsed": 1325723, "internal_node_id": "0.0-4.0-3.0-27.0"}}, {"uniqueid": "w92205734:a17395195", "current_trial": 68, "dateTime": 1664874801986, "trialdata": {"revealed_states": [], "num_clicks_accrued": [0, 0, 0, 0, 0, 0, 0, 0, 0, 0, 0, 0, 0], "stateRewards": ["", 2, 4, 48, 24, -4, 8, 48, 48, 2, -4, -48, -24], "withholdReward": true, "trial_id": "mdp_822099887466", "block": "test2", "trialIndex": 60, "score": 58.75, "costs": -0.25, "simulationMode": [null, null, null], "rewards": [2, 4, 48], "path": ["0", "0", "1", "2", "3"], "rt": [1379, 45, 32], "actions": ["up", "up", "right"], "actionTimes": [2341, 2881, 3434], "queries": {"click": {"state": {"target": ["3"], "time": [1337]}, "edge": {"target": [], "time": []}}, "mouseover": {"state": {"target": ["3"], "time": [1301]}, "edge": {"target": [], "time": []}}, "mouseout": {"state": {"target": ["12", "0", "3"], "time": [635, 1101, 1635]}, "edge": {"target": [], "time": []}}}, "displayed_time": "8.96", "trialTime": 9221, "trial_type": "mouselab-mdp", "trial_index": 68, "time_elapsed": 1334998, "internal_node_id": "0.0-4.0-3.0-28.0"}}, {"uniqueid": "w92205734:a17395195", "current_trial": 69, "dateTime": 1664874811788, "trialdata": {"revealed_states": [], "num_clicks_accrued": [0, 0, 0, 0, 0, 0, 0, 0, 0, 0, 0, 0, 0], "stateRewards": ["", 2, 4, 48, -48, 2, 8, -24, 48, 4, 8, 48, -48], "withholdReward": false, "trial_id": "mdp_110142964375", "block": "test2", "trialIndex": 61, "score": 58.75, "costs": -0.25, "simulationMode": [null, null, null], "rewards": [2, 4, 48], "path": ["0", "0", "1", "2", "3"], "rt": [1522, 41, 18], "actions": ["up", "up", "right"], "actionTimes": [1978, 2515, 3059], "queries": {"click": {"state": {"target": ["3"], "time": [852]}, "edge": {"target": [], "time": []}}, "mouseover": {"state": {"target": ["0", "3", "2"], "time": [462, 773, 1090]}, "edge": {"target": [], "time": []}}, "mouseout": {"state": {"target": ["0", "3", "2", "4", "11"], "time": [574, 1057, 1156, 5257, 8056]}, "edge": {"target": [], "time": []}}}, "displayed_time": "9.46", "trialTime": 9746, "trial_type": "mouselab-mdp", "trial_index": 69, "time_elapsed": 1344800, "internal_node_id": "0.0-4.0-3.0-29.0"}}, {"uniqueid": "w92205734:a17395195", "current_trial": 70, "dateTime": 1664874855584, "trialdata": {"rt": 43792, "stimulus": "<h1> End of block! </h1>\n\nYou have reached the end of the block 2/4. If you need a short break, feel free to take one now before moving on.\n\n<br><br>\nIn the next block, you will complete another 30 rounds of this game.\n\n<br><br>\n<div style='text-align: center;'>Press <code>space</code> to begin.</div>\n<br><br>\n<div style='text-align: center;'>(If the experiment doesn't continue, try clicking on the text and then pressing <code>space</code>.)</div>", "response": " ", "trial_id": "mdp_ready_3", "trial_type": "html-keyboard-response", "trial_index": 70, "time_elapsed": 1388596, "internal_node_id": "0.0-4.0-4.0"}}, {"uniqueid": "w92205734:a17395195", "current_trial": 71, "dateTime": 1664874865850, "trialdata": {"revealed_states": [], "num_clicks_accrued": [0, 0, 0, 0, 0, 0, 0, 0, 0, 0, 0, 0, 0], "stateRewards": ["", 2, 4, 48, -48, 2, 8, -24, 48, 4, 8, 48, -48], "withholdReward": false, "trial_id": "mdp_110142964375", "block": "test3", "trialIndex": 62, "score": 58.25, "costs": -0.75, "simulationMode": [null, null, null], "rewards": [2, 4, 48], "path": ["0", "0", "1", "2", "3"], "rt": [2697, 3, 369], "actions": ["up", "up", "right"], "actionTimes": [4062, 4581, 5480], "queries": {"click": {"state": {"target": ["3", "1", "2"], "time": [1806, 2979, 3210]}, "edge": {"target": [], "time": []}}, "mouseover": {"state": {"target": ["3", "2", "1", "2"], "time": [1710, 2094, 2843, 3143]}, "edge": {"target": [], "time": []}}, "mouseout": {"state": {"target": ["3", "0", "3", "2", "1", "2", "3"], "time": [944, 1510, 2044, 2177, 3110, 3344, 3377]}, "edge": {"target": [], "time": []}}}, "displayed_time": "9.37", "trialTime": 10215, "trial_type": "mouselab-mdp", "trial_index": 71, "time_elapsed": 1398862, "internal_node_id": "0.0-4.0-5.0-0.0"}}, {"uniqueid": "w92205734:a17395195", "current_trial": 72, "dateTime": 1664874894551, "trialdata": {"revealed_states": [], "num_clicks_accrued": [0, 0, 0, 0, 0, 0, 0, 0, 0, 0, 0, 0, 0], "stateRewards": ["", -2, -4, -24, -48, -4, -8, -48, 24, -4, -8, -24, -48], "withholdReward": false, "trial_id": "mdp_475782454549", "block": "test3", "trialIndex": 63, "score": 15, "costs": -2, "simulationMode": [null, null, null], "rewards": [-4, -8, 24], "path": ["0", "0", "5", "6", "8"], "rt": [13389, 307, 64], "actions": ["right", "right", "down"], "actionTimes": [25984, 26783, 27341], "queries": {"click": {"state": {"target": ["3", "4", "11", "12", "8", "7", "5", "6"], "time": [18079, 18605, 19106, 19443, 19964, 20770, 23093, 23302]}, "edge": {"target": [], "time": []}}, "mouseover": {"state": {"target": ["11", "1", "3", "2", "4", "11", "10", "12", "8", "6", "7", "5", "5", "6"], "time": [17760, 17810, 17893, 18343, 18509, 18960, 19260, 19441, 19809, 20126, 20693, 21361, 23037, 23226]}, "edge": {"target": [], "time": []}}, "mouseout": {"state": {"target": ["1", "11", "1", "3", "2", "4", "11", "10", "12", "8", "6", "7", "7", "5", "5", "6", "6", "5", "6"], "time": [11626, 17776, 17826, 18310, 18476, 18794, 19210, 19326, 19677, 20093, 20160, 20993, 21176, 22294, 23193, 23459, 23842, 24110, 24210]}, "edge": {"target": [], "time": []}}}, "displayed_time": "27.83", "trialTime": 28651, "trial_type": "mouselab-mdp", "trial_index": 72, "time_elapsed": 1427563, "internal_node_id": "0.0-4.0-5.0-1.0"}}, {"uniqueid": "w92205734:a17395195", "current_trial": 73, "dateTime": 1664874918228, "trialdata": {"revealed_states": [], "num_clicks_accrued": [0, 0, 0, 0, 0, 0, 0, 0, 0, 0, 0, 0, 0], "stateRewards": ["", 4, -8, 48, -24, 4, -4, -48, -48, 4, -4, 24, 24], "withholdReward": true, "trial_id": "mdp_221562928904", "block": "test3", "trialIndex": 64, "score": 48.75, "costs": -0.25, "simulationMode": [null, null, null], "rewards": [4, -8, 48], "path": ["0", "0", "1", "2", "3"], "rt": [1766, 399, 103], "actions": ["up", "up", "right"], "actionTimes": [4225, 5127, 5732], "queries": {"click": {"state": {"target": ["3"], "time": [2925]}, "edge": {"target": [], "time": []}}, "mouseover": {"state": {"target": ["3", "2", "4"], "time": [2827, 3146, 3261]}, "edge": {"target": [], "time": []}}, "mouseout": {"state": {"target": ["6", "5", "0", "9", "0", "3", "2"], "time": [1645, 2011, 2110, 2327, 2626, 3094, 3194]}, "edge": {"target": [], "time": []}}}, "displayed_time": "11.46", "trialTime": 23630, "trial_type": "mouselab-mdp", "trial_index": 73, "time_elapsed": 1451240, "internal_node_id": "0.0-4.0-5.0-2.0"}}, {"uniqueid": "w92205734:a17395195", "current_trial": 74, "dateTime": 1664874934773, "trialdata": {"revealed_states": [], "num_clicks_accrued": [0, 0, 0, 0, 0, 0, 0, 0, 0, 0, 0, 0, 0], "stateRewards": ["", 4, -8, 24, 48, 2, -4, 48, 48, 4, -8, 48, 48], "withholdReward": true, "trial_id": "mdp_962498334245", "block": "test3", "trialIndex": 65, "score": 48.5, "costs": -0.5, "simulationMode": [null, null, null], "rewards": [4, -8, 48], "path": ["0", "0", "1", "2", "4"], "rt": [2025, 362, 148], "actions": ["up", "up", "left"], "actionTimes": [4233, 5092, 5729], "queries": {"click": {"state": {"target": ["3", "4"], "time": [2582, 3047]}, "edge": {"target": [], "time": []}}, "mouseover": {"state": {"target": ["3", "2", "4"], "time": [2529, 2846, 2980]}, "edge": {"target": [], "time": []}}, "mouseout": {"state": {"target": ["4", "6", "5", "0", "3", "2", "4"], "time": [1797, 1947, 2012, 2330, 2813, 2913, 3331]}, "edge": {"target": [], "time": []}}}, "displayed_time": "11.21", "trialTime": 16495, "trial_type": "mouselab-mdp", "trial_index": 74, "time_elapsed": 1467785, "internal_node_id": "0.0-4.0-5.0-3.0"}}, {"uniqueid": "w92205734:a17395195", "current_trial": 75, "dateTime": 1664874992059, "trialdata": {"revealed_states": [], "num_clicks_accrued": [0, 0, 0, 0, 0, 0, 0, 0, 0, 0, 0, 0, 0], "stateRewards": ["", -2, -8, -24, 48, -2, -8, -48, -48, 2, -8, -48, 24], "withholdReward": false, "trial_id": "mdp_288324580942", "block": "test3", "trialIndex": 66, "score": 42.5, "costs": -0.5, "simulationMode": [null, null, null], "rewards": [-2, -8, 48], "path": ["0", "0", "1", "2", "4"], "rt": [2009, 395, 150], "actions": ["up", "up", "left"], "actionTimes": [33959, 34863, 35518], "queries": {"click": {"state": {"target": ["3", "4"], "time": [32365, 32779]}, "edge": {"target": [], "time": []}}, "mouseover": {"state": {"target": ["3", "2", "4"], "time": [32284, 32601, 32683]}, "edge": {"target": [], "time": []}}, "mouseout": {"state": {"target": ["4", "1", "3", "2", "4", "11"], "time": [31633, 31700, 32550, 32650, 33000, 56916]}, "edge": {"target": [], "time": []}}}, "displayed_time": "40.95", "trialTime": 57237, "trial_type": "mouselab-mdp", "trial_index": 75, "time_elapsed": 1525071, "internal_node_id": "0.0-4.0-5.0-4.0"}}, {"uniqueid": "w92205734:a17395195", "current_trial": 76, "dateTime": 1664875015482, "trialdata": {"revealed_states": [], "num_clicks_accrued": [0, 0, 0, 0, 0, 0, 0, 0, 0, 0, 0, 0, 0], "stateRewards": ["", -2, 8, 48, -24, 2, 4, -48, -24, -4, 8, -48, -48], "withholdReward": true, "trial_id": "mdp_539167561933", "block": "test3", "trialIndex": 67, "score": 58.75, "costs": -0.25, "simulationMode": [null, null, null], "rewards": [-2, 8, 48], "path": ["0", "0", "1", "2", "3"], "rt": [1655, 16, 9], "actions": ["up", "up", "right"], "actionTimes": [2271, 2777, 3286], "queries": {"click": {"state": {"target": ["3"], "time": [1109]}, "edge": {"target": [], "time": []}}, "mouseover": {"state": {"target": ["3", "2", "4"], "time": [1043, 1293, 1376]}, "edge": {"target": [], "time": []}}, "mouseout": {"state": {"target": ["0", "3", "2"], "time": [185, 1260, 1343]}, "edge": {"target": [], "time": []}}}, "displayed_time": "9.62", "trialTime": 23370, "trial_type": "mouselab-mdp", "trial_index": 76, "time_elapsed": 1548494, "internal_node_id": "0.0-4.0-5.0-5.0"}}, {"uniqueid": "w92205734:a17395195", "current_trial": 77, "dateTime": 1664875025691, "trialdata": {"revealed_states": [], "num_clicks_accrued": [0, 0, 0, 0, 0, 0, 0, 0, 0, 0, 0, 0, 0], "stateRewards": ["", -4, -8, 48, -48, 2, -4, 48, -24, 2, -8, -48, -48], "withholdReward": true, "trial_id": "mdp_624553692913", "block": "test3", "trialIndex": 68, "score": 40.75, "costs": -0.25, "simulationMode": [null, null, null], "rewards": [-4, -8, 48], "path": ["0", "0", "1", "2", "3"], "rt": [2467, 4, 103], "actions": ["up", "up", "right"], "actionTimes": [3334, 3853, 4485], "queries": {"click": {"state": {"target": ["3"], "time": [2233]}, "edge": {"target": [], "time": []}}, "mouseover": {"state": {"target": ["3", "2"], "time": [2198, 2564]}, "edge": {"target": [], "time": []}}, "mouseout": {"state": {"target": ["4", "3", "2"], "time": [531, 2532, 9147]}, "edge": {"target": [], "time": []}}}, "displayed_time": "9.87", "trialTime": 10152, "trial_type": "mouselab-mdp", "trial_index": 77, "time_elapsed": 1558703, "internal_node_id": "0.0-4.0-5.0-6.0"}}, {"uniqueid": "w92205734:a17395195", "current_trial": 78, "dateTime": 1664875035455, "trialdata": {"revealed_states": [], "num_clicks_accrued": [0, 0, 0, 0, 0, 0, 0, 0, 0, 0, 0, 0, 0], "stateRewards": ["", 2, -8, -24, 48, 4, -8, -24, -24, 2, 8, -24, 24], "withholdReward": true, "trial_id": "mdp_480787552818", "block": "test3", "trialIndex": 69, "score": 46.5, "costs": -0.5, "simulationMode": [null, null, null], "rewards": [2, -8, 48], "path": ["0", "0", "1", "2", "4"], "rt": [1929, 217, 232], "actions": ["up", "up", "left"], "actionTimes": [2391, 3109, 3841], "queries": {"click": {"state": {"target": ["3", "4"], "time": [805, 1329]}, "edge": {"target": [], "time": []}}, "mouseover": {"state": {"target": ["3", "2", "4"], "time": [708, 1091, 1258]}, "edge": {"target": [], "time": []}}, "mouseout": {"state": {"target": ["2", "3", "2", "4"], "time": [141, 1041, 1191, 1524]}, "edge": {"target": [], "time": []}}}, "displayed_time": "9.46", "trialTime": 9711, "trial_type": "mouselab-mdp", "trial_index": 78, "time_elapsed": 1568467, "internal_node_id": "0.0-4.0-5.0-7.0"}}, {"uniqueid": "w92205734:a17395195", "current_trial": 79, "dateTime": 1664875055567, "trialdata": {"revealed_states": [], "num_clicks_accrued": [0, 0, 0, 0, 0, 0, 0, 0, 0, 0, 0, 0, 0], "stateRewards": ["", -2, -8, -24, -48, -2, -4, 48, -48, 4, 4, -48, 48], "withholdReward": true, "trial_id": "mdp_156977432949", "block": "test3", "trialIndex": 70, "score": 59.5, "costs": -1.5, "simulationMode": [null, null, null], "rewards": [4, 4, 48], "path": ["0", "0", "9", "10", "12"], "rt": [4292, 33, 90], "actions": ["left", "left", "down"], "actionTimes": [5147, 5681, 6287], "queries": {"click": {"state": {"target": ["3", "4", "11", "12", "9", "10"], "time": [1223, 1638, 2446, 2850, 3918, 4175]}, "edge": {"target": [], "time": []}}, "mouseover": {"state": {"target": ["3", "2", "4", "11", "10", "12", "9", "10"], "time": [1148, 1431, 1597, 2381, 2631, 2748, 3781, 4114]}, "edge": {"target": [], "time": []}}, "mouseout": {"state": {"target": ["1", "0", "3", "2", "4", "11", "10", "12", "9", "10", "9"], "time": [397, 981, 1381, 1514, 1999, 2598, 2714, 3047, 4080, 4348, 4397]}, "edge": {"target": [], "time": []}}}, "displayed_time": "8.86", "trialTime": 20063, "trial_type": "mouselab-mdp", "trial_index": 79, "time_elapsed": 1588579, "internal_node_id": "0.0-4.0-5.0-8.0"}}, {"uniqueid": "w92205734:a17395195", "current_trial": 80, "dateTime": 1664875067461, "trialdata": {"revealed_states": [], "num_clicks_accrued": [0, 0, 0, 0, 0, 0, 0, 0, 0, 0, 0, 0, 0], "stateRewards": ["", 4, 4, 24, 24, 4, -4, 48, 48, 4, 4, 24, -48], "withholdReward": false, "trial_id": "mdp_454251689008", "block": "test3", "trialIndex": 71, "score": 51.5, "costs": -1.5, "simulationMode": [null, null, null], "rewards": [4, -4, 48], "path": ["0", "0", "5", "6", "7"], "rt": [3674, 482, 53], "actions": ["right", "right", "up"], "actionTimes": [6072, 7048, 7619], "queries": {"click": {"state": {"target": ["3", "4", "11", "12", "8", "7"], "time": [2803, 3232, 3801, 4117, 4851, 5163]}, "edge": {"target": [], "time": []}}, "mouseover": {"state": {"target": ["3", "2", "4", "11", "10", "12", "8", "6", "7"], "time": [2765, 3015, 3098, 3732, 3948, 4015, 4748, 5032, 5148]}, "edge": {"target": [], "time": []}}, "mouseout": {"state": {"target": ["0", "8", "0", "9", "0", "3", "2", "4", "11", "10", "12", "8", "6", "7"], "time": [1648, 1982, 2064, 2265, 2481, 2981, 3064, 3498, 3915, 3981, 4281, 4982, 5098, 5531]}, "edge": {"target": [], "time": []}}}, "displayed_time": "11.40", "trialTime": 11842, "trial_type": "mouselab-mdp", "trial_index": 80, "time_elapsed": 1600472, "internal_node_id": "0.0-4.0-5.0-9.0"}}, {"uniqueid": "w92205734:a17395195", "current_trial": 81, "dateTime": 1664875080196, "trialdata": {"revealed_states": [], "num_clicks_accrued": [0, 0, 0, 0, 0, 0, 0, 0, 0, 0, 0, 0, 0], "stateRewards": ["", 2, 4, -48, -48, 2, 4, 48, -24, -2, 8, 48, -48], "withholdReward": true, "trial_id": "mdp_258528916140", "block": "test3", "trialIndex": 72, "score": 58.25, "costs": -0.75, "simulationMode": [null, null, null], "rewards": [-2, 8, 48], "path": ["0", "0", "9", "10", "11"], "rt": [2742, 104, 254], "actions": ["left", "left", "up"], "actionTimes": [3215, 3817, 4566], "queries": {"click": {"state": {"target": ["3", "4", "11"], "time": [835, 1222, 1705]}, "edge": {"target": [], "time": []}}, "mouseover": {"state": {"target": ["3", "2", "4", "11", "10", "12"], "time": [796, 1062, 1112, 1547, 1979, 2114]}, "edge": {"target": [], "time": []}}, "mouseout": {"state": {"target": ["7", "5", "0", "3", "2", "4", "11", "10", "12"], "time": [79, 245, 442, 1029, 1096, 1479, 1913, 2045, 2446]}, "edge": {"target": [], "time": []}}}, "displayed_time": "8.47", "trialTime": 12675, "trial_type": "mouselab-mdp", "trial_index": 81, "time_elapsed": 1613208, "internal_node_id": "0.0-4.0-5.0-10.0"}}, {"uniqueid": "w92205734:a17395195", "current_trial": 82, "dateTime": 1664875089837, "trialdata": {"revealed_states": [], "num_clicks_accrued": [0, 0, 0, 0, 0, 0, 0, 0, 0, 0, 0, 0, 0], "stateRewards": ["", 4, -4, 24, 48, 4, 8, -24, -24, -2, 4, 48, 48], "withholdReward": true, "trial_id": "mdp_624998450453", "block": "test3", "trialIndex": 73, "score": 52.5, "costs": -0.5, "simulationMode": [null, null, null], "rewards": [4, -4, 48], "path": ["0", "0", "1", "2", "4"], "rt": [2390, 439, 104], "actions": ["up", "up", "left"], "actionTimes": [3493, 4424, 5040], "queries": {"click": {"state": {"target": ["3", "4"], "time": [1564, 2091]}, "edge": {"target": [], "time": []}}, "mouseover": {"state": {"target": ["1", "3", "2", "4", "11"], "time": [1317, 1468, 1767, 1902, 2418]}, "edge": {"target": [], "time": []}}, "mouseout": {"state": {"target": ["9", "0", "1", "3", "2", "4"], "time": [951, 1251, 1367, 1734, 1818, 2251]}, "edge": {"target": [], "time": []}}}, "displayed_time": "9.10", "trialTime": 9590, "trial_type": "mouselab-mdp", "trial_index": 82, "time_elapsed": 1622849, "internal_node_id": "0.0-4.0-5.0-11.0"}}, {"uniqueid": "w92205734:a17395195", "current_trial": 83, "dateTime": 1664875100107, "trialdata": {"revealed_states": [], "num_clicks_accrued": [0, 0, 0, 0, 0, 0, 0, 0, 0, 0, 0, 0, 0], "stateRewards": ["", 2, 8, -48, 24, -2, 4, 48, 48, -2, -8, 48, 24], "withholdReward": false, "trial_id": "mdp_157355418411", "block": "test3", "trialIndex": 74, "score": 42.25, "costs": -0.75, "simulationMode": [null, null, null], "rewards": [-2, -8, 48], "path": ["0", "0", "9", "10", "11"], "rt": [2637, 59, 74], "actions": ["left", "left", "up"], "actionTimes": [3500, 4053, 4618], "queries": {"click": {"state": {"target": ["4", "3", "11"], "time": [1221, 1693, 2372]}, "edge": {"target": [], "time": []}}, "mouseover": {"state": {"target": ["0", "4", "2", "3", "1", "11", "10", "12"], "time": [867, 1128, 1527, 1610, 2110, 2260, 2543, 2761]}, "edge": {"target": [], "time": []}}, "mouseout": {"state": {"target": ["11", "9", "0", "4", "2", "3", "1", "11", "10", "12"], "time": [444, 727, 978, 1461, 1560, 2077, 2143, 2510, 2610, 2994]}, "edge": {"target": [], "time": []}}}, "displayed_time": "9.86", "trialTime": 10219, "trial_type": "mouselab-mdp", "trial_index": 83, "time_elapsed": 1633119, "internal_node_id": "0.0-4.0-5.0-12.0"}}, {"uniqueid": "w92205734:a17395195", "current_trial": 84, "dateTime": 1664875111751, "trialdata": {"revealed_states": [], "num_clicks_accrued": [0, 0, 0, 0, 0, 0, 0, 0, 0, 0, 0, 0, 0], "stateRewards": ["", 2, 8, -48, -24, 2, -4, -48, 24, 2, -4, -24, -24], "withholdReward": true, "trial_id": "mdp_954659099093", "block": "test3", "trialIndex": 75, "score": 25, "costs": -2, "simulationMode": [null, null, null], "rewards": [2, -4, 24], "path": ["0", "0", "5", "6", "8"], "rt": [6924, 86, 156], "actions": ["right", "right", "down"], "actionTimes": [7654, 8227, 8880], "queries": {"click": {"state": {"target": ["3", "4", "11", "12", "8", "7", "5", "6"], "time": [1539, 1941, 2424, 2841, 3362, 3736, 6082, 6325]}, "edge": {"target": [], "time": []}}, "mouseover": {"state": {"target": ["3", "3", "2", "2", "3", "2", "4", "11", "10", "12", "8", "6", "7", "6", "5", "1", "2", "1", "5", "6"], "time": [1007, 1223, 1273, 1390, 1490, 1756, 1856, 2356, 2640, 2756, 3223, 3573, 3640, 4239, 4356, 5006, 5089, 5839, 6006, 6289]}, "edge": {"target": [], "time": []}}, "mouseout": {"state": {"target": ["0", "3", "3", "2", "2", "3", "2", "4", "11", "10", "12", "8", "6", "7", "6", "5", "1", "2", "1", "5", "6"], "time": [623, 1056, 1240, 1323, 1456, 1740, 1807, 2140, 2607, 2706, 3073, 3523, 3606, 3873, 4273, 4906, 5040, 5790, 5890, 6240, 6473]}, "edge": {"target": [], "time": []}}}, "displayed_time": "9.37", "trialTime": 11594, "trial_type": "mouselab-mdp", "trial_index": 84, "time_elapsed": 1644763, "internal_node_id": "0.0-4.0-5.0-13.0"}}, {"uniqueid": "w92205734:a17395195", "current_trial": 85, "dateTime": 1664875122272, "trialdata": {"revealed_states": [], "num_clicks_accrued": [0, 0, 0, 0, 0, 0, 0, 0, 0, 0, 0, 0, 0], "stateRewards": ["", -2, -4, -48, 48, -4, 4, -48, 24, -4, -8, 24, 48], "withholdReward": true, "trial_id": "mdp_264482284450", "block": "test3", "trialIndex": 76, "score": 46.5, "costs": -0.5, "simulationMode": [null, null, null], "rewards": [-2, -4, 48], "path": ["0", "0", "1", "2", "4"], "rt": [2591, 14, 72], "actions": ["up", "up", "left"], "actionTimes": [3516, 4043, 4618], "queries": {"click": {"state": {"target": ["3", "4"], "time": [1578, 1998]}, "edge": {"target": [], "time": []}}, "mouseover": {"state": {"target": ["3", "3", "2", "4", "11"], "time": [1129, 1496, 1795, 1862, 2395]}, "edge": {"target": [], "time": []}}, "mouseout": {"state": {"target": ["6", "5", "3", "3", "2", "4", "11"], "time": [345, 378, 1195, 1762, 1828, 2245, 2579]}, "edge": {"target": [], "time": []}}}, "displayed_time": "9.93", "trialTime": 10471, "trial_type": "mouselab-mdp", "trial_index": 85, "time_elapsed": 1655284, "internal_node_id": "0.0-4.0-5.0-14.0"}}, {"uniqueid": "w92205734:a17395195", "current_trial": 86, "dateTime": 1664875131646, "trialdata": {"revealed_states": [], "num_clicks_accrued": [0, 0, 0, 0, 0, 0, 0, 0, 0, 0, 0, 0, 0], "stateRewards": ["", -2, -4, -48, -48, 4, -4, 48, 24, 4, 4, 48, 48], "withholdReward": true, "trial_id": "mdp_950960813932", "block": "test3", "trialIndex": 77, "score": 60.25, "costs": -0.75, "simulationMode": [null, null, null], "rewards": [4, 4, 48], "path": ["0", "0", "9", "10", "11"], "rt": [2306, 118, 77], "actions": ["left", "left", "up"], "actionTimes": [3334