{"condition": 0, "counterbalance": 0, "assignmentId": "a87819491", "workerId": "w19045081", "hitId": "h11055432", "currenttrial": 965, "bonus": 0, "data": [{"uniqueid": "w19045081:a87819491", "current_trial": 0, "dateTime": 1664463982296, "trialdata": {"success": true, "trial_type": "fullscreen", "trial_index": 0, "time_elapsed": 3206, "internal_node_id": "0.0-0.0"}}, {"uniqueid": "w19045081:a87819491", "current_trial": 1, "dateTime": 1664463988346, "trialdata": {"view_history": [{"page_index": 0, "viewing_time": 6013}], "rt": 6018, "trial_id": "exp_instructions_distractor", "trial_type": "instructions", "trial_index": 1, "time_elapsed": 9258, "internal_node_id": "0.0-1.0"}}, {"uniqueid": "w19045081:a87819491", "current_trial": 2, "dateTime": 1664464006880, "trialdata": {"view_history": [{"page_index": 0, "viewing_time": 18524}], "rt": 18526, "trial_id": "color_game_instructions", "trial_type": "instructions", "trial_index": 2, "time_elapsed": 27791, "internal_node_id": "0.0-2.0"}}, {"uniqueid": "w19045081:a87819491", "current_trial": 3, "dateTime": 1664464009594, "trialdata": {"rt": 2706, "stimulus": "<h1> Get ready to start the game! </h1>\n\nThank you for reading the instructions. Get ready start with the first of 5 block(s) of this game.\n<br><br>\nIn this first block, you will complete 90 rounds of this game before moving on.\n<br><br>\nRemember, the better you perform, the bigger your bonus will be!\n<br><br>\n<div style='text-align: center;'>Press <code>space</code> to begin.</div>", "response": " ", "trial_id": "stroop_1_ready_1", "trial_type": "html-keyboard-response", "trial_index": 3, "time_elapsed": 30506, "internal_node_id": "0.0-3.0"}}, {"uniqueid": "w19045081:a87819491", "current_trial": 4, "dateTime": 1664464011464, "trialdata": {"rt": 1837, "stimulus": "<p id='stroop-text' class='stroop-yellow'>RED</p>", "response": "y", "stimulus-type": "incongruent", "word": "red", "color": "yellow", "correct_response": "y", "trial_id": "stroop-trial-1-incongruent-28", "trial_type": "html-keyboard-response", "trial_index": 4, "time_elapsed": 32374, "internal_node_id": "0.0-4.0-0.0"}}, {"uniqueid": "w19045081:a87819491", "current_trial": 5, "dateTime": 1664464015360, "trialdata": {"rt": 3384, "stimulus": "<p id='stroop-text' class='stroop-blue'>BLUE</p>", "response": "b", "stimulus-type": "congruent", "word": "blue", "color": "blue", "correct_response": "b", "trial_id": "stroop-trial-1-congruent-30", "trial_type": "html-keyboard-response", "trial_index": 5, "time_elapsed": 36271, "internal_node_id": "0.0-4.0-1.0"}}, {"uniqueid": "w19045081:a87819491", "current_trial": 6, "dateTime": 1664464016694, "trialdata": {"rt": 821, "stimulus": "<p id='stroop-text' class='stroop-blue'>BRIDGE</p>", "response": "b", "stimulus-type": "unrelated", "word": "BRIDGE", "color": "blue", "correct_response": "b", "trial_id": "stroop-trial-1-unrelated-18", "trial_type": "html-keyboard-response", "trial_index": 6, "time_elapsed": 37605, "internal_node_id": "0.0-4.0-2.0"}}, {"uniqueid": "w19045081:a87819491", "current_trial": 7, "dateTime": 1664464017953, "trialdata": {"rt": 750, "stimulus": "<p id='stroop-text' class='stroop-blue'>YELLOW</p>", "response": "b", "stimulus-type": "incongruent", "word": "yellow", "color": "blue", "correct_response": "b", "trial_id": "stroop-trial-1-incongruent-18", "trial_type": "html-keyboard-response", "trial_index": 7, "time_elapsed": 38863, "internal_node_id": "0.0-4.0-3.0"}}, {"uniqueid": "w19045081:a87819491", "current_trial": 8, "dateTime": 1664464019379, "trialdata": {"rt": 907, "stimulus": "<p id='stroop-text' class='stroop-red'>GREEN</p>", "response": "g", "stimulus-type": "incongruent", "word": "green", "color": "red", "correct_response": "r", "trial_id": "stroop-trial-1-incongruent-22", "trial_type": "html-keyboard-response", "trial_index": 8, "time_elapsed": 40288, "internal_node_id": "0.0-4.0-4.0"}}, {"uniqueid": "w19045081:a87819491", "current_trial": 9, "dateTime": 1664464020632, "trialdata": {"rt": 737, "stimulus": "<p id='stroop-text' class='stroop-blue'>BLUE</p>", "response": "b", "stimulus-type": "congruent", "word": "blue", "color": "blue", "correct_response": "b", "trial_id": "stroop-trial-1-congruent-9", "trial_type": "html-keyboard-response", "trial_index": 9, "time_elapsed": 41543, "internal_node_id": "0.0-4.0-5.0"}}, {"uniqueid": "w19045081:a87819491", "current_trial": 10, "dateTime": 1664464022437, "trialdata": {"rt": 1288, "stimulus": "<p id='stroop-text' class='stroop-yellow'>STONE</p>", "response": "y", "stimulus-type": "unrelated", "word": "STONE", "color": "yellow", "correct_response": "y", "trial_id": "stroop-trial-1-unrelated-28", "trial_type": "html-keyboard-response", "trial_index": 10, "time_elapsed": 43348, "internal_node_id": "0.0-4.0-6.0"}}, {"uniqueid": "w19045081:a87819491", "current_trial": 11, "dateTime": 1664464023538, "trialdata": {"rt": 584, "stimulus": "<p id='stroop-text' class='stroop-blue'>BLUE</p>", "response": "b", "stimulus-type": "congruent", "word": "blue", "color": "blue", "correct_response": "b", "trial_id": "stroop-trial-1-congruent-2", "trial_type": "html-keyboard-response", "trial_index": 11, "time_elapsed": 44449, "internal_node_id": "0.0-4.0-7.0"}}, {"uniqueid": "w19045081:a87819491", "current_trial": 12, "dateTime": 1664464024635, "trialdata": {"rt": 586, "stimulus": "<p id='stroop-text' class='stroop-red'>RED</p>", "response": "r", "stimulus-type": "congruent", "word": "red", "color": "red", "correct_response": "r", "trial_id": "stroop-trial-1-congruent-18", "trial_type": "html-keyboard-response", "trial_index": 12, "time_elapsed": 45546, "internal_node_id": "0.0-4.0-8.0"}}, {"uniqueid": "w19045081:a87819491", "current_trial": 13, "dateTime": 1664464025609, "trialdata": {"rt": 460, "stimulus": "<p id='stroop-text' class='stroop-red'>RED</p>", "response": "r", "stimulus-type": "congruent", "word": "red", "color": "red", "correct_response": "r", "trial_id": "stroop-trial-1-congruent-7", "trial_type": "html-keyboard-response", "trial_index": 13, "time_elapsed": 46519, "internal_node_id": "0.0-4.0-9.0"}}, {"uniqueid": "w19045081:a87819491", "current_trial": 14, "dateTime": 1664464026610, "trialdata": {"rt": 490, "stimulus": "<p id='stroop-text' class='stroop-green'>SHIP</p>", "response": "g", "stimulus-type": "unrelated", "word": "SHIP", "color": "green", "correct_response": "g", "trial_id": "stroop-trial-1-unrelated-16", "trial_type": "html-keyboard-response", "trial_index": 14, "time_elapsed": 47521, "internal_node_id": "0.0-4.0-10.0"}}, {"uniqueid": "w19045081:a87819491", "current_trial": 15, "dateTime": 1664464027604, "trialdata": {"rt": 484, "stimulus": "<p id='stroop-text' class='stroop-green'>RED</p>", "response": "g", "stimulus-type": "incongruent", "word": "red", "color": "green", "correct_response": "g", "trial_id": "stroop-trial-1-incongruent-11", "trial_type": "html-keyboard-response", "trial_index": 15, "time_elapsed": 48515, "internal_node_id": "0.0-4.0-11.0"}}, {"uniqueid": "w19045081:a87819491", "current_trial": 16, "dateTime": 1664464028653, "trialdata": {"rt": 536, "stimulus": "<p id='stroop-text' class='stroop-yellow'>RED</p>", "response": "y", "stimulus-type": "incongruent", "word": "red", "color": "yellow", "correct_response": "y", "trial_id": "stroop-trial-1-incongruent-1", "trial_type": "html-keyboard-response", "trial_index": 16, "time_elapsed": 49564, "internal_node_id": "0.0-4.0-12.0"}}, {"uniqueid": "w19045081:a87819491", "current_trial": 17, "dateTime": 1664464029972, "trialdata": {"rt": 803, "stimulus": "<p id='stroop-text' class='stroop-green'>BLUE</p>", "response": "g", "stimulus-type": "incongruent", "word": "blue", "color": "green", "correct_response": "g", "trial_id": "stroop-trial-1-incongruent-29", "trial_type": "html-keyboard-response", "trial_index": 17, "time_elapsed": 50883, "internal_node_id": "0.0-4.0-13.0"}}, {"uniqueid": "w19045081:a87819491", "current_trial": 18, "dateTime": 1664464031290, "trialdata": {"rt": 801, "stimulus": "<p id='stroop-text' class='stroop-blue'>YELLOW</p>", "response": "b", "stimulus-type": "incongruent", "word": "yellow", "color": "blue", "correct_response": "b", "trial_id": "stroop-trial-1-incongruent-3", "trial_type": "html-keyboard-response", "trial_index": 18, "time_elapsed": 52202, "internal_node_id": "0.0-4.0-14.0"}}, {"uniqueid": "w19045081:a87819491", "current_trial": 19, "dateTime": 1664464032429, "trialdata": {"rt": 632, "stimulus": "<p id='stroop-text' class='stroop-blue'>STONE</p>", "response": "b", "stimulus-type": "unrelated", "word": "STONE", "color": "blue", "correct_response": "b", "trial_id": "stroop-trial-1-unrelated-17", "trial_type": "html-keyboard-response", "trial_index": 19, "time_elapsed": 53340, "internal_node_id": "0.0-4.0-15.0"}}, {"uniqueid": "w19045081:a87819491", "current_trial": 20, "dateTime": 1664464033492, "trialdata": {"rt": 556, "stimulus": "<p id='stroop-text' class='stroop-blue'>BLUE</p>", "response": "b", "stimulus-type": "congruent", "word": "blue", "color": "blue", "correct_response": "b", "trial_id": "stroop-trial-1-congruent-19", "trial_type": "html-keyboard-response", "trial_index": 20, "time_elapsed": 54404, "internal_node_id": "0.0-4.0-16.0"}}, {"uniqueid": "w19045081:a87819491", "current_trial": 21, "dateTime": 1664464034580, "trialdata": {"rt": 570, "stimulus": "<p id='stroop-text' class='stroop-yellow'>YELLOW</p>", "response": "y", "stimulus-type": "congruent", "word": "yellow", "color": "yellow", "correct_response": "y", "trial_id": "stroop-trial-1-congruent-24", "trial_type": "html-keyboard-response", "trial_index": 21, "time_elapsed": 55491, "internal_node_id": "0.0-4.0-17.0"}}, {"uniqueid": "w19045081:a87819491", "current_trial": 22, "dateTime": 1664464035747, "trialdata": {"rt": 656, "stimulus": "<p id='stroop-text' class='stroop-red'>STONE</p>", "response": "r", "stimulus-type": "unrelated", "word": "STONE", "color": "red", "correct_response": "r", "trial_id": "stroop-trial-1-unrelated-21", "trial_type": "html-keyboard-response", "trial_index": 22, "time_elapsed": 56658, "internal_node_id": "0.0-4.0-18.0"}}, {"uniqueid": "w19045081:a87819491", "current_trial": 23, "dateTime": 1664464036891, "trialdata": {"rt": 637, "stimulus": "<p id='stroop-text' class='stroop-green'>YELLOW</p>", "response": "g", "stimulus-type": "incongruent", "word": "yellow", "color": "green", "correct_response": "g", "trial_id": "stroop-trial-1-incongruent-5", "trial_type": "html-keyboard-response", "trial_index": 23, "time_elapsed": 57802, "internal_node_id": "0.0-4.0-19.0"}}, {"uniqueid": "w19045081:a87819491", "current_trial": 24, "dateTime": 1664464038615, "trialdata": {"rt": 1207, "stimulus": "<p id='stroop-text' class='stroop-red'>SHIP</p>", "response": "y", "stimulus-type": "unrelated", "word": "SHIP", "color": "red", "correct_response": "r", "trial_id": "stroop-trial-1-unrelated-20", "trial_type": "html-keyboard-response", "trial_index": 24, "time_elapsed": 59527, "internal_node_id": "0.0-4.0-20.0"}}, {"uniqueid": "w19045081:a87819491", "current_trial": 25, "dateTime": 1664464039998, "trialdata": {"rt": 866, "stimulus": "<p id='stroop-text' class='stroop-red'>WINDOW</p>", "response": "r", "stimulus-type": "unrelated", "word": "WINDOW", "color": "red", "correct_response": "r", "trial_id": "stroop-trial-1-unrelated-26", "trial_type": "html-keyboard-response", "trial_index": 25, "time_elapsed": 60909, "internal_node_id": "0.0-4.0-21.0"}}, {"uniqueid": "w19045081:a87819491", "current_trial": 26, "dateTime": 1664464041298, "trialdata": {"rt": 792, "stimulus": "<p id='stroop-text' class='stroop-green'>GREEN</p>", "response": "g", "stimulus-type": "congruent", "word": "green", "color": "green", "correct_response": "g", "trial_id": "stroop-trial-1-congruent-14", "trial_type": "html-keyboard-response", "trial_index": 26, "time_elapsed": 62210, "internal_node_id": "0.0-4.0-22.0"}}, {"uniqueid": "w19045081:a87819491", "current_trial": 27, "dateTime": 1664464042206, "trialdata": {"rt": 397, "stimulus": "<p id='stroop-text' class='stroop-blue'>YELLOW</p>", "response": "b", "stimulus-type": "incongruent", "word": "yellow", "color": "blue", "correct_response": "b", "trial_id": "stroop-trial-1-incongruent-14", "trial_type": "html-keyboard-response", "trial_index": 27, "time_elapsed": 63117, "internal_node_id": "0.0-4.0-23.0"}}, {"uniqueid": "w19045081:a87819491", "current_trial": 28, "dateTime": 1664464043237, "trialdata": {"rt": 518, "stimulus": "<p id='stroop-text' class='stroop-yellow'>YELLOW</p>", "response": "y", "stimulus-type": "congruent", "word": "yellow", "color": "yellow", "correct_response": "y", "trial_id": "stroop-trial-1-congruent-6", "trial_type": "html-keyboard-response", "trial_index": 28, "time_elapsed": 64148, "internal_node_id": "0.0-4.0-24.0"}}, {"uniqueid": "w19045081:a87819491", "current_trial": 29, "dateTime": 1664464044249, "trialdata": {"rt": 507, "stimulus": "<p id='stroop-text' class='stroop-yellow'>YELLOW</p>", "response": "y", "stimulus-type": "congruent", "word": "yellow", "color": "yellow", "correct_response": "y", "trial_id": "stroop-trial-1-congruent-10", "trial_type": "html-keyboard-response", "trial_index": 29, "time_elapsed": 65160, "internal_node_id": "0.0-4.0-25.0"}}, {"uniqueid": "w19045081:a87819491", "current_trial": 30, "dateTime": 1664464045526, "trialdata": {"rt": 768, "stimulus": "<p id='stroop-text' class='stroop-red'>BOAT</p>", "response": "r", "stimulus-type": "unrelated", "word": "BOAT", "color": "red", "correct_response": "r", "trial_id": "stroop-trial-1-unrelated-8", "trial_type": "html-keyboard-response", "trial_index": 30, "time_elapsed": 66437, "internal_node_id": "0.0-4.0-26.0"}}, {"uniqueid": "w19045081:a87819491", "current_trial": 31, "dateTime": 1664464046584, "trialdata": {"rt": 547, "stimulus": "<p id='stroop-text' class='stroop-yellow'>BLUE</p>", "response": "y", "stimulus-type": "incongruent", "word": "blue", "color": "yellow", "correct_response": "y", "trial_id": "stroop-trial-1-incongruent-23", "trial_type": "html-keyboard-response", "trial_index": 31, "time_elapsed": 67495, "internal_node_id": "0.0-4.0-27.0"}}, {"uniqueid": "w19045081:a87819491", "current_trial": 32, "dateTime": 1664464047636, "trialdata": {"rt": 543, "stimulus": "<p id='stroop-text' class='stroop-green'>GREEN</p>", "response": "g", "stimulus-type": "congruent", "word": "green", "color": "green", "correct_response": "g", "trial_id": "stroop-trial-1-congruent-23", "trial_type": "html-keyboard-response", "trial_index": 32, "time_elapsed": 68546, "internal_node_id": "0.0-4.0-28.0"}}, {"uniqueid": "w19045081:a87819491", "current_trial": 33, "dateTime": 1664464048711, "trialdata": {"rt": 564, "stimulus": "<p id='stroop-text' class='stroop-blue'>WINDOW</p>", "response": "b", "stimulus-type": "unrelated", "word": "WINDOW", "color": "blue", "correct_response": "b", "trial_id": "stroop-trial-1-unrelated-30", "trial_type": "html-keyboard-response", "trial_index": 33, "time_elapsed": 69622, "internal_node_id": "0.0-4.0-29.0"}}, {"uniqueid": "w19045081:a87819491", "current_trial": 34, "dateTime": 1664464050865, "trialdata": {"rt": 1636, "stimulus": "<p id='stroop-text' class='stroop-yellow'>RED</p>", "response": "y", "stimulus-type": "incongruent", "word": "red", "color": "yellow", "correct_response": "y", "trial_id": "stroop-trial-1-incongruent-20", "trial_type": "html-keyboard-response", "trial_index": 34, "time_elapsed": 71776, "internal_node_id": "0.0-4.0-30.0"}}, {"uniqueid": "w19045081:a87819491", "current_trial": 35, "dateTime": 1664464052102, "trialdata": {"rt": 722, "stimulus": "<p id='stroop-text' class='stroop-red'>RED</p>", "response": "r", "stimulus-type": "congruent", "word": "red", "color": "red", "correct_response": "r", "trial_id": "stroop-trial-1-congruent-29", "trial_type": "html-keyboard-response", "trial_index": 35, "time_elapsed": 73014, "internal_node_id": "0.0-4.0-31.0"}}, {"uniqueid": "w19045081:a87819491", "current_trial": 36, "dateTime": 1664464052989, "trialdata": {"rt": 378, "stimulus": "<p id='stroop-text' class='stroop-red'>RED</p>", "response": "r", "stimulus-type": "congruent", "word": "red", "color": "red", "correct_response": "r", "trial_id": "stroop-trial-1-congruent-13", "trial_type": "html-keyboard-response", "trial_index": 36, "time_elapsed": 73900, "internal_node_id": "0.0-4.0-32.0"}}, {"uniqueid": "w19045081:a87819491", "current_trial": 37, "dateTime": 1664464053968, "trialdata": {"rt": 471, "stimulus": "<p id='stroop-text' class='stroop-green'>RED</p>", "response": "g", "stimulus-type": "incongruent", "word": "red", "color": "green", "correct_response": "g", "trial_id": "stroop-trial-1-incongruent-15", "trial_type": "html-keyboard-response", "trial_index": 37, "time_elapsed": 74880, "internal_node_id": "0.0-4.0-33.0"}}, {"uniqueid": "w19045081:a87819491", "current_trial": 38, "dateTime": 1664464054975, "trialdata": {"rt": 498, "stimulus": "<p id='stroop-text' class='stroop-green'>BLUE</p>", "response": "g", "stimulus-type": "incongruent", "word": "blue", "color": "green", "correct_response": "g", "trial_id": "stroop-trial-1-incongruent-12", "trial_type": "html-keyboard-response", "trial_index": 38, "time_elapsed": 75886, "internal_node_id": "0.0-4.0-34.0"}}, {"uniqueid": "w19045081:a87819491", "current_trial": 39, "dateTime": 1664464056053, "trialdata": {"rt": 572, "stimulus": "<p id='stroop-text' class='stroop-yellow'>BLUE</p>", "response": "b", "stimulus-type": "incongruent", "word": "blue", "color": "yellow", "correct_response": "y", "trial_id": "stroop-trial-1-incongruent-27", "trial_type": "html-keyboard-response", "trial_index": 39, "time_elapsed": 76964, "internal_node_id": "0.0-4.0-35.0"}}, {"uniqueid": "w19045081:a87819491", "current_trial": 40, "dateTime": 1664464057787, "trialdata": {"rt": 1217, "stimulus": "<p id='stroop-text' class='stroop-yellow'>CHAIR</p>", "response": "y", "stimulus-type": "unrelated", "word": "CHAIR", "color": "yellow", "correct_response": "y", "trial_id": "stroop-trial-1-unrelated-27", "trial_type": "html-keyboard-response", "trial_index": 40, "time_elapsed": 78698, "internal_node_id": "0.0-4.0-36.0"}}, {"uniqueid": "w19045081:a87819491", "current_trial": 41, "dateTime": 1664464060053, "trialdata": {"rt": 1757, "stimulus": "<p id='stroop-text' class='stroop-blue'>RED</p>", "response": "b", "stimulus-type": "incongruent", "word": "red", "color": "blue", "correct_response": "b", "trial_id": "stroop-trial-1-incongruent-2", "trial_type": "html-keyboard-response", "trial_index": 41, "time_elapsed": 80965, "internal_node_id": "0.0-4.0-37.0"}}, {"uniqueid": "w19045081:a87819491", "current_trial": 42, "dateTime": 1664464061112, "trialdata": {"rt": 546, "stimulus": "<p id='stroop-text' class='stroop-blue'>FORK</p>", "response": "b", "stimulus-type": "unrelated", "word": "FORK", "color": "blue", "correct_response": "b", "trial_id": "stroop-trial-1-unrelated-11", "trial_type": "html-keyboard-response", "trial_index": 42, "time_elapsed": 82023, "internal_node_id": "0.0-4.0-38.0"}}, {"uniqueid": "w19045081:a87819491", "current_trial": 43, "dateTime": 1664464062110, "trialdata": {"rt": 487, "stimulus": "<p id='stroop-text' class='stroop-blue'>RED</p>", "response": "b", "stimulus-type": "incongruent", "word": "red", "color": "blue", "correct_response": "b", "trial_id": "stroop-trial-1-incongruent-9", "trial_type": "html-keyboard-response", "trial_index": 43, "time_elapsed": 83021, "internal_node_id": "0.0-4.0-39.0"}}, {"uniqueid": "w19045081:a87819491", "current_trial": 44, "dateTime": 1664464063116, "trialdata": {"rt": 498, "stimulus": "<p id='stroop-text' class='stroop-blue'>FORK</p>", "response": "b", "stimulus-type": "unrelated", "word": "FORK", "color": "blue", "correct_response": "b", "trial_id": "stroop-trial-1-unrelated-14", "trial_type": "html-keyboard-response", "trial_index": 44, "time_elapsed": 84028, "internal_node_id": "0.0-4.0-40.0"}}, {"uniqueid": "w19045081:a87819491", "current_trial": 45, "dateTime": 1664464064017, "trialdata": {"rt": 385, "stimulus": "<p id='stroop-text' class='stroop-blue'>YELLOW</p>", "response": "b", "stimulus-type": "incongruent", "word": "yellow", "color": "blue", "correct_response": "b", "trial_id": "stroop-trial-1-incongruent-10", "trial_type": "html-keyboard-response", "trial_index": 45, "time_elapsed": 84928, "internal_node_id": "0.0-4.0-41.0"}}, {"uniqueid": "w19045081:a87819491", "current_trial": 46, "dateTime": 1664464064886, "trialdata": {"rt": 361, "stimulus": "<p id='stroop-text' class='stroop-blue'>RED</p>", "response": "b", "stimulus-type": "incongruent", "word": "red", "color": "blue", "correct_response": "b", "trial_id": "stroop-trial-1-incongruent-25", "trial_type": "html-keyboard-response", "trial_index": 46, "time_elapsed": 85798, "internal_node_id": "0.0-4.0-42.0"}}, {"uniqueid": "w19045081:a87819491", "current_trial": 47, "dateTime": 1664464065848, "trialdata": {"rt": 447, "stimulus": "<p id='stroop-text' class='stroop-green'>GREEN</p>", "response": "g", "stimulus-type": "congruent", "word": "green", "color": "green", "correct_response": "g", "trial_id": "stroop-trial-1-congruent-5", "trial_type": "html-keyboard-response", "trial_index": 47, "time_elapsed": 86759, "internal_node_id": "0.0-4.0-43.0"}}, {"uniqueid": "w19045081:a87819491", "current_trial": 48, "dateTime": 1664464067532, "trialdata": {"rt": 1175, "stimulus": "<p id='stroop-text' class='stroop-red'>BLUE</p>", "response": "r", "stimulus-type": "incongruent", "word": "blue", "color": "red", "correct_response": "r", "trial_id": "stroop-trial-1-incongruent-4", "trial_type": "html-keyboard-response", "trial_index": 48, "time_elapsed": 88444, "internal_node_id": "0.0-4.0-44.0"}}, {"uniqueid": "w19045081:a87819491", "current_trial": 49, "dateTime": 1664464068585, "trialdata": {"rt": 544, "stimulus": "<p id='stroop-text' class='stroop-green'>DOG</p>", "response": "g", "stimulus-type": "unrelated", "word": "DOG", "color": "green", "correct_response": "g", "trial_id": "stroop-trial-1-unrelated-3", "trial_type": "html-keyboard-response", "trial_index": 49, "time_elapsed": 89496, "internal_node_id": "0.0-4.0-45.0"}}, {"uniqueid": "w19045081:a87819491", "current_trial": 50, "dateTime": 1664464069647, "trialdata": {"rt": 549, "stimulus": "<p id='stroop-text' class='stroop-yellow'>YELLOW</p>", "response": "y", "stimulus-type": "congruent", "word": "yellow", "color": "yellow", "correct_response": "y", "trial_id": "stroop-trial-1-congruent-28", "trial_type": "html-keyboard-response", "trial_index": 50, "time_elapsed": 90557, "internal_node_id": "0.0-4.0-46.0"}}, {"uniqueid": "w19045081:a87819491", "current_trial": 51, "dateTime": 1664464070588, "trialdata": {"rt": 431, "stimulus": "<p id='stroop-text' class='stroop-yellow'>WINDOW</p>", "response": "y", "stimulus-type": "unrelated", "word": "WINDOW", "color": "yellow", "correct_response": "y", "trial_id": "stroop-trial-1-unrelated-5", "trial_type": "html-keyboard-response", "trial_index": 51, "time_elapsed": 91499, "internal_node_id": "0.0-4.0-47.0"}}, {"uniqueid": "w19045081:a87819491", "current_trial": 52, "dateTime": 1664464071918, "trialdata": {"rt": 818, "stimulus": "<p id='stroop-text' class='stroop-blue'>RED</p>", "response": "b", "stimulus-type": "incongruent", "word": "red", "color": "blue", "correct_response": "b", "trial_id": "stroop-trial-1-incongruent-7", "trial_type": "html-keyboard-response", "trial_index": 52, "time_elapsed": 92829, "internal_node_id": "0.0-4.0-48.0"}}, {"uniqueid": "w19045081:a87819491", "current_trial": 53, "dateTime": 1664464073337, "trialdata": {"rt": 908, "stimulus": "<p id='stroop-text' class='stroop-red'>WINDOW</p>", "response": "r", "stimulus-type": "unrelated", "word": "WINDOW", "color": "red", "correct_response": "r", "trial_id": "stroop-trial-1-unrelated-15", "trial_type": "html-keyboard-response", "trial_index": 53, "time_elapsed": 94248, "internal_node_id": "0.0-4.0-49.0"}}, {"uniqueid": "w19045081:a87819491", "current_trial": 54, "dateTime": 1664464074651, "trialdata": {"rt": 804, "stimulus": "<p id='stroop-text' class='stroop-green'>BRAIN</p>", "response": "g", "stimulus-type": "unrelated", "word": "BRAIN", "color": "green", "correct_response": "g", "trial_id": "stroop-trial-1-unrelated-1", "trial_type": "html-keyboard-response", "trial_index": 54, "time_elapsed": 95563, "internal_node_id": "0.0-4.0-50.0"}}, {"uniqueid": "w19045081:a87819491", "current_trial": 55, "dateTime": 1664464075656, "trialdata": {"rt": 498, "stimulus": "<p id='stroop-text' class='stroop-red'>RED</p>", "response": "r", "stimulus-type": "congruent", "word": "red", "color": "red", "correct_response": "r", "trial_id": "stroop-trial-1-congruent-16", "trial_type": "html-keyboard-response", "trial_index": 55, "time_elapsed": 96567, "internal_node_id": "0.0-4.0-51.0"}}, {"uniqueid": "w19045081:a87819491", "current_trial": 56, "dateTime": 1664464076929, "trialdata": {"rt": 762, "stimulus": "<p id='stroop-text' class='stroop-yellow'>BOTTLE</p>", "response": "y", "stimulus-type": "unrelated", "word": "BOTTLE", "color": "yellow", "correct_response": "y", "trial_id": "stroop-trial-1-unrelated-7", "trial_type": "html-keyboard-response", "trial_index": 56, "time_elapsed": 97841, "internal_node_id": "0.0-4.0-52.0"}}, {"uniqueid": "w19045081:a87819491", "current_trial": 57, "dateTime": 1664464078419, "trialdata": {"rt": 983, "stimulus": "<p id='stroop-text' class='stroop-blue'>GREEN</p>", "response": "b", "stimulus-type": "incongruent", "word": "green", "color": "blue", "correct_response": "b", "trial_id": "stroop-trial-1-incongruent-26", "trial_type": "html-keyboard-response", "trial_index": 57, "time_elapsed": 99331, "internal_node_id": "0.0-4.0-53.0"}}, {"uniqueid": "w19045081:a87819491", "current_trial": 58, "dateTime": 1664464079800, "trialdata": {"rt": 873, "stimulus": "<p id='stroop-text' class='stroop-red'>RED</p>", "response": "y", "stimulus-type": "congruent", "word": "red", "color": "red", "correct_response": "r", "trial_id": "stroop-trial-1-congruent-11", "trial_type": "html-keyboard-response", "trial_index": 58, "time_elapsed": 100712, "internal_node_id": "0.0-4.0-54.0"}}, {"uniqueid": "w19045081:a87819491", "current_trial": 59, "dateTime": 1664464080843, "trialdata": {"rt": 532, "stimulus": "<p id='stroop-text' class='stroop-blue'>GREEN</p>", "response": "g", "stimulus-type": "incongruent", "word": "green", "color": "blue", "correct_response": "b", "trial_id": "stroop-trial-1-incongruent-16", "trial_type": "html-keyboard-response", "trial_index": 59, "time_elapsed": 101754, "internal_node_id": "0.0-4.0-55.0"}}, {"uniqueid": "w19045081:a87819491", "current_trial": 60, "dateTime": 1664464082049, "trialdata": {"rt": 691, "stimulus": "<p id='stroop-text' class='stroop-red'>RED</p>", "response": "r", "stimulus-type": "congruent", "word": "red", "color": "red", "correct_response": "r", "trial_id": "stroop-trial-1-congruent-4", "trial_type": "html-keyboard-response", "trial_index": 60, "time_elapsed": 102960, "internal_node_id": "0.0-4.0-56.0"}}, {"uniqueid": "w19045081:a87819491", "current_trial": 61, "dateTime": 1664464083001, "trialdata": {"rt": 444, "stimulus": "<p id='stroop-text' class='stroop-red'>RED</p>", "response": "r", "stimulus-type": "congruent", "word": "red", "color": "red", "correct_response": "r", "trial_id": "stroop-trial-1-congruent-15", "trial_type": "html-keyboard-response", "trial_index": 61, "time_elapsed": 103912, "internal_node_id": "0.0-4.0-57.0"}}, {"uniqueid": "w19045081:a87819491", "current_trial": 62, "dateTime": 1664464084163, "trialdata": {"rt": 655, "stimulus": "<p id='stroop-text' class='stroop-red'>GREEN</p>", "response": "g", "stimulus-type": "incongruent", "word": "green", "color": "red", "correct_response": "r", "trial_id": "stroop-trial-1-incongruent-19", "trial_type": "html-keyboard-response", "trial_index": 62, "time_elapsed": 105075, "internal_node_id": "0.0-4.0-58.0"}}, {"uniqueid": "w19045081:a87819491", "current_trial": 63, "dateTime": 1664464086451, "trialdata": {"rt": 1780, "stimulus": "<p id='stroop-text' class='stroop-red'>RED</p>", "response": "r", "stimulus-type": "congruent", "word": "red", "color": "red", "correct_response": "r", "trial_id": "stroop-trial-1-congruent-1", "trial_type": "html-keyboard-response", "trial_index": 63, "time_elapsed": 107362, "internal_node_id": "0.0-4.0-59.0"}}, {"uniqueid": "w19045081:a87819491", "current_trial": 64, "dateTime": 1664464087942, "trialdata": {"rt": 969, "stimulus": "<p id='stroop-text' class='stroop-yellow'>GREEN</p>", "response": "y", "stimulus-type": "incongruent", "word": "green", "color": "yellow", "correct_response": "y", "trial_id": "stroop-trial-1-incongruent-8", "trial_type": "html-keyboard-response", "trial_index": 64, "time_elapsed": 108853, "internal_node_id": "0.0-4.0-60.0"}}, {"uniqueid": "w19045081:a87819491", "current_trial": 65, "dateTime": 1664464089516, "trialdata": {"rt": 1066, "stimulus": "<p id='stroop-text' class='stroop-blue'>DOG</p>", "response": "b", "stimulus-type": "unrelated", "word": "DOG", "color": "blue", "correct_response": "b", "trial_id": "stroop-trial-1-unrelated-19", "trial_type": "html-keyboard-response", "trial_index": 65, "time_elapsed": 110428, "internal_node_id": "0.0-4.0-61.0"}}, {"uniqueid": "w19045081:a87819491", "current_trial": 66, "dateTime": 1664464091261, "trialdata": {"rt": 1233, "stimulus": "<p id='stroop-text' class='stroop-yellow'>MONKEY</p>", "response": "r", "stimulus-type": "unrelated", "word": "MONKEY", "color": "yellow", "correct_response": "y", "trial_id": "stroop-trial-1-unrelated-24", "trial_type": "html-keyboard-response", "trial_index": 66, "time_elapsed": 112172, "internal_node_id": "0.0-4.0-62.0"}}, {"uniqueid": "w19045081:a87819491", "current_trial": 67, "dateTime": 1664464092861, "trialdata": {"rt": 1090, "stimulus": "<p id='stroop-text' class='stroop-blue'>DOG</p>", "response": "b", "stimulus-type": "unrelated", "word": "DOG", "color": "blue", "correct_response": "b", "trial_id": "stroop-trial-1-unrelated-10", "trial_type": "html-keyboard-response", "trial_index": 67, "time_elapsed": 113773, "internal_node_id": "0.0-4.0-63.0"}}, {"uniqueid": "w19045081:a87819491", "current_trial": 68, "dateTime": 1664464093877, "trialdata": {"rt": 508, "stimulus": "<p id='stroop-text' class='stroop-green'>BRAIN</p>", "response": "g", "stimulus-type": "unrelated", "word": "BRAIN", "color": "green", "correct_response": "g", "trial_id": "stroop-trial-1-unrelated-13", "trial_type": "html-keyboard-response", "trial_index": 68, "time_elapsed": 114789, "internal_node_id": "0.0-4.0-64.0"}}, {"uniqueid": "w19045081:a87819491", "current_trial": 69, "dateTime": 1664464095378, "trialdata": {"rt": 989, "stimulus": "<p id='stroop-text' class='stroop-blue'>BOAT</p>", "response": "b", "stimulus-type": "unrelated", "word": "BOAT", "color": "blue", "correct_response": "b", "trial_id": "stroop-trial-1-unrelated-2", "trial_type": "html-keyboard-response", "trial_index": 69, "time_elapsed": 116290, "internal_node_id": "0.0-4.0-65.0"}}, {"uniqueid": "w19045081:a87819491", "current_trial": 70, "dateTime": 1664464096318, "trialdata": {"rt": 422, "stimulus": "<p id='stroop-text' class='stroop-red'>RED</p>", "response": "b", "stimulus-type": "congruent", "word": "red", "color": "red", "correct_response": "r", "trial_id": "stroop-trial-1-congruent-25", "trial_type": "html-keyboard-response", "trial_index": 70, "time_elapsed": 117225, "internal_node_id": "0.0-4.0-66.0"}}, {"uniqueid": "w19045081:a87819491", "current_trial": 71, "dateTime": 1664464097331, "trialdata": {"rt": 495, "stimulus": "<p id='stroop-text' class='stroop-red'>RED</p>", "response": "r", "stimulus-type": "congruent", "word": "red", "color": "red", "correct_response": "r", "trial_id": "stroop-trial-1-congruent-3", "trial_type": "html-keyboard-response", "trial_index": 71, "time_elapsed": 118242, "internal_node_id": "0.0-4.0-67.0"}}, {"uniqueid": "w19045081:a87819491", "current_trial": 72, "dateTime": 1664464098503, "trialdata": {"rt": 663, "stimulus": "<p id='stroop-text' class='stroop-blue'>CHAIR</p>", "response": "b", "stimulus-type": "unrelated", "word": "CHAIR", "color": "blue", "correct_response": "b", "trial_id": "stroop-trial-1-unrelated-4", "trial_type": "html-keyboard-response", "trial_index": 72, "time_elapsed": 119414, "internal_node_id": "0.0-4.0-68.0"}}, {"uniqueid": "w19045081:a87819491", "current_trial": 73, "dateTime": 1664464100019, "trialdata": {"rt": 1003, "stimulus": "<p id='stroop-text' class='stroop-red'>CHAIR</p>", "response": "r", "stimulus-type": "unrelated", "word": "CHAIR", "color": "red", "correct_response": "r", "trial_id": "stroop-trial-1-unrelated-6", "trial_type": "html-keyboard-response", "trial_index": 73, "time_elapsed": 120931, "internal_node_id": "0.0-4.0-69.0"}}, {"uniqueid": "w19045081:a87819491", "current_trial": 74, "dateTime": 1664464101610, "trialdata": {"rt": 1083, "stimulus": "<p id='stroop-text' class='stroop-yellow'>BLUE</p>", "response": "y", "stimulus-type": "incongruent", "word": "blue", "color": "yellow", "correct_response": "y", "trial_id": "stroop-trial-1-incongruent-17", "trial_type": "html-keyboard-response", "trial_index": 74, "time_elapsed": 122522, "internal_node_id": "0.0-4.0-70.0"}}, {"uniqueid": "w19045081:a87819491", "current_trial": 75, "dateTime": 1664464103077, "trialdata": {"rt": 959, "stimulus": "<p id='stroop-text' class='stroop-red'>BLUE</p>", "response": "r", "stimulus-type": "incongruent", "word": "blue", "color": "red", "correct_response": "r", "trial_id": "stroop-trial-1-incongruent-6", "trial_type": "html-keyboard-response", "trial_index": 75, "time_elapsed": 123988, "internal_node_id": "0.0-4.0-71.0"}}, {"uniqueid": "w19045081:a87819491", "current_trial": 76, "dateTime": 1664464104144, "trialdata": {"rt": 556, "stimulus": "<p id='stroop-text' class='stroop-red'>MONKEY</p>", "response": "r", "stimulus-type": "unrelated", "word": "MONKEY", "color": "red", "correct_response": "r", "trial_id": "stroop-trial-1-unrelated-29", "trial_type": "html-keyboard-response", "trial_index": 76, "time_elapsed": 125055, "internal_node_id": "0.0-4.0-72.0"}}, {"uniqueid": "w19045081:a87819491", "current_trial": 77, "dateTime": 1664464106490, "trialdata": {"rt": 1838, "stimulus": "<p id='stroop-text' class='stroop-blue'>GREEN</p>", "response": "b", "stimulus-type": "incongruent", "word": "green", "color": "blue", "correct_response": "b", "trial_id": "stroop-trial-1-incongruent-13", "trial_type": "html-keyboard-response", "trial_index": 77, "time_elapsed": 127401, "internal_node_id": "0.0-4.0-73.0"}}, {"uniqueid": "w19045081:a87819491", "current_trial": 78, "dateTime": 1664464108042, "trialdata": {"rt": 1039, "stimulus": "<p id='stroop-text' class='stroop-blue'>GREEN</p>", "response": "b", "stimulus-type": "incongruent", "word": "green", "color": "blue", "correct_response": "b", "trial_id": "stroop-trial-1-incongruent-24", "trial_type": "html-keyboard-response", "trial_index": 78, "time_elapsed": 128953, "internal_node_id": "0.0-4.0-74.0"}}, {"uniqueid": "w19045081:a87819491", "current_trial": 79, "dateTime": 1664464108907, "trialdata": {"rt": 347, "stimulus": "<p id='stroop-text' class='stroop-blue'>BLUE</p>", "response": "b", "stimulus-type": "congruent", "word": "blue", "color": "blue", "correct_response": "b", "trial_id": "stroop-trial-1-congruent-22", "trial_type": "html-keyboard-response", "trial_index": 79, "time_elapsed": 129818, "internal_node_id": "0.0-4.0-75.0"}}, {"uniqueid": "w19045081:a87819491", "current_trial": 80, "dateTime": 1664464110119, "trialdata": {"rt": 700, "stimulus": "<p id='stroop-text' class='stroop-yellow'>YELLOW</p>", "response": "y", "stimulus-type": "congruent", "word": "yellow", "color": "yellow", "correct_response": "y", "trial_id": "stroop-trial-1-congruent-17", "trial_type": "html-keyboard-response", "trial_index": 80, "time_elapsed": 131030, "internal_node_id": "0.0-4.0-76.0"}}, {"uniqueid": "w19045081:a87819491", "current_trial": 81, "dateTime": 1664464111478, "trialdata": {"rt": 847, "stimulus": "<p id='stroop-text' class='stroop-red'>RED</p>", "response": "r", "stimulus-type": "congruent", "word": "red", "color": "red", "correct_response": "r", "trial_id": "stroop-trial-1-congruent-27", "trial_type": "html-keyboard-response", "trial_index": 81, "time_elapsed": 132390, "internal_node_id": "0.0-4.0-77.0"}}, {"uniqueid": "w19045081:a87819491", "current_trial": 82, "dateTime": 1664464112981, "trialdata": {"rt": 992, "stimulus": "<p id='stroop-text' class='stroop-blue'>BLUE</p>", "response": "b", "stimulus-type": "congruent", "word": "blue", "color": "blue", "correct_response": "b", "trial_id": "stroop-trial-1-congruent-8", "trial_type": "html-keyboard-response", "trial_index": 82, "time_elapsed": 133892, "internal_node_id": "0.0-4.0-78.0"}}, {"uniqueid": "w19045081:a87819491", "current_trial": 83, "dateTime": 1664464114441, "trialdata": {"rt": 954, "stimulus": "<p id='stroop-text' class='stroop-red'>RED</p>", "response": "r", "stimulus-type": "congruent", "word": "red", "color": "red", "correct_response": "r", "trial_id": "stroop-trial-1-congruent-20", "trial_type": "html-keyboard-response", "trial_index": 83, "time_elapsed": 135353, "internal_node_id": "0.0-4.0-79.0"}}, {"uniqueid": "w19045081:a87819491", "current_trial": 84, "dateTime": 1664464117332, "trialdata": {"rt": 2379, "stimulus": "<p id='stroop-text' class='stroop-yellow'>YELLOW</p>", "response": "y", "stimulus-type": "congruent", "word": "yellow", "color": "yellow", "correct_response": "y", "trial_id": "stroop-trial-1-congruent-21", "trial_type": "html-keyboard-response", "trial_index": 84, "time_elapsed": 138243, "internal_node_id": "0.0-4.0-80.0"}}, {"uniqueid": "w19045081:a87819491", "current_trial": 85, "dateTime": 1664464118923, "trialdata": {"rt": 1082, "stimulus": "<p id='stroop-text' class='stroop-yellow'>GREEN</p>", "response": "g", "stimulus-type": "incongruent", "word": "green", "color": "yellow", "correct_response": "y", "trial_id": "stroop-trial-1-incongruent-30", "trial_type": "html-keyboard-response", "trial_index": 85, "time_elapsed": 139834, "internal_node_id": "0.0-4.0-81.0"}}, {"uniqueid": "w19045081:a87819491", "current_trial": 86, "dateTime": 1664464121064, "trialdata": {"rt": 1629, "stimulus": "<p id='stroop-text' class='stroop-red'>RED</p>", "response": "r", "stimulus-type": "congruent", "word": "red", "color": "red", "correct_response": "r", "trial_id": "stroop-trial-1-congruent-26", "trial_type": "html-keyboard-response", "trial_index": 86, "time_elapsed": 141976, "internal_node_id": "0.0-4.0-82.0"}}, {"uniqueid": "w19045081:a87819491", "current_trial": 87, "dateTime": 1664464122890, "trialdata": {"rt": 1312, "stimulus": "<p id='stroop-text' class='stroop-green'>CHAIR</p>", "response": "b", "stimulus-type": "unrelated", "word": "CHAIR", "color": "green", "correct_response": "g", "trial_id": "stroop-trial-1-unrelated-25", "trial_type": "html-keyboard-response", "trial_index": 87, "time_elapsed": 143801, "internal_node_id": "0.0-4.0-83.0"}}, {"uniqueid": "w19045081:a87819491", "current_trial": 88, "dateTime": 1664464124184, "trialdata": {"rt": 787, "stimulus": "<p id='stroop-text' class='stroop-red'>BRIDGE</p>", "response": "r", "stimulus-type": "unrelated", "word": "BRIDGE", "color": "red", "correct_response": "r", "trial_id": "stroop-trial-1-unrelated-22", "trial_type": "html-keyboard-response", "trial_index": 88, "time_elapsed": 145095, "internal_node_id": "0.0-4.0-84.0"}}, {"uniqueid": "w19045081:a87819491", "current_trial": 89, "dateTime": 1664464125641, "trialdata": {"rt": 924, "stimulus": "<p id='stroop-text' class='stroop-blue'>BRIDGE</p>", "response": "b", "stimulus-type": "unrelated", "word": "BRIDGE", "color": "blue", "correct_response": "b", "trial_id": "stroop-trial-1-unrelated-9", "trial_type": "html-keyboard-response", "trial_index": 89, "time_elapsed": 146553, "internal_node_id": "0.0-4.0-85.0"}}, {"uniqueid": "w19045081:a87819491", "current_trial": 90, "dateTime": 1664464127394, "trialdata": {"rt": 1237, "stimulus": "<p id='stroop-text' class='stroop-green'>GREEN</p>", "response": "g", "stimulus-type": "congruent", "word": "green", "color": "green", "correct_response": "g", "trial_id": "stroop-trial-1-congruent-12", "trial_type": "html-keyboard-response", "trial_index": 90, "time_elapsed": 148306, "internal_node_id": "0.0-4.0-86.0"}}, {"uniqueid": "w19045081:a87819491", "current_trial": 91, "dateTime": 1664464131528, "trialdata": {"rt": 3626, "stimulus": "<p id='stroop-text' class='stroop-blue'>BOAT</p>", "response": "b", "stimulus-type": "unrelated", "word": "BOAT", "color": "blue", "correct_response": "b", "trial_id": "stroop-trial-1-unrelated-12", "trial_type": "html-keyboard-response", "trial_index": 91, "time_elapsed": 152440, "internal_node_id": "0.0-4.0-87.0"}}, {"uniqueid": "w19045081:a87819491", "current_trial": 92, "dateTime": 1664464132750, "trialdata": {"rt": 706, "stimulus": "<p id='stroop-text' class='stroop-green'>BRAIN</p>", "response": "g", "stimulus-type": "unrelated", "word": "BRAIN", "color": "green", "correct_response": "g", "trial_id": "stroop-trial-1-unrelated-23", "trial_type": "html-keyboard-response", "trial_index": 92, "time_elapsed": 153662, "internal_node_id": "0.0-4.0-88.0"}}, {"uniqueid": "w19045081:a87819491", "current_trial": 93, "dateTime": 1664464134545, "trialdata": {"rt": 1281, "stimulus": "<p id='stroop-text' class='stroop-red'>GREEN</p>", "response": "r", "stimulus-type": "incongruent", "word": "green", "color": "red", "correct_response": "r", "trial_id": "stroop-trial-1-incongruent-21", "trial_type": "html-keyboard-response", "trial_index": 93, "time_elapsed": 155456, "internal_node_id": "0.0-4.0-89.0"}}, {"uniqueid": "w19045081:a87819491", "current_trial": 94, "dateTime": 1664464140781, "trialdata": {"rt": 5724, "stimulus": "  <h1> End of block! </h1>\n\n  You have reached the end of the block 1/5. If you need a short break, feel free to take one now before moving on.\n\n  <br><br>\n  In the next block, you will complete another 90 rounds of this game.\n\n  <br><br>\n  <div style='text-align: center;'>Press <code>space</code> to begin.</div>\n  <br><br>\n<div style='text-align: center;'>(If the experiment doesn't continue, try clicking on the text and then pressing <code>space</code>.)</div>", "response": " ", "trial_id": "stroop_1_ready_2", "trial_type": "html-keyboard-response", "trial_index": 94, "time_elapsed": 161693, "internal_node_id": "0.0-5.0"}}, {"uniqueid": "w19045081:a87819491", "current_trial": 95, "dateTime": 1664464141644, "trialdata": {"rt": 855, "stimulus": "<p id='stroop-text' class='stroop-yellow'>YELLOW</p>", "response": "y", "stimulus-type": "congruent", "word": "yellow", "color": "yellow", "correct_response": "y", "trial_id": "stroop-trial-1-congruent-16", "trial_type": "html-keyboard-response", "trial_index": 95, "time_elapsed": 162555, "internal_node_id": "0.0-6.0-0.0"}}, {"uniqueid": "w19045081:a87819491", "current_trial": 96, "dateTime": 1664464142642, "trialdata": {"rt": 488, "stimulus": "<p id='stroop-text' class='stroop-yellow'>GREEN</p>", "response": "g", "stimulus-type": "incongruent", "word": "green", "color": "yellow", "correct_response": "y", "trial_id": "stroop-trial-1-incongruent-20", "trial_type": "html-keyboard-response", "trial_index": 96, "time_elapsed": 163553, "internal_node_id": "0.0-6.0-1.0"}}, {"uniqueid": "w19045081:a87819491", "current_trial": 97, "dateTime": 1664464143643, "trialdata": {"rt": 492, "stimulus": "<p id='stroop-text' class='stroop-blue'>BLUE</p>", "response": "b", "stimulus-type": "congruent", "word": "blue", "color": "blue", "correct_response": "b", "trial_id": "stroop-trial-1-congruent-9", "trial_type": "html-keyboard-response", "trial_index": 97, "time_elapsed": 164554, "internal_node_id": "0.0-6.0-2.0"}}, {"uniqueid": "w19045081:a87819491", "current_trial": 98, "dateTime": 1664464144760, "trialdata": {"rt": 608, "stimulus": "<p id='stroop-text' class='stroop-yellow'>YELLOW</p>", "response": "y", "stimulus-type": "congruent", "word": "yellow", "color": "yellow", "correct_response": "y", "trial_id": "stroop-trial-1-congruent-5", "trial_type": "html-keyboard-response", "trial_index": 98, "time_elapsed": 165671, "internal_node_id": "0.0-6.0-3.0"}}, {"uniqueid": "w19045081:a87819491", "current_trial": 99, "dateTime": 1664464145710, "trialdata": {"rt": 438, "stimulus": "<p id='stroop-text' class='stroop-yellow'>YELLOW</p>", "response": "y", "stimulus-type": "congruent", "word": "yellow", "color": "yellow", "correct_response": "y", "trial_id": "stroop-trial-1-congruent-23", "trial_type": "html-keyboard-response", "trial_index": 99, "time_elapsed": 166621, "internal_node_id": "0.0-6.0-4.0"}}, {"uniqueid": "w19045081:a87819491", "current_trial": 100, "dateTime": 1664464147412, "trialdata": {"rt": 1188, "stimulus": "<p id='stroop-text' class='stroop-red'>BOTTLE</p>", "response": "r", "stimulus-type": "unrelated", "word": "BOTTLE", "color": "red", "correct_response": "r", "trial_id": "stroop-trial-1-unrelated-4", "trial_type": "html-keyboard-response", "trial_index": 100, "time_elapsed": 168323, "internal_node_id": "0.0-6.0-5.0"}}, {"uniqueid": "w19045081:a87819491", "current_trial": 101, "dateTime": 1664464148538, "trialdata": {"rt": 613, "stimulus": "<p id='stroop-text' class='stroop-red'>BRIDGE</p>", "response": "r", "stimulus-type": "unrelated", "word": "BRIDGE", "color": "red", "correct_response": "r", "trial_id": "stroop-trial-1-unrelated-10", "trial_type": "html-keyboard-response", "trial_index": 101, "time_elapsed": 169449, "internal_node_id": "0.0-6.0-6.0"}}, {"uniqueid": "w19045081:a87819491", "current_trial": 102, "dateTime": 1664464149425, "trialdata": {"rt": 375, "stimulus": "<p id='stroop-text' class='stroop-red'>DOG</p>", "response": "r", "stimulus-type": "unrelated", "word": "DOG", "color": "red", "correct_response": "r", "trial_id": "stroop-trial-1-unrelated-28", "trial_type": "html-keyboard-response", "trial_index": 102, "time_elapsed": 170336, "internal_node_id": "0.0-6.0-7.0"}}, {"uniqueid": "w19045081:a87819491", "current_trial": 103, "dateTime": 1664464150520, "trialdata": {"rt": 587, "stimulus": "<p id='stroop-text' class='stroop-blue'>YELLOW</p>", "response": "y", "stimulus-type": "incongruent", "word": "yellow", "color": "blue", "correct_response": "b", "trial_id": "stroop-trial-1-incongruent-13", "trial_type": "html-keyboard-response", "trial_index": 103, "time_elapsed": 171432, "internal_node_id": "0.0-6.0-8.0"}}, {"uniqueid": "w19045081:a87819491", "current_trial": 104, "dateTime": 1664464152181, "trialdata": {"rt": 1137, "stimulus": "<p id='stroop-text' class='stroop-red'>BLUE</p>", "response": "r", "stimulus-type": "incongruent", "word": "blue", "color": "red", "correct_response": "r", "trial_id": "stroop-trial-1-incongruent-30", "trial_type": "html-keyboard-response", "trial_index": 104, "time_elapsed": 173093, "internal_node_id": "0.0-6.0-9.0"}}, {"uniqueid": "w19045081:a87819491", "current_trial": 105, "dateTime": 1664464153064, "trialdata": {"rt": 375, "stimulus": "<p id='stroop-text' class='stroop-red'>BRIDGE</p>", "response": "r", "stimulus-type": "unrelated", "word": "BRIDGE", "color": "red", "correct_response": "r", "trial_id": "stroop-trial-1-unrelated-14", "trial_type": "html-keyboard-response", "trial_index": 105, "time_elapsed": 173975, "internal_node_id": "0.0-6.0-10.0"}}, {"uniqueid": "w19045081:a87819491", "current_trial": 106, "dateTime": 1664464154491, "trialdata": {"rt": 920, "stimulus": "<p id='stroop-text' class='stroop-yellow'>YELLOW</p>", "response": "y", "stimulus-type": "congruent", "word": "yellow", "color": "yellow", "correct_response": "y", "trial_id": "stroop-trial-1-congruent-28", "trial_type": "html-keyboard-response", "trial_index": 106, "time_elapsed": 175402, "internal_node_id": "0.0-6.0-11.0"}}, {"uniqueid": "w19045081:a87819491", "current_trial": 107, "dateTime": 1664464156257, "trialdata": {"rt": 1254, "stimulus": "<p id='stroop-text' class='stroop-yellow'>FORK</p>", "response": "y", "stimulus-type": "unrelated", "word": "FORK", "color": "yellow", "correct_response": "y", "trial_id": "stroop-trial-1-unrelated-17", "trial_type": "html-keyboard-response", "trial_index": 107, "time_elapsed": 177168, "internal_node_id": "0.0-6.0-12.0"}}, {"uniqueid": "w19045081:a87819491", "current_trial": 108, "dateTime": 1664464159107, "trialdata": {"rt": 2335, "stimulus": "<p id='stroop-text' class='stroop-green'>DOG</p>", "response": "g", "stimulus-type": "unrelated", "word": "DOG", "color": "green", "correct_response": "g", "trial_id": "stroop-trial-1-unrelated-5", "trial_type": "html-keyboard-response", "trial_index": 108, "time_elapsed": 180018, "internal_node_id": "0.0-6.0-13.0"}}, {"uniqueid": "w19045081:a87819491", "current_trial": 109, "dateTime": 1664464160172, "trialdata": {"rt": 547, "stimulus": "<p id='stroop-text' class='stroop-yellow'>YELLOW</p>", "response": "y", "stimulus-type": "congruent", "word": "yellow", "color": "yellow", "correct_response": "y", "trial_id": "stroop-trial-1-congruent-24", "trial_type": "html-keyboard-response", "trial_index": 109, "time_elapsed": 181083, "internal_node_id": "0.0-6.0-14.0"}}, {"uniqueid": "w19045081:a87819491", "current_trial": 110, "dateTime": 1664464161177, "trialdata": {"rt": 494, "stimulus": "<p id='stroop-text' class='stroop-yellow'>RED</p>", "response": "y", "stimulus-type": "incongruent", "word": "red", "color": "yellow", "correct_response": "y", "trial_id": "stroop-trial-1-incongruent-28", "trial_type": "html-keyboard-response", "trial_index": 110, "time_elapsed": 182088, "internal_node_id": "0.0-6.0-15.0"}}, {"uniqueid": "w19045081:a87819491", "current_trial": 111, "dateTime": 1664464162042, "trialdata": {"rt": 357, "stimulus": "<p id='stroop-text' class='stroop-yellow'>BOTTLE</p>", "response": "y", "stimulus-type": "unrelated", "word": "BOTTLE", "color": "yellow", "correct_response": "y", "trial_id": "stroop-trial-1-unrelated-22", "trial_type": "html-keyboard-response", "trial_index": 111, "time_elapsed": 182953, "internal_node_id": "0.0-6.0-16.0"}}, {"uniqueid": "w19045081:a87819491", "current_trial": 112, "dateTime": 1664464163110, "trialdata": {"rt": 558, "stimulus": "<p id='stroop-text' class='stroop-blue'>BLUE</p>", "response": "b", "stimulus-type": "congruent", "word": "blue", "color": "blue", "correct_response": "b", "trial_id": "stroop-trial-1-congruent-2", "trial_type": "html-keyboard-response", "trial_index": 112, "time_elapsed": 184021, "internal_node_id": "0.0-6.0-17.0"}}, {"uniqueid": "w19045081:a87819491", "current_trial": 113, "dateTime": 1664464164346, "trialdata": {"rt": 723, "stimulus": "<p id='stroop-text' class='stroop-red'>BLUE</p>", "response": "r", "stimulus-type": "incongruent", "word": "blue", "color": "red", "correct_response": "r", "trial_id": "stroop-trial-1-incongruent-27", "trial_type": "html-keyboard-response", "trial_index": 113, "time_elapsed": 185258, "internal_node_id": "0.0-6.0-18.0"}}, {"uniqueid": "w19045081:a87819491", "current_trial": 114, "dateTime": 1664464165533, "trialdata": {"rt": 669, "stimulus": "<p id='stroop-text' class='stroop-green'>WINDOW</p>", "response": "g", "stimulus-type": "unrelated", "word": "WINDOW", "color": "green", "correct_response": "g", "trial_id": "stroop-trial-1-unrelated-19", "trial_type": "html-keyboard-response", "trial_index": 114, "time_elapsed": 186444, "internal_node_id": "0.0-6.0-19.0"}}, {"uniqueid": "w19045081:a87819491", "current_trial": 115, "dateTime": 1664464167920, "trialdata": {"rt": 1876, "stimulus": "<p id='stroop-text' class='stroop-green'>BOTTLE</p>", "response": "g", "stimulus-type": "unrelated", "word": "BOTTLE", "color": "green", "correct_response": "g", "trial_id": "stroop-trial-1-unrelated-24", "trial_type": "html-keyboard-response", "trial_index": 115, "time_elapsed": 188831, "internal_node_id": "0.0-6.0-20.0"}}, {"uniqueid": "w19045081:a87819491", "current_trial": 116, "dateTime": 1664464169315, "trialdata": {"rt": 883, "stimulus": "<p id='stroop-text' class='stroop-red'>BOTTLE</p>", "response": "r", "stimulus-type": "unrelated", "word": "BOTTLE", "color": "red", "correct_response": "r", "trial_id": "stroop-trial-1-unrelated-30", "trial_type": "html-keyboard-response", "trial_index": 116, "time_elapsed": 190226, "internal_node_id": "0.0-6.0-21.0"}}, {"uniqueid": "w19045081:a87819491", "current_trial": 117, "dateTime": 1664464170708, "trialdata": {"rt": 885, "stimulus": "<p id='stroop-text' class='stroop-green'>GREEN</p>", "response": "g", "stimulus-type": "congruent", "word": "green", "color": "green", "correct_response": "g", "trial_id": "stroop-trial-1-congruent-22", "trial_type": "html-keyboard-response", "trial_index": 117, "time_elapsed": 191619, "internal_node_id": "0.0-6.0-22.0"}}, {"uniqueid": "w19045081:a87819491", "current_trial": 118, "dateTime": 1664464171793, "trialdata": {"rt": 577, "stimulus": "<p id='stroop-text' class='stroop-yellow'>YELLOW</p>", "response": "r", "stimulus-type": "congruent", "word": "yellow", "color": "yellow", "correct_response": "y", "trial_id": "stroop-trial-1-congruent-19", "trial_type": "html-keyboard-response", "trial_index": 118, "time_elapsed": 192704, "internal_node_id": "0.0-6.0-23.0"}}, {"uniqueid": "w19045081:a87819491", "current_trial": 119, "dateTime": 1664464172888, "trialdata": {"rt": 585, "stimulus": "<p id='stroop-text' class='stroop-yellow'>BLUE</p>", "response": "b", "stimulus-type": "incongruent", "word": "blue", "color": "yellow", "correct_response": "y", "trial_id": "stroop-trial-1-incongruent-15", "trial_type": "html-keyboard-response", "trial_index": 119, "time_elapsed": 193800, "internal_node_id": "0.0-6.0-24.0"}}, {"uniqueid": "w19045081:a87819491", "current_trial": 120, "dateTime": 1664464174265, "trialdata": {"rt": 871, "stimulus": "<p id='stroop-text' class='stroop-green'>FORK</p>", "response": "g", "stimulus-type": "unrelated", "word": "FORK", "color": "green", "correct_response": "g", "trial_id": "stroop-trial-1-unrelated-6", "trial_type": "html-keyboard-response", "trial_index": 120, "time_elapsed": 195176, "internal_node_id": "0.0-6.0-25.0"}}, {"uniqueid": "w19045081:a87819491", "current_trial": 121, "dateTime": 1664464175767, "trialdata": {"rt": 993, "stimulus": "<p id='stroop-text' class='stroop-blue'>STONE</p>", "response": "b", "stimulus-type": "unrelated", "word": "STONE", "color": "blue", "correct_response": "b", "trial_id": "stroop-trial-1-unrelated-15", "trial_type": "html-keyboard-response", "trial_index": 121, "time_elapsed": 196678, "internal_node_id": "0.0-6.0-26.0"}}, {"uniqueid": "w19045081:a87819491", "current_trial": 122, "dateTime": 1664464176987, "trialdata": {"rt": 705, "stimulus": "<p id='stroop-text' class='stroop-yellow'>YELLOW</p>", "response": "y", "stimulus-type": "congruent", "word": "yellow", "color": "yellow", "correct_response": "y", "trial_id": "stroop-trial-1-congruent-1", "trial_type": "html-keyboard-response", "trial_index": 122, "time_elapsed": 197899, "internal_node_id": "0.0-6.0-27.0"}}, {"uniqueid": "w19045081:a87819491", "current_trial": 123, "dateTime": 1664464178130, "trialdata": {"rt": 635, "stimulus": "<p id='stroop-text' class='stroop-red'>WINDOW</p>", "response": "r", "stimulus-type": "unrelated", "word": "WINDOW", "color": "red", "correct_response": "r", "trial_id": "stroop-trial-1-unrelated-2", "trial_type": "html-keyboard-response", "trial_index": 123, "time_elapsed": 199041, "internal_node_id": "0.0-6.0-28.0"}}, {"uniqueid": "w19045081:a87819491", "current_trial": 124, "dateTime": 1664464179101, "trialdata": {"rt": 465, "stimulus": "<p id='stroop-text' class='stroop-red'>YELLOW</p>", "response": "y", "stimulus-type": "incongruent", "word": "yellow", "color": "red", "correct_response": "r", "trial_id": "stroop-trial-1-incongruent-2", "trial_type": "html-keyboard-response", "trial_index": 124, "time_elapsed": 200012, "internal_node_id": "0.0-6.0-29.0"}}, {"uniqueid": "w19045081:a87819491", "current_trial": 125, "dateTime": 1664464181507, "trialdata": {"rt": 1894, "stimulus": "<p id='stroop-text' class='stroop-blue'>BLUE</p>", "response": "b", "stimulus-type": "congruent", "word": "blue", "color": "blue", "correct_response": "b", "trial_id": "stroop-trial-1-congruent-15", "trial_type": "html-keyboard-response", "trial_index": 125, "time_elapsed": 202418, "internal_node_id": "0.0-6.0-30.0"}}, {"uniqueid": "w19045081:a87819491", "current_trial": 126, "dateTime": 1664464182674, "trialdata": {"rt": 659, "stimulus": "<p id='stroop-text' class='stroop-yellow'>DOG</p>", "response": "y", "stimulus-type": "unrelated", "word": "DOG", "color": "yellow", "correct_response": "y", "trial_id": "stroop-trial-1-unrelated-29", "trial_type": "html-keyboard-response", "trial_index": 126, "time_elapsed": 203585, "internal_node_id": "0.0-6.0-31.0"}}, {"uniqueid": "w19045081:a87819491", "current_trial": 127, "dateTime": 1664464183853, "trialdata": {"rt": 666, "stimulus": "<p id='stroop-text' class='stroop-red'>BRAIN</p>", "response": "r", "stimulus-type": "unrelated", "word": "BRAIN", "color": "red", "correct_response": "r", "trial_id": "stroop-trial-1-unrelated-26", "trial_type": "html-keyboard-response", "trial_index": 127, "time_elapsed": 204764, "internal_node_id": "0.0-6.0-32.0"}}, {"uniqueid": "w19045081:a87819491", "current_trial": 128, "dateTime": 1664464184793, "trialdata": {"rt": 429, "stimulus": "<p id='stroop-text' class='stroop-red'>YELLOW</p>", "response": "r", "stimulus-type": "incongruent", "word": "yellow", "color": "red", "correct_response": "r", "trial_id": "stroop-trial-1-incongruent-23", "trial_type": "html-keyboard-response", "trial_index": 128, "time_elapsed": 205704, "internal_node_id": "0.0-6.0-33.0"}}, {"uniqueid": "w19045081:a87819491", "current_trial": 129, "dateTime": 1664464185891, "trialdata": {"rt": 583, "stimulus": "<p id='stroop-text' class='stroop-blue'>YELLOW</p>", "response": "b", "stimulus-type": "incongruent", "word": "yellow", "color": "blue", "correct_response": "b", "trial_id": "stroop-trial-1-incongruent-14", "trial_type": "html-keyboard-response", "trial_index": 129, "time_elapsed": 206800, "internal_node_id": "0.0-6.0-34.0"}}, {"uniqueid": "w19045081:a87819491", "current_trial": 130, "dateTime": 1664464187162, "trialdata": {"rt": 757, "stimulus": "<p id='stroop-text' class='stroop-blue'>RED</p>", "response": "r", "stimulus-type": "incongruent", "word": "red", "color": "blue", "correct_response": "b", "trial_id": "stroop-trial-1-incongruent-11", "trial_type": "html-keyboard-response", "trial_index": 130, "time_elapsed": 208073, "internal_node_id": "0.0-6.0-35.0"}}, {"uniqueid": "w19045081:a87819491", "current_trial": 131, "dateTime": 1664464189091, "trialdata": {"rt": 1421, "stimulus": "<p id='stroop-text' class='stroop-red'>BOAT</p>", "response": "r", "stimulus-type": "unrelated", "word": "BOAT", "color": "red", "correct_response": "r", "trial_id": "stroop-trial-1-unrelated-13", "trial_type": "html-keyboard-response", "trial_index": 131, "time_elapsed": 210003, "internal_node_id": "0.0-6.0-36.0"}}, {"uniqueid": "w19045081:a87819491", "current_trial": 132, "dateTime": 1664464190126, "trialdata": {"rt": 522, "stimulus": "<p id='stroop-text' class='stroop-red'>RED</p>", "response": "r", "stimulus-type": "congruent", "word": "red", "color": "red", "correct_response": "r", "trial_id": "stroop-trial-1-congruent-11", "trial_type": "html-keyboard-response", "trial_index": 132, "time_elapsed": 211038, "internal_node_id": "0.0-6.0-37.0"}}, {"uniqueid": "w19045081:a87819491", "current_trial": 133, "dateTime": 1664464191437, "trialdata": {"rt": 800, "stimulus": "<p id='stroop-text' class='stroop-blue'>BLUE</p>", "response": "b", "stimulus-type": "congruent", "word": "blue", "color": "blue", "correct_response": "b", "trial_id": "stroop-trial-1-congruent-17", "trial_type": "html-keyboard-response", "trial_index": 133, "time_elapsed": 212348, "internal_node_id": "0.0-6.0-38.0"}}, {"uniqueid": "w19045081:a87819491", "current_trial": 134, "dateTime": 1664464192487, "trialdata": {"rt": 533, "stimulus": "<p id='stroop-text' class='stroop-blue'>BLUE</p>", "response": "b", "stimulus-type": "congruent", "word": "blue", "color": "blue", "correct_response": "b", "trial_id": "stroop-trial-1-congruent-29", "trial_type": "html-keyboard-response", "trial_index": 134, "time_elapsed": 213398, "internal_node_id": "0.0-6.0-39.0"}}, {"uniqueid": "w19045081:a87819491", "current_trial": 135, "dateTime": 1664464193494, "trialdata": {"rt": 501, "stimulus": "<p id='stroop-text' class='stroop-red'>RED</p>", "response": "r", "stimulus-type": "congruent", "word": "red", "color": "red", "correct_response": "r", "trial_id": "stroop-trial-1-congruent-20", "trial_type": "html-keyboard-response", "trial_index": 135, "time_elapsed": 214406, "internal_node_id": "0.0-6.0-40.0"}}, {"uniqueid": "w19045081:a87819491", "current_trial": 136, "dateTime": 1664464194557, "trialdata": {"rt": 551, "stimulus": "<p id='stroop-text' class='stroop-green'>BOAT</p>", "response": "g", "stimulus-type": "unrelated", "word": "BOAT", "color": "green", "correct_response": "g", "trial_id": "stroop-trial-1-unrelated-16", "trial_type": "html-keyboard-response", "trial_index": 136, "time_elapsed": 215468, "internal_node_id": "0.0-6.0-41.0"}}, {"uniqueid": "w19045081:a87819491", "current_trial": 137, "dateTime": 1664464195658, "trialdata": {"rt": 582, "stimulus": "<p id='stroop-text' class='stroop-yellow'>YELLOW</p>", "response": "y", "stimulus-type": "congruent", "word": "yellow", "color": "yellow", "correct_response": "y", "trial_id": "stroop-trial-1-congruent-13", "trial_type": "html-keyboard-response", "trial_index": 137, "time_elapsed": 216569, "internal_node_id": "0.0-6.0-42.0"}}, {"uniqueid": "w19045081:a87819491", "current_trial": 138, "dateTime": 1664464196636, "trialdata": {"rt": 470, "stimulus": "<p id='stroop-text' class='stroop-green'>GREEN</p>", "response": "g", "stimulus-type": "congruent", "word": "green", "color": "green", "correct_response": "g", "trial_id": "stroop-trial-1-congruent-8", "trial_type": "html-keyboard-response", "trial_index": 138, "time_elapsed": 217547, "internal_node_id": "0.0-6.0-43.0"}}, {"uniqueid": "w19045081:a87819491", "current_trial": 139, "dateTime": 1664464197649, "trialdata": {"rt": 505, "stimulus": "<p id='stroop-text' class='stroop-blue'>BLUE</p>", "response": "b", "stimulus-type": "congruent", "word": "blue", "color": "blue", "correct_response": "b", "trial_id": "stroop-trial-1-congruent-26", "trial_type": "html-keyboard-response", "trial_index": 139, "time_elapsed": 218560, "internal_node_id": "0.0-6.0-44.0"}}, {"uniqueid": "w19045081:a87819491", "current_trial": 140, "dateTime": 1664464198621, "trialdata": {"rt": 456, "stimulus": "<p id='stroop-text' class='stroop-blue'>BLUE</p>", "response": "b", "stimulus-type": "congruent", "word": "blue", "color": "blue", "correct_response": "b", "trial_id": "stroop-trial-1-congruent-25", "trial_type": "html-keyboard-response", "trial_index": 140, "time_elapsed": 219532, "internal_node_id": "0.0-6.0-45.0"}}, {"uniqueid": "w19045081:a87819491", "current_trial": 141, "dateTime": 1664464199752, "trialdata": {"rt": 618, "stimulus": "<p id='stroop-text' class='stroop-blue'>YELLOW</p>", "response": "y", "stimulus-type": "incongruent", "word": "yellow", "color": "blue", "correct_response": "b", "trial_id": "stroop-trial-1-incongruent-8", "trial_type": "html-keyboard-response", "trial_index": 141, "time_elapsed": 220663, "internal_node_id": "0.0-6.0-46.0"}}, {"uniqueid": "w19045081:a87819491", "current_trial": 142, "dateTime": 1664464201684, "trialdata": {"rt": 1407, "stimulus": "<p id='stroop-text' class='stroop-red'>RED</p>", "response": "r", "stimulus-type": "congruent", "word": "red", "color": "red", "correct_response": "r", "trial_id": "stroop-trial-1-congruent-27", "trial_type": "html-keyboard-response", "trial_index": 142, "time_elapsed": 222595, "internal_node_id": "0.0-6.0-47.0"}}, {"uniqueid": "w19045081:a87819491", "current_trial": 143, "dateTime": 1664464202597, "trialdata": {"rt": 401, "stimulus": "<p id='stroop-text' class='stroop-red'>MONKEY</p>", "response": "r", "stimulus-type": "unrelated", "word": "MONKEY", "color": "red", "correct_response": "r", "trial_id": "stroop-trial-1-unrelated-21", "trial_type": "html-keyboard-response", "trial_index": 143, "time_elapsed": 223508, "internal_node_id": "0.0-6.0-48.0"}}, {"uniqueid": "w19045081:a87819491", "current_trial": 144, "dateTime": 1664464203631, "trialdata": {"rt": 526, "stimulus": "<p id='stroop-text' class='stroop-green'>YELLOW</p>", "response": "g", "stimulus-type": "incongruent", "word": "yellow", "color": "green", "correct_response": "g", "trial_id": "stroop-trial-1-incongruent-5", "trial_type": "html-keyboard-response", "trial_index": 144, "time_elapsed": 224542, "internal_node_id": "0.0-6.0-49.0"}}, {"uniqueid": "w19045081:a87819491", "current_trial": 145, "dateTime": 1664464204823, "trialdata": {"rt": 677, "stimulus": "<p id='stroop-text' class='stroop-yellow'>YELLOW</p>", "response": "y", "stimulus-type": "congruent", "word": "yellow", "color": "yellow", "correct_response": "y", "trial_id": "stroop-trial-1-congruent-3", "trial_type": "html-keyboard-response", "trial_index": 145, "time_elapsed": 225734, "internal_node_id": "0.0-6.0-50.0"}}, {"uniqueid": "w19045081:a87819491", "current_trial": 146, "dateTime": 1664464206175, "trialdata": {"rt": 838, "stimulus": "<p id='stroop-text' class='stroop-blue'>BLUE</p>", "response": "b", "stimulus-type": "congruent", "word": "blue", "color": "blue", "correct_response": "b", "trial_id": "stroop-trial-1-congruent-18", "trial_type": "html-keyboard-response", "trial_index": 146, "time_elapsed": 227086, "internal_node_id": "0.0-6.0-51.0"}}, {"uniqueid": "w19045081:a87819491", "current_trial": 147, "dateTime": 1664464207437, "trialdata": {"rt": 755, "stimulus": "<p id='stroop-text' class='stroop-green'>BLUE</p>", "response": "g", "stimulus-type": "incongruent", "word": "blue", "color": "green", "correct_response": "g", "trial_id": "stroop-trial-1-incongruent-7", "trial_type": "html-keyboard-response", "trial_index": 147, "time_elapsed": 228348, "internal_node_id": "0.0-6.0-52.0"}}, {"uniqueid": "w19045081:a87819491", "current_trial": 148, "dateTime": 1664464208441, "trialdata": {"rt": 496, "stimulus": "<p id='stroop-text' class='stroop-green'>BRIDGE</p>", "response": "g", "stimulus-type": "unrelated", "word": "BRIDGE", "color": "green", "correct_response": "g", "trial_id": "stroop-trial-1-unrelated-12", "trial_type": "html-keyboard-response", "trial_index": 148, "time_elapsed": 229352, "internal_node_id": "0.0-6.0-53.0"}}, {"uniqueid": "w19045081:a87819491", "current_trial": 149, "dateTime": 1664464209411, "trialdata": {"rt": 453, "stimulus": "<p id='stroop-text' class='stroop-blue'>BLUE</p>", "response": "b", "stimulus-type": "congruent", "word": "blue", "color": "blue", "correct_response": "b", "trial_id": "stroop-trial-1-congruent-7", "trial_type": "html-keyboard-response", "trial_index": 149, "time_elapsed": 230322, "internal_node_id": "0.0-6.0-54.0"}}, {"uniqueid": "w19045081:a87819491", "current_trial": 150, "dateTime": 1664464210788, "trialdata": {"rt": 870, "stimulus": "<p id='stroop-text' class='stroop-blue'>STONE</p>", "response": "b", "stimulus-type": "unrelated", "word": "STONE", "color": "blue", "correct_response": "b", "trial_id": "stroop-trial-1-unrelated-11", "trial_type": "html-keyboard-response", "trial_index": 150, "time_elapsed": 231699, "internal_node_id": "0.0-6.0-55.0"}}, {"uniqueid": "w19045081:a87819491", "current_trial": 151, "dateTime": 1664464211920, "trialdata": {"rt": 611, "stimulus": "<p id='stroop-text' class='stroop-blue'>BLUE</p>", "response": "b", "stimulus-type": "congruent", "word": "blue", "color": "blue", "correct_response": "b", "trial_id": "stroop-trial-1-congruent-30", "trial_type": "html-keyboard-response", "trial_index": 151, "time_elapsed": 232831, "internal_node_id": "0.0-6.0-56.0"}}, {"uniqueid": "w19045081:a87819491", "current_trial": 152, "dateTime": 1664464213054, "trialdata": {"rt": 617, "stimulus": "<p id='stroop-text' class='stroop-yellow'>BRIDGE</p>", "response": "y", "stimulus-type": "unrelated", "word": "BRIDGE", "color": "yellow", "correct_response": "y", "trial_id": "stroop-trial-1-unrelated-27", "trial_type": "html-keyboard-response", "trial_index": 152, "time_elapsed": 233965, "internal_node_id": "0.0-6.0-57.0"}}, {"uniqueid": "w19045081:a87819491", "current_trial": 153, "dateTime": 1664464214006, "trialdata": {"rt": 441, "stimulus": "<p id='stroop-text' class='stroop-blue'>YELLOW</p>", "response": "r", "stimulus-type": "incongruent", "word": "yellow", "color": "blue", "correct_response": "b", "trial_id": "stroop-trial-1-incongruent-3", "trial_type": "html-keyboard-response", "trial_index": 153, "time_elapsed": 234917, "internal_node_id": "0.0-6.0-58.0"}}, {"uniqueid": "w19045081:a87819491", "current_trial": 154, "dateTime": 1664464215277, "trialdata": {"rt": 764, "stimulus": "<p id='stroop-text' class='stroop-yellow'>FORK</p>", "response": "y", "stimulus-type": "unrelated", "word": "FORK", "color": "yellow", "correct_response": "y", "trial_id": "stroop-trial-1-unrelated-3", "trial_type": "html-keyboard-response", "trial_index": 154, "time_elapsed": 236188, "internal_node_id": "0.0-6.0-59.0"}}, {"uniqueid": "w19045081:a87819491", "current_trial": 155, "dateTime": 1664464216497, "trialdata": {"rt": 708, "stimulus": "<p id='stroop-text' class='stroop-red'>GREEN</p>", "response": "r", "stimulus-type": "incongruent", "word": "green", "color": "red", "correct_response": "r", "trial_id": "stroop-trial-1-incongruent-10", "trial_type": "html-keyboard-response", "trial_index": 155, "time_elapsed": 237408, "internal_node_id": "0.0-6.0-60.0"}}, {"uniqueid": "w19045081:a87819491", "current_trial": 156, "dateTime": 1664464217657, "trialdata": {"rt": 648, "stimulus": "<p id='stroop-text' class='stroop-red'>BRAIN</p>", "response": "r", "stimulus-type": "unrelated", "word": "BRAIN", "color": "red", "correct_response": "r", "trial_id": "stroop-trial-1-unrelated-25", "trial_type": "html-keyboard-response", "trial_index": 156, "time_elapsed": 238568, "internal_node_id": "0.0-6.0-61.0"}}, {"uniqueid": "w19045081:a87819491", "current_trial": 157, "dateTime": 1664464219391, "trialdata": {"rt": 1220, "stimulus": "<p id='stroop-text' class='stroop-red'>YELLOW</p>", "response": "r", "stimulus-type": "incongruent", "word": "yellow", "color": "red", "correct_response": "r", "trial_id": "stroop-trial-1-incongruent-16", "trial_type": "html-keyboard-response", "trial_index": 157, "time_elapsed": 240302, "internal_node_id": "0.0-6.0-62.0"}}, {"uniqueid": "w19045081:a87819491", "current_trial": 158, "dateTime": 1664464220436, "trialdata": {"rt": 527, "stimulus": "<p id='stroop-text' class='stroop-yellow'>BOAT</p>", "response": "y", "stimulus-type": "unrelated", "word": "BOAT", "color": "yellow", "correct_response": "y", "trial_id": "stroop-trial-1-unrelated-9", "trial_type": "html-keyboard-response", "trial_index": 158, "time_elapsed": 241347, "internal_node_id": "0.0-6.0-63.0"}}, {"uniqueid": "w19045081:a87819491", "current_trial": 159, "dateTime": 1664464221583, "trialdata": {"rt": 637, "stimulus": "<p id='stroop-text' class='stroop-red'>BLUE</p>", "response": "r", "stimulus-type": "incongruent", "word": "blue", "color": "red", "correct_response": "r", "trial_id": "stroop-trial-1-incongruent-19", "trial_type": "html-keyboard-response", "trial_index": 159, "time_elapsed": 242494, "internal_node_id": "0.0-6.0-64.0"}}, {"uniqueid": "w19045081:a87819491", "current_trial": 160, "dateTime": 1664464222803, "trialdata": {"rt": 705, "stimulus": "<p id='stroop-text' class='stroop-blue'>BRIDGE</p>", "response": "b", "stimulus-type": "unrelated", "word": "BRIDGE", "color": "blue", "correct_response": "b", "trial_id": "stroop-trial-1-unrelated-23", "trial_type": "html-keyboard-response", "trial_index": 160, "time_elapsed": 243715, "internal_node_id": "0.0-6.0-65.0"}}, {"uniqueid": "w19045081:a87819491", "current_trial": 161, "dateTime": 1664464223960, "trialdata": {"rt": 643, "stimulus": "<p id='stroop-text' class='stroop-yellow'>YELLOW</p>", "response": "b", "stimulus-type": "congruent", "word": "yellow", "color": "yellow", "correct_response": "y", "trial_id": "stroop-trial-1-congruent-6", "trial_type": "html-keyboard-response", "trial_index": 161, "time_elapsed": 244872, "internal_node_id": "0.0-6.0-66.0"}}, {"uniqueid": "w19045081:a87819491", "current_trial": 162, "dateTime": 1664464225012, "trialdata": {"rt": 535, "stimulus": "<p id='stroop-text' class='stroop-blue'>GREEN</p>", "response": "g", "stimulus-type": "incongruent", "word": "green", "color": "blue", "correct_response": "b", "trial_id": "stroop-trial-1-incongruent-1", "trial_type": "html-keyboard-response", "trial_index": 162, "time_elapsed": 245923, "internal_node_id": "0.0-6.0-67.0"}}, {"uniqueid": "w19045081:a87819491", "current_trial": 163, "dateTime": 1664464226118, "trialdata": {"rt": 595, "stimulus": "<p id='stroop-text' class='stroop-yellow'>RED</p>", "response": "r", "stimulus-type": "incongruent", "word": "red", "color": "yellow", "correct_response": "y", "trial_id": "stroop-trial-1-incongruent-4", "trial_type": "html-keyboard-response", "trial_index": 163, "time_elapsed": 247030, "internal_node_id": "0.0-6.0-68.0"}}, {"uniqueid": "w19045081:a87819491", "current_trial": 164, "dateTime": 1664464227245, "trialdata": {"rt": 605, "stimulus": "<p id='stroop-text' class='stroop-green'>GREEN</p>", "response": "g", "stimulus-type": "congruent", "word": "green", "color": "green", "correct_response": "g", "trial_id": "stroop-trial-1-congruent-4", "trial_type": "html-keyboard-response", "trial_index": 164, "time_elapsed": 248156, "internal_node_id": "0.0-6.0-69.0"}}, {"uniqueid": "w19045081:a87819491", "current_trial": 165, "dateTime": 1664464228601, "trialdata": {"rt": 844, "stimulus": "<p id='stroop-text' class='stroop-yellow'>YELLOW</p>", "response": "y", "stimulus-type": "congruent", "word": "yellow", "color": "yellow", "correct_response": "y", "trial_id": "stroop-trial-1-congruent-12", "trial_type": "html-keyboard-response", "trial_index": 165, "time_elapsed": 249512, "internal_node_id": "0.0-6.0-70.0"}}, {"uniqueid": "w19045081:a87819491", "current_trial": 166, "dateTime": 1664464229691, "trialdata": {"rt": 574, "stimulus": "<p id='stroop-text' class='stroop-red'>BOTTLE</p>", "response": "r", "stimulus-type": "unrelated", "word": "BOTTLE", "color": "red", "correct_response": "r", "trial_id": "stroop-trial-1-unrelated-8", "trial_type": "html-keyboard-response", "trial_index": 166, "time_elapsed": 250603, "internal_node_id": "0.0-6.0-71.0"}}, {"uniqueid": "w19045081:a87819491", "current_trial": 167, "dateTime": 1664464230888, "trialdata": {"rt": 680, "stimulus": "<p id='stroop-text' class='stroop-red'>BLUE</p>", "response": "r", "stimulus-type": "incongruent", "word": "blue", "color": "red", "correct_response": "r", "trial_id": "stroop-trial-1-incongruent-21", "trial_type": "html-keyboard-response", "trial_index": 167, "time_elapsed": 251799, "internal_node_id": "0.0-6.0-72.0"}}, {"uniqueid": "w19045081:a87819491", "current_trial": 168, "dateTime": 1664464232162, "trialdata": {"rt": 757, "stimulus": "<p id='stroop-text' class='stroop-green'>STONE</p>", "response": "g", "stimulus-type": "unrelated", "word": "STONE", "color": "green", "correct_response": "g", "trial_id": "stroop-trial-1-unrelated-7", "trial_type": "html-keyboard-response", "trial_index": 168, "time_elapsed": 253073, "internal_node_id": "0.0-6.0-73.0"}}, {"uniqueid": "w19045081:a87819491", "current_trial": 169, "dateTime": 1664464233131, "trialdata": {"rt": 459, "stimulus": "<p id='stroop-text' class='stroop-green'>RED</p>", "response": "g", "stimulus-type": "incongruent", "word": "red", "color": "green", "correct_response": "g", "trial_id": "stroop-trial-1-incongruent-12", "trial_type": "html-keyboard-response", "trial_index": 169, "time_elapsed": 254042, "internal_node_id": "0.0-6.0-74.0"}}, {"uniqueid": "w19045081:a87819491", "current_trial": 170, "dateTime": 1664464234051, "trialdata": {"rt": 402, "stimulus": "<p id='stroop-text' class='stroop-green'>GREEN</p>", "response": "g", "stimulus-type": "congruent", "word": "green", "color": "green", "correct_response": "g", "trial_id": "stroop-trial-1-congruent-21", "trial_type": "html-keyboard-response", "trial_index": 170, "time_elapsed": 254962, "internal_node_id": "0.0-6.0-75.0"}}, {"uniqueid": "w19045081:a87819491", "current_trial": 171, "dateTime": 1664464235241, "trialdata": {"rt": 674, "stimulus": "<p id='stroop-text' class='stroop-yellow'>BRIDGE</p>", "response": "y", "stimulus-type": "unrelated", "word": "BRIDGE", "color": "yellow", "correct_response": "y", "trial_id": "stroop-trial-1-unrelated-1", "trial_type": "html-keyboard-response", "trial_index": 171, "time_elapsed": 256152, "internal_node_id": "0.0-6.0-76.0"}}, {"uniqueid": "w19045081:a87819491", "current_trial": 172, "dateTime": 1664464236119, "trialdata": {"rt": 359, "stimulus": "<p id='stroop-text' class='stroop-yellow'>RED</p>", "response": "y", "stimulus-type": "incongruent", "word": "red", "color": "yellow", "correct_response": "y", "trial_id": "stroop-trial-1-incongruent-26", "trial_type": "html-keyboard-response", "trial_index": 172, "time_elapsed": 257031, "internal_node_id": "0.0-6.0-77.0"}}, {"uniqueid": "w19045081:a87819491", "current_trial": 173, "dateTime": 1664464236987, "trialdata": {"rt": 362, "stimulus": "<p id='stroop-text' class='stroop-yellow'>GREEN</p>", "response": "y", "stimulus-type": "incongruent", "word": "green", "color": "yellow", "correct_response": "y", "trial_id": "stroop-trial-1-incongruent-22", "trial_type": "html-keyboard-response", "trial_index": 173, "time_elapsed": 257899, "internal_node_id": "0.0-6.0-78.0"}}, {"uniqueid": "w19045081:a87819491", "current_trial": 174, "dateTime": 1664464238111, "trialdata": {"rt": 603, "stimulus": "<p id='stroop-text' class='stroop-green'>BLUE</p>", "response": "r", "stimulus-type": "incongruent", "word": "blue", "color": "green", "correct_response": "g", "trial_id": "stroop-trial-1-incongruent-29", "trial_type": "html-keyboard-response", "trial_index": 174, "time_elapsed": 259022, "internal_node_id": "0.0-6.0-79.0"}}, {"uniqueid": "w19045081:a87819491", "current_trial": 175, "dateTime": 1664464239454, "trialdata": {"rt": 827, "stimulus": "<p id='stroop-text' class='stroop-red'>BLUE</p>", "response": "r", "stimulus-type": "incongruent", "word": "blue", "color": "red", "correct_response": "r", "trial_id": "stroop-trial-1-incongruent-6", "trial_type": "html-keyboard-response", "trial_index": 175, "time_elapsed": 260365, "internal_node_id": "0.0-6.0-80.0"}}, {"uniqueid": "w19045081:a87819491", "current_trial": 176, "dateTime": 1664464240714, "trialdata": {"rt": 750, "stimulus": "<p id='stroop-text' class='stroop-blue'>YELLOW</p>", "response": "y", "stimulus-type": "incongruent", "word": "yellow", "color": "blue", "correct_response": "b", "trial_id": "stroop-trial-1-incongruent-18", "trial_type": "html-keyboard-response", "trial_index": 176, "time_elapsed": 261626, "internal_node_id": "0.0-6.0-81.0"}}, {"uniqueid": "w19045081:a87819491", "current_trial": 177, "dateTime": 1664464241671, "trialdata": {"rt": 443, "stimulus": "<p id='stroop-text' class='stroop-blue'>YELLOW</p>", "response": "b", "stimulus-type": "incongruent", "word": "yellow", "color": "blue", "correct_response": "b", "trial_id": "stroop-trial-1-incongruent-24", "trial_type": "html-keyboard-response", "trial_index": 177, "time_elapsed": 262583, "internal_node_id": "0.0-6.0-82.0"}}, {"uniqueid": "w19045081:a87819491", "current_trial": 178, "dateTime": 1664464242515, "trialdata": {"rt": 330, "stimulus": "<p id='stroop-text' class='stroop-blue'>BLUE</p>", "response": "b", "stimulus-type": "congruent", "word": "blue", "color": "blue", "correct_response": "b", "trial_id": "stroop-trial-1-congruent-10", "trial_type": "html-keyboard-response", "trial_index": 178, "time_elapsed": 263426, "internal_node_id": "0.0-6.0-83.0"}}, {"uniqueid": "w19045081:a87819491", "current_trial": 179, "dateTime": 1664464243623, "trialdata": {"rt": 594, "stimulus": "<p id='stroop-text' class='stroop-green'>BRIDGE</p>", "response": "g", "stimulus-type": "unrelated", "word": "BRIDGE", "color": "green", "correct_response": "g", "trial_id": "stroop-trial-1-unrelated-18", "trial_type": "html-keyboard-response", "trial_index": 179, "time_elapsed": 264534, "internal_node_id": "0.0-6.0-84.0"}}, {"uniqueid": "w19045081:a87819491", "current_trial": 180, "dateTime": 1664464245311, "trialdata": {"rt": 1173, "stimulus": "<p id='stroop-text' class='stroop-green'>RED</p>", "response": "g", "stimulus-type": "incongruent", "word": "red", "color": "green", "correct_response": "g", "trial_id": "stroop-trial-1-incongruent-25", "trial_type": "html-keyboard-response", "trial_index": 180, "time_elapsed": 266222, "internal_node_id": "0.0-6.0-85.0"}}, {"uniqueid": "w19045081:a87819491", "current_trial": 181, "dateTime": 1664464246713, "trialdata": {"rt": 881, "stimulus": "<p id='stroop-text' class='stroop-red'>GREEN</p>", "response": "r", "stimulus-type": "incongruent", "word": "green", "color": "red", "correct_response": "r", "trial_id": "stroop-trial-1-incongruent-9", "trial_type": "html-keyboard-response", "trial_index": 181, "time_elapsed": 267621, "internal_node_id": "0.0-6.0-86.0"}}, {"uniqueid": "w19045081:a87819491", "current_trial": 182, "dateTime": 1664464248717, "trialdata": {"rt": 1492, "stimulus": "<p id='stroop-text' class='stroop-yellow'>RED</p>", "response": "y", "stimulus-type": "incongruent", "word": "red", "color": "yellow", "correct_response": "y", "trial_id": "stroop-trial-1-incongruent-17", "trial_type": "html-keyboard-response", "trial_index": 182, "time_elapsed": 269629, "internal_node_id": "0.0-6.0-87.0"}}, {"uniqueid": "w19045081:a87819491", "current_trial": 183, "dateTime": 1664464250245, "trialdata": {"rt": 1017, "stimulus": "<p id='stroop-text' class='stroop-blue'>BRIDGE</p>", "response": "b", "stimulus-type": "unrelated", "word": "BRIDGE", "color": "blue", "correct_response": "b", "trial_id": "stroop-trial-1-unrelated-20", "trial_type": "html-keyboard-response", "trial_index": 183, "time_elapsed": 271156, "internal_node_id": "0.0-6.0-88.0"}}, {"uniqueid": "w19045081:a87819491", "current_trial": 184, "dateTime": 1664464251199, "trialdata": {"rt": 442, "stimulus": "<p id='stroop-text' class='stroop-blue'>BLUE</p>", "response": "b", "stimulus-type": "congruent", "word": "blue", "color": "blue", "correct_response": "b", "trial_id": "stroop-trial-1-congruent-14", "trial_type": "html-keyboard-response", "trial_index": 184, "time_elapsed": 272110, "internal_node_id": "0.0-6.0-89.0"}}, {"uniqueid": "w19045081:a87819491", "current_trial": 185, "dateTime": 1664464253052, "trialdata": {"rt": 1343, "stimulus": "  <h1> End of block! </h1>\n\n  You have reached the end of the block 2/5. If you need a short break, feel free to take one now before moving on.\n\n  <br><br>\n  In the next block, you will complete another 90 rounds of this game.\n\n  <br><br>\n  <div style='text-align: center;'>Press <code>space</code> to begin.</div>\n  <br><br>\n<div style='text-align: center;'>(If the experiment doesn't continue, try clicking on the text and then pressing <code>space</code>.)</div>", "response": " ", "trial_id": "stroop_1_ready_3", "trial_type": "html-keyboard-response", "trial_index": 185, "time_elapsed": 273964, "internal_node_id": "0.0-7.0"}}, {"uniqueid": "w19045081:a87819491", "current_trial": 186, "dateTime": 1664464254049, "trialdata": {"rt": 984, "stimulus": "<p id='stroop-text' class='stroop-green'>FORK</p>", "response": "g", "stimulus-type": "unrelated", "word": "FORK", "color": "green", "correct_response": "g", "trial_id": "stroop-trial-1-unrelated-5", "trial_type": "html-keyboard-response", "trial_index": 186, "time_elapsed": 274960, "internal_node_id": "0.0-8.0-0.0"}}, {"uniqueid": "w19045081:a87819491", "current_trial": 187, "dateTime": 1664464255238, "trialdata": {"rt": 681, "stimulus": "<p id='stroop-text' class='stroop-blue'>YELLOW</p>", "response": "y", "stimulus-type": "incongruent", "word": "yellow", "color": "blue", "correct_response": "b", "trial_id": "stroop-trial-1-incongruent-1", "trial_type": "html-keyboard-response", "trial_index": 187, "time_elapsed": 276149, "internal_node_id": "0.0-8.0-1.0"}}, {"uniqueid": "w19045081:a87819491", "current_trial": 188, "dateTime": 1664464256531, "trialdata": {"rt": 785, "stimulus": "<p id='stroop-text' class='stroop-red'>GREEN</p>", "response": "g", "stimulus-type": "incongruent", "word": "green", "color": "red", "correct_response": "r", "trial_id": "stroop-trial-1-incongruent-25", "trial_type": "html-keyboard-response", "trial_index": 188, "time_elapsed": 277442, "internal_node_id": "0.0-8.0-2.0"}}, {"uniqueid": "w19045081:a87819491", "current_trial": 189, "dateTime": 1664464257737, "trialdata": {"rt": 692, "stimulus": "<p id='stroop-text' class='stroop-blue'>MONKEY</p>", "response": "b", "stimulus-type": "unrelated", "word": "MONKEY", "color": "blue", "correct_response": "b", "trial_id": "stroop-trial-1-unrelated-11", "trial_type": "html-keyboard-response", "trial_index": 189, "time_elapsed": 278648, "internal_node_id": "0.0-8.0-3.0"}}, {"uniqueid": "w19045081:a87819491", "current_trial": 190, "dateTime": 1664464258831, "trialdata": {"rt": 584, "stimulus": "<p id='stroop-text' class='stroop-blue'>DOG</p>", "response": "b", "stimulus-type": "unrelated", "word": "DOG", "color": "blue", "correct_response": "b", "trial_id": "stroop-trial-1-unrelated-16", "trial_type": "html-keyboard-response", "trial_index": 190, "time_elapsed": 279742, "internal_node_id": "0.0-8.0-4.0"}}, {"uniqueid": "w19045081:a87819491", "current_trial": 191, "dateTime": 1664464259882, "trialdata": {"rt": 539, "stimulus": "<p id='stroop-text' class='stroop-yellow'>BOTTLE</p>", "response": "y", "stimulus-type": "unrelated", "word": "BOTTLE", "color": "yellow", "correct_response": "y", "trial_id": "stroop-trial-1-unrelated-24", "trial_type": "html-keyboard-response", "trial_index": 191, "time_elapsed": 280794, "internal_node_id": "0.0-8.0-5.0"}}, {"uniqueid": "w19045081:a87819491", "current_trial": 192, "dateTime": 1664464260845, "trialdata": {"rt": 448, "stimulus": "<p id='stroop-text' class='stroop-yellow'>YELLOW</p>", "response": "y", "stimulus-type": "congruent", "word": "yellow", "color": "yellow", "correct_response": "y", "trial_id": "stroop-trial-1-congruent-15", "trial_type": "html-keyboard-response", "trial_index": 192, "time_elapsed": 281756, "internal_node_id": "0.0-8.0-6.0"}}, {"uniqueid": "w19045081:a87819491", "current_trial": 193, "dateTime": 1664464261751, "trialdata": {"rt": 395, "stimulus": "<p id='stroop-text' class='stroop-yellow'>RED</p>", "response": "y", "stimulus-type": "incongruent", "word": "red", "color": "yellow", "correct_response": "y", "trial_id": "stroop-trial-1-incongruent-17", "trial_type": "html-keyboard-response", "trial_index": 193, "time_elapsed": 282663, "internal_node_id": "0.0-8.0-7.0"}}, {"uniqueid": "w19045081:a87819491", "current_trial": 194, "dateTime": 1664464262658, "trialdata": {"rt": 381, "stimulus": "<p id='stroop-text' class='stroop-yellow'>BLUE</p>", "response": "y", "stimulus-type": "incongruent", "word": "blue", "color": "yellow", "correct_response": "y", "trial_id": "stroop-trial-1-incongruent-14", "trial_type": "html-keyboard-response", "trial_index": 194, "time_elapsed": 283569, "internal_node_id": "0.0-8.0-8.0"}}, {"uniqueid": "w19045081:a87819491", "current_trial": 195, "dateTime": 1664464263659, "trialdata": {"rt": 483, "stimulus": "<p id='stroop-text' class='stroop-green'>GREEN</p>", "response": "g", "stimulus-type": "congruent", "word": "green", "color": "green", "correct_response": "g", "trial_id": "stroop-trial-1-congruent-22", "trial_type": "html-keyboard-response", "trial_index": 195, "time_elapsed": 284570, "internal_node_id": "0.0-8.0-9.0"}}, {"uniqueid": "w19045081:a87819491", "current_trial": 196, "dateTime": 1664464264971, "trialdata": {"rt": 793, "stimulus": "<p id='stroop-text' class='stroop-red'>YELLOW</p>", "response": "y", "stimulus-type": "incongruent", "word": "yellow", "color": "red", "correct_response": "r", "trial_id": "stroop-trial-1-incongruent-19", "trial_type": "html-keyboard-response", "trial_index": 196, "time_elapsed": 285882, "internal_node_id": "0.0-8.0-10.0"}}, {"uniqueid": "w19045081:a87819491", "current_trial": 197, "dateTime": 1664464266501, "trialdata": {"rt": 1016, "stimulus": "<p id='stroop-text' class='stroop-blue'>BLUE</p>", "response": "g", "stimulus-type": "congruent", "word": "blue", "color": "blue", "correct_response": "b", "trial_id": "stroop-trial-1-congruent-30", "trial_type": "html-keyboard-response", "trial_index": 197, "time_elapsed": 287412, "internal_node_id": "0.0-8.0-11.0"}}, {"uniqueid": "w19045081:a87819491", "current_trial": 198, "dateTime": 1664464267681, "trialdata": {"rt": 664, "stimulus": "<p id='stroop-text' class='stroop-red'>STONE</p>", "response": "r", "stimulus-type": "unrelated", "word": "STONE", "color": "red", "correct_response": "r", "trial_id": "stroop-trial-1-unrelated-25", "trial_type": "html-keyboard-response", "trial_index": 198, "time_elapsed": 288592, "internal_node_id": "0.0-8.0-12.0"}}, {"uniqueid": "w19045081:a87819491", "current_trial": 199, "dateTime": 1664464269542, "trialdata": {"rt": 1345, "stimulus": "<p id='stroop-text' class='stroop-blue'>BRAIN</p>", "response": "b", "stimulus-type": "unrelated", "word": "BRAIN", "color": "blue", "correct_response": "b", "trial_id": "stroop-trial-1-unrelated-27", "trial_type": "html-keyboard-response", "trial_index": 199, "time_elapsed": 290453, "internal_node_id": "0.0-8.0-13.0"}}, {"uniqueid": "w19045081:a87819491", "current_trial": 200, "dateTime": 1664464272160, "trialdata": {"rt": 2104, "stimulus": "<p id='stroop-text' class='stroop-red'>BOAT</p>", "response": "r", "stimulus-type": "unrelated", "word": "BOAT", "color": "red", "correct_response": "r", "trial_id": "stroop-trial-1-unrelated-8", "trial_type": "html-keyboard-response", "trial_index": 200, "time_elapsed": 293072, "internal_node_id": "0.0-8.0-14.0"}}, {"uniqueid": "w19045081:a87819491", "current_trial": 201, "dateTime": 1664464273365, "trialdata": {"rt": 694, "stimulus": "<p id='stroop-text' class='stroop-green'>YELLOW</p>", "response": "g", "stimulus-type": "incongruent", "word": "yellow", "color": "green", "correct_response": "g", "trial_id": "stroop-trial-1-incongruent-9", "trial_type": "html-keyboard-response", "trial_index": 201, "time_elapsed": 294277, "internal_node_id": "0.0-8.0-15.0"}}, {"uniqueid": "w19045081:a87819491", "current_trial": 202, "dateTime": 1664464274555, "trialdata": {"rt": 678, "stimulus": "<p id='stroop-text' class='stroop-red'>YELLOW</p>", "response": "y", "stimulus-type": "incongruent", "word": "yellow", "color": "red", "correct_response": "r", "trial_id": "stroop-trial-1-incongruent-16", "trial_type": "html-keyboard-response", "trial_index": 202, "time_elapsed": 295467, "internal_node_id": "0.0-8.0-16.0"}}, {"uniqueid": "w19045081:a87819491", "current_trial": 203, "dateTime": 1664464275963, "trialdata": {"rt": 897, "stimulus": "<p id='stroop-text' class='stroop-red'>BLUE</p>", "response": "g", "stimulus-type": "incongruent", "word": "blue", "color": "red", "correct_response": "r", "trial_id": "stroop-trial-1-incongruent-10", "trial_type": "html-keyboard-response", "trial_index": 203, "time_elapsed": 296874, "internal_node_id": "0.0-8.0-17.0"}}, {"uniqueid": "w19045081:a87819491", "current_trial": 204, "dateTime": 1664464277169, "trialdata": {"rt": 690, "stimulus": "<p id='stroop-text' class='stroop-blue'>BRIDGE</p>", "response": "b", "stimulus-type": "unrelated", "word": "BRIDGE", "color": "blue", "correct_response": "b", "trial_id": "stroop-trial-1-unrelated-26", "trial_type": "html-keyboard-response", "trial_index": 204, "time_elapsed": 298080, "internal_node_id": "0.0-8.0-18.0"}}, {"uniqueid": "w19045081:a87819491", "current_trial": 205, "dateTime": 1664464278209, "trialdata": {"rt": 531, "stimulus": "<p id='stroop-text' class='stroop-green'>GREEN</p>", "response": "g", "stimulus-type": "congruent", "word": "green", "color": "green", "correct_response": "g", "trial_id": "stroop-trial-1-congruent-12", "trial_type": "html-keyboard-response", "trial_index": 205, "time_elapsed": 299120, "internal_node_id": "0.0-8.0-19.0"}}, {"uniqueid": "w19045081:a87819491", "current_trial": 206, "dateTime": 1664464279302, "trialdata": {"rt": 579, "stimulus": "<p id='stroop-text' class='stroop-red'>RED</p>", "response": "r", "stimulus-type": "congruent", "word": "red", "color": "red", "correct_response": "r", "trial_id": "stroop-trial-1-congruent-5", "trial_type": "html-keyboard-response", "trial_index": 206, "time_elapsed": 300213, "internal_node_id": "0.0-8.0-20.0"}}, {"uniqueid": "w19045081:a87819491", "current_trial": 207, "dateTime": 1664464280221, "trialdata": {"rt": 402, "stimulus": "<p id='stroop-text' class='stroop-red'>RED</p>", "response": "r", "stimulus-type": "congruent", "word": "red", "color": "red", "correct_response": "r", "trial_id": "stroop-trial-1-congruent-1", "trial_type": "html-keyboard-response", "trial_index": 207, "time_elapsed": 301132, "internal_node_id": "0.0-8.0-21.0"}}, {"uniqueid": "w19045081:a87819491", "current_trial": 208, "dateTime": 1664464281171, "trialdata": {"rt": 435, "stimulus": "<p id='stroop-text' class='stroop-green'>GREEN</p>", "response": "g", "stimulus-type": "congruent", "word": "green", "color": "green", "correct_response": "g", "trial_id": "stroop-trial-1-congruent-19", "trial_type": "html-keyboard-response", "trial_index": 208, "time_elapsed": 302082, "internal_node_id": "0.0-8.0-22.0"}}, {"uniqueid": "w19045081:a87819491", "current_trial": 209, "dateTime": 1664464282120, "trialdata": {"rt": 431, "stimulus": "<p id='stroop-text' class='stroop-green'>RED</p>", "response": "r", "stimulus-type": "incongruent", "word": "red", "color": "green", "correct_response": "g", "trial_id": "stroop-trial-1-incongruent-12", "trial_type": "html-keyboard-response", "trial_index": 209, "time_elapsed": 303031, "internal_node_id": "0.0-8.0-23.0"}}, {"uniqueid": "w19045081:a87819491", "current_trial": 210, "dateTime": 1664464283631, "trialdata": {"rt": 997, "stimulus": "<p id='stroop-text' class='stroop-blue'>BLUE</p>", "response": "b", "stimulus-type": "congruent", "word": "blue", "color": "blue", "correct_response": "b", "trial_id": "stroop-trial-1-congruent-3", "trial_type": "html-keyboard-response", "trial_index": 210, "time_elapsed": 304543, "internal_node_id": "0.0-8.0-24.0"}}, {"uniqueid": "w19045081:a87819491", "current_trial": 211, "dateTime": 1664464284726, "trialdata": {"rt": 587, "stimulus": "<p id='stroop-text' class='stroop-blue'>YELLOW</p>", "response": "y", "stimulus-type": "incongruent", "word": "yellow", "color": "blue", "correct_response": "b", "trial_id": "stroop-trial-1-incongruent-6", "trial_type": "html-keyboard-response", "trial_index": 211, "time_elapsed": 305637, "internal_node_id": "0.0-8.0-25.0"}}, {"uniqueid": "w19045081:a87819491", "current_trial": 212, "dateTime": 1664464287154, "trialdata": {"rt": 1911, "stimulus": "<p id='stroop-text' class='stroop-green'>WINDOW</p>", "response": "g", "stimulus-type": "unrelated", "word": "WINDOW", "color": "green", "correct_response": "g", "trial_id": "stroop-trial-1-unrelated-28", "trial_type": "html-keyboard-response", "trial_index": 212, "time_elapsed": 308065, "internal_node_id": "0.0-8.0-26.0"}}, {"uniqueid": "w19045081:a87819491", "current_trial": 213, "dateTime": 1664464288091, "trialdata": {"rt": 422, "stimulus": "<p id='stroop-text' class='stroop-yellow'>BLUE</p>", "response": "b", "stimulus-type": "incongruent", "word": "blue", "color": "yellow", "correct_response": "y", "trial_id": "stroop-trial-1-incongruent-5", "trial_type": "html-keyboard-response", "trial_index": 213, "time_elapsed": 309002, "internal_node_id": "0.0-8.0-27.0"}}, {"uniqueid": "w19045081:a87819491", "current_trial": 214, "dateTime": 1664464290119, "trialdata": {"rt": 1513, "stimulus": "<p id='stroop-text' class='stroop-red'>MONKEY</p>", "response": "r", "stimulus-type": "unrelated", "word": "MONKEY", "color": "red", "correct_response": "r", "trial_id": "stroop-trial-1-unrelated-22", "trial_type": "html-keyboard-response", "trial_index": 214, "time_elapsed": 311030, "internal_node_id": "0.0-8.0-28.0"}}, {"uniqueid": "w19045081:a87819491", "current_trial": 215, "dateTime": 1664464291240, "trialdata": {"rt": 603, "stimulus": "<p id='stroop-text' class='stroop-yellow'>RED</p>", "response": "y", "stimulus-type": "incongruent", "word": "red", "color": "yellow", "correct_response": "y", "trial_id": "stroop-trial-1-incongruent-18", "trial_type": "html-keyboard-response", "trial_index": 215, "time_elapsed": 312151, "internal_node_id": "0.0-8.0-29.0"}}, {"uniqueid": "w19045081:a87819491", "current_trial": 216, "dateTime": 1664464292673, "trialdata": {"rt": 915, "stimulus": "<p id='stroop-text' class='stroop-red'>GREEN</p>", "response": "y", "stimulus-type": "incongruent", "word": "green", "color": "red", "correct_response": "r", "trial_id": "stroop-trial-1-incongruent-29", "trial_type": "html-keyboard-response", "trial_index": 216, "time_elapsed": 313585, "internal_node_id": "0.0-8.0-30.0"}}, {"uniqueid": "w19045081:a87819491", "current_trial": 217, "dateTime": 1664464294484, "trialdata": {"rt": 1300, "stimulus": "<p id='stroop-text' class='stroop-blue'>GREEN</p>", "response": "b", "stimulus-type": "incongruent", "word": "green", "color": "blue", "correct_response": "b", "trial_id": "stroop-trial-1-incongruent-20", "trial_type": "html-keyboard-response", "trial_index": 217, "time_elapsed": 315395, "internal_node_id": "0.0-8.0-31.0"}}, {"uniqueid": "w19045081:a87819491", "current_trial": 218, "dateTime": 1664464295616, "trialdata": {"rt": 620, "stimulus": "<p id='stroop-text' class='stroop-yellow'>BOTTLE</p>", "response": "y", "stimulus-type": "unrelated", "word": "BOTTLE", "color": "yellow", "correct_response": "y", "trial_id": "stroop-trial-1-unrelated-18", "trial_type": "html-keyboard-response", "trial_index": 218, "time_elapsed": 316527, "internal_node_id": "0.0-8.0-32.0"}}, {"uniqueid": "w19045081:a87819491", "current_trial": 219, "dateTime": 1664464296822, "trialdata": {"rt": 696, "stimulus": "<p id='stroop-text' class='stroop-red'>CHAIR</p>", "response": "r", "stimulus-type": "unrelated", "word": "CHAIR", "color": "red", "correct_response": "r", "trial_id": "stroop-trial-1-unrelated-1", "trial_type": "html-keyboard-response", "trial_index": 219, "time_elapsed": 317733, "internal_node_id": "0.0-8.0-33.0"}}, {"uniqueid": "w19045081:a87819491", "current_trial": 220, "dateTime": 1664464297859, "trialdata": {"rt": 521, "stimulus": "<p id='stroop-text' class='stroop-green'>DOG</p>", "response": "g", "stimulus-type": "unrelated", "word": "DOG", "color": "green", "correct_response": "g", "trial_id": "stroop-trial-1-unrelated-10", "trial_type": "html-keyboard-response", "trial_index": 220, "time_elapsed": 318771, "internal_node_id": "0.0-8.0-34.0"}}, {"uniqueid": "w19045081:a87819491", "current_trial": 221, "dateTime": 1664464298936, "trialdata": {"rt": 559, "stimulus": "<p id='stroop-text' class='stroop-yellow'>YELLOW</p>", "response": "y", "stimulus-type": "congruent", "word": "yellow", "color": "yellow", "correct_response": "y", "trial_id": "stroop-trial-1-congruent-16", "trial_type": "html-keyboard-response", "trial_index": 221, "time_elapsed": 319847, "internal_node_id": "0.0-8.0-35.0"}}, {"uniqueid": "w19045081:a87819491", "current_trial": 222, "dateTime": 1664464299849, "trialdata": {"rt": 391, "stimulus": "<p id='stroop-text' class='stroop-yellow'>YELLOW</p>", "response": "y", "stimulus-type": "congruent", "word": "yellow", "color": "yellow", "correct_response": "y", "trial_id": "stroop-trial-1-congruent-20", "trial_type": "html-keyboard-response", "trial_index": 222, "time_elapsed": 320761, "internal_node_id": "0.0-8.0-36.0"