{"condition": 0, "counterbalance": 0, "assignmentId": "a83532818", "workerId": "w74919635", "hitId": "h60042925", "currenttrial": 965, "bonus": 0, "data": [{"uniqueid": "w74919635:a83532818", "current_trial": 0, "dateTime": 1664554860978, "trialdata": {"success": true, "trial_type": "fullscreen", "trial_index": 0, "time_elapsed": 6323, "internal_node_id": "0.0-0.0"}}, {"uniqueid": "w74919635:a83532818", "current_trial": 1, "dateTime": 1664554880523, "trialdata": {"view_history": [{"page_index": 0, "viewing_time": 19542}], "rt": 19543, "trial_id": "exp_instructions_distractor", "trial_type": "instructions", "trial_index": 1, "time_elapsed": 25869, "internal_node_id": "0.0-1.0"}}, {"uniqueid": "w74919635:a83532818", "current_trial": 2, "dateTime": 1664554906287, "trialdata": {"view_history": [{"page_index": 0, "viewing_time": 25763}], "rt": 25763, "trial_id": "color_game_instructions", "trial_type": "instructions", "trial_index": 2, "time_elapsed": 51633, "internal_node_id": "0.0-2.0"}}, {"uniqueid": "w74919635:a83532818", "current_trial": 3, "dateTime": 1664554930673, "trialdata": {"rt": 24384, "stimulus": "<h1> Get ready to start the game! </h1>\n\nThank you for reading the instructions. Get ready start with the first of 5 block(s) of this game.\n<br><br>\nIn this first block, you will complete 90 rounds of this game before moving on.\n<br><br>\nRemember, the better you perform, the bigger your bonus will be!\n<br><br>\n<div style='text-align: center;'>Press <code>space</code> to begin.</div>", "response": " ", "trial_id": "stroop_1_ready_1", "trial_type": "html-keyboard-response", "trial_index": 3, "time_elapsed": 76019, "internal_node_id": "0.0-3.0"}}, {"uniqueid": "w74919635:a83532818", "current_trial": 4, "dateTime": 1664554932465, "trialdata": {"rt": 1788, "stimulus": "<p id='stroop-text' class='stroop-yellow'>YELLOW</p>", "response": "y", "stimulus-type": "congruent", "word": "yellow", "color": "yellow", "correct_response": "y", "trial_id": "stroop-trial-1-congruent-21", "trial_type": "html-keyboard-response", "trial_index": 4, "time_elapsed": 77811, "internal_node_id": "0.0-4.0-0.0"}}, {"uniqueid": "w74919635:a83532818", "current_trial": 5, "dateTime": 1664554933994, "trialdata": {"rt": 1028, "stimulus": "<p id='stroop-text' class='stroop-blue'>YELLOW</p>", "response": "b", "stimulus-type": "incongruent", "word": "yellow", "color": "blue", "correct_response": "b", "trial_id": "stroop-trial-1-incongruent-19", "trial_type": "html-keyboard-response", "trial_index": 5, "time_elapsed": 79340, "internal_node_id": "0.0-4.0-1.0"}}, {"uniqueid": "w74919635:a83532818", "current_trial": 6, "dateTime": 1664554935385, "trialdata": {"rt": 889, "stimulus": "<p id='stroop-text' class='stroop-yellow'>YELLOW</p>", "response": "y", "stimulus-type": "congruent", "word": "yellow", "color": "yellow", "correct_response": "y", "trial_id": "stroop-trial-1-congruent-3", "trial_type": "html-keyboard-response", "trial_index": 6, "time_elapsed": 80731, "internal_node_id": "0.0-4.0-2.0"}}, {"uniqueid": "w74919635:a83532818", "current_trial": 7, "dateTime": 1664554936395, "trialdata": {"rt": 507, "stimulus": "<p id='stroop-text' class='stroop-yellow'>YELLOW</p>", "response": "y", "stimulus-type": "congruent", "word": "yellow", "color": "yellow", "correct_response": "y", "trial_id": "stroop-trial-1-congruent-2", "trial_type": "html-keyboard-response", "trial_index": 7, "time_elapsed": 81740, "internal_node_id": "0.0-4.0-3.0"}}, {"uniqueid": "w74919635:a83532818", "current_trial": 8, "dateTime": 1664554938037, "trialdata": {"rt": 1140, "stimulus": "<p id='stroop-text' class='stroop-green'>GREEN</p>", "response": "g", "stimulus-type": "congruent", "word": "green", "color": "green", "correct_response": "g", "trial_id": "stroop-trial-1-congruent-19", "trial_type": "html-keyboard-response", "trial_index": 8, "time_elapsed": 83383, "internal_node_id": "0.0-4.0-4.0"}}, {"uniqueid": "w74919635:a83532818", "current_trial": 9, "dateTime": 1664554939177, "trialdata": {"rt": 639, "stimulus": "<p id='stroop-text' class='stroop-green'>BOAT</p>", "response": "g", "stimulus-type": "unrelated", "word": "BOAT", "color": "green", "correct_response": "g", "trial_id": "stroop-trial-1-unrelated-21", "trial_type": "html-keyboard-response", "trial_index": 9, "time_elapsed": 84523, "internal_node_id": "0.0-4.0-5.0"}}, {"uniqueid": "w74919635:a83532818", "current_trial": 10, "dateTime": 1664554940443, "trialdata": {"rt": 765, "stimulus": "<p id='stroop-text' class='stroop-blue'>MONKEY</p>", "response": "b", "stimulus-type": "unrelated", "word": "MONKEY", "color": "blue", "correct_response": "b", "trial_id": "stroop-trial-1-unrelated-13", "trial_type": "html-keyboard-response", "trial_index": 10, "time_elapsed": 85789, "internal_node_id": "0.0-4.0-6.0"}}, {"uniqueid": "w74919635:a83532818", "current_trial": 11, "dateTime": 1664554941800, "trialdata": {"rt": 856, "stimulus": "<p id='stroop-text' class='stroop-green'>RED</p>", "response": "g", "stimulus-type": "incongruent", "word": "red", "color": "green", "correct_response": "g", "trial_id": "stroop-trial-1-incongruent-4", "trial_type": "html-keyboard-response", "trial_index": 11, "time_elapsed": 87145, "internal_node_id": "0.0-4.0-7.0"}}, {"uniqueid": "w74919635:a83532818", "current_trial": 12, "dateTime": 1664554943003, "trialdata": {"rt": 701, "stimulus": "<p id='stroop-text' class='stroop-yellow'>BOAT</p>", "response": "y", "stimulus-type": "unrelated", "word": "BOAT", "color": "yellow", "correct_response": "y", "trial_id": "stroop-trial-1-unrelated-18", "trial_type": "html-keyboard-response", "trial_index": 12, "time_elapsed": 88348, "internal_node_id": "0.0-4.0-8.0"}}, {"uniqueid": "w74919635:a83532818", "current_trial": 13, "dateTime": 1664554944377, "trialdata": {"rt": 873, "stimulus": "<p id='stroop-text' class='stroop-blue'>SHIP</p>", "response": "b", "stimulus-type": "unrelated", "word": "SHIP", "color": "blue", "correct_response": "b", "trial_id": "stroop-trial-1-unrelated-12", "trial_type": "html-keyboard-response", "trial_index": 13, "time_elapsed": 89722, "internal_node_id": "0.0-4.0-9.0"}}, {"uniqueid": "w74919635:a83532818", "current_trial": 14, "dateTime": 1664554945472, "trialdata": {"rt": 593, "stimulus": "<p id='stroop-text' class='stroop-yellow'>YELLOW</p>", "response": "y", "stimulus-type": "congruent", "word": "yellow", "color": "yellow", "correct_response": "y", "trial_id": "stroop-trial-1-congruent-6", "trial_type": "html-keyboard-response", "trial_index": 14, "time_elapsed": 90818, "internal_node_id": "0.0-4.0-10.0"}}, {"uniqueid": "w74919635:a83532818", "current_trial": 15, "dateTime": 1664554946430, "trialdata": {"rt": 457, "stimulus": "<p id='stroop-text' class='stroop-blue'>BLUE</p>", "response": "b", "stimulus-type": "congruent", "word": "blue", "color": "blue", "correct_response": "b", "trial_id": "stroop-trial-1-congruent-9", "trial_type": "html-keyboard-response", "trial_index": 15, "time_elapsed": 91776, "internal_node_id": "0.0-4.0-11.0"}}, {"uniqueid": "w74919635:a83532818", "current_trial": 16, "dateTime": 1664554947678, "trialdata": {"rt": 747, "stimulus": "<p id='stroop-text' class='stroop-green'>YELLOW</p>", "response": "g", "stimulus-type": "incongruent", "word": "yellow", "color": "green", "correct_response": "g", "trial_id": "stroop-trial-1-incongruent-25", "trial_type": "html-keyboard-response", "trial_index": 16, "time_elapsed": 93024, "internal_node_id": "0.0-4.0-12.0"}}, {"uniqueid": "w74919635:a83532818", "current_trial": 17, "dateTime": 1664554948990, "trialdata": {"rt": 811, "stimulus": "<p id='stroop-text' class='stroop-green'>RED</p>", "response": "g", "stimulus-type": "incongruent", "word": "red", "color": "green", "correct_response": "g", "trial_id": "stroop-trial-1-incongruent-24", "trial_type": "html-keyboard-response", "trial_index": 17, "time_elapsed": 94336, "internal_node_id": "0.0-4.0-13.0"}}, {"uniqueid": "w74919635:a83532818", "current_trial": 18, "dateTime": 1664554950592, "trialdata": {"rt": 1099, "stimulus": "<p id='stroop-text' class='stroop-yellow'>YELLOW</p>", "response": "y", "stimulus-type": "congruent", "word": "yellow", "color": "yellow", "correct_response": "y", "trial_id": "stroop-trial-1-congruent-16", "trial_type": "html-keyboard-response", "trial_index": 18, "time_elapsed": 95938, "internal_node_id": "0.0-4.0-14.0"}}, {"uniqueid": "w74919635:a83532818", "current_trial": 19, "dateTime": 1664554951601, "trialdata": {"rt": 508, "stimulus": "<p id='stroop-text' class='stroop-blue'>GREEN</p>", "response": "b", "stimulus-type": "incongruent", "word": "green", "color": "blue", "correct_response": "b", "trial_id": "stroop-trial-1-incongruent-7", "trial_type": "html-keyboard-response", "trial_index": 19, "time_elapsed": 96947, "internal_node_id": "0.0-4.0-15.0"}}, {"uniqueid": "w74919635:a83532818", "current_trial": 20, "dateTime": 1664554952697, "trialdata": {"rt": 593, "stimulus": "<p id='stroop-text' class='stroop-yellow'>YELLOW</p>", "response": "y", "stimulus-type": "congruent", "word": "yellow", "color": "yellow", "correct_response": "y", "trial_id": "stroop-trial-1-congruent-23", "trial_type": "html-keyboard-response", "trial_index": 20, "time_elapsed": 98042, "internal_node_id": "0.0-4.0-16.0"}}, {"uniqueid": "w74919635:a83532818", "current_trial": 21, "dateTime": 1664554953911, "trialdata": {"rt": 713, "stimulus": "<p id='stroop-text' class='stroop-red'>BLUE</p>", "response": "r", "stimulus-type": "incongruent", "word": "blue", "color": "red", "correct_response": "r", "trial_id": "stroop-trial-1-incongruent-29", "trial_type": "html-keyboard-response", "trial_index": 21, "time_elapsed": 99257, "internal_node_id": "0.0-4.0-17.0"}}, {"uniqueid": "w74919635:a83532818", "current_trial": 22, "dateTime": 1664554955302, "trialdata": {"rt": 889, "stimulus": "<p id='stroop-text' class='stroop-yellow'>BLUE</p>", "response": "y", "stimulus-type": "incongruent", "word": "blue", "color": "yellow", "correct_response": "y", "trial_id": "stroop-trial-1-incongruent-30", "trial_type": "html-keyboard-response", "trial_index": 22, "time_elapsed": 100648, "internal_node_id": "0.0-4.0-18.0"}}, {"uniqueid": "w74919635:a83532818", "current_trial": 23, "dateTime": 1664554956403, "trialdata": {"rt": 592, "stimulus": "<p id='stroop-text' class='stroop-blue'>BRIDGE</p>", "response": "b", "stimulus-type": "unrelated", "word": "BRIDGE", "color": "blue", "correct_response": "b", "trial_id": "stroop-trial-1-unrelated-17", "trial_type": "html-keyboard-response", "trial_index": 23, "time_elapsed": 101749, "internal_node_id": "0.0-4.0-19.0"}}, {"uniqueid": "w74919635:a83532818", "current_trial": 24, "dateTime": 1664554957600, "trialdata": {"rt": 696, "stimulus": "<p id='stroop-text' class='stroop-blue'>BLUE</p>", "response": "b", "stimulus-type": "congruent", "word": "blue", "color": "blue", "correct_response": "b", "trial_id": "stroop-trial-1-congruent-12", "trial_type": "html-keyboard-response", "trial_index": 24, "time_elapsed": 102946, "internal_node_id": "0.0-4.0-20.0"}}, {"uniqueid": "w74919635:a83532818", "current_trial": 25, "dateTime": 1664554958701, "trialdata": {"rt": 600, "stimulus": "<p id='stroop-text' class='stroop-yellow'>WINDOW</p>", "response": "y", "stimulus-type": "unrelated", "word": "WINDOW", "color": "yellow", "correct_response": "y", "trial_id": "stroop-trial-1-unrelated-2", "trial_type": "html-keyboard-response", "trial_index": 25, "time_elapsed": 104047, "internal_node_id": "0.0-4.0-21.0"}}, {"uniqueid": "w74919635:a83532818", "current_trial": 26, "dateTime": 1664554959733, "trialdata": {"rt": 530, "stimulus": "<p id='stroop-text' class='stroop-blue'>BLUE</p>", "response": "b", "stimulus-type": "congruent", "word": "blue", "color": "blue", "correct_response": "b", "trial_id": "stroop-trial-1-congruent-15", "trial_type": "html-keyboard-response", "trial_index": 26, "time_elapsed": 105079, "internal_node_id": "0.0-4.0-22.0"}}, {"uniqueid": "w74919635:a83532818", "current_trial": 27, "dateTime": 1664554960730, "trialdata": {"rt": 495, "stimulus": "<p id='stroop-text' class='stroop-yellow'>YELLOW</p>", "response": "y", "stimulus-type": "congruent", "word": "yellow", "color": "yellow", "correct_response": "y", "trial_id": "stroop-trial-1-congruent-10", "trial_type": "html-keyboard-response", "trial_index": 27, "time_elapsed": 106076, "internal_node_id": "0.0-4.0-23.0"}}, {"uniqueid": "w74919635:a83532818", "current_trial": 28, "dateTime": 1664554961785, "trialdata": {"rt": 552, "stimulus": "<p id='stroop-text' class='stroop-red'>FORK</p>", "response": "r", "stimulus-type": "unrelated", "word": "FORK", "color": "red", "correct_response": "r", "trial_id": "stroop-trial-1-unrelated-9", "trial_type": "html-keyboard-response", "trial_index": 28, "time_elapsed": 107131, "internal_node_id": "0.0-4.0-24.0"}}, {"uniqueid": "w74919635:a83532818", "current_trial": 29, "dateTime": 1664554963132, "trialdata": {"rt": 845, "stimulus": "<p id='stroop-text' class='stroop-yellow'>GREEN</p>", "response": "y", "stimulus-type": "incongruent", "word": "green", "color": "yellow", "correct_response": "y", "trial_id": "stroop-trial-1-incongruent-8", "trial_type": "html-keyboard-response", "trial_index": 29, "time_elapsed": 108477, "internal_node_id": "0.0-4.0-25.0"}}, {"uniqueid": "w74919635:a83532818", "current_trial": 30, "dateTime": 1664554964124, "trialdata": {"rt": 477, "stimulus": "<p id='stroop-text' class='stroop-yellow'>BRAIN</p>", "response": "y", "stimulus-type": "unrelated", "word": "BRAIN", "color": "yellow", "correct_response": "y", "trial_id": "stroop-trial-1-unrelated-24", "trial_type": "html-keyboard-response", "trial_index": 30, "time_elapsed": 109469, "internal_node_id": "0.0-4.0-26.0"}}, {"uniqueid": "w74919635:a83532818", "current_trial": 31, "dateTime": 1664554965880, "trialdata": {"rt": 1255, "stimulus": "<p id='stroop-text' class='stroop-red'>GREEN</p>", "response": "r", "stimulus-type": "incongruent", "word": "green", "color": "red", "correct_response": "r", "trial_id": "stroop-trial-1-incongruent-12", "trial_type": "html-keyboard-response", "trial_index": 31, "time_elapsed": 111226, "internal_node_id": "0.0-4.0-27.0"}}, {"uniqueid": "w74919635:a83532818", "current_trial": 32, "dateTime": 1664554966792, "trialdata": {"rt": 411, "stimulus": "<p id='stroop-text' class='stroop-red'>YELLOW</p>", "response": "r", "stimulus-type": "incongruent", "word": "yellow", "color": "red", "correct_response": "r", "trial_id": "stroop-trial-1-incongruent-5", "trial_type": "html-keyboard-response", "trial_index": 32, "time_elapsed": 112138, "internal_node_id": "0.0-4.0-28.0"}}, {"uniqueid": "w74919635:a83532818", "current_trial": 33, "dateTime": 1664554968120, "trialdata": {"rt": 827, "stimulus": "<p id='stroop-text' class='stroop-yellow'>BLUE</p>", "response": "y", "stimulus-type": "incongruent", "word": "blue", "color": "yellow", "correct_response": "y", "trial_id": "stroop-trial-1-incongruent-23", "trial_type": "html-keyboard-response", "trial_index": 33, "time_elapsed": 113466, "internal_node_id": "0.0-4.0-29.0"}}, {"uniqueid": "w74919635:a83532818", "current_trial": 34, "dateTime": 1664554968998, "trialdata": {"rt": 377, "stimulus": "<p id='stroop-text' class='stroop-red'>YELLOW</p>", "response": "r", "stimulus-type": "incongruent", "word": "yellow", "color": "red", "correct_response": "r", "trial_id": "stroop-trial-1-incongruent-16", "trial_type": "html-keyboard-response", "trial_index": 34, "time_elapsed": 114344, "internal_node_id": "0.0-4.0-30.0"}}, {"uniqueid": "w74919635:a83532818", "current_trial": 35, "dateTime": 1664554969876, "trialdata": {"rt": 377, "stimulus": "<p id='stroop-text' class='stroop-red'>MONKEY</p>", "response": "r", "stimulus-type": "unrelated", "word": "MONKEY", "color": "red", "correct_response": "r", "trial_id": "stroop-trial-1-unrelated-16", "trial_type": "html-keyboard-response", "trial_index": 35, "time_elapsed": 115222, "internal_node_id": "0.0-4.0-31.0"}}, {"uniqueid": "w74919635:a83532818", "current_trial": 36, "dateTime": 1664554970897, "trialdata": {"rt": 507, "stimulus": "<p id='stroop-text' class='stroop-yellow'>YELLOW</p>", "response": "y", "stimulus-type": "congruent", "word": "yellow", "color": "yellow", "correct_response": "y", "trial_id": "stroop-trial-1-congruent-17", "trial_type": "html-keyboard-response", "trial_index": 36, "time_elapsed": 116243, "internal_node_id": "0.0-4.0-32.0"}}, {"uniqueid": "w74919635:a83532818", "current_trial": 37, "dateTime": 1664554971900, "trialdata": {"rt": 502, "stimulus": "<p id='stroop-text' class='stroop-red'>RED</p>", "response": "r", "stimulus-type": "congruent", "word": "red", "color": "red", "correct_response": "r", "trial_id": "stroop-trial-1-congruent-29", "trial_type": "html-keyboard-response", "trial_index": 37, "time_elapsed": 117246, "internal_node_id": "0.0-4.0-33.0"}}, {"uniqueid": "w74919635:a83532818", "current_trial": 38, "dateTime": 1664554973943, "trialdata": {"rt": 1540, "stimulus": "<p id='stroop-text' class='stroop-yellow'>BRAIN</p>", "response": "y", "stimulus-type": "unrelated", "word": "BRAIN", "color": "yellow", "correct_response": "y", "trial_id": "stroop-trial-1-unrelated-26", "trial_type": "html-keyboard-response", "trial_index": 38, "time_elapsed": 119289, "internal_node_id": "0.0-4.0-34.0"}}, {"uniqueid": "w74919635:a83532818", "current_trial": 39, "dateTime": 1664554974900, "trialdata": {"rt": 456, "stimulus": "<p id='stroop-text' class='stroop-yellow'>GREEN</p>", "response": "y", "stimulus-type": "incongruent", "word": "green", "color": "yellow", "correct_response": "y", "trial_id": "stroop-trial-1-incongruent-1", "trial_type": "html-keyboard-response", "trial_index": 39, "time_elapsed": 120245, "internal_node_id": "0.0-4.0-35.0"}}, {"uniqueid": "w74919635:a83532818", "current_trial": 40, "dateTime": 1664554975967, "trialdata": {"rt": 566, "stimulus": "<p id='stroop-text' class='stroop-red'>RED</p>", "response": "r", "stimulus-type": "congruent", "word": "red", "color": "red", "correct_response": "r", "trial_id": "stroop-trial-1-congruent-22", "trial_type": "html-keyboard-response", "trial_index": 40, "time_elapsed": 121313, "internal_node_id": "0.0-4.0-36.0"}}, {"uniqueid": "w74919635:a83532818", "current_trial": 41, "dateTime": 1664554977358, "trialdata": {"rt": 889, "stimulus": "<p id='stroop-text' class='stroop-yellow'>DOG</p>", "response": "y", "stimulus-type": "unrelated", "word": "DOG", "color": "yellow", "correct_response": "y", "trial_id": "stroop-trial-1-unrelated-23", "trial_type": "html-keyboard-response", "trial_index": 41, "time_elapsed": 122704, "internal_node_id": "0.0-4.0-37.0"}}, {"uniqueid": "w74919635:a83532818", "current_trial": 42, "dateTime": 1664554978612, "trialdata": {"rt": 753, "stimulus": "<p id='stroop-text' class='stroop-green'>GREEN</p>", "response": "g", "stimulus-type": "congruent", "word": "green", "color": "green", "correct_response": "g", "trial_id": "stroop-trial-1-congruent-8", "trial_type": "html-keyboard-response", "trial_index": 42, "time_elapsed": 123958, "internal_node_id": "0.0-4.0-38.0"}}, {"uniqueid": "w74919635:a83532818", "current_trial": 43, "dateTime": 1664554979821, "trialdata": {"rt": 707, "stimulus": "<p id='stroop-text' class='stroop-red'>RED</p>", "response": "r", "stimulus-type": "congruent", "word": "red", "color": "red", "correct_response": "r", "trial_id": "stroop-trial-1-congruent-26", "trial_type": "html-keyboard-response", "trial_index": 43, "time_elapsed": 125167, "internal_node_id": "0.0-4.0-39.0"}}, {"uniqueid": "w74919635:a83532818", "current_trial": 44, "dateTime": 1664554980824, "trialdata": {"rt": 501, "stimulus": "<p id='stroop-text' class='stroop-blue'>BLUE</p>", "response": "b", "stimulus-type": "congruent", "word": "blue", "color": "blue", "correct_response": "b", "trial_id": "stroop-trial-1-congruent-11", "trial_type": "html-keyboard-response", "trial_index": 44, "time_elapsed": 126170, "internal_node_id": "0.0-4.0-40.0"}}, {"uniqueid": "w74919635:a83532818", "current_trial": 45, "dateTime": 1664554981776, "trialdata": {"rt": 450, "stimulus": "<p id='stroop-text' class='stroop-red'>YELLOW</p>", "response": "y", "stimulus-type": "incongruent", "word": "yellow", "color": "red", "correct_response": "r", "trial_id": "stroop-trial-1-incongruent-10", "trial_type": "html-keyboard-response", "trial_index": 45, "time_elapsed": 127122, "internal_node_id": "0.0-4.0-41.0"}}, {"uniqueid": "w74919635:a83532818", "current_trial": 46, "dateTime": 1664554983705, "trialdata": {"rt": 1426, "stimulus": "<p id='stroop-text' class='stroop-green'>SHIP</p>", "response": "g", "stimulus-type": "unrelated", "word": "SHIP", "color": "green", "correct_response": "g", "trial_id": "stroop-trial-1-unrelated-10", "trial_type": "html-keyboard-response", "trial_index": 46, "time_elapsed": 129050, "internal_node_id": "0.0-4.0-42.0"}}, {"uniqueid": "w74919635:a83532818", "current_trial": 47, "dateTime": 1664554985170, "trialdata": {"rt": 963, "stimulus": "<p id='stroop-text' class='stroop-red'>MONKEY</p>", "response": "r", "stimulus-type": "unrelated", "word": "MONKEY", "color": "red", "correct_response": "r", "trial_id": "stroop-trial-1-unrelated-30", "trial_type": "html-keyboard-response", "trial_index": 47, "time_elapsed": 130516, "internal_node_id": "0.0-4.0-43.0"}}, {"uniqueid": "w74919635:a83532818", "current_trial": 48, "dateTime": 1664554986390, "trialdata": {"rt": 719, "stimulus": "<p id='stroop-text' class='stroop-yellow'>YELLOW</p>", "response": "y", "stimulus-type": "congruent", "word": "yellow", "color": "yellow", "correct_response": "y", "trial_id": "stroop-trial-1-congruent-4", "trial_type": "html-keyboard-response", "trial_index": 48, "time_elapsed": 131736, "internal_node_id": "0.0-4.0-44.0"}}, {"uniqueid": "w74919635:a83532818", "current_trial": 49, "dateTime": 1664554987628, "trialdata": {"rt": 736, "stimulus": "<p id='stroop-text' class='stroop-yellow'>GREEN</p>", "response": "y", "stimulus-type": "incongruent", "word": "green", "color": "yellow", "correct_response": "y", "trial_id": "stroop-trial-1-incongruent-20", "trial_type": "html-keyboard-response", "trial_index": 49, "time_elapsed": 132973, "internal_node_id": "0.0-4.0-45.0"}}, {"uniqueid": "w74919635:a83532818", "current_trial": 50, "dateTime": 1664554988875, "trialdata": {"rt": 745, "stimulus": "<p id='stroop-text' class='stroop-green'>GREEN</p>", "response": "g", "stimulus-type": "congruent", "word": "green", "color": "green", "correct_response": "g", "trial_id": "stroop-trial-1-congruent-13", "trial_type": "html-keyboard-response", "trial_index": 50, "time_elapsed": 134221, "internal_node_id": "0.0-4.0-46.0"}}, {"uniqueid": "w74919635:a83532818", "current_trial": 51, "dateTime": 1664554990393, "trialdata": {"rt": 1016, "stimulus": "<p id='stroop-text' class='stroop-yellow'>YELLOW</p>", "response": "y", "stimulus-type": "congruent", "word": "yellow", "color": "yellow", "correct_response": "y", "trial_id": "stroop-trial-1-congruent-28", "trial_type": "html-keyboard-response", "trial_index": 51, "time_elapsed": 135738, "internal_node_id": "0.0-4.0-47.0"}}, {"uniqueid": "w74919635:a83532818", "current_trial": 52, "dateTime": 1664554991458, "trialdata": {"rt": 564, "stimulus": "<p id='stroop-text' class='stroop-red'>CHAIR</p>", "response": "r", "stimulus-type": "unrelated", "word": "CHAIR", "color": "red", "correct_response": "r", "trial_id": "stroop-trial-1-unrelated-19", "trial_type": "html-keyboard-response", "trial_index": 52, "time_elapsed": 136804, "internal_node_id": "0.0-4.0-48.0"}}, {"uniqueid": "w74919635:a83532818", "current_trial": 53, "dateTime": 1664554992537, "trialdata": {"rt": 576, "stimulus": "<p id='stroop-text' class='stroop-blue'>MONKEY</p>", "response": "b", "stimulus-type": "unrelated", "word": "MONKEY", "color": "blue", "correct_response": "b", "trial_id": "stroop-trial-1-unrelated-7", "trial_type": "html-keyboard-response", "trial_index": 53, "time_elapsed": 137882, "internal_node_id": "0.0-4.0-49.0"}}, {"uniqueid": "w74919635:a83532818", "current_trial": 54, "dateTime": 1664554993563, "trialdata": {"rt": 524, "stimulus": "<p id='stroop-text' class='stroop-blue'>RED</p>", "response": "b", "stimulus-type": "incongruent", "word": "red", "color": "blue", "correct_response": "b", "trial_id": "stroop-trial-1-incongruent-17", "trial_type": "html-keyboard-response", "trial_index": 54, "time_elapsed": 138908, "internal_node_id": "0.0-4.0-50.0"}}, {"uniqueid": "w74919635:a83532818", "current_trial": 55, "dateTime": 1664554994932, "trialdata": {"rt": 853, "stimulus": "<p id='stroop-text' class='stroop-red'>RED</p>", "response": "r", "stimulus-type": "congruent", "word": "red", "color": "red", "correct_response": "r", "trial_id": "stroop-trial-1-congruent-30", "trial_type": "html-keyboard-response", "trial_index": 55, "time_elapsed": 140278, "internal_node_id": "0.0-4.0-51.0"}}, {"uniqueid": "w74919635:a83532818", "current_trial": 56, "dateTime": 1664554998244, "trialdata": {"rt": 2797, "stimulus": "<p id='stroop-text' class='stroop-red'>YELLOW</p>", "response": "r", "stimulus-type": "incongruent", "word": "yellow", "color": "red", "correct_response": "r", "trial_id": "stroop-trial-1-incongruent-21", "trial_type": "html-keyboard-response", "trial_index": 56, "time_elapsed": 143590, "internal_node_id": "0.0-4.0-52.0"}}, {"uniqueid": "w74919635:a83532818", "current_trial": 57, "dateTime": 1664554999504, "trialdata": {"rt": 758, "stimulus": "<p id='stroop-text' class='stroop-green'>BOTTLE</p>", "response": "g", "stimulus-type": "unrelated", "word": "BOTTLE", "color": "green", "correct_response": "g", "trial_id": "stroop-trial-1-unrelated-22", "trial_type": "html-keyboard-response", "trial_index": 57, "time_elapsed": 144850, "internal_node_id": "0.0-4.0-53.0"}}, {"uniqueid": "w74919635:a83532818", "current_trial": 58, "dateTime": 1664555000582, "trialdata": {"rt": 576, "stimulus": "<p id='stroop-text' class='stroop-red'>RED</p>", "response": "r", "stimulus-type": "congruent", "word": "red", "color": "red", "correct_response": "r", "trial_id": "stroop-trial-1-congruent-18", "trial_type": "html-keyboard-response", "trial_index": 58, "time_elapsed": 145928, "internal_node_id": "0.0-4.0-54.0"}}, {"uniqueid": "w74919635:a83532818", "current_trial": 59, "dateTime": 1664555001826, "trialdata": {"rt": 732, "stimulus": "<p id='stroop-text' class='stroop-blue'>SHIP</p>", "response": "b", "stimulus-type": "unrelated", "word": "SHIP", "color": "blue", "correct_response": "b", "trial_id": "stroop-trial-1-unrelated-6", "trial_type": "html-keyboard-response", "trial_index": 59, "time_elapsed": 147171, "internal_node_id": "0.0-4.0-55.0"}}, {"uniqueid": "w74919635:a83532818", "current_trial": 60, "dateTime": 1664555003052, "trialdata": {"rt": 724, "stimulus": "<p id='stroop-text' class='stroop-green'>GREEN</p>", "response": "g", "stimulus-type": "congruent", "word": "green", "color": "green", "correct_response": "g", "trial_id": "stroop-trial-1-congruent-14", "trial_type": "html-keyboard-response", "trial_index": 60, "time_elapsed": 148398, "internal_node_id": "0.0-4.0-56.0"}}, {"uniqueid": "w74919635:a83532818", "current_trial": 61, "dateTime": 1664555004124, "trialdata": {"rt": 570, "stimulus": "<p id='stroop-text' class='stroop-green'>RED</p>", "response": "g", "stimulus-type": "incongruent", "word": "red", "color": "green", "correct_response": "g", "trial_id": "stroop-trial-1-incongruent-15", "trial_type": "html-keyboard-response", "trial_index": 61, "time_elapsed": 149470, "internal_node_id": "0.0-4.0-57.0"}}, {"uniqueid": "w74919635:a83532818", "current_trial": 62, "dateTime": 1664555006034, "trialdata": {"rt": 1409, "stimulus": "<p id='stroop-text' class='stroop-red'>BOTTLE</p>", "response": "r", "stimulus-type": "unrelated", "word": "BOTTLE", "color": "red", "correct_response": "r", "trial_id": "stroop-trial-1-unrelated-14", "trial_type": "html-keyboard-response", "trial_index": 62, "time_elapsed": 151380, "internal_node_id": "0.0-4.0-58.0"}}, {"uniqueid": "w74919635:a83532818", "current_trial": 63, "dateTime": 1664555007197, "trialdata": {"rt": 662, "stimulus": "<p id='stroop-text' class='stroop-green'>GREEN</p>", "response": "g", "stimulus-type": "congruent", "word": "green", "color": "green", "correct_response": "g", "trial_id": "stroop-trial-1-congruent-1", "trial_type": "html-keyboard-response", "trial_index": 63, "time_elapsed": 152543, "internal_node_id": "0.0-4.0-59.0"}}, {"uniqueid": "w74919635:a83532818", "current_trial": 64, "dateTime": 1664555008691, "trialdata": {"rt": 993, "stimulus": "<p id='stroop-text' class='stroop-green'>RED</p>", "response": "g", "stimulus-type": "incongruent", "word": "red", "color": "green", "correct_response": "g", "trial_id": "stroop-trial-1-incongruent-28", "trial_type": "html-keyboard-response", "trial_index": 64, "time_elapsed": 154037, "internal_node_id": "0.0-4.0-60.0"}}, {"uniqueid": "w74919635:a83532818", "current_trial": 65, "dateTime": 1664555009660, "trialdata": {"rt": 458, "stimulus": "<p id='stroop-text' class='stroop-blue'>YELLOW</p>", "response": "b", "stimulus-type": "incongruent", "word": "yellow", "color": "blue", "correct_response": "b", "trial_id": "stroop-trial-1-incongruent-2", "trial_type": "html-keyboard-response", "trial_index": 65, "time_elapsed": 155006, "internal_node_id": "0.0-4.0-61.0"}}, {"uniqueid": "w74919635:a83532818", "current_trial": 66, "dateTime": 1664555010687, "trialdata": {"rt": 524, "stimulus": "<p id='stroop-text' class='stroop-yellow'>RED</p>", "response": "y", "stimulus-type": "incongruent", "word": "red", "color": "yellow", "correct_response": "y", "trial_id": "stroop-trial-1-incongruent-3", "trial_type": "html-keyboard-response", "trial_index": 66, "time_elapsed": 156032, "internal_node_id": "0.0-4.0-62.0"}}, {"uniqueid": "w74919635:a83532818", "current_trial": 67, "dateTime": 1664555011685, "trialdata": {"rt": 496, "stimulus": "<p id='stroop-text' class='stroop-yellow'>WINDOW</p>", "response": "y", "stimulus-type": "unrelated", "word": "WINDOW", "color": "yellow", "correct_response": "y", "trial_id": "stroop-trial-1-unrelated-11", "trial_type": "html-keyboard-response", "trial_index": 67, "time_elapsed": 157030, "internal_node_id": "0.0-4.0-63.0"}}, {"uniqueid": "w74919635:a83532818", "current_trial": 68, "dateTime": 1664555014057, "trialdata": {"rt": 1871, "stimulus": "<p id='stroop-text' class='stroop-red'>GREEN</p>", "response": "g", "stimulus-type": "incongruent", "word": "green", "color": "red", "correct_response": "r", "trial_id": "stroop-trial-1-incongruent-27", "trial_type": "html-keyboard-response", "trial_index": 68, "time_elapsed": 159403, "internal_node_id": "0.0-4.0-64.0"}}, {"uniqueid": "w74919635:a83532818", "current_trial": 69, "dateTime": 1664555016474, "trialdata": {"rt": 1916, "stimulus": "<p id='stroop-text' class='stroop-blue'>RED</p>", "response": "b", "stimulus-type": "incongruent", "word": "red", "color": "blue", "correct_response": "b", "trial_id": "stroop-trial-1-incongruent-26", "trial_type": "html-keyboard-response", "trial_index": 69, "time_elapsed": 161820, "internal_node_id": "0.0-4.0-65.0"}}, {"uniqueid": "w74919635:a83532818", "current_trial": 70, "dateTime": 1664555017569, "trialdata": {"rt": 593, "stimulus": "<p id='stroop-text' class='stroop-green'>GREEN</p>", "response": "g", "stimulus-type": "congruent", "word": "green", "color": "green", "correct_response": "g", "trial_id": "stroop-trial-1-congruent-7", "trial_type": "html-keyboard-response", "trial_index": 70, "time_elapsed": 162915, "internal_node_id": "0.0-4.0-66.0"}}, {"uniqueid": "w74919635:a83532818", "current_trial": 71, "dateTime": 1664555018738, "trialdata": {"rt": 668, "stimulus": "<p id='stroop-text' class='stroop-yellow'>YELLOW</p>", "response": "y", "stimulus-type": "congruent", "word": "yellow", "color": "yellow", "correct_response": "y", "trial_id": "stroop-trial-1-congruent-5", "trial_type": "html-keyboard-response", "trial_index": 71, "time_elapsed": 164084, "internal_node_id": "0.0-4.0-67.0"}}, {"uniqueid": "w74919635:a83532818", "current_trial": 72, "dateTime": 1664555019747, "trialdata": {"rt": 507, "stimulus": "<p id='stroop-text' class='stroop-yellow'>YELLOW</p>", "response": "y", "stimulus-type": "congruent", "word": "yellow", "color": "yellow", "correct_response": "y", "trial_id": "stroop-trial-1-congruent-20", "trial_type": "html-keyboard-response", "trial_index": 72, "time_elapsed": 165093, "internal_node_id": "0.0-4.0-68.0"}}, {"uniqueid": "w74919635:a83532818", "current_trial": 73, "dateTime": 1664555020854, "trialdata": {"rt": 603, "stimulus": "<p id='stroop-text' class='stroop-green'>BOAT</p>", "response": "g", "stimulus-type": "unrelated", "word": "BOAT", "color": "green", "correct_response": "g", "trial_id": "stroop-trial-1-unrelated-4", "trial_type": "html-keyboard-response", "trial_index": 73, "time_elapsed": 166199, "internal_node_id": "0.0-4.0-69.0"}}, {"uniqueid": "w74919635:a83532818", "current_trial": 74, "dateTime": 1664555021880, "trialdata": {"rt": 524, "stimulus": "<p id='stroop-text' class='stroop-blue'>GREEN</p>", "response": "b", "stimulus-type": "incongruent", "word": "green", "color": "blue", "correct_response": "b", "trial_id": "stroop-trial-1-incongruent-11", "trial_type": "html-keyboard-response", "trial_index": 74, "time_elapsed": 167225, "internal_node_id": "0.0-4.0-70.0"}}, {"uniqueid": "w74919635:a83532818", "current_trial": 75, "dateTime": 1664555022889, "trialdata": {"rt": 507, "stimulus": "<p id='stroop-text' class='stroop-red'>FORK</p>", "response": "y", "stimulus-type": "unrelated", "word": "FORK", "color": "red", "correct_response": "r", "trial_id": "stroop-trial-1-unrelated-28", "trial_type": "html-keyboard-response", "trial_index": 75, "time_elapsed": 168235, "internal_node_id": "0.0-4.0-71.0"}}, {"uniqueid": "w74919635:a83532818", "current_trial": 76, "dateTime": 1664555025187, "trialdata": {"rt": 1797, "stimulus": "<p id='stroop-text' class='stroop-green'>BRIDGE</p>", "response": "g", "stimulus-type": "unrelated", "word": "BRIDGE", "color": "green", "correct_response": "g", "trial_id": "stroop-trial-1-unrelated-20", "trial_type": "html-keyboard-response", "trial_index": 76, "time_elapsed": 170533, "internal_node_id": "0.0-4.0-72.0"}}, {"uniqueid": "w74919635:a83532818", "current_trial": 77, "dateTime": 1664555026327, "trialdata": {"rt": 639, "stimulus": "<p id='stroop-text' class='stroop-red'>RED</p>", "response": "r", "stimulus-type": "congruent", "word": "red", "color": "red", "correct_response": "r", "trial_id": "stroop-trial-1-congruent-25", "trial_type": "html-keyboard-response", "trial_index": 77, "time_elapsed": 171673, "internal_node_id": "0.0-4.0-73.0"}}, {"uniqueid": "w74919635:a83532818", "current_trial": 78, "dateTime": 1664555027342, "trialdata": {"rt": 513, "stimulus": "<p id='stroop-text' class='stroop-green'>STONE</p>", "response": "g", "stimulus-type": "unrelated", "word": "STONE", "color": "green", "correct_response": "g", "trial_id": "stroop-trial-1-unrelated-25", "trial_type": "html-keyboard-response", "trial_index": 78, "time_elapsed": 172688, "internal_node_id": "0.0-4.0-74.0"}}, {"uniqueid": "w74919635:a83532818", "current_trial": 79, "dateTime": 1664555028414, "trialdata": {"rt": 562, "stimulus": "<p id='stroop-text' class='stroop-yellow'>YELLOW</p>", "response": "y", "stimulus-type": "congruent", "word": "yellow", "color": "yellow", "correct_response": "y", "trial_id": "stroop-trial-1-congruent-27", "trial_type": "html-keyboard-response", "trial_index": 79, "time_elapsed": 173760, "internal_node_id": "0.0-4.0-75.0"}}, {"uniqueid": "w74919635:a83532818", "current_trial": 80, "dateTime": 1664555029852, "trialdata": {"rt": 935, "stimulus": "<p id='stroop-text' class='stroop-red'>GREEN</p>", "response": "r", "stimulus-type": "incongruent", "word": "green", "color": "red", "correct_response": "r", "trial_id": "stroop-trial-1-incongruent-18", "trial_type": "html-keyboard-response", "trial_index": 80, "time_elapsed": 175197, "internal_node_id": "0.0-4.0-76.0"}}, {"uniqueid": "w74919635:a83532818", "current_trial": 81, "dateTime": 1664555031847, "trialdata": {"rt": 1493, "stimulus": "<p id='stroop-text' class='stroop-green'>BLUE</p>", "response": "g", "stimulus-type": "incongruent", "word": "blue", "color": "green", "correct_response": "g", "trial_id": "stroop-trial-1-incongruent-22", "trial_type": "html-keyboard-response", "trial_index": 81, "time_elapsed": 177193, "internal_node_id": "0.0-4.0-77.0"}}, {"uniqueid": "w74919635:a83532818", "current_trial": 82, "dateTime": 1664555032817, "trialdata": {"rt": 469, "stimulus": "<p id='stroop-text' class='stroop-green'>GREEN</p>", "response": "g", "stimulus-type": "congruent", "word": "green", "color": "green", "correct_response": "g", "trial_id": "stroop-trial-1-congruent-24", "trial_type": "html-keyboard-response", "trial_index": 82, "time_elapsed": 178163, "internal_node_id": "0.0-4.0-78.0"}}, {"uniqueid": "w74919635:a83532818", "current_trial": 83, "dateTime": 1664555034116, "trialdata": {"rt": 798, "stimulus": "<p id='stroop-text' class='stroop-blue'>CHAIR</p>", "response": "b", "stimulus-type": "unrelated", "word": "CHAIR", "color": "blue", "correct_response": "b", "trial_id": "stroop-trial-1-unrelated-29", "trial_type": "html-keyboard-response", "trial_index": 83, "time_elapsed": 179462, "internal_node_id": "0.0-4.0-79.0"}}, {"uniqueid": "w74919635:a83532818", "current_trial": 84, "dateTime": 1664555035462, "trialdata": {"rt": 845, "stimulus": "<p id='stroop-text' class='stroop-green'>YELLOW</p>", "response": "g", "stimulus-type": "incongruent", "word": "yellow", "color": "green", "correct_response": "g", "trial_id": "stroop-trial-1-incongruent-13", "trial_type": "html-keyboard-response", "trial_index": 84, "time_elapsed": 180808, "internal_node_id": "0.0-4.0-80.0"}}, {"uniqueid": "w74919635:a83532818", "current_trial": 85, "dateTime": 1664555036420, "trialdata": {"rt": 456, "stimulus": "<p id='stroop-text' class='stroop-green'>STONE</p>", "response": "g", "stimulus-type": "unrelated", "word": "STONE", "color": "green", "correct_response": "g", "trial_id": "stroop-trial-1-unrelated-15", "trial_type": "html-keyboard-response", "trial_index": 85, "time_elapsed": 181766, "internal_node_id": "0.0-4.0-81.0"}}, {"uniqueid": "w74919635:a83532818", "current_trial": 86, "dateTime": 1664555037538, "trialdata": {"rt": 616, "stimulus": "<p id='stroop-text' class='stroop-red'>GREEN</p>", "response": "r", "stimulus-type": "incongruent", "word": "green", "color": "red", "correct_response": "r", "trial_id": "stroop-trial-1-incongruent-6", "trial_type": "html-keyboard-response", "trial_index": 86, "time_elapsed": 182884, "internal_node_id": "0.0-4.0-82.0"}}, {"uniqueid": "w74919635:a83532818", "current_trial": 87, "dateTime": 1664555038427, "trialdata": {"rt": 387, "stimulus": "<p id='stroop-text' class='stroop-red'>FORK</p>", "response": "r", "stimulus-type": "unrelated", "word": "FORK", "color": "red", "correct_response": "r", "trial_id": "stroop-trial-1-unrelated-27", "trial_type": "html-keyboard-response", "trial_index": 87, "time_elapsed": 183773, "internal_node_id": "0.0-4.0-83.0"}}, {"uniqueid": "w74919635:a83532818", "current_trial": 88, "dateTime": 1664555039631, "trialdata": {"rt": 701, "stimulus": "<p id='stroop-text' class='stroop-green'>WINDOW</p>", "response": "g", "stimulus-type": "unrelated", "word": "WINDOW", "color": "green", "correct_response": "g", "trial_id": "stroop-trial-1-unrelated-1", "trial_type": "html-keyboard-response", "trial_index": 88, "time_elapsed": 184976, "internal_node_id": "0.0-4.0-84.0"}}, {"uniqueid": "w74919635:a83532818", "current_trial": 89, "dateTime": 1664555040492, "trialdata": {"rt": 359, "stimulus": "<p id='stroop-text' class='stroop-green'>BRIDGE</p>", "response": "g", "stimulus-type": "unrelated", "word": "BRIDGE", "color": "green", "correct_response": "g", "trial_id": "stroop-trial-1-unrelated-3", "trial_type": "html-keyboard-response", "trial_index": 89, "time_elapsed": 185837, "internal_node_id": "0.0-4.0-85.0"}}, {"uniqueid": "w74919635:a83532818", "current_trial": 90, "dateTime": 1664555041878, "trialdata": {"rt": 885, "stimulus": "<p id='stroop-text' class='stroop-red'>GREEN</p>", "response": "r", "stimulus-type": "incongruent", "word": "green", "color": "red", "correct_response": "r", "trial_id": "stroop-trial-1-incongruent-14", "trial_type": "html-keyboard-response", "trial_index": 90, "time_elapsed": 187224, "internal_node_id": "0.0-4.0-86.0"}}, {"uniqueid": "w74919635:a83532818", "current_trial": 91, "dateTime": 1664555042978, "trialdata": {"rt": 598, "stimulus": "<p id='stroop-text' class='stroop-yellow'>WINDOW</p>", "response": "y", "stimulus-type": "unrelated", "word": "WINDOW", "color": "yellow", "correct_response": "y", "trial_id": "stroop-trial-1-unrelated-8", "trial_type": "html-keyboard-response", "trial_index": 91, "time_elapsed": 188324, "internal_node_id": "0.0-4.0-87.0"}}, {"uniqueid": "w74919635:a83532818", "current_trial": 92, "dateTime": 1664555043868, "trialdata": {"rt": 389, "stimulus": "<p id='stroop-text' class='stroop-yellow'>RED</p>", "response": "y", "stimulus-type": "incongruent", "word": "red", "color": "yellow", "correct_response": "y", "trial_id": "stroop-trial-1-incongruent-9", "trial_type": "html-keyboard-response", "trial_index": 92, "time_elapsed": 189214, "internal_node_id": "0.0-4.0-88.0"}}, {"uniqueid": "w74919635:a83532818", "current_trial": 93, "dateTime": 1664555045059, "trialdata": {"rt": 690, "stimulus": "<p id='stroop-text' class='stroop-blue'>DOG</p>", "response": "b", "stimulus-type": "unrelated", "word": "DOG", "color": "blue", "correct_response": "b", "trial_id": "stroop-trial-1-unrelated-5", "trial_type": "html-keyboard-response", "trial_index": 93, "time_elapsed": 190405, "internal_node_id": "0.0-4.0-89.0"}}, {"uniqueid": "w74919635:a83532818", "current_trial": 94, "dateTime": 1664555049677, "trialdata": {"rt": 4115, "stimulus": "  <h1> End of block! </h1>\n\n  You have reached the end of the block 1/5. If you need a short break, feel free to take one now before moving on.\n\n  <br><br>\n  In the next block, you will complete another 90 rounds of this game.\n\n  <br><br>\n  <div style='text-align: center;'>Press <code>space</code> to begin.</div>\n  <br><br>\n<div style='text-align: center;'>(If the experiment doesn't continue, try clicking on the text and then pressing <code>space</code>.)</div>", "response": " ", "trial_id": "stroop_1_ready_2", "trial_type": "html-keyboard-response", "trial_index": 94, "time_elapsed": 195023, "internal_node_id": "0.0-5.0"}}, {"uniqueid": "w74919635:a83532818", "current_trial": 95, "dateTime": 1664555050460, "trialdata": {"rt": 781, "stimulus": "<p id='stroop-text' class='stroop-green'>FORK</p>", "response": "g", "stimulus-type": "unrelated", "word": "FORK", "color": "green", "correct_response": "g", "trial_id": "stroop-trial-1-unrelated-13", "trial_type": "html-keyboard-response", "trial_index": 95, "time_elapsed": 195805, "internal_node_id": "0.0-6.0-0.0"}}, {"uniqueid": "w74919635:a83532818", "current_trial": 96, "dateTime": 1664555051577, "trialdata": {"rt": 615, "stimulus": "<p id='stroop-text' class='stroop-red'>BLUE</p>", "response": "b", "stimulus-type": "incongruent", "word": "blue", "color": "red", "correct_response": "r", "trial_id": "stroop-trial-1-incongruent-21", "trial_type": "html-keyboard-response", "trial_index": 96, "time_elapsed": 196923, "internal_node_id": "0.0-6.0-1.0"}}, {"uniqueid": "w74919635:a83532818", "current_trial": 97, "dateTime": 1664555053225, "trialdata": {"rt": 1146, "stimulus": "<p id='stroop-text' class='stroop-red'>WINDOW</p>", "response": "r", "stimulus-type": "unrelated", "word": "WINDOW", "color": "red", "correct_response": "r", "trial_id": "stroop-trial-1-unrelated-9", "trial_type": "html-keyboard-response", "trial_index": 97, "time_elapsed": 198571, "internal_node_id": "0.0-6.0-2.0"}}, {"uniqueid": "w74919635:a83532818", "current_trial": 98, "dateTime": 1664555054189, "trialdata": {"rt": 463, "stimulus": "<p id='stroop-text' class='stroop-red'>RED</p>", "response": "r", "stimulus-type": "congruent", "word": "red", "color": "red", "correct_response": "r", "trial_id": "stroop-trial-1-congruent-11", "trial_type": "html-keyboard-response", "trial_index": 98, "time_elapsed": 199535, "internal_node_id": "0.0-6.0-3.0"}}, {"uniqueid": "w74919635:a83532818", "current_trial": 99, "dateTime": 1664555055488, "trialdata": {"rt": 797, "stimulus": "<p id='stroop-text' class='stroop-red'>BLUE</p>", "response": "r", "stimulus-type": "incongruent", "word": "blue", "color": "red", "correct_response": "r", "trial_id": "stroop-trial-1-incongruent-19", "trial_type": "html-keyboard-response", "trial_index": 99, "time_elapsed": 200834, "internal_node_id": "0.0-6.0-4.0"}}, {"uniqueid": "w74919635:a83532818", "current_trial": 100, "dateTime": 1664555056640, "trialdata": {"rt": 651, "stimulus": "<p id='stroop-text' class='stroop-yellow'>BOAT</p>", "response": "y", "stimulus-type": "unrelated", "word": "BOAT", "color": "yellow", "correct_response": "y", "trial_id": "stroop-trial-1-unrelated-20", "trial_type": "html-keyboard-response", "trial_index": 100, "time_elapsed": 201986, "internal_node_id": "0.0-6.0-5.0"}}, {"uniqueid": "w74919635:a83532818", "current_trial": 101, "dateTime": 1664555057689, "trialdata": {"rt": 547, "stimulus": "<p id='stroop-text' class='stroop-yellow'>STONE</p>", "response": "y", "stimulus-type": "unrelated", "word": "STONE", "color": "yellow", "correct_response": "y", "trial_id": "stroop-trial-1-unrelated-26", "trial_type": "html-keyboard-response", "trial_index": 101, "time_elapsed": 203035, "internal_node_id": "0.0-6.0-6.0"}}, {"uniqueid": "w74919635:a83532818", "current_trial": 102, "dateTime": 1664555059041, "trialdata": {"rt": 851, "stimulus": "<p id='stroop-text' class='stroop-red'>BLUE</p>", "response": "r", "stimulus-type": "incongruent", "word": "blue", "color": "red", "correct_response": "r", "trial_id": "stroop-trial-1-incongruent-10", "trial_type": "html-keyboard-response", "trial_index": 102, "time_elapsed": 204387, "internal_node_id": "0.0-6.0-7.0"}}, {"uniqueid": "w74919635:a83532818", "current_trial": 103, "dateTime": 1664555059948, "trialdata": {"rt": 404, "stimulus": "<p id='stroop-text' class='stroop-red'>GREEN</p>", "response": "r", "stimulus-type": "incongruent", "word": "green", "color": "red", "correct_response": "r", "trial_id": "stroop-trial-1-incongruent-17", "trial_type": "html-keyboard-response", "trial_index": 103, "time_elapsed": 205293, "internal_node_id": "0.0-6.0-8.0"}}, {"uniqueid": "w74919635:a83532818", "current_trial": 104, "dateTime": 1664555061037, "trialdata": {"rt": 587, "stimulus": "<p id='stroop-text' class='stroop-blue'>BLUE</p>", "response": "b", "stimulus-type": "congruent", "word": "blue", "color": "blue", "correct_response": "b", "trial_id": "stroop-trial-1-congruent-23", "trial_type": "html-keyboard-response", "trial_index": 104, "time_elapsed": 206382, "internal_node_id": "0.0-6.0-9.0"}}, {"uniqueid": "w74919635:a83532818", "current_trial": 105, "dateTime": 1664555061944, "trialdata": {"rt": 406, "stimulus": "<p id='stroop-text' class='stroop-green'>BLUE</p>", "response": "b", "stimulus-type": "incongruent", "word": "blue", "color": "green", "correct_response": "g", "trial_id": "stroop-trial-1-incongruent-8", "trial_type": "html-keyboard-response", "trial_index": 105, "time_elapsed": 207290, "internal_node_id": "0.0-6.0-10.0"}}, {"uniqueid": "w74919635:a83532818", "current_trial": 106, "dateTime": 1664555064122, "trialdata": {"rt": 1677, "stimulus": "<p id='stroop-text' class='stroop-yellow'>YELLOW</p>", "response": "y", "stimulus-type": "congruent", "word": "yellow", "color": "yellow", "correct_response": "y", "trial_id": "stroop-trial-1-congruent-13", "trial_type": "html-keyboard-response", "trial_index": 106, "time_elapsed": 209468, "internal_node_id": "0.0-6.0-11.0"}}, {"uniqueid": "w74919635:a83532818", "current_trial": 107, "dateTime": 1664555065262, "trialdata": {"rt": 638, "stimulus": "<p id='stroop-text' class='stroop-green'>GREEN</p>", "response": "g", "stimulus-type": "congruent", "word": "green", "color": "green", "correct_response": "g", "trial_id": "stroop-trial-1-congruent-22", "trial_type": "html-keyboard-response", "trial_index": 107, "time_elapsed": 210608, "internal_node_id": "0.0-6.0-12.0"}}, {"uniqueid": "w74919635:a83532818", "current_trial": 108, "dateTime": 1664555066454, "trialdata": {"rt": 689, "stimulus": "<p id='stroop-text' class='stroop-blue'>WINDOW</p>", "response": "b", "stimulus-type": "unrelated", "word": "WINDOW", "color": "blue", "correct_response": "b", "trial_id": "stroop-trial-1-unrelated-1", "trial_type": "html-keyboard-response", "trial_index": 108, "time_elapsed": 211800, "internal_node_id": "0.0-6.0-13.0"}}, {"uniqueid": "w74919635:a83532818", "current_trial": 109, "dateTime": 1664555068285, "trialdata": {"rt": 1328, "stimulus": "<p id='stroop-text' class='stroop-blue'>BLUE</p>", "response": "b", "stimulus-type": "congruent", "word": "blue", "color": "blue", "correct_response": "b", "trial_id": "stroop-trial-1-congruent-5", "trial_type": "html-keyboard-response", "trial_index": 109, "time_elapsed": 213630, "internal_node_id": "0.0-6.0-14.0"}}, {"uniqueid": "w74919635:a83532818", "current_trial": 110, "dateTime": 1664555069283, "trialdata": {"rt": 496, "stimulus": "<p id='stroop-text' class='stroop-yellow'>YELLOW</p>", "response": "y", "stimulus-type": "congruent", "word": "yellow", "color": "yellow", "correct_response": "y", "trial_id": "stroop-trial-1-congruent-1", "trial_type": "html-keyboard-response", "trial_index": 110, "time_elapsed": 214628, "internal_node_id": "0.0-6.0-15.0"}}, {"uniqueid": "w74919635:a83532818", "current_trial": 111, "dateTime": 1664555070218, "trialdata": {"rt": 433, "stimulus": "<p id='stroop-text' class='stroop-yellow'>WINDOW</p>", "response": "y", "stimulus-type": "unrelated", "word": "WINDOW", "color": "yellow", "correct_response": "y", "trial_id": "stroop-trial-1-unrelated-27", "trial_type": "html-keyboard-response", "trial_index": 111, "time_elapsed": 215563, "internal_node_id": "0.0-6.0-16.0"}}, {"uniqueid": "w74919635:a83532818", "current_trial": 112, "dateTime": 1664555071302, "trialdata": {"rt": 583, "stimulus": "<p id='stroop-text' class='stroop-red'>BLUE</p>", "response": "r", "stimulus-type": "incongruent", "word": "blue", "color": "red", "correct_response": "r", "trial_id": "stroop-trial-1-incongruent-28", "trial_type": "html-keyboard-response", "trial_index": 112, "time_elapsed": 216648, "internal_node_id": "0.0-6.0-17.0"}}, {"uniqueid": "w74919635:a83532818", "current_trial": 113, "dateTime": 1664555072271, "trialdata": {"rt": 466, "stimulus": "<p id='stroop-text' class='stroop-yellow'>YELLOW</p>", "response": "y", "stimulus-type": "congruent", "word": "yellow", "color": "yellow", "correct_response": "y", "trial_id": "stroop-trial-1-congruent-7", "trial_type": "html-keyboard-response", "trial_index": 113, "time_elapsed": 217617, "internal_node_id": "0.0-6.0-18.0"}}, {"uniqueid": "w74919635:a83532818", "current_trial": 114, "dateTime": 1664555073155, "trialdata": {"rt": 382, "stimulus": "<p id='stroop-text' class='stroop-yellow'>BRIDGE</p>", "response": "y", "stimulus-type": "unrelated", "word": "BRIDGE", "color": "yellow", "correct_response": "y", "trial_id": "stroop-trial-1-unrelated-25", "trial_type": "html-keyboard-response", "trial_index": 114, "time_elapsed": 218501, "internal_node_id": "0.0-6.0-19.0"}}, {"uniqueid": "w74919635:a83532818", "current_trial": 115, "dateTime": 1664555074591, "trialdata": {"rt": 935, "stimulus": "<p id='stroop-text' class='stroop-blue'>GREEN</p>", "response": "b", "stimulus-type": "incongruent", "word": "green", "color": "blue", "correct_response": "b", "trial_id": "stroop-trial-1-incongruent-7", "trial_type": "html-keyboard-response", "trial_index": 115, "time_elapsed": 219937, "internal_node_id": "0.0-6.0-20.0"}}, {"uniqueid": "w74919635:a83532818", "current_trial": 116, "dateTime": 1664555075413, "trialdata": {"rt": 321, "stimulus": "<p id='stroop-text' class='stroop-blue'>STONE</p>", "response": "b", "stimulus-type": "unrelated", "word": "STONE", "color": "blue", "correct_response": "b", "trial_id": "stroop-trial-1-unrelated-19", "trial_type": "html-keyboard-response", "trial_index": 116, "time_elapsed": 220759, "internal_node_id": "0.0-6.0-21.0"}}, {"uniqueid": "w74919635:a83532818", "current_trial": 117, "dateTime": 1664555076245, "trialdata": {"rt": 330, "stimulus": "<p id='stroop-text' class='stroop-blue'>CHAIR</p>", "response": "b", "stimulus-type": "unrelated", "word": "CHAIR", "color": "blue", "correct_response": "b", "trial_id": "stroop-trial-1-unrelated-6", "trial_type": "html-keyboard-response", "trial_index": 117, "time_elapsed": 221591, "internal_node_id": "0.0-6.0-22.0"}}, {"uniqueid": "w74919635:a83532818", "current_trial": 118, "dateTime": 1664555077317, "trialdata": {"rt": 570, "stimulus": "<p id='stroop-text' class='stroop-green'>CHAIR</p>", "response": "g", "stimulus-type": "unrelated", "word": "CHAIR", "color": "green", "correct_response": "g", "trial_id": "stroop-trial-1-unrelated-7", "trial_type": "html-keyboard-response", "trial_index": 118, "time_elapsed": 222663, "internal_node_id": "0.0-6.0-23.0"}}, {"uniqueid": "w74919635:a83532818", "current_trial": 119, "dateTime": 1664555078166, "trialdata": {"rt": 347, "stimulus": "<p id='stroop-text' class='stroop-green'>BLUE</p>", "response": "g", "stimulus-type": "incongruent", "word": "blue", "color": "green", "correct_response": "g", "trial_id": "stroop-trial-1-incongruent-2", "trial_type": "html-keyboard-response", "trial_index": 119, "time_elapsed": 223512, "internal_node_id": "0.0-6.0-24.0"}}, {"uniqueid": "w74919635:a83532818", "current_trial": 120, "dateTime": 1664555079154, "trialdata": {"rt": 486, "stimulus": "<p id='stroop-text' class='stroop-yellow'>YELLOW</p>", "response": "y", "stimulus-type": "congruent", "word": "yellow", "color": "yellow", "correct_response": "y", "trial_id": "stroop-trial-1-congruent-27", "trial_type": "html-keyboard-response", "trial_index": 120, "time_elapsed": 224499, "internal_node_id": "0.0-6.0-25.0"}}, {"uniqueid": "w74919635:a83532818", "current_trial": 121, "dateTime": 1664555080260, "trialdata": {"rt": 604, "stimulus": "<p id='stroop-text' class='stroop-green'>RED</p>", "response": "g", "stimulus-type": "incongruent", "word": "red", "color": "green", "correct_response": "g", "trial_id": "stroop-trial-1-incongruent-24", "trial_type": "html-keyboard-response", "trial_index": 121, "time_elapsed": 225606, "internal_node_id": "0.0-6.0-26.0"}}, {"uniqueid": "w74919635:a83532818", "current_trial": 122, "dateTime": 1664555081229, "trialdata": {"rt": 466, "stimulus": "<p id='stroop-text' class='stroop-blue'>BLUE</p>", "response": "b", "stimulus-type": "congruent", "word": "blue", "color": "blue", "correct_response": "b", "trial_id": "stroop-trial-1-congruent-10", "trial_type": "html-keyboard-response", "trial_index": 122, "time_elapsed": 226575, "internal_node_id": "0.0-6.0-27.0"}}, {"uniqueid": "w74919635:a83532818", "current_trial": 123, "dateTime": 1664555082056, "trialdata": {"rt": 326, "stimulus": "<p id='stroop-text' class='stroop-yellow'>YELLOW</p>", "response": "y", "stimulus-type": "congruent", "word": "yellow", "color": "yellow", "correct_response": "y", "trial_id": "stroop-trial-1-congruent-14", "trial_type": "html-keyboard-response", "trial_index": 123, "time_elapsed": 227402, "internal_node_id": "0.0-6.0-28.0"}}, {"uniqueid": "w74919635:a83532818", "current_trial": 124, "dateTime": 1664555082911, "trialdata": {"rt": 353, "stimulus": "<p id='stroop-text' class='stroop-green'>GREEN</p>", "response": "y", "stimulus-type": "congruent", "word": "green", "color": "green", "correct_response": "g", "trial_id": "stroop-trial-1-congruent-6", "trial_type": "html-keyboard-response", "trial_index": 124, "time_elapsed": 228257, "internal_node_id": "0.0-6.0-29.0"}}, {"uniqueid": "w74919635:a83532818", "current_trial": 125, "dateTime": 1664555084245, "trialdata": {"rt": 833, "stimulus": "<p id='stroop-text' class='stroop-red'>RED</p>", "response": "r", "stimulus-type": "congruent", "word": "red", "color": "red", "correct_response": "r", "trial_id": "stroop-trial-1-congruent-4", "trial_type": "html-keyboard-response", "trial_index": 125, "time_elapsed": 229591, "internal_node_id": "0.0-6.0-30.0"}}, {"uniqueid": "w74919635:a83532818", "current_trial": 126, "dateTime": 1664555085671, "trialdata": {"rt": 924, "stimulus": "<p id='stroop-text' class='stroop-red'>GREEN</p>", "response": "r", "stimulus-type": "incongruent", "word": "green", "color": "red", "correct_response": "r", "trial_id": "stroop-trial-1-incongruent-13", "trial_type": "html-keyboard-response", "trial_index": 126, "time_elapsed": 231017, "internal_node_id": "0.0-6.0-31.0"}}, {"uniqueid": "w74919635:a83532818", "current_trial": 127, "dateTime": 1664555086617, "trialdata": {"rt": 444, "stimulus": "<p id='stroop-text' class='stroop-red'>DOG</p>", "response": "r", "stimulus-type": "unrelated", "word": "DOG", "color": "red", "correct_response": "r", "trial_id": "stroop-trial-1-unrelated-23", "trial_type": "html-keyboard-response", "trial_index": 127, "time_elapsed": 231963, "internal_node_id": "0.0-6.0-32.0"}}, {"uniqueid": "w74919635:a83532818", "current_trial": 128, "dateTime": 1664555087649, "trialdata": {"rt": 529, "stimulus": "<p id='stroop-text' class='stroop-yellow'>YELLOW</p>", "response": "y", "stimulus-type": "congruent", "word": "yellow", "color": "yellow", "correct_response": "y", "trial_id": "stroop-trial-1-congruent-25", "trial_type": "html-keyboard-response", "trial_index": 128, "time_elapsed": 232995, "internal_node_id": "0.0-6.0-33.0"}}, {"uniqueid": "w74919635:a83532818", "current_trial": 129, "dateTime": 1664555088905, "trialdata": {"rt": 751, "stimulus": "<p id='stroop-text' class='stroop-blue'>GREEN</p>", "response": "b", "stimulus-type": "incongruent", "word": "green", "color": "blue", "correct_response": "b", "trial_id": "stroop-trial-1-incongruent-11", "trial_type": "html-keyboard-response", "trial_index": 129, "time_elapsed": 234250, "internal_node_id": "0.0-6.0-34.0"}}, {"uniqueid": "w74919635:a83532818", "current_trial": 130, "dateTime": 1664555090119, "trialdata": {"rt": 712, "stimulus": "<p id='stroop-text' class='stroop-red'>RED</p>", "response": "r", "stimulus-type": "congruent", "word": "red", "color": "red", "correct_response": "r", "trial_id": "stroop-trial-1-congruent-15", "trial_type": "html-keyboard-response", "trial_index": 130, "time_elapsed": 235465, "internal_node_id": "0.0-6.0-35.0"}}, {"uniqueid": "w74919635:a83532818", "current_trial": 131, "dateTime": 1664555091710, "trialdata": {"rt": 1089, "stimulus": "<p id='stroop-text' class='stroop-green'>BLUE</p>", "response": "g", "stimulus-type": "incongruent", "word": "blue", "color": "green", "correct_response": "g", "trial_id": "stroop-trial-1-incongruent-27", "trial_type": "html-keyboard-response", "trial_index": 131, "time_elapsed": 237056, "internal_node_id": "0.0-6.0-36.0"}}, {"uniqueid": "w74919635:a83532818", "current_trial": 132, "dateTime": 1664555092816, "trialdata": {"rt": 605, "stimulus": "<p id='stroop-text' class='stroop-yellow'>WINDOW</p>", "response": "y", "stimulus-type": "unrelated", "word": "WINDOW", "color": "yellow", "correct_response": "y", "trial_id": "stroop-trial-1-unrelated-24", "trial_type": "html-keyboard-response", "trial_index": 132, "time_elapsed": 238162, "internal_node_id": "0.0-6.0-37.0"}}, {"uniqueid": "w74919635:a83532818", "current_trial": 133, "dateTime": 1664555093717, "trialdata": {"rt": 400, "stimulus": "<p id='stroop-text' class='stroop-green'>WINDOW</p>", "response": "y", "stimulus-type": "unrelated", "word": "WINDOW", "color": "green", "correct_response": "g", "trial_id": "stroop-trial-1-unrelated-4", "trial_type": "html-keyboard-response", "trial_index": 133, "time_elapsed": 239063, "internal_node_id": "0.0-6.0-38.0"}}, {"uniqueid": "w74919635:a83532818", "current_trial": 134, "dateTime": 1664555095473, "trialdata": {"rt": 1255, "stimulus": "<p id='stroop-text' class='stroop-red'>RED</p>", "response": "r", "stimulus-type": "congruent", "word": "red", "color": "red", "correct_response": "r", "trial_id": "stroop-trial-1-congruent-17", "trial_type": "html-keyboard-response", "trial_index": 134, "time_elapsed": 240819, "internal_node_id": "0.0-6.0-39.0"}}, {"uniqueid": "w74919635:a83532818", "current_trial": 135, "dateTime": 1664555097098, "trialdata": {"rt": 1112, "stimulus": "<p id='stroop-text' class='stroop-yellow'>RED</p>", "response": "y", "stimulus-type": "incongruent", "word": "red", "color": "yellow", "correct_response": "y", "trial_id": "stroop-trial-1-incongruent-6", "trial_type": "html-keyboard-response", "trial_index": 135, "time_elapsed": 242444, "internal_node_id": "0.0-6.0-40.0"}}, {"uniqueid": "w74919635:a83532818", "current_trial": 136, "dateTime": 1664555098856, "trialdata": {"rt": 1255, "stimulus": "<p id='stroop-text' class='stroop-green'>YELLOW</p>", "response": "g", "stimulus-type": "incongruent", "word": "yellow", "color": "green", "correct_response": "g", "trial_id": "stroop-trial-1-incongruent-3", "trial_type": "html-keyboard-response", "trial_index": 136, "time_elapsed": 244201, "internal_node_id": "0.0-6.0-41.0"}}, {"uniqueid": "w74919635:a83532818", "current_trial": 137, "dateTime": 1664555099882, "trialdata": {"rt": 524, "stimulus": "<p id='stroop-text' class='stroop-blue'>YELLOW</p>", "response": "b", "stimulus-type": "incongruent", "word": "yellow", "color": "blue", "correct_response": "b", "trial_id": "stroop-trial-1-incongruent-1", "trial_type": "html-keyboard-response", "trial_index": 137, "time_elapsed": 245228, "internal_node_id": "0.0-6.0-42.0"}}, {"uniqueid": "w74919635:a83532818", "current_trial": 138, "dateTime": 1664555101843, "trialdata": {"rt": 1460, "stimulus": "<p id='stroop-text' class='stroop-yellow'>RED</p>", "response": "y", "stimulus-type": "incongruent", "word": "red", "color": "yellow", "correct_response": "y", "trial_id": "stroop-trial-1-incongruent-18", "trial_type": "html-keyboard-response", "trial_index": 138, "time_elapsed": 247189, "internal_node_id": "0.0-6.0-43.0"}}, {"uniqueid": "w74919635:a83532818", "current_trial": 139, "dateTime": 1664555103138, "trialdata": {"rt": 791, "stimulus": "<p id='stroop-text' class='stroop-green'>RED</p>", "response": "g", "stimulus-type": "incongruent", "word": "red", "color": "green", "correct_response": "g", "trial_id": "stroop-trial-1-incongruent-5", "trial_type": "html-keyboard-response", "trial_index": 139, "time_elapsed": 248484, "internal_node_id": "0.0-6.0-44.0"}}, {"uniqueid": "w74919635:a83532818", "current_trial": 140, "dateTime": 1664555104204, "trialdata": {"rt": 564, "stimulus": "<p id='stroop-text' class='stroop-blue'>BLUE</p>", "response": "b", "stimulus-type": "congruent", "word": "blue", "color": "blue", "correct_response": "b", "trial_id": "stroop-trial-1-congruent-29", "trial_type": "html-keyboard-response", "trial_index": 140, "time_elapsed": 249550, "internal_node_id": "0.0-6.0-45.0"}}, {"uniqueid": "w74919635:a83532818", "current_trial": 141, "dateTime": 1664555105270, "trialdata": {"rt": 564, "stimulus": "<p id='stroop-text' class='stroop-red'>BLUE</p>", "response": "r", "stimulus-type": "incongruent", "word": "blue", "color": "red", "correct_response": "r", "trial_id": "stroop-trial-1-incongruent-20", "trial_type": "html-keyboard-response", "trial_index": 141, "time_elapsed": 250616, "internal_node_id": "0.0-6.0-46.0"}}, {"uniqueid": "w74919635:a83532818", "current_trial": 142, "dateTime": 1664555106131, "trialdata": {"rt": 359, "stimulus": "<p id='stroop-text' class='stroop-red'>RED</p>", "response": "r", "stimulus-type": "congruent", "word": "red", "color": "red", "correct_response": "r", "trial_id": "stroop-trial-1-congruent-19", "trial_type": "html-keyboard-response", "trial_index": 142, "time_elapsed": 251477, "internal_node_id": "0.0-6.0-47.0"}}, {"uniqueid": "w74919635:a83532818", "current_trial": 143, "dateTime": 1664555107289, "trialdata": {"rt": 656, "stimulus": "<p id='stroop-text' class='stroop-green'>BLUE</p>", "response": "g", "stimulus-type": "incongruent", "word": "blue", "color": "green", "correct_response": "g", "trial_id": "stroop-trial-1-incongruent-14", "trial_type": "html-keyboard-response", "trial_index": 143, "time_elapsed": 252635, "internal_node_id": "0.0-6.0-48.0"}}, {"uniqueid": "w74919635:a83532818", "current_trial": 144, "dateTime": 1664555108647, "trialdata": {"rt": 855, "stimulus": "<p id='stroop-text' class='stroop-blue'>RED</p>", "response": "b", "stimulus-type": "incongruent", "word": "red", "color": "blue", "correct_response": "b", "trial_id": "stroop-trial-1-incongruent-26", "trial_type": "html-keyboard-response", "trial_index": 144, "time_elapsed": 253992, "internal_node_id": "0.0-6.0-49.0"}}, {"uniqueid": "w74919635:a83532818", "current_trial": 145, "dateTime": 1664555110249, "trialdata": {"rt": 1100, "stimulus": "<p id='stroop-text' class='stroop-green'>GREEN</p>", "response": "g", "stimulus-type": "congruent", "word": "green", "color": "green", "correct_response": "g", "trial_id": "stroop-trial-1-congruent-30", "trial_type": "html-keyboard-response", "trial_index": 145, "time_elapsed": 255595, "internal_node_id": "0.0-6.0-50.0"}}, {"uniqueid": "w74919635:a83532818", "current_trial": 146, "dateTime": 1664555111281, "trialdata": {"rt": 530, "stimulus": "<p id='stroop-text' class='stroop-yellow'>YELLOW</p>", "response": "y", "stimulus-type": "congruent", "word": "yellow", "color": "yellow", "correct_response": "y", "trial_id": "stroop-trial-1-congruent-26", "trial_type": "html-keyboard-response", "trial_index": 146, "time_elapsed": 256627, "internal_node_id": "0.0-6.0-51.0"}}, {"uniqueid": "w74919635:a83532818", "current_trial": 147, "dateTime": 1664555112273, "trialdata": {"rt": 489, "stimulus": "<p id='stroop-text' class='stroop-green'>BOTTLE</p>", "response": "y", "stimulus-type": "unrelated", "word": "BOTTLE", "color": "green", "correct_response": "g", "trial_id": "stroop-trial-1-unrelated-18", "trial_type": "html-keyboard-response", "trial_index": 147, "time_elapsed": 257619, "internal_node_id": "0.0-6.0-52.0"}}, {"uniqueid": "w74919635:a83532818", "current_trial": 148, "dateTime": 1664555114680, "trialdata": {"rt": 1906, "stimulus": "<p id='stroop-text' class='stroop-red'>GREEN</p>", "response": "r", "stimulus-type": "incongruent", "word": "green", "color": "red", "correct_response": "r", "trial_id": "stroop-trial-1-incongruent-16", "trial_type": "html-keyboard-response", "trial_index": 148, "time_elapsed": 260026, "internal_node_id": "0.0-6.0-53.0"}}, {"uniqueid": "w74919635:a83532818", "current_trial": 149, "dateTime": 1664555115740, "trialdata": {"rt": 558, "stimulus": "<p id='stroop-text' class='stroop-yellow'>WINDOW</p>", "response": "y", "stimulus-type": "unrelated", "word": "WINDOW", "color": "yellow", "correct_response": "y", "trial_id": "stroop-trial-1-unrelated-10", "trial_type": "html-keyboard-response", "trial_index": 149, "time_elapsed": 261086, "internal_node_id": "0.0-6.0-54.0"}}, {"uniqueid": "w74919635:a83532818", "current_trial": 150, "dateTime": 1664555116886, "trialdata": {"rt": 644, "stimulus": "<p id='stroop-text' class='stroop-red'>YELLOW</p>", "response": "r", "stimulus-type": "incongruent", "word": "yellow", "color": "red", "correct_response": "r", "trial_id": "stroop-trial-1-incongruent-4", "trial_type": "html-keyboard-response", "trial_index": 150, "time_elapsed": 262232, "internal_node_id": "0.0-6.0-55.0"}}, {"uniqueid": "w74919635:a83532818", "current_trial": 151, "dateTime": 1664555118147, "trialdata": {"rt": 759, "stimulus": "<p id='stroop-text' class='stroop-green'>RED</p>", "response": "g", "stimulus-type": "incongruent", "word": "red", "color": "green", "correct_response": "g", "trial_id": "stroop-trial-1-incongruent-29", "trial_type": "html-keyboard-response", "trial_index": 151, "time_elapsed": 263492, "internal_node_id": "0.0-6.0-56.0"}}, {"uniqueid": "w74919635:a83532818", "current_trial": 152, "dateTime": 1664555119476, "trialdata": {"rt": 827, "stimulus": "<p id='stroop-text' class='stroop-red'>YELLOW</p>", "response": "r", "stimulus-type": "incongruent", "word": "yellow", "color": "red", "correct_response": "r", "trial_id": "stroop-trial-1-incongruent-9", "trial_type": "html-keyboard-response", "trial_index": 152, "time_elapsed": 264821, "internal_node_id": "0.0-6.0-57.0"}}, {"uniqueid": "w74919635:a83532818", "current_trial": 153, "dateTime": 1664555120662, "trialdata": {"rt": 684, "stimulus": "<p id='stroop-text' class='stroop-yellow'>FORK</p>", "response": "y", "stimulus-type": "unrelated", "word": "FORK", "color": "yellow", "correct_response": "y", "trial_id": "stroop-trial-1-unrelated-12", "trial_type": "html-keyboard-response", "trial_index": 153, "time_elapsed": 266008, "internal_node_id": "0.0-6.0-58.0"}}, {"uniqueid": "w74919635:a83532818", "current_trial": 154, "dateTime": 1664555121979, "trialdata": {"rt": 816, "stimulus": "<p id='stroop-text' class='stroop-green'>WINDOW</p>", "response": "g", "stimulus-type": "unrelated", "word": "WINDOW", "color": "green", "correct_response": "g", "trial_id": "stroop-trial-1-unrelated-2", "trial_type": "html-keyboard-response", "trial_index": 154, "time_elapsed": 267325, "internal_node_id": "0.0-6.0-59.0"}}, {"uniqueid": "w74919635:a83532818", "current_trial": 155, "dateTime": 1664555123142, "trialdata": {"rt": 661, "stimulus": "<p id='stroop-text' class='stroop-red'>YELLOW</p>", "response": "r", "stimulus-type": "incongruent", "word": "yellow", "color": "red", "correct_response": "r", "trial_id": "stroop-trial-1-incongruent-25", "trial_type": "html-keyboard-response", "trial_index": 155, "time_elapsed": 268488, "internal_node_id": "0.0-6.0-60.0"}}, {"uniqueid": "w74919635:a83532818", "current_trial": 156, "dateTime": 1664555124334, "trialdata": {"rt": 690, "stimulus": "<p id='stroop-text' class='stroop-yellow'>YELLOW</p>", "response": "y", "stimulus-type": "congruent", "word": "yellow", "color": "yellow", "correct_response": "y", "trial_id": "stroop-trial-1-congruent-2", "trial_type": "html-keyboard-response", "trial_index": 156, "time_elapsed": 269680, "internal_node_id": "0.0-6.0-61.0"}}, {"uniqueid": "w74919635:a83532818", "current_trial": 157, "dateTime": 1664555125405, "trialdata": {"rt": 568, "stimulus": "<p id='stroop-text' class='stroop-green'>RED</p>", "response": "g", "stimulus-type": "incongruent", "word": "red", "color": "green", "correct_response": "g", "trial_id": "stroop-trial-1-incongruent-12", "trial_type": "html-keyboard-response", "trial_index": 157, "time_elapsed": 270751, "internal_node_id": "0.0-6.0-62.0"}}, {"uniqueid": "w74919635:a83532818", "current_trial": 158, "dateTime": 1664555126517, "trialdata": {"rt": 610, "stimulus": "<p id='stroop-text' class='stroop-blue'>BLUE</p>", "response": "b", "stimulus-type": "congruent", "word": "blue", "color": "blue", "correct_response": "b", "trial_id": "stroop-trial-1-congruent-24", "trial_type": "html-keyboard-response", "trial_index": 158, "time_elapsed": 271863, "internal_node_id": "0.0-6.0-63.0"}}, {"uniqueid": "w74919635:a83532818", "current_trial": 159, "dateTime": 1664555127646, "trialdata": {"rt": 627, "stimulus": "<p id='stroop-text' class='stroop-yellow'>FORK</p>", "response": "y", "stimulus-type": "unrelated", "word": "FORK", "color": "yellow", "correct_response": "y", "trial_id": "stroop-trial-1-unrelated-30", "trial_type": "html-keyboard-response", "trial_index": 159, "time_elapsed": 272992, "internal_node_id": "0.0-6.0-64.0"}}, {"uniqueid": "w74919635:a83532818", "current_trial": 160, "dateTime": 1664555128712, "trialdata": {"rt": 564, "stimulus": "<p id='stroop-text' class='stroop-red'>GREEN</p>", "response": "r", "stimulus-type": "incongruent", "word": "green", "color": "red", "correct_response": "r", "trial_id": "stroop-trial-1-incongruent-30", "trial_type": "html-keyboard-response", "trial_index": 160, "time_elapsed": 274058, "internal_node_id": "0.0-6.0-65.0"}}, {"uniqueid": "w74919635:a83532818", "current_trial": 161, "dateTime": 1664555129665, "trialdata": {"rt": 449, "stimulus": "<p id='stroop-text' class='stroop-yellow'>YELLOW</p>", "response": "y", "stimulus-type": "congruent", "word": "yellow", "color": "yellow", "correct_response": "y", "trial_id": "stroop-trial-1-congruent-16", "trial_type": "html-keyboard-response", "trial_index": 161, "time_elapsed": 275010, "internal_node_id": "0.0-6.0-66.0"}}, {"uniqueid": "w74919635:a83532818", "current_trial": 162, "dateTime": 1664555130589, "trialdata": {"rt": 421, "stimulus": "<p id='stroop-text' class='stroop-yellow'>CHAIR</p>", "response": "y", "stimulus-type": "unrelated", "word": "CHAIR", "color": "yellow", "correct_response": "y", "trial_id": "stroop-trial-1-unrelated-16", "trial_type": "html-keyboard-response", "trial_index": 162, "time_elapsed": 275935, "internal_node_id": "0.0-6.0-67.0"}}, {"uniqueid": "w74919635:a83532818", "current_trial": 163, "dateTime": 1664555131439, "trialdata": {"rt": 349, "stimulus": "<p id='stroop-text' class='stroop-yellow'>SHIP</p>", "response": "y", "stimulus-type": "unrelated", "word": "SHIP", "color": "yellow", "correct_response": "y", "trial_id": "stroop-trial-1-unrelated-22", "trial_type": "html-keyboard-response", "trial_index": 163, "time_elapsed": 276785, "internal_node_id": "0.0-6.0-68.0"}}, {"uniqueid": "w74919635:a83532818", "current_trial": 164, "dateTime": 1664555132528, "trialdata": {"rt": 587, "stimulus": "<p id='stroop-text' class='stroop-blue'>BRAIN</p>", "response": "g", "stimulus-type": "unrelated", "word": "BRAIN", "color": "blue", "correct_response": "b", "trial_id": "stroop-trial-1-unrelated-14", "trial_type": "html-keyboard-response", "trial_index": 164, "time_elapsed": 277874, "internal_node_id": "0.0-6.0-69.0"}}, {"uniqueid": "w74919635:a83532818", "current_trial": 165, "dateTime": 1664555133548, "trialdata": {"rt": 518, "stimulus": "<p id='stroop-text' class='stroop-blue'>BRAIN</p>", "response": "b", "stimulus-type": "unrelated", "word": "BRAIN", "color": "blue", "correct_response": "b", "trial_id": "stroop-trial-1-unrelated-29", "trial_type": "html-keyboard-response", "trial_index": 165, "time_elapsed": 278894, "internal_node_id": "0.0-6.0-70.0"}}, {"uniqueid": "w74919635:a83532818", "current_trial": 166, "dateTime": 1664555134610, "trialdata": {"rt": 558, "stimulus": "<p id='stroop-text' class='stroop-yellow'>BLUE</p>", "response": "y", "stimulus-type": "incongruent", "word": "blue", "color": "yellow", "correct_response": "y", "trial_id": "stroop-trial-1-incongruent-22", "trial_type": "html-keyboard-response", "trial_index": 166, "time_elapsed": 279955, "internal_node_id": "0.0-6.0-71.0"}}, {"uniqueid": "w74919635:a83532818", "current_trial": 167, "dateTime": 1664555135527, "trialdata": {"rt": 414, "stimulus": "<p id='stroop-text' class='stroop-yellow'>MONKEY</p>", "response": "y", "stimulus-type": "unrelated", "word": "MONKEY", "color": "yellow", "correct_response": "y", "trial_id": "stroop-trial-1-unrelated-17", "trial_type": "html-keyboard-response", "trial_index": 167, "time_elapsed": 280873, "internal_node_id": "0.0-6.0-72.0"}}, {"uniqueid": "w74919635:a83532818", "current_trial": 168, "dateTime": 1664555136758, "trialdata": {"rt": 729, "stimulus": "<p id='stroop-text' class='stroop-red'>DOG</p>", "response": "r", "stimulus-type": "unrelated", "word": "DOG", "color": "red", "correct_response": "r", "trial_id": "stroop-trial-1-unrelated-15", "trial_type": "html-keyboard-response", "trial_index": 168, "time_elapsed": 282104, "internal_node_id": "0.0-6.0-73.0"}}, {"uniqueid": "w74919635:a83532818", "current_trial": 169, "dateTime": 1664555138332, "trialdata": {"rt": 1072, "stimulus": "<p id='stroop-text' class='stroop-yellow'>YELLOW</p>", "response": "y", "stimulus-type": "congruent", "word": "yellow", "color": "yellow", "correct_response": "y", "trial_id": "stroop-trial-1-congruent-3", "trial_type": "html-keyboard-response", "trial_index": 169, "time_elapsed": 283678, "internal_node_id": "0.0-6.0-74.0"}}, {"uniqueid": "w74919635:a83532818", "current_trial": 170, "dateTime": 1664555139399, "trialdata": {"rt": 564, "stimulus": "<p id='stroop-text' class='stroop-red'>RED</p>", "response": "r", "stimulus-type": "congruent", "word": "red", "color": "red", "correct_response": "r", "trial_id": "stroop-trial-1-congruent-18", "trial_type": "html-keyboard-response", "trial_index": 170, "time_elapsed": 284744, "internal_node_id": "0.0-6.0-75.0"}}, {"uniqueid": "w74919635:a83532818", "current_trial": 171, "dateTime": 1664555140499, "trialdata": {"rt": 599, "stimulus": "<p id='stroop-text' class='stroop-blue'>GREEN</p>", "response": "b", "stimulus-type": "incongruent", "word": "green", "color": "blue", "correct_response": "b", "trial_id": "stroop-trial-1-incongruent-15", "trial_type": "html-keyboard-response", "trial_index": 171, "time_elapsed": 285844, "internal_node_id": "0.0-6.0-76.0"}}, {"uniqueid": "w74919635:a83532818", "current_trial": 172, "dateTime": 1664555141674, "trialdata": {"rt": 672, "stimulus": "<p id='stroop-text' class='stroop-red'>BOTTLE</p>", "response": "r", "stimulus-type": "unrelated", "word": "BOTTLE", "color": "red", "correct_response": "r", "trial_id": "stroop-trial-1-unrelated-28", "trial_type": "html-keyboard-response", "trial_index": 172, "time_elapsed": 287020, "internal_node_id": "0.0-6.0-77.0"}}, {"uniqueid": "w74919635:a83532818", "current_trial": 173, "dateTime": 1664555142626, "trialdata": {"rt": 450, "stimulus": "<p id='stroop-text' class='stroop-red'>RED</p>", "response": "r", "stimulus-type": "congruent", "word": "red", "color": "red", "correct_response": "r", "trial_id": "stroop-trial-1-congruent-9", "trial_type": "html-keyboard-response", "trial_index": 173, "time_elapsed": 287972, "internal_node_id": "0.0-6.0-78.0"}}, {"uniqueid": "w74919635:a83532818", "current_trial": 174, "dateTime": 1664555143515, "trialdata": {"rt": 387, "stimulus": "<p id='stroop-text' class='stroop-red'>FORK</p>", "response": "r", "stimulus-type": "unrelated", "word": "FORK", "color": "red", "correct_response": "r", "trial_id": "stroop-trial-1-unrelated-8", "trial_type": "html-keyboard-response", "trial_index": 174, "time_elapsed": 288861, "internal_node_id": "0.0-6.0-79.0"}}, {"uniqueid": "w74919635:a83532818", "current_trial": 175, "dateTime": 1664555144576, "trialdata": {"rt": 559, "stimulus": "<p id='stroop-text' class='stroop-blue'>BLUE</p>", "response": "b", "stimulus-type": "congruent", "word": "blue", "color": "blue", "correct_response": "b", "trial_id": "stroop-trial-1-congruent-20", "trial_type": "html-keyboard-response", "trial_index": 175, "time_elapsed": 289922, "internal_node_id": "0.0-6.0-80.0"}}, {"uniqueid": "w74919635:a83532818", "current_trial": 176, "dateTime": 1664555145699, "trialdata": {"rt": 620, "stimulus": "<p id='stroop-text' class='stroop-red'>FORK</p>", "response": "r", "stimulus-type": "unrelated", "word": "FORK", "color": "red", "correct_response": "r", "trial_id": "stroop-trial-1-unrelated-21", "trial_type": "html-keyboard-response", "trial_index": 176, "time_elapsed": 291045, "internal_node_id": "0.0-6.0-81.0"}}, {"uniqueid": "w74919635:a83532818", "current_trial": 177, "dateTime": 1664555146691, "trialdata": {"rt": 490, "stimulus": "<p id='stroop-text' class='stroop-red'>BLUE</p>", "response": "r", "stimulus-type": "incongruent", "word": "blue", "color": "red", "correct_response": "r", "trial_id": "stroop-trial-1-incongruent-23", "trial_type": "html-keyboard-response", "trial_index": 177, "time_elapsed": 292037, "internal_node_id": "0.0-6.0-82.0"}}, {"uniqueid": "w74919635:a83532818", "current_trial": 178, "dateTime": 1664555147672, "trialdata": {"rt": 479, "stimulus": "<p id='stroop-text' class='stroop-red'>DOG</p>", "response": "r", "stimulus-type": "unrelated", "word": "DOG", "color": "red", "correct_response": "r", "trial_id": "stroop-trial-1-unrelated-11", "trial_type": "html-keyboard-response", "trial_index": 178, "time_elapsed": 293018, "internal_node_id": "0.0-6.0-83.0"}}, {"uniqueid": "w74919635:a83532818", "current_trial": 179, "dateTime": 1664555148613, "trialdata": {"rt": 438, "stimulus": "<p id='stroop-text' class='stroop-blue'>BRAIN</p>", "response": "b", "stimulus-type": "unrelated", "word": "BRAIN", "color": "blue", "correct_response": "b", "trial_id": "stroop-trial-1-unrelated-5", "trial_type": "html-keyboard-response", "trial_index": 179, "time_elapsed": 293958, "internal_node_id": "0.0-6.0-84.0"}}, {"uniqueid": "w74919635:a83532818", "current_trial": 180, "dateTime": 1664555149822, "trialdata": {"rt": 706, "stimulus": "<p id='stroop-text' class='stroop-red'>RED</p>", "response": "r", "stimulus-type": "congruent", "word": "red", "color": "red", "correct_response": "r", "trial_id": "stroop-trial-1-congruent-28", "trial_type": "html-keyboard-response", "trial_index": 180, "time_elapsed": 295168, "internal_node_id": "0.0-6.0-85.0"}}, {"uniqueid": "w74919635:a83532818", "current_trial": 181, "dateTime": 1664555150894, "trialdata": {"rt": 571, "stimulus": "<p id='stroop-text' class='stroop-green'>GREEN</p>", "response": "g", "stimulus-type": "congruent", "word": "green", "color": "green", "correct_response": "g", "trial_id": "stroop-trial-1-congruent-21", "trial_type": "html-keyboard-response", "trial_index": 181, "time_elapsed": 296240, "internal_node_id": "0.0-6.0-86.0"}}, {"uniqueid": "w74919635:a83532818", "current_trial": 182, "dateTime": 1664555151914, "trialdata": {"rt": 518, "stimulus": "<p id='stroop-text' class='stroop-red'>RED</p>", "response": "r", "stimulus-type": "congruent", "word": "red", "color": "red", "correct_response": "r", "trial_id": "stroop-trial-1-congruent-12", "trial_type": "html-keyboard-response", "trial_index": 182, "time_elapsed": 297260, "internal_node_id": "0.0-6.0-87.0"}}, {"uniqueid": "w74919635:a83532818", "current_trial": 183, "dateTime": 1664555153015, "trialdata": {"rt": 599, "stimulus": "<p id='stroop-text' class='stroop-green'>GREEN</p>", "response": "g", "stimulus-type": "congruent", "word": "green", "color": "green", "correct_response": "g", "trial_id": "stroop-trial-1-congruent-8", "trial_type": "html-keyboard-response", "trial_index": 183, "time_elapsed": 298361, "internal_node_id": "0.0-6.0-88.0"}}, {"uniqueid": "w74919635:a83532818", "current_trial": 184, "dateTime": 1664555153961, "trialdata": {"rt": 444, "stimulus": "<p id='stroop-text' class='stroop-red'>MONKEY</p>", "response": "r", "stimulus-type": "unrelated", "word": "MONKEY", "color": "red", "correct_response": "r", "trial_id": "stroop-trial-1-unrelated-3", "trial_type": "html-keyboard-response", "trial_index": 184, "time_elapsed": 299307, "internal_node_id": "0.0-6.0-89.0"}}, {"uniqueid": "w74919635:a83532818", "current_trial": 185, "dateTime": 1664555156470, "trialdata": {"rt": 2007, "stimulus": "  <h1> End of block! </h1>\n\n  You have reached the end of the block 2/5. If you need a short break, feel free to take one now before moving on.\n\n  <br><br>\n  In the next block, you will complete another 90 rounds of this game.\n\n  <br><br>\n  <div style='text-align: center;'>Press <code>space</code> to begin.</div>\n  <br><br>\n<div style='text-align: center;'>(If the experiment doesn't continue, try clicking on the text and then pressing <code>space</code>.)</div>", "response": " ", "trial_id": "stroop_1_ready_3", "trial_type": "html-keyboard-response", "trial_index": 185, "time_elapsed": 301816, "internal_node_id": "0.0-7.0"}}, {"uniqueid": "w74919635:a83532818", "current_trial": 186, "dateTime": 1664555157365, "trialdata": {"rt": 893, "stimulus": "<p id='stroop-text' class='stroop-green'>YELLOW</p>", "response": "g", "stimulus-type": "incongruent", "word": "yellow", "color": "green", "correct_response": "g", "trial_id": "stroop-trial-1-incongruent-28", "trial_type": "html-keyboard-response", "trial_index": 186, "time_elapsed": 302711, "internal_node_id": "0.0-8.0-0.0"}}, {"uniqueid": "w74919635:a83532818", "current_trial": 187, "dateTime": 1664555158438, "trialdata": {"rt": 570, "stimulus": "<p id='stroop-text' class='stroop-blue'>GREEN</p>", "response": "b", "stimulus-type": "incongruent", "word": "green", "color": "blue", "correct_response": "b", "trial_id": "stroop-trial-1-incongruent-14", "trial_type": "html-keyboard-response", "trial_index": 187, "time_elapsed": 303783, "internal_node_id": "0.0-8.0-1.0"}}, {"uniqueid": "w74919635:a83532818", "current_trial": 188, "dateTime": 1664555159390, "trialdata": {"rt": 451, "stimulus": "<p id='stroop-text' class='stroop-red'>RED</p>", "response": "r", "stimulus-type": "congruent", "word": "red", "color": "red", "correct_response": "r", "trial_id": "stroop-trial-1-congruent-28", "trial_type": "html-keyboard-response", "trial_index": 188, "time_elapsed": 304736, "internal_node_id": "0.0-8.0-2.0"}}, {"uniqueid": "w74919635:a83532818", "current_trial": 189, "dateTime": 1664555160451, "trialdata": {"rt": 559, "stimulus": "<p id='stroop-text' class='stroop-blue'>RED</p>", "response": "g", "stimulus-type": "incongruent", "word": "red", "color": "blue", "correct_response": "b", "trial_id": "stroop-trial-1-incongruent-11", "trial_type": "html-keyboard-response", "trial_index": 189, "time_elapsed": 305797, "internal_node_id": "0.0-8.0-3.0"}}, {"uniqueid": "w74919635:a83532818", "current_trial": 190, "dateTime": 1664555161574, "trialdata": {"rt": 620, "stimulus": "<p id='stroop-text' class='stroop-red'>BLUE</p>", "response": "r", "stimulus-type": "incongruent", "word": "blue", "color": "red", "correct_response": "r", "trial_id": "stroop-trial-1-incongruent-29", "trial_type": "html-keyboard-response", "trial_index": 190, "time_elapsed": 306920, "internal_node_id": "0.0-8.0-4.0"}}, {"uniqueid": "w74919635:a83532818", "current_trial": 191, "dateTime": 1664555162663, "trialdata": {"rt": 587, "stimulus": "<p id='stroop-text' class='stroop-blue'>RED</p>", "response": "r", "stimulus-type": "incongruent", "word": "red", "color": "blue", "correct_response": "b", "trial_id": "stroop-trial-1-incongruent-8", "trial_type": "html-keyboard-response", "trial_index": 191, "time_elapsed": 308009, "internal_node_id": "0.0-8.0-5.0"}}, {"uniqueid": "w74919635:a83532818", "current_trial": 192, "dateTime": 1664555163684, "trialdata": {"rt": 519, "stimulus": "<p id='stroop-text' class='stroop-blue'>WINDOW</p>", "response": "b", "stimulus-type": "unrelated", "word": "WINDOW", "color": "blue", "correct_response": "b", "trial_id": "stroop-trial-1-unrelated-9", "trial_type": "html-keyboard-response", "trial_index": 192, "time_elapsed": 309030, "internal_node_id": "0.0-8.0-6.0"}}, {"uniqueid": "w74919635:a83532818", "current_trial": 193, "dateTime": 1664555164773, "trialdata": {"rt": 587, "stimulus": "<p id='stroop-text' class='stroop-green'>GREEN</p>", "response": "g", "stimulus-type": "congruent", "word": "green", "color": "green", "correct_response": "g", "trial_id": "stroop-trial-1-congruent-24", "trial_type": "html-keyboard-response", "trial_index": 193, "time_elapsed": 310119, "internal_node_id": "0.0-8.0-7.0"}}, {"uniqueid": "w74919635:a83532818", "current_trial": 194, "dateTime": 1664555165714, "trialdata": {"rt": 439, "stimulus": "<p id='stroop-text' class='stroop-blue'>BLUE</p>", "response": "b", "stimulus-type": "congruent", "word": "blue", "color": "blue", "correct_response": "b", "trial_id": "stroop-trial-1-congruent-26", "trial_type": "html-keyboard-response", "trial_index": 194, "time_elapsed": 311060, "internal_node_id": "0.0-8.0-8.0"}}, {"uniqueid": "w74919635:a83532818", "current_trial": 195, "dateTime": 1664555166855, "trialdata": {"rt": 638, "stimulus": "<p id='stroop-text' class='stroop-yellow'>DOG</p>", "response": "y", "stimulus-type": "unrelated", "word": "DOG", "color": "yellow", "correct_response": "y", "trial_id": "stroop-trial-1-unrelated-6", "trial_type": "html-keyboard-response", "trial_index": 195, "time_elapsed": 312200, "internal_node_id": "0.0-8.0-9.0"}}, {"uniqueid": "w74919635:a83532818", "current_trial": 196, "dateTime": 1664555167762, "trialdata": {"rt": 405, "stimulus": "<p id='stroop-text' class='stroop-yellow'>YELLOW</p>", "response": "y", "stimulus-type": "congruent", "word": "yellow", "color": "yellow", "correct_response": "y", "trial_id": "stroop-trial-1-congruent-21", "trial_type": "html-keyboard-response", "trial_index": 196, "time_elapsed": 313107, "internal_node_id": "0.0-8.0-10.0"}}, {"uniqueid": "w74919635:a83532818", "current_trial": 197, "dateTime": 1664555168993, "trialdata": {"rt": 729, "stimulus": "<p id='stroop-text' class='stroop-green'>CHAIR</p>", "response": "g", "stimulus-type": "unrelated", "word": "CHAIR", "color": "green", "correct_response": "g", "trial_id": "stroop-trial-1-unrelated-29", "trial_type": "html-keyboard-response", "trial_index": 197, "time_elapsed": 314338, "internal_node_id": "0.0-8.0-11.0"}}, {"uniqueid": "w74919635:a83532818", "current_trial": 198, "dateTime": 1664555170287, "trialdata": {"rt": 792, "stimulus": "<p id='stroop-text' class='stroop-red'>BLUE</p>", "response": "r", "stimulus-type": "incongruent", "word": "blue", "color": "red", "correct_response": "r", "trial_id": "stroop-trial-1-incongruent-26", "trial_type": "html-keyboard-response", "trial_index": 198, "time_elapsed": 315633, "internal_node_id": "0.0-8.0-12.0"}}, {"uniqueid": "w74919635:a83532818", "current_trial": 199, "dateTime": 1664555171582, "trialdata": {"rt": 792, "stimulus": "<p id='stroop-text' class='stroop-yellow'>BOTTLE</p>", "response": "b", "stimulus-type": "unrelated", "word": "BOTTLE", "color": "yellow", "correct_response": "y", "trial_id": "stroop-trial-1-unrelated-11", "trial_type": "html-keyboard-response", "trial_index": 199, "time_elapsed": 316928, "internal_node_id": "0.0-8.0-13.0"}}, {"uniqueid": "w74919635:a83532818", "current_trial": 200, "dateTime": 1664555175099, "trialdata": {"rt": 3015, "stimulus": "<p id='stroop-text' class='stroop-red'>DOG</p>", "response": "r", "stimulus-type": "unrelated", "word": "DOG", "color": "red", "correct_response": "r", "trial_id": "stroop-trial-1-unrelated-23", "trial_type": "html-keyboard-response", "trial_index": 200, "time_elapsed": 320445, "internal_node_id": "0.0-8.0-14.0"}}, {"uniqueid": "w74919635:a83532818", "current_trial": 201, "dateTime": 1664555176023, "trialdata": {"rt": 422, "stimulus": "<p id='stroop-text' class='stroop-red'>BLUE</p>", "response": "r", "stimulus-type": "incongruent", "word": "blue", "color": "red", "correct_response": "r", "trial_id": "stroop-trial-1-incongruent-12", "trial_type": "html-keyboard-response", "trial_index": 201, "time_elapsed": 321369, "internal_node_id": "0.0-8.0-15.0"}}, {"uniqueid": "w74919635:a83532818", "current_trial": 202, "dateTime": 1664555177039, "trialdata": {"rt": 503, "stimulus": "<p id='stroop-text' class='stroop-yellow'>BRAIN</p>", "response": "y", "stimulus-type": "unrelated", "word": "BRAIN", "color": "yellow", "correct_response": "y", "trial_id": "stroop-trial-1-unrelated-18", "trial_type": "html-keyboard-response", "trial_index": 202, "time_elapsed": 322385, "internal_node_id": "0.0-8.0-16.0"}}, {"uniqueid": "w74919635:a83532818", "current_trial": 203, "dateTime": 1664555178698, "trialdata": {"rt": 1156, "stimulus": "<p id='stroop-text' class='stroop-blue'>RED</p>", "response": "b", "stimulus-type": "incongruent", "word": "red", "color": "blue", "correct_response": "b", "trial_id": "stroop-trial-1-incongruent-21", "trial_type": "html-keyboard-response", "trial_index": 203, "time_elapsed": 324043, "internal_node_id": "0.0-8.0-17.0"}}, {"uniqueid": "w74919635:a83532818", "current_trial": 204, "dateTime": 1664555179987, "trialdata": {"rt": 787, "stimulus": "<p id='stroop-text' class='stroop-yellow'>CHAIR</p>", "response": "y", "stimulus-type": "unrelated", "word": "CHAIR", "color": "yellow", "correct_response": "y", "trial_id": "stroop-trial-1-unrelated-2", "trial_type": "html-keyboard-response", "trial_index": 204, "time_elapsed": 325333, "internal_node_id": "0.0-8.0-18.0"}}, {"uniqueid": "w74919635:a83532818", "current_trial": 205, "dateTime": 1664555180871, "trialdata": {"rt": 382, "stimulus": "<p id='stroop-text' class='stroop-yellow'>DOG</p>", "response": "y", "stimulus-type": "unrelated", "word": "DOG", "color": "yellow", "correct_response": "y", "trial_id": "stroop-trial-1-unrelated-13", "trial_type": "html-keyboard-response", "trial_index": 205, "time_elapsed": 326217, "internal_node_id": "0.0-8.0-19.0"}}, {"uniqueid": "w74919635:a83532818", "current_trial": 206, "dateTime": 1664555181874, "trialdata": {"rt": 493, "stimulus": "<p id='stroop-text' class='stroop-red'>RED</p>", "response": "r", "stimulus-type": "congruent", "word": "red", "color": "red", "correct_response": "r", "trial_id": "stroop-trial-1-congruent-11", "trial_type": "html-keyboard-response", "trial_index": 206, "time_elapsed": 327220, "internal_node_id": "0.0-8.0-20.0"}}, {"uniqueid": "w74919635:a83532818", "current_trial": 207, "dateTime": 1664555182883, "trialdata": {"rt": 507, "stimulus": "<p id='stroop-text' class='stroop-blue'>BLUE</p>", "response": "b", "stimulus-type": "congruent", "word": "blue", "color": "blue", "correct_response": "b", "trial_id": "stroop-trial-1-congruent-20", "trial_type": "html-keyboard-response", "trial_index": 207, "time_elapsed": 328229, "internal_node_id": "0.0-8.0-21.0"}}, {"uniqueid": "w74919635:a83532818", "current_trial": 208, "dateTime": 1664555183795, "trialdata": {"rt": 410, "stimulus": "<p id='stroop-text' class='stroop-blue'>YELLOW</p>", "response": "y", "stimulus-type": "incongruent", "word": "yellow", "color": "blue", "correct_response": "b", "trial_id": "stroop-trial-1-incongruent-1", "trial_type": "html-keyboard-response", "trial_index": 208, "time_elapsed": 329141, "internal_node_id": "0.0-8.0-22.0"}}, {"uniqueid": "w74919635:a83532818", "current_trial": 209, "dateTime": 1664555185444, "trialdata": {"rt": 1145, "stimulus": "<p id='stroop-text' class='stroop-blue'>GREEN</p>", "response": "b", "stimulus-type": "incongruent", "word": "green", "color": "blue", "correct_response": "b", "trial_id": "stroop-trial-1-incongruent-17", "trial_type": "html-keyboard-response", "trial_index": 209, "time_elapsed": 330789, "internal_node_id": "0.0-8.0-23.0"}}, {"uniqueid": "w74919635:a83532818", "current_trial": 210, "dateTime": 1664555186664, "trialdata": {"rt": 718, "stimulus": "<p id='stroop-text' class='stroop-red'>SHIP</p>", "response": "r", "stimulus-type": "unrelated", "word": "SHIP", "color": "red", "correct_response": "r", "trial_id": "stroop-trial-1-unrelated-7", "trial_type": "html-keyboard-response", "trial_index": 210, "time_elapsed": 332010, "internal_node_id": "0.0-8.0-24.0"}}, {"uniqueid": "w74919635:a83532818", "current_trial": 211, "dateTime": 1664555187599, "trialdata": {"rt": 433, "stimulus": "<p id='stroop-text' class='stroop-red'>RED</p>", "response": "r", "stimulus-type": "congruent", "word": "red", "color": "red", "correct_response": "r", "trial_id": "stroop-trial-1-congruent-29", "trial_type": "html-keyboard-response", "trial_index": 211, "time_elapsed": 332945, "internal_node_id": "0.0-8.0-25.0"}}, {"uniqueid": "w74919635:a83532818", "current_trial": 212, "dateTime": 1664555189150, "trialdata": {"rt": 1050, "stimulus": "<p id='stroop-text' class='stroop-green'>GREEN</p>", "response": "g", "stimulus-type": "congruent", "word": "green", "color": "green", "correct_response": "g", "trial_id": "stroop-trial-1-congruent-8", "trial_type": "html-keyboard-response", "trial_index": 212, "time_elapsed": 334496, "internal_node_id": "0.0-8.0-26.0"}}, {"uniqueid": "w74919635:a83532818", "current_trial": 213, "dateTime": 1664555190051, "trialdata": {"rt": 398, "stimulus": "<p id='stroop-text' class='stroop-green'>BRIDGE</p>", "response": "g", "stimulus-type": "unrelated", "word": "BRIDGE", "color": "green", "correct_response": "g", "trial_id": "stroop-trial-1-unrelated-3", "trial_type": "html-keyboard-response", "trial_index": 213, "time_elapsed": 335397, "internal_node_id": "0.0-8.0-27.0"}}, {"uniqueid": "w74919635:a83532818", "current_trial": 214, "dateTime": 1664555191072, "trialdata": {"rt": 518, "stimulus": "<p id='stroop-text' class='stroop-yellow'>YELLOW</p>", "response": "y", "stimulus-type": "congruent", "word": "yellow", "color": "yellow", "correct_response": "y", "trial_id": "stroop-trial-1-congruent-4", "trial_type": "html-keyboard-response", "trial_index": 214, "time_elapsed": 336418, "internal_node_id": "0.0-8.0-28.0"}}, {"uniqueid": "w74919635:a83532818", "current_trial": 215, "dateTime": 1664555191967, "trialdata": {"rt": 386, "stimulus": "<p id='stroop-text' class='stroop-yellow'>BRAIN</p>", "response": "y", "stimulus-type": "unrelated", "word": "BRAIN", "color": "yellow", "correct_response": "y", "trial_id": "stroop-trial-1-unrelated-17", "trial_type": "html-keyboard-response", "trial_index": 215, "time_elapsed": 337313, "internal_node_id": "0.0-8.0-29.0"}}, {"uniqueid": "w74919635:a83532818", "current_trial": 216, "dateTime": 1664555193022, "trialdata": {"rt": 553, "stimulus": "<p id='stroop-text' class='stroop-green'>GREEN</p>", "response": "g", "stimulus-type": "congruent", "word": "green", "color": "green", "correct_response": "g", "trial_id": "stroop-trial-1-congruent-2", "trial_type": "html-keyboard-response", "trial_index": 216, "time_elapsed": 338368, "internal_node_id": "0.0-8.0-30.0"}}, {"uniqueid": "w74919635:a83532818", "current_trial": 217, "dateTime": 1664555194059, "trialdata": {"rt": 535, "stimulus": "<p id='stroop-text' class='stroop-yellow'>YELLOW</p>", "response": "y", "stimulus-type": "congruent", "word": "yellow", "color": "yellow", "correct_response": "y", "trial_id": "stroop-trial-1-congruent-19", "trial_type": "html-keyboard-response", "trial_index": 217, "time_elapsed": 339405, "internal_node_id": "0.0-8.0-31.0"}}, {"uniqueid": "w74919635:a83532818", "current_trial": 218, "dateTime": 1664555194967, "trialdata": {"rt": 405, "stimulus": "<p id='stroop-text' class='stroop-yellow'>YELLOW</p>", "response": "y", "stimulus-type": "congruent", "word": "yellow", "color": "yellow", "correct_response": "y", "trial_id": "stroop-trial-1-congruent-12", "trial_type": "html-keyboard-response", "trial_index": 218, "time_elapsed": 340312, "internal_node_id": "0.0-8.0-32.0"}}, {"uniqueid": "w74919635:a83532818", "current_trial": 219, "dateTime": 1664555196381, "trialdata": {"rt": 912, "stimulus": "<p id='stroop-text' class='stroop-green'>RED</p>", "response": "g", "stimulus-type": "incongruent", "word": "red", "color": "green", "correct_response": "g", "trial_id": "stroop-trial-1-incongruent-15", "trial_type": "html-keyboard-response", "trial_index": 219, "time_elapsed": 341727, "internal_node_id": "0.0-8.0-33.0"}}, {"uniqueid": "w74919635:a83532818", "current_trial": 220, "dateTime": 1664555197310, "trialdata": {"rt": 426, "stimulus": "<p id='stroop-text' class='stroop-green'>GREEN</p>", "response": "g", "stimulus-type": "congruent", "word": "green", "color": "green", "correct_response": "g", "trial_id": "stroop-trial-1-congruent-10", "trial_type": "html-keyboard-response", "trial_index": 220, "time_elapsed": 342656, "internal_node_id": "0.0-8.0-34.0"}}, {"uniqueid": "w74919635:a83532818", "current_trial": 221, "dateTime": 1664555198502, "trialdata": {"rt": 690, "stimulus": "<p id='stroop-text' class='stroop-yellow'>YELLOW</p>", "response": "y", "stimulus-type": "congruent", "word": "yellow", "color": "yellow", "correct_response": "y", "trial_id": "stroop-trial-1-congruent-9", "trial_type": "html-keyboard-response", "trial_index": 221, "time_elapsed": 343848, "internal_node_id": "0.0-8.0-35.0"}}, {"uniqueid": "w74919635:a83532818", "current_trial": 222, "dateTime": 1664555200309, "trialdata": {"rt": 1303, "stimulus": "<p id='stroop-text' class='stroop-red'>GREEN</p>", "response": "r", "stimulus-type": "incongruent", "word": "green", "color": "red", "correct_response": "r", "trial_id": "stroop-trial-1-incongruent-24", "trial_type": "html-keyboard