{"condition": 1, "counterbalance": 0, "assignmentId": "a47581892", "workerId": "w64129294", "hitId": "h37600658", "currenttrial": 143, "bonus": 0, "data": [{"uniqueid": "w64129294:a47581892", "current_trial": 0, "dateTime": 1664556566050, "trialdata": {"success": true, "trial_type": "fullscreen", "trial_index": 0, "time_elapsed": 2201, "internal_node_id": "0.0-0.0"}}, {"uniqueid": "w64129294:a47581892", "current_trial": 1, "dateTime": 1664556567355, "trialdata": {"view_history": [{"page_index": 0, "viewing_time": 1303}], "rt": 1303, "trial_id": "exp_instructions_no_distractor", "trial_type": "instructions", "trial_index": 1, "time_elapsed": 3506, "internal_node_id": "0.0-1.0"}}, {"uniqueid": "w64129294:a47581892", "current_trial": 2, "dateTime": 1664556571820, "trialdata": {"success": true, "trial_type": "fullscreen", "trial_index": 2, "time_elapsed": 7970, "internal_node_id": "0.0-2.0-0.0"}}, {"uniqueid": "w64129294:a47581892", "current_trial": 3, "dateTime": 1664556702525, "trialdata": {"view_history": [{"page_index": 0, "viewing_time": 65412}, {"page_index": 1, "viewing_time": 29322}, {"page_index": 2, "viewing_time": 8062}, {"page_index": 3, "viewing_time": 5359}, {"page_index": 4, "viewing_time": 22547}], "rt": 130702, "trial_id": "mouselab_instructions_1", "trial_type": "instructions", "trial_index": 3, "time_elapsed": 138675, "internal_node_id": "0.0-2.0-1.0"}}, {"uniqueid": "w64129294:a47581892", "current_trial": 4, "dateTime": 1664556725444, "trialdata": {"revealed_states": [], "num_clicks_accrued": [0, 0, 0, 0, 0, 0, 0, 0, 0, 0, 0, 0, 0], "stateRewards": ["", 10, -10, -10, 10, 10, 10, -10, 10, 10, 10, -10, 10], "withholdReward": false, "trial_id": "practice_1", "block": "test", "trialIndex": 0, "score": 31.25, "costs": -0.75, "simulationMode": [null, null, null], "rewards": [10, 10, 10], "path": ["0", "0", "5", "6", "8"], "rt": [7010, 576, 494], "actions": ["right", "right", "down"], "actionTimes": [16030, 17111, 18110], "queries": {"click": {"state": {"target": ["6", "8", "5"], "time": [11014, 13187, 14678]}, "edge": {"target": [], "time": []}}, "mouseover": {"state": {"target": ["5", "6", "8", "5"], "time": [9868, 10152, 11602, 14134]}, "edge": {"target": [], "time": []}}, "mouseout": {"state": {"target": ["5", "8", "5", "1", "2", "4", "11", "10", "9", "0", "5", "6", "8", "6", "6", "5", "6"], "time": [774, 2738, 4537, 5237, 5370, 5670, 5887, 6737, 8398, 9518, 10102, 11334, 13517, 13683, 13950, 14899, 15083]}, "edge": {"target": [], "time": []}}}, "displayed_time": "18.61", "trialTime": 22546, "trial_type": "mouselab-mdp", "trial_index": 4, "time_elapsed": 161595, "internal_node_id": "0.0-2.0-2.0-0.0"}}, {"uniqueid": "w64129294:a47581892", "current_trial": 5, "dateTime": 1664556738772, "trialdata": {"revealed_states": [], "num_clicks_accrued": [0, 0, 0, 0, 0, 0, 0, 0, 0, 0, 0, 0, 0], "stateRewards": ["", -10, 10, 10, 10, -10, 10, -10, 10, 10, -10, 10, -10], "withholdReward": false, "trial_id": "practice_2", "block": "test", "trialIndex": 1, "score": 11, "costs": -1, "simulationMode": [null, null, null], "rewards": [-10, 10, 10], "path": ["0", "0", "1", "2", "3"], "rt": [7251, 232, 618], "actions": ["up", "up", "right"], "actionTimes": [8900, 9644, 10779], "queries": {"click": {"state": {"target": ["10", "2", "3", "1"], "time": [3144, 4460, 5354, 6063]}, "edge": {"target": [], "time": []}}, "mouseover": {"state": {"target": ["0", "9", "10", "9", "1", "2", "3", "1"], "time": [2148, 2447, 2798, 3830, 4047, 4247, 5180, 5946]}, "edge": {"target": [], "time": []}}, "mouseout": {"state": {"target": ["5", "0", "0", "9", "10", "9", "1", "2", "3", "1"], "time": [1199, 1364, 2248, 2614, 3797, 3914, 4164, 4630, 5713, 6413]}, "edge": {"target": [], "time": []}}}, "displayed_time": "11.29", "trialTime": 13261, "trial_type": "mouselab-mdp", "trial_index": 5, "time_elapsed": 174923, "internal_node_id": "0.0-2.0-2.0-1.0"}}, {"uniqueid": "w64129294:a47581892", "current_trial": 6, "dateTime": 1664556791863, "trialdata": {"view_history": [{"page_index": 0, "viewing_time": 34714}, {"page_index": 1, "viewing_time": 11312}, {"page_index": 2, "viewing_time": 7061}], "rt": 53087, "trial_id": "mouselab_instructions_2_scarce", "trial_type": "instructions", "trial_index": 6, "time_elapsed": 228013, "internal_node_id": "0.0-2.0-3.0"}}, {"uniqueid": "w64129294:a47581892", "current_trial": 7, "dateTime": 1664556845411, "trialdata": {"rt": 53540, "response": {"Q0": "$-48 to $48", "Q1": "The cost is always $0.25.", "Q2": "The better I perform the higher my bonus will be.", "Q3": "Yes.", "Q4": "The values of the nodes walked through from start to finish.", "Q5": "No, the spider might forget to count the money on some rounds."}, "question_order": [0, 1, 2, 3, 4, 5], "correct": {"Q0": "$-48 to $48", "Q1": "The cost is always $0.25.", "Q2": "The better I perform the higher my bonus will be.", "Q3": "No, the amount of cash at each node of the web may be different each time.", "Q4": "The values of the nodes walked through from start to finish.", "Q5": "No, the spider might forget to count the money on some rounds."}, "trial_id": "mouselab_quiz_scarce", "trial_type": "survey-multi-choice", "trial_index": 7, "time_elapsed": 281562, "internal_node_id": "0.0-2.0-4.0"}}, {"uniqueid": "w64129294:a47581892", "current_trial": 8, "dateTime": 1664556854102, "trialdata": {"success": true, "trial_type": "fullscreen", "trial_index": 8, "time_elapsed": 290253, "internal_node_id": "0.0-2.1-0.1"}}, {"uniqueid": "w64129294:a47581892", "current_trial": 9, "dateTime": 1664556918336, "trialdata": {"view_history": [{"page_index": 0, "viewing_time": 29479}, {"page_index": 1, "viewing_time": 11120}, {"page_index": 2, "viewing_time": 12190}, {"page_index": 3, "viewing_time": 6205}, {"page_index": 4, "viewing_time": 5238}], "rt": 64233, "trial_id": "mouselab_instructions_1", "trial_type": "instructions", "trial_index": 9, "time_elapsed": 354487, "internal_node_id": "0.0-2.1-1.1"}}, {"uniqueid": "w64129294:a47581892", "current_trial": 10, "dateTime": 1664556926526, "trialdata": {"revealed_states": [], "num_clicks_accrued": [0, 0, 0, 0, 0, 0, 0, 0, 0, 0, 0, 0, 0], "stateRewards": ["", 10, -10, -10, 10, 10, 10, -10, 10, 10, 10, -10, 10], "withholdReward": false, "trial_id": "practice_1", "block": "test", "trialIndex": 2, "score": 31.25, "costs": -0.75, "simulationMode": [null, null, null], "rewards": [10, 10, 10], "path": ["0", "0", "5", "6", "8"], "rt": [2778, 200, 56], "actions": ["right", "right", "down"], "actionTimes": [3966, 4671, 5243], "queries": {"click": {"state": {"target": ["6", "5", "8"], "time": [1795, 2450, 3036]}, "edge": {"target": [], "time": []}}, "mouseover": {"state": {"target": ["5", "6", "6", "5", "8"], "time": [1371, 1405, 1671, 2320, 2887]}, "edge": {"target": [], "time": []}}, "mouseout": {"state": {"target": ["5", "0", "5", "6", "6", "5", "8"], "time": [789, 1338, 1388, 1455, 2154, 2620, 7180]}, "edge": {"target": [], "time": []}}}, "displayed_time": "5.75", "trialTime": 8137, "trial_type": "mouselab-mdp", "trial_index": 10, "time_elapsed": 362677, "internal_node_id": "0.0-2.1-2.1-0.1"}}, {"uniqueid": "w64129294:a47581892", "current_trial": 11, "dateTime": 1664556934810, "trialdata": {"revealed_states": [], "num_clicks_accrued": [0, 0, 0, 0, 0, 0, 0, 0, 0, 0, 0, 0, 0], "stateRewards": ["", -10, 10, 10, 10, -10, 10, -10, 10, 10, -10, 10, -10], "withholdReward": false, "trial_id": "practice_2", "block": "test", "trialIndex": 3, "score": 11.25, "costs": -0.75, "simulationMode": [null, null, null], "rewards": [-10, 10, 10], "path": ["0", "0", "1", "2", "3"], "rt": [3836, 4, 109], "actions": ["up", "up", "right"], "actionTimes": [5407, 5916, 6555], "queries": {"click": {"state": {"target": ["1", "2", "3"], "time": [3151, 3869, 4491]}, "edge": {"target": [], "time": []}}, "mouseover": {"state": {"target": ["1", "2", "3"], "time": [2963, 3397, 4296]}, "edge": {"target": [], "time": []}}, "mouseout": {"state": {"target": ["0", "1", "2"], "time": [1852, 3329, 4145]}, "edge": {"target": [], "time": []}}}, "displayed_time": "7.06", "trialTime": 8235, "trial_type": "mouselab-mdp", "trial_index": 11, "time_elapsed": 370961, "internal_node_id": "0.0-2.1-2.1-1.1"}}, {"uniqueid": "w64129294:a47581892", "current_trial": 12, "dateTime": 1664556959739, "trialdata": {"view_history": [{"page_index": 0, "viewing_time": 11165}, {"page_index": 1, "viewing_time": 11255}, {"page_index": 2, "viewing_time": 2508}], "rt": 24928, "trial_id": "mouselab_instructions_2_scarce", "trial_type": "instructions", "trial_index": 12, "time_elapsed": 395890, "internal_node_id": "0.0-2.1-3.1"}}, {"uniqueid": "w64129294:a47581892", "current_trial": 13, "dateTime": 1664557190809, "trialdata": {"rt": 231066, "response": {"Q0": "$-48 to $48", "Q1": "The cost is always $0.25.", "Q2": "The better I perform the higher my bonus will be.", "Q3": "No, the amount of cash at each node of the web may be different each time.", "Q4": "The values of the nodes walked through from start to finish.", "Q5": "No, the spider might forget to count the money on some rounds."}, "question_order": [0, 1, 2, 3, 4, 5], "correct": {"Q0": "$-48 to $48", "Q1": "The cost is always $0.25.", "Q2": "The better I perform the higher my bonus will be.", "Q3": "No, the amount of cash at each node of the web may be different each time.", "Q4": "The values of the nodes walked through from start to finish.", "Q5": "No, the spider might forget to count the money on some rounds."}, "trial_id": "mouselab_quiz_scarce", "trial_type": "survey-multi-choice", "trial_index": 13, "time_elapsed": 626960, "internal_node_id": "0.0-2.1-4.1"}}, {"uniqueid": "w64129294:a47581892", "current_trial": 14, "dateTime": 1664557220417, "trialdata": {"rt": 29605, "stimulus": "\n<h1> Get ready to start the game! </h1>\n\nThank you for reading the instructions. Get ready start with the first of 4 block(s) of this game.\n<br><br>\nIn this first block, you will complete 30 rounds of this game before moving on.\n<br><br>\nRemember, the more money the spider gets, the bigger your bonus will be!\n<br><br>\n<div style='text-align: center;'>Press <code>space</code> to begin.</div>\n\n<br><br>\n(If, at any point, the <code>space</code> key does not take you to the next page, click once on the text and try again.)", "response": " ", "trial_id": "mdp_ready_1", "trial_type": "html-keyboard-response", "trial_index": 14, "time_elapsed": 656568, "internal_node_id": "0.0-4.0-0.0"}}, {"uniqueid": "w64129294:a47581892", "current_trial": 15, "dateTime": 1664557240397, "trialdata": {"revealed_states": [], "num_clicks_accrued": [0, 0, 0, 0, 0, 0, 0, 0, 0, 0, 0, 0, 0], "stateRewards": ["", 4, -4, 48, 24, 2, 4, 24, -24, 2, 4, 24, 48], "withholdReward": true, "trial_id": "mdp_736351885282", "block": "test1", "trialIndex": 4, "score": 34, "costs": -1, "simulationMode": [null, null, null], "rewards": [2, 4, 24], "path": ["0", "0", "5", "6", "7"], "rt": [9476, 148, 276], "actions": ["right", "right", "up"], "actionTimes": [12655, 13316, 14109], "queries": {"click": {"state": {"target": ["6", "8", "7", "5"], "time": [6852, 9128, 10724, 11614]}, "edge": {"target": [], "time": []}}, "mouseover": {"state": {"target": ["5", "6", "5", "8", "7", "5"], "time": [3603, 6596, 7984, 8834, 9833, 11399]}, "edge": {"target": [], "time": []}}, "mouseout": {"state": {"target": ["5", "0", "5", "6", "5", "8", "6", "7"], "time": [2453, 3520, 6418, 7284, 8633, 9534, 9667, 11199]}, "edge": {"target": [], "time": []}}}, "displayed_time": "14.62", "trialTime": 19923, "trial_type": "mouselab-mdp", "trial_index": 15, "time_elapsed": 676548, "internal_node_id": "0.0-4.0-1.0-0.0"}}, {"uniqueid": "w64129294:a47581892", "current_trial": 16, "dateTime": 1664557254536, "trialdata": {"revealed_states": [], "num_clicks_accrued": [0, 0, 0, 0, 0, 0, 0, 0, 0, 0, 0, 0, 0], "stateRewards": ["", -2, -8, -48, 24, 2, -4, -48, 48, 2, 4, 24, -24], "withholdReward": true, "trial_id": "mdp_849341543762", "block": "test1", "trialIndex": 5, "score": 34.5, "costs": -0.5, "simulationMode": [null, null, null], "rewards": [2, 4, 24], "path": ["0", "0", "9", "10", "11"], "rt": [4606, 362, 440], "actions": ["left", "left", "up"], "actionTimes": [6997, 7864, 8810], "queries": {"click": {"state": {"target": ["10", "11"], "time": [4335, 5420]}, "edge": {"target": [], "time": []}}, "mouseover": {"state": {"target": ["9", "10", "11", "9"], "time": [3837, 4070, 4920, 6136]}, "edge": {"target": [], "time": []}}, "mouseout": {"state": {"target": ["5", "0", "9", "10", "11", "10", "9"], "time": [1687, 3703, 3886, 4786, 5652, 6086, 11434]}, "edge": {"target": [], "time": []}}}, "displayed_time": "10.40", "trialTime": 14087, "trial_type": "mouselab-mdp", "trial_index": 16, "time_elapsed": 690686, "internal_node_id": "0.0-4.0-1.0-1.0"}}, {"uniqueid": "w64129294:a47581892", "current_trial": 17, "dateTime": 1664557266345, "trialdata": {"revealed_states": [], "num_clicks_accrued": [0, 0, 0, 0, 0, 0, 0, 0, 0, 0, 0, 0, 0], "stateRewards": ["", -4, -4, 24, -24, 4, 4, 24, 48, 4, -4, 48, -48], "withholdReward": true, "trial_id": "mdp_522385334882", "block": "test1", "trialIndex": 6, "score": 36.25, "costs": -0.75, "simulationMode": [null, null, null], "rewards": [4, 4, 24], "path": ["0", "0", "5", "6", "7"], "rt": [5499, 287, 247], "actions": ["right", "right", "up"], "actionTimes": [7034, 7833, 8594], "queries": {"click": {"state": {"target": ["10", "6", "7"], "time": [3402, 4673, 5554]}, "edge": {"target": [], "time": []}}, "mouseover": {"state": {"target": ["9", "10", "9", "0", "5", "6", "7", "5"], "time": [2481, 2715, 3982, 4065, 4198, 4281, 5214, 6230]}, "edge": {"target": [], "time": []}}, "mouseout": {"state": {"target": ["0", "9", "10", "9", "0", "5", "6", "7", "6", "5"], "time": [1820, 2532, 3965, 4031, 4097, 4248, 5097, 5882, 6163, 10212]}, "edge": {"target": [], "time": []}}}, "displayed_time": "9.54", "trialTime": 11748, "trial_type": "mouselab-mdp", "trial_index": 17, "time_elapsed": 702496, "internal_node_id": "0.0-4.0-1.0-2.0"}}, {"uniqueid": "w64129294:a47581892", "current_trial": 18, "dateTime": 1664557280255, "trialdata": {"revealed_states": [], "num_clicks_accrued": [0, 0, 0, 0, 0, 0, 0, 0, 0, 0, 0, 0, 0], "stateRewards": ["", -2, 8, -24, 24, -4, -8, -24, 48, -2, -8, -48, 48], "withholdReward": true, "trial_id": "mdp_238332601315", "block": "test1", "trialIndex": 7, "score": 34.25, "costs": -0.75, "simulationMode": [null, null, null], "rewards": [-2, 8, 24], "path": ["0", "0", "1", "2", "4"], "rt": [5337, 350, 790], "actions": ["up", "up", "left"], "actionTimes": [8010, 8864, 10171], "queries": {"click": {"state": {"target": ["2", "4", "1"], "time": [4708, 5675, 6905]}, "edge": {"target": [], "time": []}}, "mouseover": {"state": {"target": ["9", "10", "2", "4", "1"], "time": [3600, 3783, 4450, 5383, 6282]}, "edge": {"target": [], "time": []}}, "mouseout": {"state": {"target": ["0", "9", "10", "2", "4", "1"], "time": [3217, 3633, 4233, 5233, 6050, 7049]}, "edge": {"target": [], "time": []}}}, "displayed_time": "10.68", "trialTime": 13865, "trial_type": "mouselab-mdp", "trial_index": 18, "time_elapsed": 716406, "internal_node_id": "0.0-4.0-1.0-3.0"}}, {"uniqueid": "w64129294:a47581892", "current_trial": 19, "dateTime": 1664557290710, "trialdata": {"revealed_states": [], "num_clicks_accrued": [0, 0, 0, 0, 0, 0, 0, 0, 0, 0, 0, 0, 0], "stateRewards": ["", -2, 4, 24, 48, 2, 4, -48, -48, -2, 8, 48, -24], "withholdReward": true, "trial_id": "mdp_305701202606", "block": "test1", "trialIndex": 8, "score": 58, "costs": -1, "simulationMode": [null, null, null], "rewards": [-2, 8, 48], "path": ["0", "0", "9", "10", "11"], "rt": [5727, 202, 241], "actions": ["left", "left", "up"], "actionTimes": [7323, 8033, 8789], "queries": {"click": {"state": {"target": ["10", "12", "11", "9"], "time": [3404, 4322, 5620, 6258]}, "edge": {"target": [], "time": []}}, "mouseover": {"state": {"target": ["9", "10", "12", "11", "9"], "time": [2068, 2485, 3917, 5333, 6016]}, "edge": {"target": [], "time": []}}, "mouseout": {"state": {"target": ["0", "9", "10", "12", "10", "11"], "time": [2018, 2118, 3768, 4550, 5266, 5916]}, "edge": {"target": [], "time": []}}}, "displayed_time": "9.61", "trialTime": 10409, "trial_type": "mouselab-mdp", "trial_index": 19, "time_elapsed": 726860, "internal_node_id": "0.0-4.0-1.0-4.0"}}, {"uniqueid": "w64129294:a47581892", "current_trial": 20, "dateTime": 1664557303172, "trialdata": {"revealed_states": [], "num_clicks_accrued": [0, 0, 0, 0, 0, 0, 0, 0, 0, 0, 0, 0, 0], "stateRewards": ["", 2, 8, 48, -48, -2, -4, -24, 24, 4, -4, 48, -48], "withholdReward": false, "trial_id": "mdp_105734044587", "block": "test1", "trialIndex": 9, "score": 62, "costs": -1, "simulationMode": [null, null, null], "rewards": [2, 8, 48], "path": ["0", "0", "1", "2", "3"], "rt": [4382, 151, 157], "actions": ["up", "up", "right"], "actionTimes": [5634, 6292, 6964], "queries": {"click": {"state": {"target": ["10", "2", "3", "1"], "time": [2357, 3402, 4005, 4718]}, "edge": {"target": [], "time": []}}, "mouseover": {"state": {"target": ["9", "11", "10", "9", "1", "2", "3", "1"], "time": [1691, 2042, 2175, 2891, 2942, 3257, 3824, 4541]}, "edge": {"target": [], "time": []}}, "mouseout": {"state": {"target": ["9", "0", "9", "11", "10", "9", "1", "2", "3", "1"], "time": [842, 1659, 1775, 2075, 2875, 2908, 2975, 3592, 4307, 9622]}, "edge": {"target": [], "time": []}}}, "displayed_time": "9.26", "trialTime": 12416, "trial_type": "mouselab-mdp", "trial_index": 20, "time_elapsed": 739323, "internal_node_id": "0.0-4.0-1.0-5.0"}}, {"uniqueid": "w64129294:a47581892", "current_trial": 21, "dateTime": 1664557314892, "trialdata": {"revealed_states": [], "num_clicks_accrued": [0, 0, 0, 0, 0, 0, 0, 0, 0, 0, 0, 0, 0], "stateRewards": ["", -4, 4, 24, 24, -2, 8, 24, -48, 4, -8, -24, -48], "withholdReward": true, "trial_id": "mdp_651542905861", "block": "test1", "trialIndex": 10, "score": 28.25, "costs": -0.75, "simulationMode": [null, null, null], "rewards": [-4, 4, 24], "path": ["0", "0", "1", "2", "3"], "rt": [3584, 91, 159], "actions": ["up", "up", "right"], "actionTimes": [5141, 5743, 6412], "queries": {"click": {"state": {"target": ["2", "3", "1"], "time": [2627, 3540, 4165]}, "edge": {"target": [], "time": []}}, "mouseover": {"state": {"target": ["1", "2", "7", "6", "3", "1"], "time": [2036, 2420, 2902, 3003, 3336, 3953]}, "edge": {"target": [], "time": []}}, "mouseout": {"state": {"target": ["0", "1", "2", "7", "6", "3"], "time": [1904, 2370, 2769, 2936, 3170, 3756]}, "edge": {"target": [], "time": []}}}, "displayed_time": "10.56", "trialTime": 11653, "trial_type": "mouselab-mdp", "trial_index": 21, "time_elapsed": 751043, "internal_node_id": "0.0-4.0-1.0-6.0"}}, {"uniqueid": "w64129294:a47581892", "current_trial": 22, "dateTime": 1664557327095, "trialdata": {"revealed_states": [], "num_clicks_accrued": [0, 0, 0, 0, 0, 0, 0, 0, 0, 0, 0, 0, 0], "stateRewards": ["", -2, -4, 48, 48, 2, 4, -48, 24, 4, -8, 24, -24], "withholdReward": true, "trial_id": "mdp_628613319495", "block": "test1", "trialIndex": 11, "score": 33.75, "costs": -1.25, "simulationMode": [null, null, null], "rewards": [2, 4, 24], "path": ["0", "0", "5", "6", "8"], "rt": [5930, 65, 141], "actions": ["right", "right", "down"], "actionTimes": [7797, 8365, 9025], "queries": {"click": {"state": {"target": ["10", "6", "7", "8", "5"], "time": [2644, 3597, 4203, 6171, 6886]}, "edge": {"target": [], "time": []}}, "mouseover": {"state": {"target": ["9", "10", "0", "5", "6", "7", "8", "3", "8", "5"], "time": [2185, 2351, 3218, 3236, 3468, 4001, 5017, 5434, 5784, 6750]}, "edge": {"target": [], "time": []}}, "mouseout": {"state": {"target": ["1", "0", "9", "10", "0", "5", "6", "7", "6", "8", "6", "3", "6", "8", "5"], "time": [1403, 2152, 2218, 3151, 3236, 3268, 3917, 4584, 4718, 5201, 5267, 5651, 5750, 6516, 7100]}, "edge": {"target": [], "time": []}}}, "displayed_time": "10.87", "trialTime": 12160, "trial_type": "mouselab-mdp", "trial_index": 22, "time_elapsed": 763246, "internal_node_id": "0.0-4.0-1.0-7.0"}}, {"uniqueid": "w64129294:a47581892", "current_trial": 23, "dateTime": 1664557338363, "trialdata": {"revealed_states": [], "num_clicks_accrued": [0, 0, 0, 0, 0, 0, 0, 0, 0, 0, 0, 0, 0], "stateRewards": ["", 2, 4, 48, -48, 2, 8, -24, 48, 4, 8, 48, -48], "withholdReward": true, "trial_id": "mdp_110142964375", "block": "test1", "trialIndex": 12, "score": 58, "costs": -1, "simulationMode": [null, null, null], "rewards": [2, 4, 48], "path": ["0", "0", "1", "2", "3"], "rt": [4696, 136, 113], "actions": ["up", "up", "right"], "actionTimes": [6203, 6842, 7469], "queries": {"click": {"state": {"target": ["2", "4", "3", "1"], "time": [3046, 3992, 4707, 5321]}, "edge": {"target": [], "time": []}}, "mouseover": {"state": {"target": ["1", "2", "4", "3", "1"], "time": [2057, 2691, 3807, 4473, 5173]}, "edge": {"target": [], "time": []}}, "mouseout": {"state": {"target": ["5", "0", "1", "2", "4", "2", "3", "1"], "time": [958, 1941, 2607, 3490, 4273, 4357, 4940, 5490]}, "edge": {"target": [], "time": []}}}, "displayed_time": "10.52", "trialTime": 11223, "trial_type": "mouselab-mdp", "trial_index": 23, "time_elapsed": 774514, "internal_node_id": "0.0-4.0-1.0-8.0"}}, {"uniqueid": "w64129294:a47581892", "current_trial": 24, "dateTime": 1664557349066, "trialdata": {"revealed_states": [], "num_clicks_accrued": [0, 0, 0, 0, 0, 0, 0, 0, 0, 0, 0, 0, 0], "stateRewards": ["", -4, -8, -24, 24, 2, 8, 24, 48, 2, 4, 24, -48], "withholdReward": false, "trial_id": "mdp_122352383932", "block": "test1", "trialIndex": 13, "score": 38, "costs": -1, "simulationMode": [null, null, null], "rewards": [2, 8, 24], "path": ["0", "0", "5", "6", "7"], "rt": [3793, 90, 139], "actions": ["right", "right", "up"], "actionTimes": [5150, 5755, 6405], "queries": {"click": {"state": {"target": ["2", "6", "7", "5"], "time": [2062, 2905, 3569, 4233]}, "edge": {"target": [], "time": []}}, "mouseover": {"state": {"target": ["1", "2", "6", "7", "5"], "time": [1617, 1867, 2700, 3417, 4067]}, "edge": {"target": [], "time": []}}, "mouseout": {"state": {"target": ["1", "2", "6", "7", "6", "5"], "time": [1767, 2517, 3333, 3850, 3949, 4600]}, "edge": {"target": [], "time": []}}}, "displayed_time": "9.36", "trialTime": 10656, "trial_type": "mouselab-mdp", "trial_index": 24, "time_elapsed": 785217, "internal_node_id": "0.0-4.0-1.0-9.0"}}, {"uniqueid": "w64129294:a47581892", "current_trial": 25, "dateTime": 1664557362703, "trialdata": {"revealed_states": [], "num_clicks_accrued": [0, 0, 0, 0, 0, 0, 0, 0, 0, 0, 0, 0, 0], "stateRewards": ["", -2, 4, -48, -48, -4, -8, 48, -48, 2, 4, 48, -48], "withholdReward": true, "trial_id": "mdp_258647270500", "block": "test1", "trialIndex": 14, "score": 39.5, "costs": -1.5, "simulationMode": [null, null, null], "rewards": [-4, -8, 48], "path": ["0", "0", "5", "6", "7"], "rt": [8599, 30, 167], "actions": ["right", "right", "up"], "actionTimes": [10026, 10573, 11243], "queries": {"click": {"state": {"target": ["2", "4", "3", "7", "6", "5"], "time": [2437, 3000, 3671, 4515, 5132, 6037]}, "edge": {"target": [], "time": []}}, "mouseover": {"state": {"target": ["1", "2", "4", "3", "7", "6", "5", "0", "9"], "time": [1930, 2013, 2880, 3545, 4229, 4929, 5945, 7211, 7345]}, "edge": {"target": [], "time": []}}, "mouseout": {"state": {"target": ["5", "0", "1", "2", "4", "3", "7", "6", "5", "0"], "time": [1096, 1730, 1980, 2763, 3263, 3845, 4695, 5395, 7177, 7228]}, "edge": {"target": [], "time": []}}}, "displayed_time": "11.76", "trialTime": 13594, "trial_type": "mouselab-mdp", "trial_index": 25, "time_elapsed": 798854, "internal_node_id": "0.0-4.0-1.0-10.0"}}, {"uniqueid": "w64129294:a47581892", "current_trial": 26, "dateTime": 1664557374693, "trialdata": {"revealed_states": [], "num_clicks_accrued": [0, 0, 0, 0, 0, 0, 0, 0, 0, 0, 0, 0, 0], "stateRewards": ["", 2, -4, 48, -48, -2, 8, -48, 24, -2, -8, 48, 48], "withholdReward": false, "trial_id": "mdp_949326095747", "block": "test1", "trialIndex": 15, "score": 33.75, "costs": -1.25, "simulationMode": [null, null, null], "rewards": [-2, 8, 24], "path": ["0", "0", "5", "6", "8"], "rt": [4502, 15, 253], "actions": ["right", "right", "down"], "actionTimes": [5957, 6483, 7255], "queries": {"click": {"state": {"target": ["10", "6", "7", "8", "5"], "time": [2199, 2954, 3739, 4545, 5086]}, "edge": {"target": [], "time": []}}, "mouseover": {"state": {"target": ["0", "9", "10", "9", "5", "6", "7", "8", "5"], "time": [1586, 1886, 2069, 2452, 2603, 2669, 3535, 4468, 5068]}, "edge": {"target": [], "time": []}}, "mouseout": {"state": {"target": ["9", "0", "9", "10", "9", "5", "6", "7", "6", "8", "6", "5"], "time": [1052, 1835, 1986, 2369, 2503, 2636, 3202, 4135, 4302, 4734, 4885, 9466]}, "edge": {"target": [], "time": []}}}, "displayed_time": "10.46", "trialTime": 11947, "trial_type": "mouselab-mdp", "trial_index": 26, "time_elapsed": 810844, "internal_node_id": "0.0-4.0-1.0-11.0"}}, {"uniqueid": "w64129294:a47581892", "current_trial": 27, "dateTime": 1664557386305, "trialdata": {"revealed_states": [], "num_clicks_accrued": [0, 0, 0, 0, 0, 0, 0, 0, 0, 0, 0, 0, 0], "stateRewards": ["", -4, 4, -24, 24, 2, 4, -24, 48, -4, 8, -48, 48], "withholdReward": false, "trial_id": "mdp_422109108860", "block": "test1", "trialIndex": 16, "score": 28.25, "costs": -0.75, "simulationMode": [null, null, null], "rewards": [-4, 4, 24], "path": ["0", "0", "1", "2", "4"], "rt": [4360, 33, 72], "actions": ["up", "up", "left"], "actionTimes": [5723, 6271, 6861], "queries": {"click": {"state": {"target": ["2", "4", "1"], "time": [2229, 2849, 3441]}, "edge": {"target": [], "time": []}}, "mouseover": {"state": {"target": ["1", "2", "4", "1"], "time": [1839, 2095, 2655, 3238]}, "edge": {"target": [], "time": []}}, "mouseout": {"state": {"target": ["0", "1", "2", "4", "1", "6"], "time": [1656, 1939, 2588, 3155, 7853, 8087]}, "edge": {"target": [], "time": []}}}, "displayed_time": "10.37", "trialTime": 11566, "trial_type": "mouselab-mdp", "trial_index": 27, "time_elapsed": 822456, "internal_node_id": "0.0-4.0-1.0-12.0"}}, {"uniqueid": "w64129294:a47581892", "current_trial": 28, "dateTime": 1664557396877, "trialdata": {"revealed_states": [], "num_clicks_accrued": [0, 0, 0, 0, 0, 0, 0, 0, 0, 0, 0, 0, 0], "stateRewards": ["", -2, 8, 48, -24, 2, 4, -48, -24, -4, 8, -48, -48], "withholdReward": true, "trial_id": "mdp_539167561933", "block": "test1", "trialIndex": 17, "score": 58, "costs": -1, "simulationMode": [null, null, null], "rewards": [-2, 8, 48], "path": ["0", "0", "1", "2", "3"], "rt": [4883, 5, 103], "actions": ["up", "up", "right"], "actionTimes": [6175, 6692, 7325], "queries": {"click": {"state": {"target": ["2", "4", "3", "1"], "time": [2748, 3565, 4510, 5196]}, "edge": {"target": [], "time": []}}, "mouseover": {"state": {"target": ["1", "2", "4", "3", "1"], "time": [1857, 2374, 3440, 4023, 5005]}, "edge": {"target": [], "time": []}}, "mouseout": {"state": {"target": ["0", "1", "2", "4", "2", "3"], "time": [1691, 2207, 3323, 3889, 3973, 4889]}, "edge": {"target": [], "time": []}}}, "displayed_time": "9.30", "trialTime": 10526, "trial_type": "mouselab-mdp", "trial_index": 28, "time_elapsed": 833027, "internal_node_id": "0.0-4.0-1.0-13.0"}}, {"uniqueid": "w64129294:a47581892", "current_trial": 29, "dateTime": 1664557407592, "trialdata": {"revealed_states": [], "num_clicks_accrued": [0, 0, 0, 0, 0, 0, 0, 0, 0, 0, 0, 0, 0], "stateRewards": ["", 4, 4, 48, -24, 2, -4, 48, 24, -4, -4, -48, 24], "withholdReward": true, "trial_id": "mdp_496003763005", "block": "test1", "trialIndex": 18, "score": 60.25, "costs": -0.75, "simulationMode": [null, null, null], "rewards": [4, 4, 48], "path": ["0", "0", "1", "2", "3"], "rt": [3176, 82, 123], "actions": ["up", "up", "right"], "actionTimes": [4730, 5328, 5967], "queries": {"click": {"state": {"target": ["2", "3", "1"], "time": [2345, 3125, 3795]}, "edge": {"target": [], "time": []}}, "mouseover": {"state": {"target": ["2", "3", "1"], "time": [2179, 2862, 3628]}, "edge": {"target": [], "time": []}}, "mouseout": {"state": {"target": ["1", "0", "2", "3", "1"], "time": [879, 1879, 2695, 3462, 4012]}, "edge": {"target": [], "time": []}}}, "displayed_time": "9.56", "trialTime": 10653, "trial_type": "mouselab-mdp", "trial_index": 29, "time_elapsed": 843742, "internal_node_id": "0.0-4.0-1.0-14.0"}}, {"uniqueid": "w64129294:a47581892", "current_trial": 30, "dateTime": 1664557418999, "trialdata": {"revealed_states": [], "num_clicks_accrued": [0, 0, 0, 0, 0, 0, 0, 0, 0, 0, 0, 0, 0], "stateRewards": ["", -4, 8, 24, -48, -4, -8, -24, 24, 2, -4, -48, 24], "withholdReward": true, "trial_id": "mdp_898449441629", "block": "test1", "trialIndex": 19, "score": 32, "costs": -1, "simulationMode": [null, null, null], "rewards": [-4, 8, 24], "path": ["0", "0", "1", "2", "3"], "rt": [4509, 610, 199], "actions": ["up", "up", "right"], "actionTimes": [5757, 6884, 7589], "queries": {"click": {"state": {"target": ["2", "4", "3", "1"], "time": [2201, 3327, 4136, 4681]}, "edge": {"target": [], "time": []}}, "mouseover": {"state": {"target": ["1", "2", "1", "1", "4", "3", "1"], "time": [1659, 1992, 2625, 2775, 3174, 4041, 4608]}, "edge": {"target": [], "time": []}}, "mouseout": {"state": {"target": ["0", "1", "2", "1", "1", "2", "4", "2", "3", "1"], "time": [1593, 1764, 2442, 2674, 2808, 2991, 3641, 3774, 4407, 8641]}, "edge": {"target": [], "time": []}}}, "displayed_time": "10.25", "trialTime": 11345, "trial_type": "mouselab-mdp", "trial_index": 30, "time_elapsed": 855150, "internal_node_id": "0.0-4.0-1.0-15.0"}}, {"uniqueid": "w64129294:a47581892", "current_trial": 31, "dateTime": 1664557429905, "trialdata": {"revealed_states": [], "num_clicks_accrued": [0, 0, 0, 0, 0, 0, 0, 0, 0, 0, 0, 0, 0], "stateRewards": ["", 4, -8, 48, -24, -4, 4, 24, 24, -2, -4, 24, 24], "withholdReward": true, "trial_id": "mdp_542168715839", "block": "test1", "trialIndex": 20, "score": 27.5, "costs": -1.5, "simulationMode": [null, null, null], "rewards": [-4, 4, 24], "path": ["0", "0", "5", "6", "7"], "rt": [7131, 45, 120], "actions": ["right", "right", "up"], "actionTimes": [7925, 8475, 9100], "queries": {"click": {"state": {"target": ["10", "6", "7", "5", "2", "3"], "time": [1422, 2343, 3063, 3819, 4803, 5276]}, "edge": {"target": [], "time": []}}, "mouseover": {"state": {"target": ["9", "10", "9", "0", "5", "6", "7", "5", "2", "3", "8"], "time": [1200, 1250, 1950, 1982, 2016, 2332, 2865, 3682, 4631, 5098, 5981]}, "edge": {"target": [], "time": []}}, "mouseout": {"state": {"target": ["0", "9", "10", "9", "0", "5", "6", "7", "6", "5", "5", "2", "3", "6", "8"], "time": [1016, 1216, 1933, 1966, 1999, 2033, 2766, 3232, 3598, 4181, 4332, 5014, 5431, 5830, 6681]}, "edge": {"target": [], "time": []}}}, "displayed_time": "9.62", "trialTime": 10863, "trial_type": "mouselab-mdp", "trial_index": 31, "time_elapsed": 866056, "internal_node_id": "0.0-4.0-1.0-16.0"}}, {"uniqueid": "w64129294:a47581892", "current_trial": 32, "dateTime": 1664557439898, "trialdata": {"revealed_states": [], "num_clicks_accrued": [0, 0, 0, 0, 0, 0, 0, 0, 0, 0, 0, 0, 0], "stateRewards": ["", 2, -4, 48, -48, -4, -8, -48, 24, -4, 4, 48, 48], "withholdReward": true, "trial_id": "mdp_544803968425", "block": "test1", "trialIndex": 21, "score": 52.25, "costs": -0.75, "simulationMode": [null, null, null], "rewards": [-4, 4, 48], "path": ["0", "0", "9", "10", "11"], "rt": [3835, 62, 111], "actions": ["left", "left", "up"], "actionTimes": [4784, 5350, 5967], "queries": {"click": {"state": {"target": ["6", "10", "11"], "time": [1750, 2586, 3345]}, "edge": {"target": [], "time": []}}, "mouseover": {"state": {"target": ["0", "5", "6", "5", "9", "10", "9", "11", "9"], "time": [1190, 1356, 1639, 2156, 2289, 2372, 2839, 3138, 3938]}, "edge": {"target": [], "time": []}}, "mouseout": {"state": {"target": ["6", "0", "0", "5", "6", "5", "9", "10", "9", "11", "10"], "time": [173, 790, 1240, 1422, 2122, 2206, 2323, 2772, 2922, 3556, 3772]}, "edge": {"target": [], "time": []}}}, "displayed_time": "8.96", "trialTime": 9951, "trial_type": "mouselab-mdp", "trial_index": 32, "time_elapsed": 876049, "internal_node_id": "0.0-4.0-1.0-17.0"}}, {"uniqueid": "w64129294:a47581892", "current_trial": 33, "dateTime": 1664557460498, "trialdata": {"revealed_states": [], "num_clicks_accrued": [0, 0, 0, 0, 0, 0, 0, 0, 0, 0, 0, 0, 0], "stateRewards": ["", -4, -8, -24, -48, -2, -8, 24, -48, -4, -8, 24, -48], "withholdReward": true, "trial_id": "mdp_621812384092", "block": "test1", "trialIndex": 22, "score": 16, "costs": -3, "simulationMode": [null, null, null], "rewards": [-2, -8, 24], "path": ["0", "0", "5", "6", "7"], "rt": [15893, 73, 108], "actions": ["right", "right", "up"], "actionTimes": [17564, 18144, 18760], "queries": {"click": {"state": {"target": ["1", "9", "10", "6", "2", "11", "12", "7", "8", "3", "4", "5"], "time": [3247, 3889, 4751, 5431, 6758, 8666, 9521, 10298, 10853, 11804, 12746, 15023]}, "edge": {"target": [], "time": []}}, "mouseover": {"state": {"target": ["9", "1", "9", "10", "0", "5", "6", "2", "11", "12", "0", "5", "7", "8", "3", "4", "5"], "time": [2474, 3007, 3740, 4640, 5040, 5106, 5273, 6588, 8239, 9321, 9837, 9921, 10140, 10621, 11604, 12456, 14852]}, "edge": {"target": [], "time": []}}, "mouseout": {"state": {"target": ["9", "0", "9", "1", "9", "10", "9", "0", "5", "6", "2", "2", "1", "11", "10", "12", "0", "5", "7", "6", "8", "3", "2", "4", "1", "5", "8"], "time": [1274, 2358, 2791, 3407, 4490, 4940, 5023, 5073, 5222, 6189, 7176, 7339, 7472, 8871, 9221, 9688, 9887, 9937, 10454, 10571, 11220, 12036, 12320, 13003, 14535, 15252, 16368]}, "edge": {"target": [], "time": []}}}, "displayed_time": "19.27", "trialTime": 20556, "trial_type": "mouselab-mdp", "trial_index": 33, "time_elapsed": 896648, "internal_node_id": "0.0-4.0-1.0-18.0"}}, {"uniqueid": "w64129294:a47581892", "current_trial": 34, "dateTime": 1664557471850, "trialdata": {"revealed_states": [], "num_clicks_accrued": [0, 0, 0, 0, 0, 0, 0, 0, 0, 0, 0, 0, 0], "stateRewards": ["", -4, 4, -48, -48, -4, 8, -24, 24, 2, -4, 48, 48], "withholdReward": true, "trial_id": "mdp_821566905048", "block": "test1", "trialIndex": 23, "score": 31, "costs": -2, "simulationMode": [null, null, null], "rewards": [-4, 8, 24], "path": ["0", "0", "5", "6", "8"], "rt": [7092, 22, 89], "actions": ["right", "right", "down"], "actionTimes": [8706, 9237, 9837], "queries": {"click": {"state": {"target": ["2", "10", "4", "3", "6", "7", "8", "5"], "time": [2532, 3405, 4314, 5074, 6094, 6486, 7164, 7730]}, "edge": {"target": [], "time": []}}, "mouseover": {"state": {"target": ["1", "2", "10", "4", "3", "3", "7", "6", "7", "8", "5"], "time": [2016, 2217, 3201, 4215, 4682, 4981, 5631, 5881, 6331, 6981, 7630]}, "edge": {"target": [], "time": []}}, "mouseout": {"state": {"target": ["8", "0", "1", "2", "10", "2", "4", "2", "3", "3", "7", "6", "7", "6", "8", "6", "5"], "time": [866, 1383, 2166, 2766, 3649, 4082, 4499, 4665, 4731, 5349, 5814, 6264, 6681, 6931, 7414, 7481, 7964]}, "edge": {"target": [], "time": []}}}, "displayed_time": "10.35", "trialTime": 11309, "trial_type": "mouselab-mdp", "trial_index": 34, "time_elapsed": 908001, "internal_node_id": "0.0-4.0-1.0-19.0"}}, {"uniqueid": "w64129294:a47581892", "current_trial": 35, "dateTime": 1664557481629, "trialdata": {"revealed_states": [], "num_clicks_accrued": [0, 0, 0, 0, 0, 0, 0, 0, 0, 0, 0, 0, 0], "stateRewards": ["", -4, 4, -24, 48, -2, 8, -48, 24, 2, 4, 48, -48], "withholdReward": true, "trial_id": "mdp_366632183904", "block": "test1", "trialIndex": 24, "score": 52.25, "costs": -0.75, "simulationMode": [null, null, null], "rewards": [-4, 4, 48], "path": ["0", "0", "1", "2", "4"], "rt": [3086, 476, 76], "actions": ["up", "up", "left"], "actionTimes": [4134, 5114, 5699], "queries": {"click": {"state": {"target": ["2", "4", "1"], "time": [1687, 2312, 2931]}, "edge": {"target": [], "time": []}}, "mouseover": {"state": {"target": ["1", "2", "4", "1"], "time": [1406, 1540, 2190, 2773]}, "edge": {"target": [], "time": []}}, "mouseout": {"state": {"target": ["6", "5", "0", "1", "2", "2", "4", "1", "5"], "time": [607, 823, 1273, 1456, 1956, 2073, 2473, 8220, 8336]}, "edge": {"target": [], "time": []}}}, "displayed_time": "9.05", "trialTime": 9734, "trial_type": "mouselab-mdp", "trial_index": 35, "time_elapsed": 917780, "internal_node_id": "0.0-4.0-1.0-20.0"}}, {"uniqueid": "w64129294:a47581892", "current_trial": 36, "dateTime": 1664557492599, "trialdata": {"revealed_states": [], "num_clicks_accrued": [0, 0, 0, 0, 0, 0, 0, 0, 0, 0, 0, 0, 0], "stateRewards": ["", -2, -8, -24, 24, -2, -8, -48, 24, -2, -8, 24, 24], "withholdReward": true, "trial_id": "mdp_336617436097", "block": "test1", "trialIndex": 25, "score": 17.75, "costs": -1.25, "simulationMode": [null, null, null], "rewards": [-2, -8, 24], "path": ["0", "0", "9", "10", "11"], "rt": [5799, 60, 97], "actions": ["left", "left", "up"], "actionTimes": [6734, 7301, 7905], "queries": {"click": {"state": {"target": ["2", "6", "10", "11", "9"], "time": [2021, 2880, 3685, 4320, 5309]}, "edge": {"target": [], "time": []}}, "mouseover": {"state": {"target": ["1", "2", "5", "6", "5", "0", "9", "10", "11", "12", "9"], "time": [1392, 1842, 2576, 2759, 3142, 3242, 3325, 3558, 4041, 4758, 5208]}, "edge": {"target": [], "time": []}}, "mouseout": {"state": {"target": ["0", "1", "2", "5", "6", "5", "0", "9", "10", "11", "10", "12", "9"], "time": [1210, 1793, 2242, 2592, 3092, 3209, 3291, 3458, 3958, 4475, 4675, 5074, 6173]}, "edge": {"target": [], "time": []}}}, "displayed_time": "9.95", "trialTime": 10911, "trial_type": "mouselab-mdp", "trial_index": 36, "time_elapsed": 928750, "internal_node_id": "0.0-4.0-1.0-21.0"}}, {"uniqueid": "w64129294:a47581892", "current_trial": 37, "dateTime": 1664557509498, "trialdata": {"revealed_states": [], "num_clicks_accrued": [0, 0, 0, 0, 0, 0, 0, 0, 0, 0, 0, 0, 0], "stateRewards": ["", -2, -4, -48, -48, -2, -8, 48, -48, 4, -8, -48, 24], "withholdReward": true, "trial_id": "mdp_468495641521", "block": "test1", "trialIndex": 26, "score": 41.5, "costs": -1.5, "simulationMode": [null, null, null], "rewards": [-2, -8, 48], "path": ["0", "0", "5", "6", "7"], "rt": [6873, 558, 182], "actions": ["right", "right", "up"], "actionTimes": [12828, 13898, 14588], "queries": {"click": {"state": {"target": ["10", "6", "2", "4", "7", "5"], "time": [7512, 8165, 9016, 9818, 10841, 11801]}, "edge": {"target": [], "time": []}}, "mouseover": {"state": {"target": ["9", "10", "9", "0", "5", "6", "2", "4", "3", "7", "8", "5"], "time": [6542, 6641, 7657, 7774, 7841, 7941, 8707, 9573, 10256, 10672, 11305, 11739]}, "edge": {"target": [], "time": []}}, "mouseout": {"state": {"target": ["5", "7", "5", "0", "9", "10", "9", "0", "5", "6", "2", "4", "2", "3", "7", "6", "8", "5", "8"], "time": [4726, 4842, 4942, 6525, 6559, 7641, 7708, 7807, 7874, 8424, 9507, 10057, 10173, 10407, 11006, 11156, 11589, 11972, 16354]}, "edge": {"target": [], "time": []}}}, "displayed_time": "15.96", "trialTime": 16847, "trial_type": "mouselab-mdp", "trial_index": 37, "time_elapsed": 945648, "internal_node_id": "0.0-4.0-1.0-22.0"}}, {"uniqueid": "w64129294:a47581892", "current_trial": 38, "dateTime": 1664557520861, "trialdata": {"revealed_states": [], "num_clicks_accrued": [0, 0, 0, 0, 0, 0, 0, 0, 0, 0, 0, 0, 0], "stateRewards": ["", 2, 4, 48, 24, -2, -8, 24, 24, -2, 4, -48, 24], "withholdReward": false, "trial_id": "mdp_130849500124", "block": "test1", "trialIndex": 27, "score": 29.75, "costs": -1.25, "simulationMode": [null, null, null], "rewards": [-2, 4, 24], "path": ["0", "0", "9", "10", "12"], "rt": [4896, 110, 227], "actions": ["left", "left", "down"], "actionTimes": [5691, 6314, 7046], "queries": {"click": {"state": {"target": ["10", "6", "11", "12", "9"], "time": [1840, 2637, 3323, 3902, 4898]}, "edge": {"target": [], "time": []}}, "mouseover": {"state": {"target": ["9", "10", "9", "0", "6", "5", "11", "12", "9"], "time": [1438, 1605, 2122, 2155, 2371, 2954, 3187, 3787, 4398]}, "edge": {"target": [], "time": []}}, "mouseout": {"state": {"target": ["0", "9", "10", "9", "0", "6", "5", "11", "10", "12"], "time": [471, 1538, 2088, 2138, 2172, 2904, 2971, 3520, 3720, 4120]}, "edge": {"target": [], "time": []}}}, "displayed_time": "9.80", "trialTime": 11314, "trial_type": "mouselab-mdp", "trial_index": 38, "time_elapsed": 957012, "internal_node_id": "0.0-4.0-1.0-23.0"}}, {"uniqueid": "w64129294:a47581892", "current_trial": 39, "dateTime": 1664557534902, "trialdata": {"revealed_states": [], "num_clicks_accrued": [0, 0, 0, 0, 0, 0, 0, 0, 0, 0, 0, 0, 0], "stateRewards": ["", 2, -4, 24, -24, 2, -8, 48, 48, 4, -4, 24, 48], "withholdReward": true, "trial_id": "mdp_947836623875", "block": "test1", "trialIndex": 28, "score": 25.75, "costs": -1.25, "simulationMode": [null, null, null], "rewards": [2, -4, 24], "path": ["0", "0", "1", "2", "3"], "rt": [6188, 147, 211], "actions": ["up", "up", "right"], "actionTimes": [9992, 10643, 11357], "queries": {"click": {"state": {"target": ["2", "10", "6", "3", "1"], "time": [5717, 6455, 7183, 8224, 8968]}, "edge": {"target": [], "time": []}}, "mouseover": {"state": {"target": ["5", "1", "2", "10", "9", "0", "5", "6", "7", "3", "3", "1"], "time": [4948, 5248, 5531, 6281, 6647, 6748, 6797, 7081, 7630, 7963, 8047, 8663]}, "edge": {"target": [], "time": []}}, "mouseout": {"state": {"target": ["9", "0", "5", "1", "2", "10", "9", "0", "5", "6", "7", "3", "3", "2", "1"], "time": [3399, 4898, 5148, 5365, 6015, 6581, 6730, 6781, 6831, 7514, 7813, 7981, 8464, 8614, 9347]}, "edge": {"target": [], "time": []}}}, "displayed_time": "12.81", "trialTime": 13988, "trial_type": "mouselab-mdp", "trial_index": 39, "time_elapsed": 971053, "internal_node_id": "0.0-4.0-1.0-24.0"}}, {"uniqueid": "w64129294:a47581892", "current_trial": 40, "dateTime": 1664557547297, "trialdata": {"revealed_states": [], "num_clicks_accrued": [0, 0, 0, 0, 0, 0, 0, 0, 0, 0, 0, 0, 0], "stateRewards": ["", -4, -8, -24, 24, 4, 4, -48, -48, -4, -4, 24, -48], "withholdReward": false, "trial_id": "mdp_431592223624", "block": "test1", "trialIndex": 29, "score": 18.75, "costs": -2.25, "simulationMode": [null, null, null], "rewards": [-4, -4, 24], "path": ["0", "0", "9", "10", "11"], "rt": [8466, 30, 90], "actions": ["left", "left", "up"], "actionTimes": [9232, 9771, 10380], "queries": {"click": {"state": {"target": ["2", "10", "6", "7", "8", "5", "9", "12", "11"], "time": [1536, 2553, 3261, 3838, 4416, 4922, 6159, 7061, 7602]}, "edge": {"target": [], "time": []}}, "mouseover": {"state": {"target": ["1", "2", "2", "4", "10", "9", "0", "5", "6", "7", "8", "5", "0", "9", "12", "11"], "time": [1043, 1142, 1328, 1925, 2391, 2791, 2858, 2957, 3175, 3708, 4308, 4756, 5290, 5607, 6623, 7523]}, "edge": {"target": [], "time": []}}, "mouseout": {"state": {"target": ["0", "1", "2", "2", "4", "10", "9", "0", "5", "6", "7", "6", "8", "5", "0", "9", "12", "10", "11"], "time": [975, 1093, 1175, 1825, 2058, 2742, 2824, 2875, 3074, 3574, 4041, 4240, 4607, 5257, 5457, 6439, 7223, 7306, 7789]}, "edge": {"target": [], "time": []}}}, "displayed_time": "10.89", "trialTime": 12348, "trial_type": "mouselab-mdp", "trial_index": 40, "time_elapsed": 983448, "internal_node_id": "0.0-4.0-1.0-25.0"}}, {"uniqueid": "w64129294:a47581892", "current_trial": 41, "dateTime": 1664557557954, "trialdata": {"revealed_states": [], "num_clicks_accrued": [0, 0, 0, 0, 0, 0, 0, 0, 0, 0, 0, 0, 0], "stateRewards": ["", 2, -8, -24, 48, -4, -8, 24, -48, 4, -8, -24, -24], "withholdReward": true, "trial_id": "mdp_928911266656", "block": "test1", "trialIndex": 30, "score": 45.5, "costs": -1.5, "simulationMode": [null, null, null], "rewards": [2, -8, 48], "path": ["0", "0", "1", "2", "4"], "rt": [6486, 84, 28], "actions": ["up", "up", "left"], "actionTimes": [7902, 8495, 9037], "queries": {"click": {"state": {"target": ["2", "10", "6", "3", "4", "1"], "time": [2185, 2906, 3543, 4974, 5654, 6906]}, "edge": {"target": [], "time": []}}, "mouseover": {"state": {"target": ["1", "2", "10", "9", "0", "5", "6", "3", "4", "11", "1"], "time": [1778, 1895, 2678, 3078, 3145, 3211, 3294, 4744, 5411, 6027, 6809]}, "edge": {"target": [], "time": []}}, "mouseout": {"state": {"target": ["1", "1", "2", "10", "9", "0", "5", "6", "3", "2", "4", "11"], "time": [1062, 1846, 2495, 3045, 3112, 3195, 3245, 4561, 5260, 5361, 5894, 6476]}, "edge": {"target": [], "time": []}}}, "displayed_time": "9.54", "trialTime": 10614, "trial_type": "mouselab-mdp", "trial_index": 41, "time_elapsed": 994105, "internal_node_id": "0.0-4.0-1.0-26.0"}}, {"uniqueid": "w64129294:a47581892", "current_trial": 42, "dateTime": 1664557568077, "trialdata": {"revealed_states": [], "num_clicks_accrued": [0, 0, 0, 0, 0, 0, 0, 0, 0, 0, 0, 0, 0], "stateRewards": ["", 2, -4, 48, -48, 2, 4, -24, 24, -4, -8, 24, -48], "withholdReward": true, "trial_id": "mdp_238810765895", "block": "test1", "trialIndex": 31, "score": 33.5, "costs": -1.5, "simulationMode": [null, null, null], "rewards": [2, 4, 24], "path": ["0", "0", "5", "6", "8"], "rt": [4831, 44, 257], "actions": ["right", "right", "down"], "actionTimes": [6224, 6774, 7538], "queries": {"click": {"state": {"target": ["2", "10", "6", "7", "8", "5"], "time": [2001, 2951, 3672, 4136, 4892, 5440]}, "edge": {"target": [], "time": []}}, "mouseover": {"state": {"target": ["1", "2", "4", "10", "9", "5", "6", "6", "7", "8", "5"], "time": [1682, 1832, 2398, 2698, 3198, 3264, 3298, 3598, 3997, 4797, 5346]}, "edge": {"target": [], "time": []}}, "mouseout": {"state": {"target": ["1", "1", "2", "4", "10", "9", "5", "6", "6", "7", "6", "8"], "time": [948, 1765, 2281, 2599, 3147, 3231, 3281, 3381, 3848, 4347, 4614, 5131]}, "edge": {"target": [], "time": []}}}, "displayed_time": "9.40", "trialTime": 10078, "trial_type": "mouselab-mdp", "trial_index": 42, "time_elapsed": 1004228, "internal_node_id": "0.0-4.0-1.0-27.0"}}, {"uniqueid": "w64129294:a47581892", "current_trial": 43, "dateTime": 1664557579106, "trialdata": {"revealed_states": [], "num_clicks_accrued": [0, 0, 0, 0, 0, 0, 0, 0, 0, 0, 0, 0, 0], "stateRewards": ["", -4, 8, 24, -24, 4, 8, -24, -48, 2, 4, 24, -24], "withholdReward": false, "trial_id": "mdp_782187007008", "block": "test1", "trialIndex": 32, "score": 34.25, "costs": -0.75, "simulationMode": [null, null, null], "rewards": [2, 4, 24], "path": ["0", "0", "9", "10", "11"], "rt": [3402, 55, 136], "actions": ["left", "left", "up"], "actionTimes": [4342, 4905, 5552], "queries": {"click": {"state": {"target": ["10", "11", "9"], "time": [1818, 2711, 3322]}, "edge": {"target": [], "time": []}}, "mouseover": {"state": {"target": ["10", "9", "11", "9"], "time": [1634, 2100, 2550, 3133]}, "edge": {"target": [], "time": []}}, "mouseout": {"state": {"target": ["5", "0", "10", "9", "11", "9"], "time": [301, 1267, 2017, 2151, 2966, 7215]}, "edge": {"target": [], "time": []}}}, "displayed_time": "9.94", "trialTime": 10980, "trial_type": "mouselab-mdp", "trial_index": 43, "time_elapsed": 1015257, "internal_node_id": "0.0-4.0-1.0-28.0"}}, {"uniqueid": "w64129294:a47581892", "current_trial": 44, "dateTime": 1664557590318, "trialdata": {"revealed_states": [], "num_clicks_accrued": [0, 0, 0, 0, 0, 0, 0, 0, 0, 0, 0, 0, 0], "stateRewards": ["", -4, 4, 24, 24, 4, -8, 48, -48, -2, -8, 24, 24], "withholdReward": false, "trial_id": "mdp_395264223239", "block": "test1", "trialIndex": 33, "score": 28.25, "costs": -0.75, "simulationMode": [null, null, null], "rewards": [-4, 4, 24], "path": ["0", "0", "1", "2", "4"], "rt": [3918, 105, 171], "actions": ["up", "up", "left"], "actionTimes": [5174, 5789, 6473], "queries": {"click": {"state": {"target": ["2", "4", "1"], "time": [2167, 2852, 3453]}, "edge": {"target": [], "time": []}}, "mouseover": {"state": {"target": ["1", "2", "4", "1"], "time": [1702, 2019, 2652, 3269]}, "edge": {"target": [], "time": []}}, "mouseout": {"state": {"target": ["0", "1", "2", "4", "1"], "time": [1553, 1720, 2569, 3152, 4419]}, "edge": {"target": [], "time": []}}}, "displayed_time": "10.27", "trialTime": 11166, "trial_type": "mouselab-mdp", "trial_index": 44, "time_elapsed": 1026469, "internal_node_id": "0.0-4.0-1.0-29.0"}}, {"uniqueid": "w64129294:a47581892", "current_trial": 45, "dateTime": 1664557605809, "trialdata": {"rt": 15489, "stimulus": "<h1> End of block! </h1>\n\nYou have reached the end of the block 1/4. If you need a short break, feel free to take one now before moving on.\n\n<br><br>\nIn the next block, you will complete another 30 rounds of this game.\n\n<br><br>\n<div style='text-align: center;'>Press <code>space</code> to begin.</div>\n<br><br>\n<div style='text-align: center;'>(If the experiment doesn't continue, try clicking on the text and then pressing <code>space</code>.)</div>", "response": " ", "trial_id": "mdp_ready_2", "trial_type": "html-keyboard-response", "trial_index": 45, "time_elapsed": 1041960, "internal_node_id": "0.0-4.0-2.0"}}, {"uniqueid": "w64129294:a47581892", "current_trial": 46, "dateTime": 1664557617146, "trialdata": {"revealed_states": [], "num_clicks_accrued": [0, 0, 0, 0, 0, 0, 0, 0, 0, 0, 0, 0, 0], "stateRewards": ["", -4, 8, 24, 24, 2, 4, -48, 24, -2, -4, -24, -24], "withholdReward": true, "trial_id": "mdp_752328329546", "block": "test2", "trialIndex": 34, "score": 31.75, "costs": -1.25, "simulationMode": [null, null, null], "rewards": [-4, 8, 24], "path": ["0", "0", "1", "2", "3"], "rt": [5554, 489, 176], "actions": ["up", "up", "right"], "actionTimes": [7176, 8170, 8857], "queries": {"click": {"state": {"target": ["10", "2", "6", "3", "1"], "time": [2706, 3494, 4373, 5382, 6328]}, "edge": {"target": [], "time": []}}, "mouseover": {"state": {"target": ["9", "10", "2", "6", "3", "1"], "time": [2249, 2582, 3319, 3931, 5230, 6197]}, "edge": {"target": [], "time": []}}, "mouseout": {"state": {"target": ["7", "5", "0", "9", "10", "2", "6", "3", "2"], "time": [866, 1182, 2215, 2349, 2981, 3731, 4647, 5580, 6030]}, "edge": {"target": [], "time": []}}}, "displayed_time": "10.63", "trialTime": 11285, "trial_type": "mouselab-mdp", "trial_index": 46, "time_elapsed": 1053297, "internal_node_id": "0.0-4.0-3.0-0.0"}}, {"uniqueid": "w64129294:a47581892", "current_trial": 47, "dateTime": 1664557627162, "trialdata": {"revealed_states": [], "num_clicks_accrued": [0, 0, 0, 0, 0, 0, 0, 0, 0, 0, 0, 0, 0], "stateRewards": ["", 4, -8, 48, -24, -4, 4, 24, 24, -2, -4, 24, 24], "withholdReward": true, "trial_id": "mdp_542168715839", "block": "test2", "trialIndex": 35, "score": 27.75, "costs": -1.25, "simulationMode": [null, null, null], "rewards": [-4, 4, 24], "path": ["0", "0", "5", "6", "7"], "rt": [4836, 89, 110], "actions": ["right", "right", "up"], "actionTimes": [6043, 6635, 7258], "queries": {"click": {"state": {"target": ["2", "10", "6", "7", "5"], "time": [1832, 2650, 3539, 4250, 5052]}, "edge": {"target": [], "time": []}}, "mouseover": {"state": {"target": ["1", "2", "10", "9", "5", "6", "7", "5"], "time": [1482, 1581, 2551, 3081, 3165, 3323, 4097, 4847]}, "edge": {"target": [], "time": []}}, "mouseout": {"state": {"target": ["1", "0", "0", "1", "2", "10", "9", "5", "6", "7", "6"], "time": [732, 815, 1365, 1532, 2115, 3048, 3115, 3198, 3964, 4513, 4699]}, "edge": {"target": [], "time": []}}}, "displayed_time": "9.21", "trialTime": 9971, "trial_type": "mouselab-mdp", "trial_index": 47, "time_elapsed": 1063313, "internal_node_id": "0.0-4.0-3.0-1.0"}}, {"uniqueid": "w64129294:a47581892", "current_trial": 48, "dateTime": 1664557638199, "trialdata": {"revealed_states": [], "num_clicks_accrued": [0, 0, 0, 0, 0, 0, 0, 0, 0, 0, 0, 0, 0], "stateRewards": ["", 4, 4, -24, -48, 2, 4, 24, -48, 2, 4, 24, 24], "withholdReward": false, "trial_id": "mdp_223558518218", "block": "test2", "trialIndex": 36, "score": 33.5, "costs": -1.5, "simulationMode": [null, null, null], "rewards": [2, 4, 24], "path": ["0", "0", "5", "6", "7"], "rt": [5830, 429, 72], "actions": ["right", "right", "up"], "actionTimes": [7197, 8131, 8707], "queries": {"click": {"state": {"target": ["2", "4", "3", "6", "7", "5"], "time": [2270, 3702, 4227, 5148, 5592, 6228]}, "edge": {"target": [], "time": []}}, "mouseover": {"state": {"target": ["0", "1", "2", "10", "4", "3", "6", "7", "5"], "time": [1636, 1786, 2153, 3120, 3486, 4019, 5041, 5502, 6154]}, "edge": {"target": [], "time": []}}, "mouseout": {"state": {"target": ["5", "5", "0", "0", "1", "2", "10", "4", "2", "3", "6", "7", "6", "5"], "time": [820, 1037, 1220, 1720, 1970, 2686, 3336, 3912, 3986, 4435, 5418, 5785, 6035, 6551]}, "edge": {"target": [], "time": []}}}, "displayed_time": "10.37", "trialTime": 10984, "trial_type": "mouselab-mdp", "trial_index": 48, "time_elapsed": 1074349, "internal_node_id": "0.0-4.0-3.0-2.0"}}, {"uniqueid": "w64129294:a47581892", "current_trial": 49, "dateTime": 1664557666354, "trialdata": {"revealed_states": [], "num_clicks_accrued": [0, 0, 0, 0, 0, 0, 0, 0, 0, 0, 0, 0, 0], "stateRewards": ["", 2, -8, -24, 48, -4, -8, 24, -48, 4, -8, -24, -24], "withholdReward": false, "trial_id": "mdp_928911266656", "block": "test2", "trialIndex": 37, "score": 15.25, "costs": -1.75, "simulationMode": [null, null, null], "rewards": [-4, -8, 24], "path": ["0", "0", "5", "6", "7"], "rt": [7699, 299, 103], "actions": ["right", "right", "up"], "actionTimes": [24642, 25456, 26075], "queries": {"click": {"state": {"target": ["6", "2", "10", "12", "11", "7", "5"], "time": [19170, 19921, 20711, 21429, 21919, 22624, 23554]}, "edge": {"target": [], "time": []}}, "mouseover": {"state": {"target": ["5", "6", "2", "10", "12", "11", "7", "8", "5"], "time": [17425, 17742, 19691, 20457, 21223, 21757, 22423, 22973, 23406]}, "edge": {"target": [], "time": []}}, "mouseout": {"state": {"target": ["5", "0", "8", "5", "0", "5", "6", "2", "10", "12", "10", "11", "7", "6", "8", "5"], "time": [1099, 1699, 7330, 15826, 17309, 17625, 19575, 20308, 21141, 21590, 21707, 22107, 22773, 22893, 23340, 23740]}, "edge": {"target": [], "time": []}}}, "displayed_time": "26.59", "trialTime": 28107, "trial_type": "mouselab-mdp", "trial_index": 49, "time_elapsed": 1102505, "internal_node_id": "0.0-4.0-3.0-3.0"}}, {"uniqueid": "w64129294:a47581892", "current_trial": 50, "dateTime": 1664557678953, "trialdata": {"revealed_states": [], "num_clicks_accrued": [0, 0, 0, 0, 0, 0, 0, 0, 0, 0, 0, 0, 0], "stateRewards": ["", -2, 8, 48, 48, 2, 4, -48, 24, -4, -8, 48, 24], "withholdReward": true, "trial_id": "mdp_572910394648", "block": "test2", "trialIndex": 38, "score": 34, "costs": -1, "simulationMode": [null, null, null], "rewards": [2, 4, 24], "path": ["0", "0", "5", "6", "8"], "rt": [3984, 416, 254], "actions": ["right", "right", "down"], "actionTimes": [5248, 6179, 6950], "queries": {"click": {"state": {"target": ["6", "7", "8", "5"], "time": [2108, 3125, 3742, 4407]}, "edge": {"target": [], "time": []}}, "mouseover": {"state": {"target": ["5", "6", "7", "8", "5"], "time": [1681, 1748, 2614, 3547, 4313]}, "edge": {"target": [], "time": []}}, "mouseout": {"state": {"target": ["5", "0", "0", "5", "6", "7", "6", "8", "5"], "time": [781, 814, 1051, 1714, 2481, 3430, 3530, 4080, 4613]}, "edge": {"target": [], "time": []}}}, "displayed_time": "11.30", "trialTime": 12550, "trial_type": "mouselab-mdp", "trial_index": 50, "time_elapsed": 1115104, "internal_node_id": "0.0-4.0-3.0-4.0"}}, {"uniqueid": "w64129294:a47581892", "current_trial": 51, "dateTime": 1664557688788, "trialdata": {"revealed_states": [], "num_clicks_accrued": [0, 0, 0, 0, 0, 0, 0, 0, 0, 0, 0, 0, 0], "stateRewards": ["", 4, -8, 48, -24, 4, -4, -48, -48, 4, -4, 24, 24], "withholdReward": false, "trial_id": "mdp_221562928904", "block": "test2", "trialIndex": 39, "score": 27.75, "costs": -1.25, "simulationMode": [null, null, null], "rewards": [4, -4, 24], "path": ["0", "0", "9", "10", "11"], "rt": [5321, 39, 104], "actions": ["left", "left", "up"], "actionTimes": [6204, 6760, 7375], "queries": {"click": {"state": {"target": ["10", "6", "2", "11", "9"], "time": [2017, 2961, 3597, 4535, 5166]}, "edge": {"target": [], "time": []}}, "mouseover": {"state": {"target": ["9", "10", "1", "6", "2", "9", "11", "9"], "time": [1490, 1607, 2573, 2806, 3422, 4256, 4406, 4989]}, "edge": {"target": [], "time": []}}, "mouseout": {"state": {"target": ["0", "9", "10", "1", "6", "2", "9", "11", "10"], "time": [1440, 1573, 2507, 2590, 3173, 4105, 4273, 4738, 4955]}, "edge": {"target": [], "time": []}}}, "displayed_time": "8.89", "trialTime": 9750, "trial_type": "mouselab-mdp", "trial_index": 51, "time_elapsed": 1124939, "internal_node_id": "0.0-4.0-3.0-5.0"}}, {"uniqueid": "w64129294:a47581892", "current_trial": 52, "dateTime": 1664557700319, "trialdata": {"revealed_states": [], "num_clicks_accrued": [0, 0, 0, 0, 0, 0, 0, 0, 0, 0, 0, 0, 0], "stateRewards": ["", -4, -4, 24, -48, 2, 4, -24, -48, -2, -8, -24, 24], "withholdReward": true, "trial_id": "mdp_565569130486", "block": "test2", "trialIndex": 40, "score": 19, "costs": -2, "simulationMode": [null, null, null], "rewards": [-4, -4, 24], "path": ["0", "0", "1", "2", "3"], "rt": [7804, 7, 68], "actions": ["up", "up", "right"], "actionTimes": [9039, 9558, 10150], "queries": {"click": {"state": {"target": ["10", "6", "7", "8", "2", "4", "3", "1"], "time": [2472, 3460, 4467, 5112, 6196, 6609, 7435, 8110]}, "edge": {"target": [], "time": []}}, "mouseover": {"state": {"target": ["0", "9", "10", "9", "5", "6", "7", "7", "8", "5", "1", "2", "4", "3", "1"], "time": [1603, 2002, 2269, 2936, 3035, 3302, 4068, 4367, 4884, 5534, 5800, 6017, 6500, 7334, 7783]}, "edge": {"target": [], "time": []}}, "mouseout": {"state": {"target": ["9", "0", "9", "10", "9", "5", "6", "7", "7", "6", "8", "5", "1", "2", "4", "2", "3"], "time": [704, 1619, 2019, 2902, 2953, 3152, 3718, 4086, 4751, 4851, 5351, 5734, 5917, 6400, 6751, 6917, 7617]}, "edge": {"target": [], "time": []}}}, "displayed_time": "10.67", "trialTime": 11480, "trial_type": "mouselab-mdp", "trial_index": 52, "time_elapsed": 1136470, "internal_node_id": "0.0-4.0-3.0-6.0"}}, {"uniqueid": "w64129294:a47581892", "current_trial": 53, "dateTime": 1664557711026, "trialdata": {"revealed_states": [], "num_clicks_accrued": [0, 0, 0, 0, 0, 0, 0, 0, 0, 0, 0, 0, 0], "stateRewards": ["", -4, -4, -48, 48, -4, -8, -24, -48, -2, 8, 48, 24], "withholdReward": true, "trial_id": "mdp_365393526663", "block": "test2", "trialIndex": 41, "score": 58, "costs": -1, "simulationMode": [null, null, null], "rewards": [-2, 8, 48], "path": ["0", "0", "9", "10", "11"], "rt": [4120, 101, 64], "actions": ["left", "left", "up"], "actionTimes": [5178, 5786, 6365], "queries": {"click": {"state": {"target": ["1", "10", "9", "11"], "time": [1946, 2779, 3260, 3904]}, "edge": {"target": [], "time": []}}, "mouseover": {"state": {"target": ["1", "9", "10", "9", "11"], "time": [1636, 2369, 2669, 3219, 3768]}, "edge": {"target": [], "time": []}}, "mouseout": {"state": {"target": ["1", "0", "1", "9", "10", "9", "11", "10", "12"], "time": [786, 1486, 2135, 2536, 3002, 3618, 4118, 4352, 7433]}, "edge": {"target": [], "time": []}}}, "displayed_time": "9.06", "trialTime": 10642, "trial_type": "mouselab-mdp", "trial_index": 53, "time_elapsed": 1147177, "internal_node_id": "0.0-4.0-3.0-7.0"}}, {"uniqueid": "w64129294:a47581892", "current_trial": 54, "dateTime": 1664557722073, "trialdata": {"revealed_states": [], "num_clicks_accrued": [0, 0, 0, 0, 0, 0, 0, 0, 0, 0, 0, 0, 0], "stateRewards": ["", -2, 8, -48, 48, -4, -8, 24, 24, -2, -4, 48, -48], "withholdReward": true, "trial_id": "mdp_867247318592", "block": "test2", "trialIndex": 42, "score": 58, "costs": -1, "simulationMode": [null, null, null], "rewards": [-2, 8, 48], "path": ["0", "0", "1", "2", "4"], "rt": [4505, 80, 143], "actions": ["up", "up", "left"], "actionTimes": [5551, 6137, 6783], "queries": {"click": {"state": {"target": ["6", "2", "4", "1"], "time": [2527, 3213, 4122, 4731]}, "edge": {"target": [], "time": []}}, "mouseover": {"state": {"target": ["6", "2", "4", "1"], "time": [2224, 3058, 3990, 4506]}, "edge": {"target": [], "time": []}}, "mouseout": {"state": {"target": ["0", "6", "2", "4"], "time": [1692, 2808, 3440, 4306]}, "edge": {"target": [], "time": []}}}, "displayed_time": "10.05", "trialTime": 11000, "trial_type": "mouselab-mdp", "trial_index": 54, "time_elapsed": 1158224, "internal_node_id": "0.0-4.0-3.0-8.0"}}, {"uniqueid": "w64129294:a47581892", "current_trial": 55, "dateTime": 1664557732389, "trialdata": {"revealed_states": [], "num_clicks_accrued": [0, 0, 0, 0, 0, 0, 0, 0, 0, 0, 0, 0, 0], "stateRewards": ["", -2, -8, 48, 24, 2, 4, 24, -24, -2, -4, 48, -48], "withholdReward": true, "trial_id": "mdp_411152402386", "block": "test2", "trialIndex": 43, "score": 33.75, "costs": -1.25, "simulationMode": [null, null, null], "rewards": [2, 4, 24], "path": ["0", "0", "5", "6", "7"], "rt": [4154, 57, 62], "actions": ["right", "right", "up"], "actionTimes": [5767, 6328, 6901], "queries": {"click": {"state": {"target": ["2", "10", "6", "7", "5"], "time": [2237, 2930, 3570, 4115, 4840]}, "edge": {"target": [], "time": []}}, "mouseover": {"state": {"target": ["1", "1", "2", "9", "10", "9", "6", "7", "5"], "time": [1839, 1907, 2106, 2622, 2772, 3106, 3373, 3955, 4721]}, "edge": {"target": [], "time": []}}, "mouseout": {"state": {"target": ["1", "1", "1", "2", "9", "10", "9", "6", "7"], "time": [1090, 1856, 1923, 2438, 2639, 3072, 3139, 3838, 4538]}, "edge": {"target": [], "time": []}}}, "displayed_time": "9.62", "trialTime": 10269, "trial_type": "mouselab-mdp", "trial_index": 55, "time_elapsed": 1168540, "internal_node_id": "0.0-4.0-3.0-9.0"}}, {"uniqueid": "w64129294:a47581892", "current_trial": 56, "dateTime": 1664557743575, "trialdata": {"revealed_states": [], "num_clicks_accrued": [0, 0, 0, 0, 0, 0, 0, 0, 0, 0, 0, 0, 0], "stateRewards": ["", -4, -4, 24, -48, -2, 8, -24, -48, -4, 4, 24, -48], "withholdReward": true, "trial_id": "mdp_934626330092", "block": "test2", "trialIndex": 44, "score": 27.5, "costs": -1.5, "simulationMode": [null, null, null], "rewards": [-4, 4, 24], "path": ["0", "0", "9", "10", "11"], "rt": [5908, 91, 88], "actions": ["left", "left", "up"], "actionTimes": [7506, 8102, 8698], "queries": {"click": {"state": {"target": ["6", "7", "8", "10", "11", "9"], "time": [2527, 3601, 4259, 5520, 6004, 6574]}, "edge": {"target": [], "time": []}}, "mouseover": {"state": {"target": ["5", "6", "5", "9", "0", "5", "7", "8", "5", "9", "10", "11", "9"], "time": [2030, 2374, 2830, 3112, 3130, 3164, 3412, 4128, 4844, 5145, 5362, 5861, 6461]}, "edge": {"target": [], "time": []}}, "mouseout": {"state": {"target": ["5", "0", "5", "6", "5", "9", "0", "5", "7", "6", "8", "6", "5", "9", "10", "11"], "time": [1213, 1996, 2064, 2779, 2863, 3130, 3162, 3212, 3912, 4078, 4495, 4628, 5044, 5212, 5794, 6278]}, "edge": {"target": [], "time": []}}}, "displayed_time": "10.60", "trialTime": 11133, "trial_type": "mouselab-mdp", "trial_index": 56, "time_elapsed": 1179726, "internal_node_id": "0.0-4.0-3.0-10.0"}}, {"uniqueid": "w64129294:a47581892", "current_trial": 57, "dateTime": 1664557754058, "trialdata": {"revealed_states": [], "num_clicks_accrued": [0, 0, 0, 0, 0, 0, 0, 0, 0, 0, 0, 0, 0], "stateRewards": ["", 4, -8, -48, 24, 4, 4, -24, -24, 2, 4, -48, 24], "withholdReward": true, "trial_id": "mdp_626971397185", "block": "test2", "trialIndex": 45, "score": 33.75, "costs": -1.25, "simulationMode": [null, null, null], "rewards": [2, 4, 24], "path": ["0", "0", "9", "10", "12"], "rt": [4883, 58, 78], "actions": ["left", "left", "down"], "actionTimes": [6060, 6634, 7221], "queries": {"click": {"state": {"target": ["2", "10", "11", "12", "9"], "time": [2112, 3260, 3975, 4630, 5198]}, "edge": {"target": [], "time": []}}, "mouseover": {"state": {"target": ["1", "2", "1", "9", "10", "9", "0", "9", "11", "12", "9"], "time": [1494, 1727, 2793, 2943, 3093, 3460, 3543, 3693, 3827, 4492, 5109]}, "edge": {"target": [], "time": []}}, "mouseout": {"state": {"target": ["9", "0", "0", "1", "2", "1", "9", "10", "9", "0", "9", "11", "10", "12", "9"], "time": [777, 866, 1427, 1577, 2510, 2843, 3010, 3409, 3509, 3643, 3710, 4177, 4426, 4859, 9074]}, "edge": {"target": [], "time": []}}}, "displayed_time": "9.18", "trialTime": 10434, "trial_type": "mouselab-mdp", "trial_index": 57, "time_elapsed": 1190209, "internal_node_id": "0.0-4.0-3.0-11.0"}}, {"uniqueid": "w64129294:a47581892", "current_trial": 58, "dateTime": 1664557765550, "trialdata": {"revealed_states": [], "num_clicks_accrued": [0, 0, 0, 0, 0, 0, 0, 0, 0, 0, 0, 0, 0], "stateRewards": ["", 2, 4, 48, 48, -2, 4, 48, -24, -4, 8, -48, 48], "withholdReward": true, "trial_id": "mdp_407586865939", "block": "test2", "trialIndex": 46, "score": 56, "costs": -1, "simulationMode": [null, null, null], "rewards": [-4, 8, 48], "path": ["0", "0", "9", "10", "12"], "rt": [3503, 114, 142], "actions": ["left", "left", "down"], "actionTimes": [4847, 5467, 6127], "queries": {"click": {"state": {"target": ["10", "11", "12", "9"], "time": [2229, 2823, 3515, 4009]}, "edge": {"target": [], "time": []}}, "mouseover": {"state": {"target": ["10", "11", "12", "9"], "time": [2018, 2718, 3418, 3951]}, "edge": {"target": [], "time": []}}, "mouseout": {"state": {"target": ["0", "10", "11", "10", "12", "9"], "time": [1602, 2635, 3035, 3319, 3701, 10382]}, "edge": {"target": [], "time": []}}}, "displayed_time": "10.35", "trialTime": 11440, "trial_type": "mouselab-mdp", "trial_index": 58, "time_elapsed": 1201701, "internal_node_id": "0.0-4.0-3.0-12.0"}}, {"uniqueid": "w64129294:a47581892", "current_trial": 59, "dateTime": 1664557777555, "trialdata": {"revealed_states": [], "num_clicks_accrued": [0, 0, 0, 0, 0, 0, 0, 0, 0, 0, 0, 0, 0], "stateRewards": ["", -4, 4, -24, 48, 2, 4, -48, 24, 4, -8, -24, 24], "withholdReward": false, "trial_id": "mdp_740130150937", "block": "test2", "trialIndex": 47, "score": 34, "costs": -1, "simulationMode": [null, null, null], "rewards": [2, 4, 24], "path": ["0", "0", "5", "6", "8"], "rt": [4643, 26, 133], "actions": ["right", "right", "down"], "actionTimes": [6003, 6540, 7182], "queries": {"click": {"state": {"target": ["10", "6", "7", "8"], "time": [2605, 3311, 4293, 4911]}, "edge": {"target": [], "time": []}}, "mouseover": {"state": {"target": ["9", "10", "9", "0", "5", "6", "7", "8"], "time": [1966, 2099, 2849, 2949, 3049, 3232, 4165, 4748]}, "edge": {"target": [], "time": []}}, "mouseout": {"state": {"target": ["0", "9", "10", "9", "0", "5", "6", "7", "6", "8", "6"], "time": [1932, 2016, 2815, 2903, 3015, 3132, 3648, 4614, 4715, 5231, 9678]}, "edge": {"target": [], "time": []}}}, "displayed_time": "10.38", "trialTime": 11947, "trial_type": "mouselab-mdp", "trial_index": 59, "time_elapsed": 1213706, "internal_node_id": "0.0-4.0-3.0-13.0"}}, {"uniqueid": "w64129294:a47581892", "current_trial": 60, "dateTime": 1664557788455, "trialdata": {"revealed_states": [], "num_clicks_accrued": [0, 0, 0, 0, 0, 0, 0, 0, 0, 0, 0, 0, 0], "stateRewards": ["", 2, 4, 48, -24, 2, -8, -24, -24, 2, -8, -24, -48], "withholdReward": true, "trial_id": "mdp_274832552938", "block": "test2", "trialIndex": 48, "score": 57.5, "costs": -1.5, "simulationMode": [null, null, null], "rewards": [2, 4, 48], "path": ["0", "0", "1", "2", "3"], "rt": [4912, 70, 127], "actions": ["up", "up", "right"], "actionTimes": [6125, 6713, 7353], "queries": {"click": {"state": {"target": ["10", "6", "2", "4", "3", "1"], "time": [2017, 2711, 3520, 4138, 4746, 5253]}, "edge": {"target": [], "time": []}}, "mouseover": {"state": {"target": ["9", "10", "9", "0", "5", "6", "3", "2", "4", "3", "1"], "time": [1627, 1811, 2210, 2293, 2361, 2593, 3310, 3443, 3976, 4627, 5060]}, "edge": {"target": [], "time": []}}, "mouseout": {"state": {"target": ["0", "9", "10", "9", "0", "5", "6", "3", "2", "4", "2", "3"], "time": [977, 1677, 2160, 2261, 2343, 2427, 3043, 3344, 3927, 4410, 4559, 4959]}, "edge": {"target": [], "time": []}}}, "displayed_time": "10.22", "trialTime": 10847, "trial_type": "mouselab-mdp", "trial_index": 60, "time_elapsed": 1224606, "internal_node_id": "0.0-4.0-3.0-14.0"}}, {"uniqueid": "w64129294:a47581892", "current_trial": 61, "dateTime": 1664557799625, "trialdata": {"revealed_states": [], "num_clicks_accrued": [0, 0, 0, 0, 0, 0, 0, 0, 0, 0, 0, 0, 0], "stateRewards": ["", 2, -8, -24, -48, -2, -4, 48, 48, 4, 8, 48, 48], "withholdReward": true, "trial_id": "mdp_347285045422", "block": "test2", "trialIndex": 49, "score": 64, "costs": -1, "simulationMode": [null, null, null], "rewards": [4, 8, 48], "path": ["0", "0", "9", "10", "11"], "rt": [3708, 16, 173], "actions": ["left", "left", "up"], "actionTimes": [5276, 5808, 6499], "queries": {"click": {"state": {"target": ["2", "10", "11", "9"], "time": [2290, 2967, 3730, 4340]}, "edge": {"target": [], "time": []}}, "mouseover": {"state": {"target": ["0", "1", "2", "1", "9", "10", "9", "0", "11", "9"], "time": [1595, 1942, 2142, 2541, 2692, 2826, 3158, 3225, 3558, 4208]}, "edge": {"target": [], "time": []}}, "mouseout": {"state": {"target": ["1", "0", "1", "2", "1", "9", "10", "9", "0", "11", "10"], "time": [961, 1875, 2042, 2476, 2609, 2742, 3142, 3192, 3291, 4024, 4141]}, "edge": {"target": [], "time": []}}}, "displayed_time": "10.59", "trialTime": 11120, "trial_type": "mouselab-mdp", "trial_index": 61, "time_elapsed": 1235776, "internal_node_id": "0.0-4.0-3.0-15.0"}}, {"uniqueid": "w64129294:a47581892", "current_trial": 62, "dateTime": 1664557810282, "trialdata": {"revealed_states": [], "num_clicks_accrued": [0, 0, 0, 0, 0, 0, 0, 0, 0, 0, 0, 0, 0], "stateRewards": ["", -4, 8, 24, -24, 4, 8, -24, -48, 2, 4, 24, -24], "withholdReward": true, "trial_id": "mdp_782187007008", "block": "test2", "trialIndex": 50, "score": 34.25, "costs": -0.75, "simulationMode": [null, null, null], "rewards": [2, 4, 24], "path": ["0", "0", "9", "10", "11"], "rt": [2801, 17, 74], "actions": ["left", "left", "up"], "actionTimes": [3870, 4399, 4988], "queries": {"click": {"state": {"target": ["10", "11", "9"], "time": [1678, 2342, 2967]}, "edge": {"target": [], "time": []}}, "mouseover": {"state": {"target": ["9", "10", "9", "11", "9"], "time": [1333, 1415, 1916, 2165, 2832]}, "edge": {"target": [], "time": []}}, "mouseout": {"state": {"target": ["9", "0", "9", "10", "9", "11", "10"], "time": [832, 1299, 1366, 1849, 2082, 2632, 2782]}, "edge": {"target": [], "time": []}}}, "displayed_time": "10.07", "trialTime": 10603, "trial_type": "mouselab-mdp", "trial_index": 62, "time_elapsed": 1246431, "internal_node_id": "0.0-4.0-3.0-16.0"}}, {"uniqueid": "w64129294:a47581892", "current_trial": 63, "dateTime": 1664557820088, "trialdata": {"revealed_states": [], "num_clicks_accrued": [0, 0, 0, 0, 0, 0, 0, 0, 0, 0, 0, 0, 0], "stateRewards": ["", 2, -8, 24, 24, 2, 4, -48, -48, 4, 4, -24, 48], "withholdReward": true, "trial_id": "mdp_985707010949", "block": "test2", "trialIndex": 51, "score": 59.75, "costs": -1.25, "simulationMode": [null, null, null], "rewards": [4, 4, 48], "path": ["0", "0", "9", "10", "12"], "rt": [4125, 10, 69], "actions": ["left", "left", "down"], "actionTimes": [5152, 5666, 6258], "queries": {"click": {"state": {"target": ["2", "10", "11", "12", "9"], "time": [1809, 2492, 3144, 3911, 4336]}, "edge": {"target": [], "time": []}}, "mouseover": {"state": {"target": ["2", "1", "10", "9", "9", "11", "12", "9"], "time": [1558, 2124, 2257, 2774, 2907, 3024, 3824, 4223]}, "edge": {"target": [], "time": []}}, "mouseout": {"state": {"target": ["9", "0", "2", "1", "10", "9", "9", "11", "10", "12", "9"], "time": [741, 1274, 2007, 2158, 2724, 2807, 2925, 3323, 3707, 4090, 8188]}, "edge": {"target": [], "time": []}}}, "displayed_time": "9.03", "trialTime": 9757, "trial_type": "mouselab-mdp", "trial_index": 63, "time_elapsed": 1256239, "internal_node_id": "0.0-4.0-3.0-17.0"}}, {"uniqueid": "w64129294:a47581892", "current_trial": 64, "dateTime": 1664557833288, "trialdata": {"revealed_states": [], "num_clicks_accrued": [0, 0, 0, 0, 0, 0, 0, 0, 0, 0, 0, 0, 0], "stateRewards": ["", -2, -8, 48, 24, 4, -8, 24, 48, 4, -4, 24, -48], "withholdReward": true, "trial_id": "mdp_871576155740", "block": "test2", "trialIndex": 52, "score": 17.75, "costs": -1.25, "simulationMode": [null, null, null], "rewards": [-2, -8, 24], "path": ["0", "0", "1", "2", "4"], "rt": [6372, 590, 133], "actions": ["up", "up", "left"], "actionTimes": [7872, 8979, 9623], "queries": {"click": {"state": {"target": ["10", "6", "2", "4", "1"], "time": [3233, 4156, 4854, 5895, 6603]}, "edge": {"target": [], "time": []}}, "mouseover": {"state": {"target": ["9", "12", "10", "10", "5", "6", "2", "1", "4", "1"], "time": [2059, 2408, 2543, 2991, 3708, 3974, 4740, 5491, 5707, 6440]}, "edge": {"target": [], "time": []}}, "mouseout": {"state": {"target": ["0", "9", "12", "10", "10", "5", "6", "2", "1", "4", "1", "7"], "time": [1275, 2125, 2492, 2675, 3492, 3925, 4425, 5391, 5624, 6107, 12504, 12604]}, "edge": {"target": [], "time": []}}}, "displayed_time": "10.14", "trialTime": 13130, "trial_type": "mouselab-mdp", "trial_index": 64, "time_elapsed": 1269439, "internal_node_id": "0.0-4.0-3.0-18.0"}}, {"uniqueid": "w64129294:a47581892", "current_trial": 65, "dateTime": 1664557843046, "trialdata": {"revealed_states": [], "num_clicks_accrued": [0, 0, 0, 0, 0, 0, 0, 0, 0, 0, 0, 0, 0], "stateRewards": ["", -2, 8, -24, 24, -4, -8, -24, 48, -2, -8, -48, 48], "withholdReward": false, "trial_id": "mdp_238332601315", "block": "test2", "trialIndex": 53, "score": 34, "costs": -1, "simulationMode": [null, null, null], "rewards": [-2, 8, 24], "path": ["0", "0", "1", "2", "4"], "rt": [4178, 42, 8], "actions": ["up", "up", "left"], "actionTimes": [5056, 5603, 6118], "queries": {"click": {"state": {"target": ["10", "2", "4", "1"], "time": [1865, 2718, 3551, 4229]}, "edge": {"target": [], "time": []}}, "mouseover": {"state": {"target": ["9", "10", "1", "2", "4", "1"], "time": [1494, 1677, 2495, 2610, 3427, 4093]}, "edge": {"target": [], "time": []}}, "mouseout": {"state": {"target": ["0", "9", "10", "1", "2", "2", "4"], "time": [561, 1611, 2311, 2511, 2961, 3311, 3910]}, "edge": {"target": [], "time": []}}}, "displayed_time": "8.88", "trialTime": 9695, "trial_type": "mouselab-mdp", "trial_index": 65, "time_elapsed": 1279197, "internal_node_id": "0.0-4.0-3.0-19.0"}}, {"uniqueid": "w64129294:a47581892", "current_trial": 66, "dateTime": 1664557852993, "trialdata": {"revealed_states": [], "num_clicks_accrued": [0, 0, 0, 0, 0, 0, 0, 0, 0, 0, 0, 0, 0], "stateRewards": ["", 2, 4, 48, 24, -2, -8, 24, 24, -2, 4, -48, 24], "withholdReward": false, "trial_id": "mdp_130849500124", "block": "test2", "trialIndex": 54, "score": 34.25, "costs": -0.75, "simulationMode": [null, null, null], "rewards": [2, 4, 24], "path": ["0", "0", "1", "2", "4"], "rt": [3323, 58, 3], "actions": ["up", "up", "left"], "actionTimes": [4514, 5088, 5601], "queries": {"click": {"state": {"target": ["2", "4", "1"], "time": [2031, 2850, 3539]}, "edge": {"target": [], "time": []}}, "mouseover": {"state": {"target": ["2", "10", "4", "1"], "time": [1798, 2448, 2714, 3380]}, "edge": {"target": [], "time": []}}, "mouseout": {"state": {"target": ["1", "2", "10", "4", "1", "0"], "time": [798, 2215, 2564, 3214, 9745, 9862]}, "edge": {"target": [], "time": []}}}, "displayed_time": "9.19", "trialTime": 9901, "trial_type": "mouselab-mdp", "trial_index": 66, "time_elapsed": 1289144, "internal_node_id": "0.0-4.0-3.0-20.0"}}, {"uniqueid": "w64129294:a47581892", "current_trial": 67, "dateTime": 1664557862513, "trialdata": {"revealed_states": [], "num_clicks_accrued": [0, 0, 0, 0, 0, 0, 0, 0, 0, 0, 0, 0, 0], "stateRewards": ["", -2, -4, 48, -24, -4, -4, -24, -24, -2, 4, -48, -24], "withholdReward": true, "trial_id": "mdp_410467837196", "block": "test2", "trialIndex": 55, "score": 45.5, "costs": -1.5, "simulationMode": [null, null, null], "rewards": [-2, -4, 48], "path": ["0", "0", "1", "2", "3"], "rt": [6010, 48, 9], "actions": ["up", "up", "right"], "actionTimes": [6622, 7186, 7699], "queries": {"click": {"state": {"target": ["2", "10", "11", "12", "3", "1"], "time": [1359, 2221, 2743, 3492, 4772, 5816]}, "edge": {"target": [], "time": []}}, "mouseover": {"state": {"target": ["1", "2", "10", "11", "12", "9", "3", "4", "1"], "time": [891, 991, 2091, 2591, 3390, 3891, 4606, 5173, 5656]}, "edge": {"target": [], "time": []}}, "mouseout": {"state": {"target": ["0", "1", "2", "10", "11", "10", "12", "9", "2", "3", "2", "4"], "time": [191, 924, 1591, 2491, 2957, 3306, 3656, 4157, 4556, 4956, 5106, 5589]}, "edge": {"target": [], "time": []}}}, "displayed_time": "8.62", "trialTime": 9466, "trial_type": "mouselab-mdp", "trial_index": 67, "time_elapsed": 1298663, "internal_node_id": "0.0-4.0-3.0-21.0"}}, {"uniqueid": "w64129294:a47581892", "current_trial": 68, "dateTime": 1664557873533, "trialdata": {"revealed_states": [], "num_clicks_accrued": [0, 0, 0, 0, 0, 0, 0, 0, 0, 0, 0, 0, 0], "stateRewards": ["", 4, -4, 48, -48, 2, 8, -48, 24, -2, -4, -24, 48], "withholdReward": true, "trial_id": "mdp_937564992306", "block": "test2", "trialIndex": 56, "score": 37.75, "costs": -1.25, "simulationMode": [null, null, null], "rewards": [2, 8, 24], "path": ["0", "0", "5", "6", "8"], "rt": [4409, 18, 235], "actions": ["right", "right", "down"], "actionTimes": [5046, 5568, 6319], "queries": {"click": {"state": {"target": ["2", "6", "7", "8", "5"], "time": [1244, 2069, 2703, 3257, 4161]}, "edge": {"target": [], "time": []}}, "mouseover": {"state": {"target": ["1", "2", "6", "5", "7", "8", "5"], "time": [902, 1036, 1685, 2401, 2567, 3118, 3862]}, "edge": {"target": [], "time": []}}, "mouseout": {"state": {"target": ["1", "0", "1", "2", "6", "5", "7", "6", "8", "5", "5"], "time": [385, 836, 936, 1536, 2351, 2485, 2950, 3068, 3451, 4534, 8565]}, "edge": {"target": [], "time": []}}}, "displayed_time": "9.64", "trialTime": 10952, "trial_type": "mouselab-mdp", "trial_index": 68, "time_elapsed": 1309684, "internal_node_id": "0.0-4.0-3.0-22.0"}}, {"uniqueid": "w64129294:a47581892", "current_trial": 69, "dateTime": 1664557883954, "trialdata": {"revealed_states": [], "num_clicks_accrued": [0, 0, 0, 0, 0, 0, 0, 0, 0, 0, 0, 0, 0], "stateRewards": ["", 2, -4, 48, -48, -2, 8, -48, 24, -2, -8, 48, 48], "withholdReward": true, "trial_id": "mdp_949326095747", "block": "test2", "trialIndex": 57, "score": 33.75, "costs": -1.25, "simulationMode": [null, null, null], "rewards": [-2, 8, 24], "path": ["0", "0", "5", "6", "8"], "rt": [4837, 22, 73], "actions": ["right", "right", "down"], "actionTimes": [5733, 6264, 6848], "queries": {"click": {"state": {"target": ["2", "6", "7", "8", "5"], "time": [1786, 2766, 3806, 4370, 4921]}, "edge": {"target": [], "time": []}}, "mouseover": {"state": {"target": ["1", "2", "1", "5", "6", "5", "0", "5", "7", "8", "5"], "time": [1360, 1559, 2276, 2426, 2659, 3042, 3143, 3326, 3675, 4225, 4841]}, "edge": {"target": [], "time": []}}, "mouseout": {"state": {"target": ["0", "1", "2", "1", "5", "6", "5", "0", "5", "6", "7", "6", "8", "5", "5"], "time": [1226, 1459, 2193, 2293, 2543, 2992, 3092, 3309, 3442, 3609, 4025, 4158, 4608, 9039, 9173]}, "edge": {"target": [], "time": []}}}, "displayed_time": "9.90", "trialTime": 10369, "trial_type": "mouselab-mdp", "trial_index": 69, "time_elapsed": 1320105, "internal_node_id": "0.0-4.0-3.0-23.0"}}, {"uniqueid": "w64129294:a47581892", "current_trial": 70, "dateTime": 1664557895062, "trialdata": {"revealed_states": [], "num_clicks_accrued": [0, 0, 0, 0, 0, 0, 0, 0, 0, 0, 0, 0, 0], "stateRewards": ["", 2, -4, 24, 24, 2, 4, 24, 24, -4, 8, 24, 48], "withholdReward": false, "trial_id": "mdp_268430387178", "block": "test2", "trialIndex": 58, "score": 34.25, "costs": -0.75, "simulationMode": [null, null, null], "rewards": [2, 4, 24], "path": ["0", "0", "5", "6", "7"], "rt": [2749, 25, 57], "actions": ["right", "right", "up"], "actionTimes": [3518, 4059, 4623], "queries": {"click": {"state": {"target": ["6", "7", "5"], "time": [1473, 2018, 2689]}, "edge": {"target": [], "time": []}}, "mouseover": {"state": {"target": ["5", "6", "7", "5"], "time": [1116, 1267, 1883, 2582]}, "edge": {"target": [], "time": []}}, "mouseout": {"state": {"target": ["0", "5", "6", "7", "5"], "time": [650, 1167, 1832, 2266, 10612]}, "edge": {"target": [], "time": []}}}, "displayed_time": "9.78", "trialTime": 11056, "trial_type": "mouselab-mdp", "trial_index": 70, "time_elapsed": 1331213, "internal_node_id": "0.0-4.0-3.0-24.0"}}, {"uniqueid": "w64129294:a47581892", "current_trial": 71, "dateTime": 1664557906903, "trialdata": {"revealed_states": [], "num_clicks_accrued": [0, 0, 0, 0, 0, 0, 0, 0, 0, 0, 0, 0, 0], "stateRewards": ["", -2, 4, 24, 48, 2, 4, -48, -48, -2, 8, 48, -24], "withholdReward": true, "trial_id": "mdp_305701202606", "block": "test2", "trialIndex": 59, "score": 57.25, "costs": -1.75, "simulationMode": [null, null, null], "rewards": [-2, 8, 48], "path": ["0", "0", "9", "10", "11"], "rt": [7417, 467, 115], "actions": ["left", "left", "up"], "actionTimes": [8787, 9766, 10399], "queries": {"click": {"state": {"target": ["6", "7", "8", "9", "10", "12", "11"], "time": [2494, 3376, 4028, 5494, 6148, 6955, 7643]}, "edge": {"target": [], "time": []}}, "mouseover": {"state": {"target": ["5", "6", "5", "7", "8", "5", "9", "10", "9", "10", "12", "11"], "time": [1953, 2236, 2769, 3052, 3851, 4585, 4834, 5151, 5334, 5851, 6868, 7500]}, "edge": {"target": [], "time": []}}, "mouseout": {"state": {"target": ["5", "5", "6", "5", "7", "6", "8", "5", "9", "10", "9", "10", "12", "10"], "time": [1003, 2186, 2736, 3019, 3639, 3819, 4385, 4701, 4968, 5253, 5784, 6716, 7167, 7433]}, "edge": {"target": [], "time": []}}}, "displayed_time": "10.92", "trialTime": 11787, "trial_type": "mouselab-mdp", "trial_index": 71, "time_elapsed": 1343054, "internal_node_id": "0.0-4.0-3.0-25.0"}}, {"uniqueid": "w64129294:a47581892", "current_trial": 72, "dateTime": 1664557917014, "trialdata": {"revealed_states": [], "num_clicks_accrued": [0, 0, 0, 0, 0, 0, 0, 0, 0, 0, 0, 0, 0], "stateRewards": ["", 2, 8, 48, -48, -2, -4, -24, 24, 4, -4, 48, -48], "withholdReward": true, "trial_id": "mdp_105734044587", "block": "test2", "trialIndex": 60, "score": 52.25, "costs": -0.75, "simulationMode": [null, null, null], "rewards": [4, -4, 48], "path": ["0", "0", "9", "10", "11"], "rt": [4220, 70, 47], "actions": ["left", "left", "up"], "actionTimes": [5817, 6401, 6962], "queries": {"click": {"state": {"target": ["10", "11", "9"], "time": [2738, 3975, 4916]}, "edge": {"target": [], "time": []}}, "mouseover": {"state": {"target": ["9", "10", "2", "11", "12", "9"], "time": [2132, 2332, 3317, 3667, 4369, 4765]}, "edge": {"target": [], "time": []}}, "mouseout": {"state": {"target": ["11", "11", "0", "9", "10", "2", "11", "10", "12"], "time": [666, 800, 2002, 2249, 3132, 3617, 4183, 4300, 4699]}, "edge": {"target": [], "time": []}}}, "displayed_time": "9.60", "trialTime": 10050, "trial_type": "mouselab-mdp", "trial_index": 72, "time_elapsed": 1353164, "internal_node_id": "0.0-4.0-3.0-26.0"}}, {"uniqueid": "w64129294:a47581892", "current_trial": 73, "dateTime": 1664557928387, "trialdata": {"revealed_states": [], "num_clicks_accrued": [0, 0, 0, 0, 0, 0, 0, 0, 0, 0, 0, 0, 0], "stateRewards": ["", 4, -8, -48, 48, -2, 8, -48, 48, -2, -4, 24, -48], "withholdReward": true, "trial_id": "mdp_400558136089", "block": "test2", "trialIndex": 61, "score": 57.5, "costs": -1.5, "simulationMode": [null, null, null], "rewards": [-2, 8, 48], "path": ["0", "0", "5", "6", "8"], "rt": [5197, 31, 80], "actions": ["right", "right", "down"], "actionTimes": [6516, 7063, 7647], "queries": {"click": {"state": {"target": ["10", "2", "6", "7", "8", "5"], "time": [2076, 2699, 3357, 4037, 4621, 5617]}, "edge": {"target": [], "time": []}}, "mouseover": {"state": {"target": ["0", "9", "10", "2", "6", "7", "8", "5"], "time": [1547, 1701, 1801, 2450, 3100, 3849, 4499, 5536]}, "edge": {"target": [], "time": []}}, "mouseout": {"state": {"target": ["9", "0", "9", "10", "2", "6", "7", "6", "8", "6", "5"], "time": [917, 1601, 1767, 2301, 2883, 3683, 4266, 4416, 4833, 4950, 10947]}, "edge": {"target": [], "time": []}}}, "displayed_time": "9.32", "trialTime": 11313, "trial_type": "mouselab-mdp", "trial_index": 73, "time_elapsed": 1364538, "internal_node_id": "0.0-4.0-3.0-27.0"}}, {"uniqueid": "w64129294:a47581892", "current_trial": 74, "dateTime": 1664557940230, "trialdata": {"revealed_states": [], "num_clicks_accrued": [0, 0, 0, 0, 0, 0, 0, 0, 0, 0, 0, 0, 0], "stateRewards": ["", 2, 4, -48, -24, -4, 4, -24, 24, -2, -8, -24, 24], "withholdReward": false, "trial_id": "mdp_640720803523", "block": "test2", "trialIndex": 62, "score": 28, "costs": -1, "simulationMode": [null, null, null], "rewards": [-4, 4, 24], "path": ["0", "0", "5", "6", "8"], "rt": [4616, 2, 14], "actions": ["right", "right", "down"], "actionTimes": [5775, 6296, 6842], "queries": {"click": {"state": {"target": ["6", "7", "8", "5"], "time": [2880, 3608, 4242, 4880]}, "edge": {"target": [], "time": []}}, "mouseover": {"state": {"target": ["7", "6", "7", "7", "8", "5"], "time": [1644, 2711, 3211, 3477, 4077, 4776]}, "edge": {"target": [], "time": []}}, "mouseout": {"state": {"target": ["0", "7", "6", "7", "7", "6", "8", "6", "5"], "time": [1395, 2644, 3177, 3276, 3894, 4027, 4460, 4643, 8825]}, "edge": {"target": [], "time": []}}}, "displayed_time": "10.17", "trialTime": 11787, "trial_type": "mouselab-mdp", "trial_index": 74, "time_elapsed": 1376381, "internal_node_id": "0.0-4.0-3.0-28.0"}}, {"uniqueid": "w64129294:a47581892", "current_trial": 75, "dateTime": 1664557950221, "trialdata": {"revealed_states": [], "num_clicks_accrued": [0, 0, 0, 0, 0, 0, 0, 0, 0, 0, 0, 0, 0], "stateRewards": ["", -2, 4, -48, -48, -4, -8, 48, -48, 2, 4, 48, -48], "withholdReward": true, "trial_id": "mdp_258647270500", "block": "test2", "trialIndex": 63, "score": 58.25, "costs": -0.75, "simulationMode": [null, null, null], "rewards": [2, 4, 48], "path": ["0", "0", "9", "10", "11"], "rt": [3343, 40, 56], "actions": ["left", "left", "up"], "actionTimes": [4879, 5422, 5987], "queries": {"click": {"state": {"target": ["10", "11", "9"], "time": [2410, 3334, 4040]}, "edge": {"target": [], "time": []}}, "mouseover": {"state": {"target": ["9", "10", "11", "9"], "time": [2016, 2266, 3216, 3848]}, "edge": {"target": [], "time": []}}, "mouseout": {"state": {"target": ["0", "9", "10", "11", "10"], "time": [1965, 2132, 2632, 3565, 3748]}, "edge": {"target": [], "time": []}}}, "displayed_time": "9.55", "trialTime": 9939, "trial_type": "mouselab-mdp", "trial_index": 75, "time_elapsed": 1386372, "internal_node_id": "0.0-4.0-3.0-29.0"}}, {"uniqueid": "w64129294:a47581892", "current_trial": 76, "dateTime": 1664557956137, "trialdata": {"rt": 5913, "stimulus": "<h1> End of block! </h1>\n\nYou have reached the end of the block 2/4. If you need a short break, feel free to take one now before moving on.\n\n<br><br>\nIn the next block, you will complete another 30 rounds of this game.\n\n<br><br>\n<div style='text-align: center;'>Press <code>space</code> to begin.</div>\n<br><br>\n<div style='text-align: center;'>(If the experiment doesn't continue, try clicking on the text and then pressing <code>space</code>.)</div>", "response": " ", "trial_id": "mdp_ready_3", "trial_type": "html-keyboard-response", "trial_index": 76, "time_elapsed": 1392288, "internal_node_id": "0.0-4.0-4.0"}}, {"uniqueid": "w64129294:a47581892", "current_trial": 77, "dateTime": 1664557966203, "trialdata": {"revealed_states": [], "num_clicks_accrued": [0, 0, 0, 0, 0, 0, 0, 0, 0, 0, 0, 0, 0], "stateRewards": ["", 4, 4, 48, -24, 2, -4, 48, 24, -4, -4, -48, 24], "withholdReward": true, "trial_id": "mdp_496003763005", "block": "test3", "trialIndex": 64, "score": 60, "costs": -1, "simulationMode": [null, null, null], "rewards": [4, 4, 48], "path": ["0", "0", "1", "2", "3"], "rt": [4403, 178, 306], "actions": ["up", "up", "right"], "actionTimes": [5938, 6622, 7435], "queries": {"click": {"state": {"target": ["10", "2", "3", "1"], "time": [2993, 3622, 4460, 5030]}, "edge": {"target": [], "time": []}}, "mouseover": {"state": {"target": ["0", "9", "10", "2", "3", "3", "1"], "time": [1897, 1997, 2130, 3446, 4229, 4396, 4862]}, "edge": {"target": [], "time": []}}, "mouseout": {"state": {"target": ["9", "0", "0", "9", "10", "2", "3", "3"], "time": [1214, 1413, 1930, 2063, 3279, 3797, 4246, 4679]}, "edge": {"target": [], "time": []}}}, "displayed_time": "9.54", "trialTime": 10008, "trial_type": "mouselab-mdp", "trial_index": 77, "time_elapsed": 1402353, "internal_node_id": "0.0-4.0-5.0-0.0"}}, {"uniqueid": "w64129294:a47581892", "current_trial": 78, "dateTime": 1664557979865, "trialdata": {"revealed_states": [], "num_clicks_accrued": [0, 0, 0, 0, 0, 0, 0, 0, 0, 0, 0, 0, 0], "stateRewards": ["", -2, 8, -24, 48, -4, 4, -48, 24, 4, -8, 48, -24], "withholdReward": false, "trial_id": "mdp_425320427962", "block": "test3", "trialIndex": 65, "score": 58, "costs": -1, "simulationMode": [null, null, null], "rewards": [-2, 8, 48], "path": ["0", "0", "1", "2", "4"], "rt": [3874, 42, 63], "actions": ["up", "up", "left"], "actionTimes": [6794, 7337, 7912], "queries": {"click": {"state": {"target": ["2", "3", "4", "1"], "time": [3722, 4452, 5230, 5726]}, "edge": {"target": [], "time": []}}, "mouseover": {"state": {"target": ["1", "2", "3", "4", "1"], "time": [3247, 3480, 4167, 5079, 5712]}, "edge": {"target": [], "time": []}}, "mouseout": {"state": {"target": ["1", "1", "7", "1", "9", "1", "2", "3", "2", "4", "1", "6", "8"], "time": [1580, 1714, 2114, 2296, 2580, 3330, 3896, 4747, 5014, 5446, 12293, 12526, 13476]}, "edge": {"target": [], "time": []}}}, "displayed_time": "11.93", "trialTime": 13609, "trial_type": "mouselab-mdp", "trial_index": 78, "time_elapsed": 1416016, "internal_node_id": "0.0-4.0-5.0-1.0"}}, {"uniqueid": "w64129294:a47581892", "current_trial": 79, "dateTime": 1664557990137, "trialdata": {"revealed_states": [], "num_clicks_accrued": [0, 0, 0, 0, 0, 0, 0, 0, 0, 0, 0, 0, 0], "stateRewards": ["", -4, 8, 24, -24, 4, -8, -24, -24, -2, 8, -48, 24], "withholdReward": true, "trial_id": "mdp_240302100183", "block": "test3", "trialIndex": 66, "score": 32, "costs": -1, "simulationMode": [null, null, null], "rewards": [-4, 8, 24], "path": ["0", "0", "1", "2", "3"], "rt": [3660, 63, 86], "actions": ["up", "up", "right"], "actionTimes": [4497, 5064, 5656], "queries": {"click": {"state": {"target": ["2", "4", "3", "1"], "time": [1709, 2635, 3169, 3652]}, "edge": {"target": [], "time": []}}, "mouseover": {"state": {"target": ["1", "2", "4", "3", "1"], "time": [1052, 1352, 2535, 3034, 3535]}, "edge": {"target": [], "time": []}}, "mouseout": {"state": {"target": ["8", "0", "1", "2", "2", "4", "2", "3", "1", "0"], "time": [219, 685, 1169, 2068, 2339, 2852, 2967, 3418, 6717, 6799]}, "edge": {"target": [], "time": []}}}, "displayed_time": "9.84", "trialTime": 10207, "trial_type": "mouselab-mdp", "trial_index": 79, "time_elapsed": 1426288, "internal_node_id": "0.0-4.0-5.0-2.0"}}, {"uniqueid": "w64129294:a47581892", "current_trial": 80, "dateTime": 1664558003856, "trialdata": {"revealed_states": [], "num_clicks_accrued": [0, 0, 0, 0, 0, 0, 0, 0, 0, 0, 0, 0, 0], "stateRewards": ["", -4, -8, -24, 24, 4, 4, -48, -48, -4, -4, 24, -48], "withholdReward": true, "trial_id": "mdp_431592223624", "block": "test3", "trialIndex": 67, "score": 19.25, "costs": -1.75, "simulationMode": [null, null, null], "rewards": [-4, -4, 24], "path": ["0", "0", "9", "10", "11"], "rt": [9943, 17, 93], "actions": ["left", "left", "up"], "actionTimes": [10899, 11431, 12040], "queries": {"click": {"state": {"target": ["2", "10", "6", "7", "8", "11", "9"], "time": [5194, 6095, 6814, 7331, 7937, 9159, 9971]}, "edge": {"target": [], "time": []}}, "mouseover": {"state": {"target": ["1", "1", "2", "1", "10", "9", "5", "6", "7", "8", "5", "11", "9"], "time": [4549, 4799, 4865, 5632, 5897, 6299, 6465, 6714, 7098, 7797, 8364, 8963, 9863]}, "edge": {"target": [], "time": []}}, "mouseout": {"state": {"target": ["0", "0", "1", "1", "2", "1", "10", "9", "5", "6", "7", "6", "8", "6", "5", "11", "10", "10"], "time": [504, 783, 4565, 4832, 5431, 5649, 6282, 6365, 6531, 7030, 7597, 7730, 8114, 8230, 8647, 9298, 9563, 9797]}, "edge": {"target": [], "time": []}}}, "displayed_time": "12.55", "trialTime": 13661, "trial_type": "mouselab-mdp", "trial_index": 80, "time_elapsed": 1440006, "internal_node_id": "0.0-4.0-5.0-3.0"}}, {"uniqueid": "w64129294:a47581892", "current_trial": 81, "dateTime": 1664558015748, "trialdata": {"revealed_states": [], "num_clicks_accrued": [0, 0, 0, 0, 0, 0, 0, 0, 0, 0, 0, 0, 0], "stateRewards": ["", 4, -8, 24, 48, -2, -4, -48, 24, 2, 4, -48, -24], "withholdReward": true, "trial_id": "mdp_749974461966", "block": "test3", "trialIndex": 68, "score": 47.25, "costs": -1.75, "simulationMode": [null, null, null], "rewards": [4, -8, 48], "path": ["0", "0", "1", "2", "4"], "rt": [7293, 99, 118], "actions": ["up", "up", "left"], "actionTimes": [8792, 9405, 10040], "queries": {"click": {"state": {"target": ["6", "10", "11", "12", "2", "4", "1"], "time": [2811, 3571, 4596, 5634, 6367, 6769, 7758]}, "edge": {"target": [], "time": []}}, "mouseover": {"state": {"target": ["6", "5", "9", "10", "11", "12", "4", "2", "4", "3", "1"], "time": [2191, 3040, 3224, 3407, 4290, 5307, 6023, 6156, 6673, 7256, 7589]}, "edge": {"target": [], "time": []}}, "mouseout": {"state": {"target": ["9", "1", "0", "0", "6", "5", "9", "10", "11", "10", "12", "10", "4", "2", "4", "2", "3", "1"], "time": [942, 1025, 1191, 1741, 2990, 3124, 3324, 3757, 4874, 4989, 5756, 5806, 6072, 6573, 6939, 7123, 7539, 8138]}, "edge": {"target": [], "time": []}}}, "displayed_time": "10.55", "trialTime": 11819, "trial_type": "mouselab-mdp", "trial_index": 81, "time_elapsed": 1451899, "internal_node_id": "0.0-4.0-5.0-4.0"}}, {"uniqueid": "w64129294:a47581892", "current_trial": 82, "dateTime": 1664558044169, "trialdata": {"revealed_states": [], "num_clicks_accrued": [0, 0, 0, 0, 0, 0, 0, 0, 0, 0, 0, 0, 0], "stateRewards": ["", 2, 8, -24, -48, -4, 8, -48, -48, -2, -8, -24, -24], "withholdReward": true, "trial_id": "mdp_978177451072", "block": "test3", "trialIndex": 69, "score": -12, "costs": -3, "simulationMode": [null, null, null], "rewards": [2, 8, -24], "path": ["0", "0", "1", "2", "3"], "rt": [23732, 133, 135], "actions": ["up", "up", "right"], "actionTimes": [25175, 25820, 26473], "queries": {"click": {"state": {"target": ["2", "1", "4", "3", "7", "6", "8", "10", "11", "12", "9", "5"], "time": [2321, 2919, 3961, 4608, 5812, 6289, 7557, 8551, 8891, 9495, 22297, 22994]}, "edge": {"target": [], "time": []}}, "mouseover": {"state": {"target": ["1", "2", "1", "4", "3", "7", "6", "5", "0", "8", "5", "0", "9", "10", "11", "12", "9", "5", "0", "9", "0", "5"], "time": [1946, 2080, 2763, 3296, 4495, 5644, 6178, 6628, 7128, 7461, 7993, 8077, 8143, 8394, 8793, 9393, 9960, 13157, 21905, 22071, 22654, 22804]}, "edge": {"target": [], "time": []}}, "mouseout": {"state": {"target": ["1", "2", "1", "4", "2", "3", "7", "6", "5", "0", "8", "5", "0", "9", "10", "11", "10", "12", "9", "5", "0", "9", "0", "5"], "time": [2013, 2712, 3196, 4311, 4462, 5228, 6012, 6561, 6761, 7177, 7761, 8027, 8110, 8326, 8726, 9027, 9310, 9710, 12058, 21072, 21921, 22621, 22738, 23704]}, "edge": {"target": [], "time": []}}}, "displayed_time": "26.99", "trialTime": 28366, "trial_type": "mouselab-mdp", "trial_index": 82, "time_elapsed": 1480319, "internal_node_id": "0.0-4.0-5.0-5.0"}}, {"uniqueid": "w64129294:a47581892", "current_trial": 83, "dateTime": 1664558055486, "trialdata": {"revealed_states": [], "num_clicks_accrued": [0, 0, 0, 0, 0, 0, 0, 0, 0, 0, 0, 0, 0], "stateRewards": ["", 2, -4, 24, -24, 2, -8, 48, 48, 4, -4, 24, 48], "withholdReward": true, "trial_id": "mdp_947836623875", "block": "test3", "trialIndex": 70, "score": 25.5, "costs": -1.5, "simulationMode": [null, null, null], "rewards": [2, -4, 24], "path": ["0", "0", "1", "2", "3"], "rt": [7175, 70, 215], "actions": ["up", "up", "right"], "actionTimes": [8762, 9347, 10076], "queries": {"click": {"state": {"target": ["10", "6", "2", "4", "3", "1"], "time": [2343, 3108, 4248, 5074, 5736, 8465]}, "edge": {"target": [], "time": []}}, "mouseover": {"state": {"target": ["9", "10", "9", "0", "5", "6", "2", "4", "3", "1", "11", "1"], "time": [2063, 2196, 2630, 2730, 2797, 2946, 4095, 4978, 5611, 6095, 6411, 7145]}, "edge": {"target": [], "time": []}}, "mouseout": {"state": {"target": ["9", "10", "9", "0", "5", "6", "2", "4", "2", "3", "1", "11", "1"], "time": [2146, 2579, 2696, 2779, 2862, 3763, 4828, 5395, 5545, 5961, 6212, 6811, 9143]}, "edge": {"target": [], "time": []}}}, "displayed_time": "10.60", "trialTime": 11260, "trial_type": "mouselab-mdp", "trial_index": 83, "time_elapsed": 1491635, "internal_node_id": "0.0-4.0-5.0-6.0"}}, {"uniqueid": "w64129294:a47581892", "current_trial": 84, "dateTime": 1664558065053, "trialdata": {"revealed_states": [], "num_clicks_accrued": [0, 0, 0, 0, 0, 0, 0, 0, 0, 0, 0, 0, 0], "stateRewards": ["", 4, 8, 24, 24, 2, -4, 48, -24, -4, 8, -24, 24], "withholdReward": true, "trial_id": "mdp_932292142091", "block": "test3", "trialIndex": 71, "score": 40.25, "costs": -0.75, "simulationMode": [null, null, null], "rewards": [4, 8, 24], "path": ["0", "0", "1", "2", "4"], "rt": [3432, 155, 304], "actions": ["up", "up", "left"], "actionTimes": [4151, 4815, 5631], "queries": {"click": {"state": {"target": ["2", "4", "1"], "time": [1596, 2510, 3038]}, "edge": {"target": [], "time": []}}, "mouseover": {"state": {"target": ["1", "2", "4", "1"], "time": [1261, 1511, 2327, 2943]}, "edge": {"target": [], "time": []}}, "mouseout": {"state": {"target": ["0", "1", "2", "4", "1", "0"], "time": [1127, 1361, 1760, 2660, 3209, 6691]}, "edge": {"target": [], "time": []}}}, "displayed_time": "8.72", "trialTime": 9498, "trial_type": "mouselab-mdp", "trial_index": 84, "time_elapsed": 1501203, "internal_node_id": "0.0-4.0-5.0-7.0"}}, {"uniqueid": "w64129294:a47581892", "current_trial": 85, "dateTime": 1664558079798, "trialdata": {"revealed_states": [], "num_clicks_accrued": [0, 0, 0, 0, 0, 0, 0, 0, 0, 0, 0, 0, 0], "stateRewards": ["", 4, 8, -48, -48, 2, 4, -24, -48, 2, 8, 48, -48], "withholdReward": true, "trial_id": "mdp_902172716465", "block": "test3", "trialIndex": 72, "score": 60.75, "costs": -2.25, "simulationMode": [null, null, null], "rewards": [2, 8, 48], "path": ["0", "0", "9", "10", "11"], "rt": [10018, 489, 190], "actions": ["left", "left", "up"], "actionTimes": [11112, 12117, 12818], "queries": {"click": {"state": {"target": ["2", "3", "4", "6", "7", "8", "10", "12", "11"], "time": [3465, 5085, 5972, 7008, 7455, 8098, 8962, 9386, 9942]}, "edge": {"target": [], "time": []}}, "mouseover": {"state": {"target": ["1", "2", "6", "3", "4", "4", "1", "6", "7", "8", "0", "9", "10", "12", "11", "9"], "time": [1631, 1998, 3997, 4931, 5514, 5880, 6496, 6763, 7363, 7996, 8595, 8695, 8845, 9279, 9828, 10445]}, "edge": {"target": [], "time": []}}, "mouseout": {"state": {"target": ["0", "1", "2", "6", "3", "2", "4", "4", "1", "6", "7", "6", "8", "0", "9", "10", "12", "10", "11", "9"], "time": [1499, 1815, 3747, 4663, 5330, 5463, 5649, 6247, 6566, 7279, 7729, 7896, 8462, 8646, 8762, 9145, 9595, 9761, 10145, 10510]}, "edge": {"target": [], "time": []}}}, "displayed_time": "13.33", "trialTime": 14686, "trial_type": "mouselab-mdp", "trial_index": 85, "time_elapsed": 1515949, "internal_node_id": "0.0-4.0-5.0-8.0"}}, {"uniqueid": "w64129294:a47581892", "current_trial": 86, "dateTime": 1664558088992, "trialdata": {"revealed_states": [], "num_clicks_accrued": [0, 0, 0, 0, 0, 0, 0, 0, 0, 0, 0, 0, 0], "stateRewards": ["", -4, 8, -24, 24, -2, -8, 24, -24, 4, -4, -48, 48], "withholdReward": true, "trial_id": "mdp_297684722007", "block": "test3", "trialIndex": 73, "score": 32.25, "costs": -0.75, "simulationMode": [null, null, null], "rewards": [-4, 8, 24], "path": ["0", "0", "1", "2", "4"], "rt": [3453, 115, 31], "actions": ["up", "up", "left"], "actionTimes": [4194, 4817, 5397], "queries": {"click": {"state": {"target": ["2", "4", "1"], "time": [1668, 2572, 3059]}, "edge": {"target": [], "time": []}}, "mouseover": {"state": {"target": ["1", "2", "1", "4", "1"], "time": [1167, 1466, 1916, 2350, 2916]}, "edge": {"target": [], "time": []}}, "mouseout": {"state": {"target": ["1", "2", "1", "4", "1"], "time": [1300, 1833, 2034, 2767, 3249]}, "edge": {"target": [], "time": []}}}, "displayed_time": "8.74", "trialTime": 9138, "trial_type": "mouselab-mdp", "trial_index": 86, "time_elapsed"