{"condition": 1, "counterbalance": 0, "assignmentId": "a81298059", "workerId": "w22040264", "hitId": "h61073311", "currenttrial": 136, "bonus": 0, "data": [{"uniqueid": "w22040264:a81298059", "current_trial": 0, "dateTime": 1664555004271, "trialdata": {"success": true, "trial_type": "fullscreen", "trial_index": 0, "time_elapsed": 4004, "internal_node_id": "0.0-0.0"}}, {"uniqueid": "w22040264:a81298059", "current_trial": 1, "dateTime": 1664555023376, "trialdata": {"view_history": [{"page_index": 0, "viewing_time": 19103}], "rt": 19103, "trial_id": "exp_instructions_no_distractor", "trial_type": "instructions", "trial_index": 1, "time_elapsed": 23110, "internal_node_id": "0.0-1.0"}}, {"uniqueid": "w22040264:a81298059", "current_trial": 2, "dateTime": 1664555026787, "trialdata": {"success": true, "trial_type": "fullscreen", "trial_index": 2, "time_elapsed": 26521, "internal_node_id": "0.0-2.0-0.0"}}, {"uniqueid": "w22040264:a81298059", "current_trial": 3, "dateTime": 1664555128661, "trialdata": {"view_history": [{"page_index": 0, "viewing_time": 31047}, {"page_index": 1, "viewing_time": 25541}, {"page_index": 2, "viewing_time": 13418}, {"page_index": 3, "viewing_time": 10475}, {"page_index": 4, "viewing_time": 21391}], "rt": 101873, "trial_id": "mouselab_instructions_1", "trial_type": "instructions", "trial_index": 3, "time_elapsed": 128395, "internal_node_id": "0.0-2.0-1.0"}}, {"uniqueid": "w22040264:a81298059", "current_trial": 4, "dateTime": 1664555144937, "trialdata": {"revealed_states": [], "num_clicks_accrued": [0, 0, 0, 0, 0, 0, 0, 0, 0, 0, 0, 0, 0], "stateRewards": ["", 10, 10, 10, -10, 10, -10, -10, 10, -10, 10, 10, -10], "withholdReward": false, "trial_id": "practice_1", "block": "test", "trialIndex": 0, "score": -8.25, "costs": -0.25, "simulationMode": [null, null, null], "rewards": [10, -10, -10], "path": ["0", "0", "5", "6", "7"], "rt": [6492, 720, 2554], "actions": ["right", "right", "up"], "actionTimes": [8255, 9478, 12537], "queries": {"click": {"state": {"target": ["5"], "time": [7152]}, "edge": {"target": [], "time": []}}, "mouseover": {"state": {"target": ["5", "8"], "time": [6469, 7416]}, "edge": {"target": [], "time": []}}, "mouseout": {"state": {"target": ["5", "0", "5", "8"], "time": [null, 1975, 7368, 7423]}, "edge": {"target": [], "time": []}}}, "displayed_time": "13.04", "trialTime": 16061, "trial_type": "mouselab-mdp", "trial_index": 4, "time_elapsed": 144671, "internal_node_id": "0.0-2.0-2.0-0.0"}}, {"uniqueid": "w22040264:a81298059", "current_trial": 5, "dateTime": 1664555157617, "trialdata": {"revealed_states": [], "num_clicks_accrued": [0, 0, 0, 0, 0, 0, 0, 0, 0, 0, 0, 0, 0], "stateRewards": ["", -10, -10, -10, 10, 10, -10, 10, 10, -10, -10, 10, -10], "withholdReward": false, "trial_id": "practice_2", "block": "test", "trialIndex": 1, "score": 10.75, "costs": -1.25, "simulationMode": [null, null, null], "rewards": [10, -10, 10], "path": ["0", "0", "5", "6", "7"], "rt": [6341, 398, 209], "actions": ["right", "right", "up"], "actionTimes": [7826, 8728, 9437], "queries": {"click": {"state": {"target": ["5", "6", "1", "2", "7"], "time": [2620, 3211, 5598, 6376, 7334]}, "edge": {"target": [], "time": []}}, "mouseover": {"state": {"target": ["5", "6", "5", "6", "8", "1", "2", "0", "7"], "time": [1826, 1844, 2087, 2930, 3558, 5114, 6252, 6788, 7219]}, "edge": {"target": [], "time": []}}, "mouseout": {"state": {"target": ["0", "5", "6", "5", "6", "8", "5", "1", "2", "1", "0", "5", "6", "7", "6"], "time": [1804, 1838, 2014, 2860, 3446, 4204, 4386, 5812, 6576, 6618, 7007, 7061, 7130, 7634, 7741]}, "edge": {"target": [], "time": []}}}, "displayed_time": "9.94", "trialTime": 12649, "trial_type": "mouselab-mdp", "trial_index": 5, "time_elapsed": 157351, "internal_node_id": "0.0-2.0-2.0-1.0"}}, {"uniqueid": "w22040264:a81298059", "current_trial": 6, "dateTime": 1664555227488, "trialdata": {"view_history": [{"page_index": 0, "viewing_time": 41978}, {"page_index": 1, "viewing_time": 19234}, {"page_index": 2, "viewing_time": 8656}], "rt": 69869, "trial_id": "mouselab_instructions_2_scarce", "trial_type": "instructions", "trial_index": 6, "time_elapsed": 227222, "internal_node_id": "0.0-2.0-3.0"}}, {"uniqueid": "w22040264:a81298059", "current_trial": 7, "dateTime": 1664555266378, "trialdata": {"rt": 38887, "response": {"Q0": "$-48 to $48", "Q1": "The cost is always $0.25.", "Q2": "The better I perform the higher my bonus will be.", "Q3": "No, the amount of cash at each node of the web may be different each time.", "Q4": "The values of the nodes walked through from start to finish.", "Q5": "No, the spider might forget to count the money on some rounds."}, "question_order": [0, 1, 2, 3, 4, 5], "correct": {"Q0": "$-48 to $48", "Q1": "The cost is always $0.25.", "Q2": "The better I perform the higher my bonus will be.", "Q3": "No, the amount of cash at each node of the web may be different each time.", "Q4": "The values of the nodes walked through from start to finish.", "Q5": "No, the spider might forget to count the money on some rounds."}, "trial_id": "mouselab_quiz_scarce", "trial_type": "survey-multi-choice", "trial_index": 7, "time_elapsed": 266112, "internal_node_id": "0.0-2.0-4.0"}}, {"uniqueid": "w22040264:a81298059", "current_trial": 8, "dateTime": 1664555276962, "trialdata": {"rt": 10578, "stimulus": "\n<h1> Get ready to start the game! </h1>\n\nThank you for reading the instructions. Get ready start with the first of 4 block(s) of this game.\n<br><br>\nIn this first block, you will complete 30 rounds of this game before moving on.\n<br><br>\nRemember, the more money the spider gets, the bigger your bonus will be!\n<br><br>\n<div style='text-align: center;'>Press <code>space</code> to begin.</div>\n\n<br><br>\n(If, at any point, the <code>space</code> key does not take you to the next page, click once on the text and try again.)", "response": " ", "trial_id": "mdp_ready_1", "trial_type": "html-keyboard-response", "trial_index": 8, "time_elapsed": 276696, "internal_node_id": "0.0-4.0-0.0"}}, {"uniqueid": "w22040264:a81298059", "current_trial": 9, "dateTime": 1664555290694, "trialdata": {"revealed_states": [], "num_clicks_accrued": [0, 0, 0, 0, 0, 0, 0, 0, 0, 0, 0, 0, 0], "stateRewards": ["", -4, 4, 48, 24, -4, 4, -24, 48, -2, -8, 24, -48], "withholdReward": true, "trial_id": "mdp_261501605436", "block": "test1", "trialIndex": 2, "score": 17.75, "costs": -1.25, "simulationMode": [null, null, null], "rewards": [-2, -8, 24], "path": ["0", "0", "9", "10", "11"], "rt": [7237, 674, 516], "actions": ["left", "left", "up"], "actionTimes": [9218, 10392, 11410], "queries": {"click": {"state": {"target": ["5", "1", "9", "10", "11"], "time": [3145, 4410, 5270, 6385, 7430]}, "edge": {"target": [], "time": []}}, "mouseover": {"state": {"target": ["5", "5", "8", "1", "9", "10", "12", "11"], "time": [2443, 2848, 3395, 4153, 5101, 6191, 7037, 7333]}, "edge": {"target": [], "time": []}}, "mouseout": {"state": {"target": ["0", "5", "5", "8", "5", "1", "9", "10", "12", "10", "11", "10", "5", "6", "8"], "time": [2291, 2655, 3335, 4071, 4117, 4561, 5458, 6568, 7135, 7217, 7599, 7671, 12297, 12313, 12567]}, "edge": {"target": [], "time": []}}}, "displayed_time": "11.91", "trialTime": 13699, "trial_type": "mouselab-mdp", "trial_index": 9, "time_elapsed": 290427, "internal_node_id": "0.0-4.0-1.0-0.0"}}, {"uniqueid": "w22040264:a81298059", "current_trial": 10, "dateTime": 1664555301750, "trialdata": {"revealed_states": [], "num_clicks_accrued": [0, 0, 0, 0, 0, 0, 0, 0, 0, 0, 0, 0, 0], "stateRewards": ["", -2, 4, -24, 24, -4, -8, 24, -48, -4, -4, -48, -24], "withholdReward": true, "trial_id": "mdp_753137520419", "block": "test1", "trialIndex": 3, "score": 29.75, "costs": -1.25, "simulationMode": [null, null, null], "rewards": [-2, 4, 24], "path": ["0", "0", "1", "2", "4"], "rt": [5520, 362, 264], "actions": ["up", "up", "left"], "actionTimes": [6523, 7385, 8148], "queries": {"click": {"state": {"target": ["9", "1", "5", "2", "4"], "time": [1767, 2637, 3419, 5055, 5650]}, "edge": {"target": [], "time": []}}, "mouseover": {"state": {"target": ["0", "9", "0", "1", "5", "6", "5", "8", "6", "0", "10", "11", "4", "2", "4"], "time": [1162, 1629, 2278, 2507, 2897, 2945, 3239, 3715, 4151, 4327, 4367, 4602, 4748, 4981, 5530]}, "edge": {"target": [], "time": []}}, "mouseout": {"state": {"target": ["1", "0", "9", "0", "1", "5", "6", "5", "8", "6", "5", "0", "9", "10", "11", "4", "2", "4"], "time": [589, 1204, 1964, 2345, 2842, 2903, 3170, 3637, 4053, 4292, 4319, 4347, 4359, 4537, 4644, 4893, 5335, 5821]}, "edge": {"target": [], "time": []}}}, "displayed_time": "9.00", "trialTime": 11025, "trial_type": "mouselab-mdp", "trial_index": 10, "time_elapsed": 301484, "internal_node_id": "0.0-4.0-1.0-1.0"}}, {"uniqueid": "w22040264:a81298059", "current_trial": 11, "dateTime": 1664555313268, "trialdata": {"revealed_states": [], "num_clicks_accrued": [0, 0, 0, 0, 0, 0, 0, 0, 0, 0, 0, 0, 0], "stateRewards": ["", 2, -4, -24, 24, 2, 8, 48, 48, 2, -8, 48, -24], "withholdReward": false, "trial_id": "mdp_330392242530", "block": "test1", "trialIndex": 4, "score": 26.25, "costs": -0.75, "simulationMode": [null, null, null], "rewards": [2, -4, 24], "path": ["0", "0", "1", "2", "4"], "rt": [2872, 388, 233], "actions": ["up", "up", "left"], "actionTimes": [3884, 4772, 5508], "queries": {"click": {"state": {"target": ["1", "2", "4"], "time": [1364, 2301, 2905]}, "edge": {"target": [], "time": []}}, "mouseover": {"state": {"target": ["1", "2", "4"], "time": [1195, 2108, 2745]}, "edge": {"target": [], "time": []}}, "mouseout": {"state": {"target": ["2", "7", "1", "1", "2", "4", "2", "6"], "time": [397, 652, 1525, 1962, 2621, 3091, 3169, 7246]}, "edge": {"target": [], "time": []}}}, "displayed_time": "10.01", "trialTime": 11490, "trial_type": "mouselab-mdp", "trial_index": 11, "time_elapsed": 313002, "internal_node_id": "0.0-4.0-1.0-2.0"}}, {"uniqueid": "w22040264:a81298059", "current_trial": 12, "dateTime": 1664555323354, "trialdata": {"revealed_states": [], "num_clicks_accrued": [0, 0, 0, 0, 0, 0, 0, 0, 0, 0, 0, 0, 0], "stateRewards": ["", -4, 8, -24, 24, -2, -8, 24, -24, 4, -4, -48, 48], "withholdReward": true, "trial_id": "mdp_297684722007", "block": "test1", "trialIndex": 5, "score": 52, "costs": -1, "simulationMode": [null, null, null], "rewards": [4, -4, 48], "path": ["0", "0", "9", "10", "12"], "rt": [3511, 317, 247], "actions": ["left", "left", "down"], "actionTimes": [4624, 5443, 6193], "queries": {"click": {"state": {"target": ["1", "9", "10", "12"], "time": [1706, 2433, 3495, 4027]}, "edge": {"target": [], "time": []}}, "mouseover": {"state": {"target": ["1", "0", "9", "0", "5", "0", "10", "10", "12"], "time": [1371, 2093, 2309, 2651, 2814, 2972, 3142, 3391, 3749]}, "edge": {"target": [], "time": []}}, "mouseout": {"state": {"target": ["5", "4", "1", "0", "1", "0", "9", "0", "5", "0", "9", "10", "10", "12", "9"], "time": [339, 606, 830, 1316, 1892, 2141, 2624, 2687, 2948, 3093, 3136, 3155, 3700, 4251, 4445]}, "edge": {"target": [], "time": []}}}, "displayed_time": "9.11", "trialTime": 10058, "trial_type": "mouselab-mdp", "trial_index": 12, "time_elapsed": 323088, "internal_node_id": "0.0-4.0-1.0-3.0"}}, {"uniqueid": "w22040264:a81298059", "current_trial": 13, "dateTime": 1664555331988, "trialdata": {"revealed_states": [], "num_clicks_accrued": [0, 0, 0, 0, 0, 0, 0, 0, 0, 0, 0, 0, 0], "stateRewards": ["", -4, 8, -24, -24, 2, 4, 48, 48, -2, 4, 24, -48], "withholdReward": true, "trial_id": "mdp_397308196941", "block": "test1", "trialIndex": 6, "score": 57.75, "costs": -1.25, "simulationMode": [null, null, null], "rewards": [2, 4, 48], "path": ["0", "0", "5", "6", "7"], "rt": [3413, 329, 288], "actions": ["right", "right", "up"], "actionTimes": [4101, 4930, 5720], "queries": {"click": {"state": {"target": ["9", "1", "5", "6", "7"], "time": [1173, 1655, 2072, 2795, 3465]}, "edge": {"target": [], "time": []}}, "mouseover": {"state": {"target": ["9", "1", "5", "6", "8", "7", "8"], "time": [1008, 1522, 1916, 2603, 2996, 3284, 3757]}, "edge": {"target": [], "time": []}}, "mouseout": {"state": {"target": ["0", "9", "1", "5", "6", "8", "6", "7", "6", "8"], "time": [910, 1360, 1840, 2272, 2968, 3168, 3246, 3646, 3714, 4363]}, "edge": {"target": [], "time": []}}}, "displayed_time": "7.69", "trialTime": 8605, "trial_type": "mouselab-mdp", "trial_index": 13, "time_elapsed": 331722, "internal_node_id": "0.0-4.0-1.0-4.0"}}, {"uniqueid": "w22040264:a81298059", "current_trial": 14, "dateTime": 1664555343639, "trialdata": {"revealed_states": [], "num_clicks_accrued": [0, 0, 0, 0, 0, 0, 0, 0, 0, 0, 0, 0, 0], "stateRewards": ["", -2, 8, -48, 48, -4, -8, 24, 24, -2, -4, 48, -48], "withholdReward": true, "trial_id": "mdp_867247318592", "block": "test1", "trialIndex": 7, "score": 57.75, "costs": -1.25, "simulationMode": [null, null, null], "rewards": [-2, 8, 48], "path": ["0", "0", "1", "2", "4"], "rt": [2961, 311, 381], "actions": ["up", "up", "left"], "actionTimes": [3870, 4688, 5570], "queries": {"click": {"state": {"target": ["5", "1", "9", "2", "4"], "time": [1309, 1726, 2056, 2726, 3467]}, "edge": {"target": [], "time": []}}, "mouseover": {"state": {"target": ["5", "1", "9", "2", "4"], "time": [1169, 1629, 1943, 2611, 3313]}, "edge": {"target": [], "time": []}}, "mouseout": {"state": {"target": ["0", "5", "1", "9", "1", "2", "4", "1", "6"], "time": [1130, 1542, 1887, 2283, 2355, 2895, 3775, 3845, 4200]}, "edge": {"target": [], "time": []}}}, "displayed_time": "10.91", "trialTime": 11623, "trial_type": "mouselab-mdp", "trial_index": 14, "time_elapsed": 343373, "internal_node_id": "0.0-4.0-1.0-5.0"}}, {"uniqueid": "w22040264:a81298059", "current_trial": 15, "dateTime": 1664555358180, "trialdata": {"revealed_states": [], "num_clicks_accrued": [0, 0, 0, 0, 0, 0, 0, 0, 0, 0, 0, 0, 0], "stateRewards": ["", -4, -4, 24, -48, -2, 8, -24, -48, -4, 4, 24, -48], "withholdReward": true, "trial_id": "mdp_934626330092", "block": "test1", "trialIndex": 8, "score": 26, "costs": -3, "simulationMode": [null, null, null], "rewards": [-4, 4, 24], "path": ["0", "0", "9", "10", "11"], "rt": [9219, 238, 293], "actions": ["left", "left", "up"], "actionTimes": [10996, 11735, 12531], "queries": {"click": {"state": {"target": ["1", "9", "5", "6", "7", "8", "2", "3", "4", "10", "11", "12"], "time": [2366, 3201, 3743, 4243, 4698, 6364, 7350, 7805, 8369, 9159, 9441, 9942]}, "edge": {"target": [], "time": []}}, "mouseover": {"state": {"target": ["0", "1", "9", "0", "5", "6", "5", "6", "7", "8", "0", "2", "3", "4", "10", "11", "12"], "time": [1907, 2214, 3083, 3346, 3374, 3394, 3628, 4062, 4624, 6242, 6826, 7073, 7602, 8233, 9054, 9408, 9797]}, "edge": {"target": [], "time": []}}, "mouseout": {"state": {"target": ["5", "0", "1", "9", "0", "5", "6", "5", "6", "7", "6", "5", "8", "8", "0", "2", "3", "2", "4", "9", "10", "11", "10", "12"], "time": [1364, 2094, 2692, 3331, 3354, 3380, 3538, 3914, 4563, 4872, 5968, 5984, 6601, 6790, 6832, 7530, 7974, 8132, 8621, 9010, 9356, 9608, 9701, 10182]}, "edge": {"target": [], "time": []}}}, "displayed_time": "13.03", "trialTime": 14514, "trial_type": "mouselab-mdp", "trial_index": 15, "time_elapsed": 357913, "internal_node_id": "0.0-4.0-1.0-6.0"}}, {"uniqueid": "w22040264:a81298059", "current_trial": 16, "dateTime": 1664555368137, "trialdata": {"revealed_states": [], "num_clicks_accrued": [0, 0, 0, 0, 0, 0, 0, 0, 0, 0, 0, 0, 0], "stateRewards": ["", -2, -4, 48, 48, 2, 4, -48, 24, 4, -8, 24, -24], "withholdReward": false, "trial_id": "mdp_628613319495", "block": "test1", "trialIndex": 9, "score": 46.25, "costs": -0.75, "simulationMode": [null, null, null], "rewards": [-2, -4, 48], "path": ["0", "0", "1", "2", "4"], "rt": [3396, 380, 225], "actions": ["up", "up", "left"], "actionTimes": [5383, 6264, 6989], "queries": {"click": {"state": {"target": ["1", "2", "4"], "time": [2773, 3765, 4273]}, "edge": {"target": [], "time": []}}, "mouseover": {"state": {"target": ["1", "2", "4"], "time": [2628, 3712, 4161]}, "edge": {"target": [], "time": []}}, "mouseout": {"state": {"target": ["8", "5", "1", "2", "4", "1"], "time": [1604, 1702, 3474, 4057, 4464, 4682]}, "edge": {"target": [], "time": []}}}, "displayed_time": "8.99", "trialTime": 9928, "trial_type": "mouselab-mdp", "trial_index": 16, "time_elapsed": 367871, "internal_node_id": "0.0-4.0-1.0-7.0"}}, {"uniqueid": "w22040264:a81298059", "current_trial": 17, "dateTime": 1664555378464, "trialdata": {"revealed_states": [], "num_clicks_accrued": [0, 0, 0, 0, 0, 0, 0, 0, 0, 0, 0, 0, 0], "stateRewards": ["", 2, 4, 48, -48, 2, 4, 24, -24, 2, -4, -24, -48], "withholdReward": true, "trial_id": "mdp_706591889062", "block": "test1", "trialIndex": 10, "score": 32.5, "costs": -2.5, "simulationMode": [null, null, null], "rewards": [2, 4, 24], "path": ["0", "0", "5", "6", "7"], "rt": [5488, 129, 179], "actions": ["right", "right", "up"], "actionTimes": [7147, 7777, 8458], "queries": {"click": {"state": {"target": ["1", "9", "5", "10", "11", "2", "4", "6", "8", "7"], "time": [2218, 2682, 3172, 3733, 4209, 4789, 5037, 5674, 6081, 6569]}, "edge": {"target": [], "time": []}}, "mouseover": {"state": {"target": ["0", "1", "9", "5", "5", "0", "10", "10", "11", "2", "4", "7", "6", "8", "7"], "time": [1845, 2047, 2507, 2889, 3099, 3373, 3437, 3577, 4117, 4669, 4954, 5385, 5536, 6015, 6515]}, "edge": {"target": [], "time": []}}, "mouseout": {"state": {"target": ["5", "0", "0", "1", "9", "5", "5", "0", "10", "10", "11", "1", "2", "4", "7", "6", "8", "6", "7"], "time": [1459, 1605, 1983, 2395, 2834, 2921, 3352, 3381, 3449, 3917, 4383, 4481, 4907, 5233, 5391, 5947, 6349, 6459, 6953]}, "edge": {"target": [], "time": []}}}, "displayed_time": "9.66", "trialTime": 10297, "trial_type": "mouselab-mdp", "trial_index": 17, "time_elapsed": 378197, "internal_node_id": "0.0-4.0-1.0-8.0"}}, {"uniqueid": "w22040264:a81298059", "current_trial": 18, "dateTime": 1664555388597, "trialdata": {"revealed_states": [], "num_clicks_accrued": [0, 0, 0, 0, 0, 0, 0, 0, 0, 0, 0, 0, 0], "stateRewards": ["", 4, -4, 48, 24, 2, 4, 24, -24, 2, 4, 24, 48], "withholdReward": true, "trial_id": "mdp_736351885282", "block": "test1", "trialIndex": 11, "score": 34.25, "costs": -0.75, "simulationMode": [null, null, null], "rewards": [2, 4, 24], "path": ["0", "0", "5", "6", "7"], "rt": [1889, 223, 216], "actions": ["right", "right", "up"], "actionTimes": [2597, 3325, 4041], "queries": {"click": {"state": {"target": ["5", "6", "7"], "time": [1176, 1795, 2177]}, "edge": {"target": [], "time": []}}, "mouseover": {"state": {"target": ["5", "6", "7"], "time": [1058, 1677, 2104]}, "edge": {"target": [], "time": []}}, "mouseout": {"state": {"target": ["8", "0", "5", "5", "6", "7", "8"], "time": [451, 972, 1361, 1624, 2056, 2370, 4914]}, "edge": {"target": [], "time": []}}}, "displayed_time": "9.71", "trialTime": 10104, "trial_type": "mouselab-mdp", "trial_index": 18, "time_elapsed": 388331, "internal_node_id": "0.0-4.0-1.0-9.0"}}, {"uniqueid": "w22040264:a81298059", "current_trial": 19, "dateTime": 1664555397453, "trialdata": {"revealed_states": [], "num_clicks_accrued": [0, 0, 0, 0, 0, 0, 0, 0, 0, 0, 0, 0, 0], "stateRewards": ["", 2, -4, -24, -48, -2, 8, -24, 48, -2, 8, 24, -48], "withholdReward": false, "trial_id": "mdp_566582551557", "block": "test1", "trialIndex": 12, "score": 33, "costs": -2, "simulationMode": [null, null, null], "rewards": [-2, 8, 24], "path": ["0", "0", "9", "10", "11"], "rt": [4041, 97, 205], "actions": ["left", "left", "up"], "actionTimes": [4538, 5136, 5844], "queries": {"click": {"state": {"target": ["1", "5", "9", "2", "4", "3", "10", "11"], "time": [962, 1334, 1816, 2377, 2706, 3120, 3739, 4045]}, "edge": {"target": [], "time": []}}, "mouseover": {"state": {"target": ["1", "5", "0", "9", "2", "4", "3", "10", "11", "12"], "time": [873, 1204, 1542, 1762, 2153, 2649, 2931, 3551, 3988, 4333]}, "edge": {"target": [], "time": []}}, "mouseout": {"state": {"target": ["1", "5", "0", "9", "2", "4", "2", "3", "1", "9", "10", "11", "10", "12"], "time": [1147, 1517, 1611, 2054, 2539, 2835, 2909, 3384, 3447, 3510, 3923, 4232, 4304, 4477]}, "edge": {"target": [], "time": []}}}, "displayed_time": "8.50", "trialTime": 8828, "trial_type": "mouselab-mdp", "trial_index": 19, "time_elapsed": 397186, "internal_node_id": "0.0-4.0-1.0-10.0"}}, {"uniqueid": "w22040264:a81298059", "current_trial": 20, "dateTime": 1664555407859, "trialdata": {"revealed_states": [], "num_clicks_accrued": [0, 0, 0, 0, 0, 0, 0, 0, 0, 0, 0, 0, 0], "stateRewards": ["", -4, -8, 48, 24, 4, -8, 24, -48, -2, -8, 24, -48], "withholdReward": true, "trial_id": "mdp_952038635544", "block": "test1", "trialIndex": 13, "score": 18.25, "costs": -0.75, "simulationMode": [null, null, null], "rewards": [-2, -8, 24], "path": ["0", "0", "9", "10", "11"], "rt": [2907, 240, 221], "actions": ["left", "left", "up"], "actionTimes": [3671, 4412, 5133], "queries": {"click": {"state": {"target": ["11", "10", "9"], "time": [1928, 2458, 2783]}, "edge": {"target": [], "time": []}}, "mouseover": {"state": {"target": ["9", "11", "10", "10", "9", "6", "6", "5", "0"], "time": [978, 1301, 2143, 2385, 2658, 3246, 3541, 3584, 3600]}, "edge": {"target": [], "time": []}}, "mouseout": {"state": {"target": ["0", "9", "11", "10", "10", "9", "6", "6", "5", "0", "9", "11", "11", "11", "9", "0"], "time": [950, 1026, 2096, 2216, 2603, 2958, 3280, 3568, 3592, 3608, 5354, 5646, 5998, 6627, 6750, 6781]}, "edge": {"target": [], "time": []}}}, "displayed_time": "9.77", "trialTime": 10377, "trial_type": "mouselab-mdp", "trial_index": 20, "time_elapsed": 407592, "internal_node_id": "0.0-4.0-1.0-11.0"}}, {"uniqueid": "w22040264:a81298059", "current_trial": 21, "dateTime": 1664555416711, "trialdata": {"revealed_states": [], "num_clicks_accrued": [0, 0, 0, 0, 0, 0, 0, 0, 0, 0, 0, 0, 0], "stateRewards": ["", -2, -4, 48, -24, -4, -4, -24, -24, -2, 4, -48, -24], "withholdReward": true, "trial_id": "mdp_410467837196", "block": "test1", "trialIndex": 14, "score": 45.25, "costs": -1.75, "simulationMode": [null, null, null], "rewards": [-2, -4, 48], "path": ["0", "0", "1", "2", "3"], "rt": [4232, 910, 248], "actions": ["up", "up", "right"], "actionTimes": [4775, 6191, 6941], "queries": {"click": {"state": {"target": ["1", "9", "5", "11", "12", "4", "3"], "time": [913, 1267, 1599, 2279, 2968, 3649, 4060]}, "edge": {"target": [], "time": []}}, "mouseover": {"state": {"target": ["1", "9", "5", "11", "10", "12", "0", "2", "4", "2", "3", "7"], "time": [855, 1169, 1499, 2136, 2531, 2841, 3171, 3365, 3556, 3811, 3882, 4369]}, "edge": {"target": [], "time": []}}, "mouseout": {"state": {"target": ["0", "1", "9", "5", "9", "11", "10", "12", "0", "5", "2", "4", "2", "3", "7", "2"], "time": [670, 1075, 1411, 1856, 1973, 2488, 2761, 3117, 3180, 3204, 3489, 3775, 3847, 4292, 4988, 5863]}, "edge": {"target": [], "time": []}}}, "displayed_time": "8.54", "trialTime": 8823, "trial_type": "mouselab-mdp", "trial_index": 21, "time_elapsed": 416445, "internal_node_id": "0.0-4.0-1.0-12.0"}}, {"uniqueid": "w22040264:a81298059", "current_trial": 22, "dateTime": 1664555426176, "trialdata": {"revealed_states": [], "num_clicks_accrued": [0, 0, 0, 0, 0, 0, 0, 0, 0, 0, 0, 0, 0], "stateRewards": ["", -2, -8, -24, 48, -2, -8, -48, -48, 2, -8, -48, 24], "withholdReward": true, "trial_id": "mdp_288324580942", "block": "test1", "trialIndex": 15, "score": 42.5, "costs": -0.5, "simulationMode": [null, null, null], "rewards": [-2, -8, 48], "path": ["0", "0", "1", "2", "4"], "rt": [2127, 124, 83], "actions": ["up", "up", "left"], "actionTimes": [2645, 3273, 3857], "queries": {"click": {"state": {"target": ["3", "4"], "time": [1443, 1943]}, "edge": {"target": [], "time": []}}, "mouseover": {"state": {"target": ["1", "2", "3", "2", "4", "11"], "time": [781, 1095, 1330, 1711, 1827, 2328]}, "edge": {"target": [], "time": []}}, "mouseout": {"state": {"target": ["0", "1", "2", "3", "2", "4", "11", "1", "1", "0"], "time": [431, 1002, 1289, 1643, 1779, 2143, 2612, 3216, 4487, 4556]}, "edge": {"target": [], "time": []}}}, "displayed_time": "8.52", "trialTime": 9436, "trial_type": "mouselab-mdp", "trial_index": 22, "time_elapsed": 425910, "internal_node_id": "0.0-4.0-1.0-13.0"}}, {"uniqueid": "w22040264:a81298059", "current_trial": 23, "dateTime": 1664555437165, "trialdata": {"revealed_states": [], "num_clicks_accrued": [0, 0, 0, 0, 0, 0, 0, 0, 0, 0, 0, 0, 0], "stateRewards": ["", 4, 4, 48, -24, 2, -4, 48, 24, -4, -4, -48, 24], "withholdReward": false, "trial_id": "mdp_496003763005", "block": "test1", "trialIndex": 16, "score": 60.5, "costs": -0.5, "simulationMode": [null, null, null], "rewards": [4, 4, 48], "path": ["0", "0", "1", "2", "3"], "rt": [1667, 104, 145], "actions": ["up", "up", "right"], "actionTimes": [2292, 2905, 3558], "queries": {"click": {"state": {"target": ["4", "3"], "time": [1124, 1628]}, "edge": {"target": [], "time": []}}, "mouseover": {"state": {"target": ["1", "4", "2", "3", "7"], "time": [896, 1007, 1404, 1465, 2029]}, "edge": {"target": [], "time": []}}, "mouseout": {"state": {"target": ["1", "4", "2", "3", "7", "1", "5", "0", "0", "3", "3"], "time": [903, 1355, 1427, 1871, 2308, 2818, 4158, 9625, 10607, 10633, 10907]}, "edge": {"target": [], "time": []}}}, "displayed_time": "9.63", "trialTime": 10957, "trial_type": "mouselab-mdp", "trial_index": 23, "time_elapsed": 436899, "internal_node_id": "0.0-4.0-1.0-14.0"}}, {"uniqueid": "w22040264:a81298059", "current_trial": 24, "dateTime": 1664555447104, "trialdata": {"revealed_states": [], "num_clicks_accrued": [0, 0, 0, 0, 0, 0, 0, 0, 0, 0, 0, 0, 0], "stateRewards": ["", 4, -8, 48, -24, -4, 4, 24, 24, -2, -4, 24, 24], "withholdReward": true, "trial_id": "mdp_542168715839", "block": "test1", "trialIndex": 17, "score": 48.25, "costs": -0.75, "simulationMode": [null, null, null], "rewards": [4, -8, 48], "path": ["0", "0", "1", "2", "3"], "rt": [1803, 11, 75], "actions": ["up", "up", "right"], "actionTimes": [2316, 2836, 3421], "queries": {"click": {"state": {"target": ["3", "1", "2"], "time": [896, 1814, 2072]}, "edge": {"target": [], "time": []}}, "mouseover": {"state": {"target": ["1", "3", "2", "4", "4", "1", "2", "7"], "time": [646, 834, 1136, 1264, 1441, 1550, 1998, 2302]}, "edge": {"target": [], "time": []}}, "mouseout": {"state": {"target": ["1", "1", "3", "2", "4", "4", "1", "2", "7", "6"], "time": [336, 682, 1076, 1186, 1283, 1467, 1966, 2259, 2308, 3970]}, "edge": {"target": [], "time": []}}}, "displayed_time": "9.51", "trialTime": 9909, "trial_type": "mouselab-mdp", "trial_index": 24, "time_elapsed": 446838, "internal_node_id": "0.0-4.0-1.0-15.0"}}, {"uniqueid": "w22040264:a81298059", "current_trial": 25, "dateTime": 1664555457311, "trialdata": {"revealed_states": [], "num_clicks_accrued": [0, 0, 0, 0, 0, 0, 0, 0, 0, 0, 0, 0, 0], "stateRewards": ["", 4, -8, 48, -24, 4, -4, -48, -48, 4, -4, 24, 24], "withholdReward": true, "trial_id": "mdp_221562928904", "block": "test1", "trialIndex": 18, "score": 48.25, "costs": -0.75, "simulationMode": [null, null, null], "rewards": [4, -8, 48], "path": ["0", "0", "1", "2", "3"], "rt": [1695, 12, 48], "actions": ["up", "up", "right"], "actionTimes": [2279, 2793, 3351], "queries": {"click": {"state": {"target": ["3", "1", "2"], "time": [974, 1760, 2035]}, "edge": {"target": [], "time": []}}, "mouseover": {"state": {"target": ["1", "3", "1", "2"], "time": [730, 828, 1376, 1937]}, "edge": {"target": [], "time": []}}, "mouseout": {"state": {"target": ["1", "2", "1", "1", "3", "1", "2", "5", "1", "0"], "time": [216, 353, 448, 738, 1258, 1896, 2234, 4455, 4710, 5742]}, "edge": {"target": [], "time": []}}}, "displayed_time": "9.59", "trialTime": 10178, "trial_type": "mouselab-mdp", "trial_index": 25, "time_elapsed": 457045, "internal_node_id": "0.0-4.0-1.0-16.0"}}, {"uniqueid": "w22040264:a81298059", "current_trial": 26, "dateTime": 1664555467430, "trialdata": {"revealed_states": [], "num_clicks_accrued": [0, 0, 0, 0, 0, 0, 0, 0, 0, 0, 0, 0, 0], "stateRewards": ["", -2, -4, -24, -48, 2, -8, -24, -24, 4, -8, 48, 48], "withholdReward": true, "trial_id": "mdp_950599994674", "block": "test1", "trialIndex": 19, "score": 48, "costs": -1, "simulationMode": [null, null, null], "rewards": [4, -8, 48], "path": ["0", "0", "9", "10", "11"], "rt": [2978, 60, 78], "actions": ["left", "left", "up"], "actionTimes": [3514, 4074, 4657], "queries": {"click": {"state": {"target": ["1", "3", "4", "11"], "time": [1096, 1532, 2006, 2876]}, "edge": {"target": [], "time": []}}, "mouseover": {"state": {"target": ["1", "3", "2", "4", "11", "10"], "time": [914, 1436, 1820, 1892, 2730, 3068]}, "edge": {"target": [], "time": []}}, "mouseout": {"state": {"target": ["0", "1", "3", "2", "4", "11", "10", "9"], "time": [435, 1381, 1794, 1861, 2267, 3040, 3112, 4196]}, "edge": {"target": [], "time": []}}}, "displayed_time": "9.54", "trialTime": 10089, "trial_type": "mouselab-mdp", "trial_index": 26, "time_elapsed": 467164, "internal_node_id": "0.0-4.0-1.0-17.0"}}, {"uniqueid": "w22040264:a81298059", "current_trial": 27, "dateTime": 1664555476828, "trialdata": {"revealed_states": [], "num_clicks_accrued": [0, 0, 0, 0, 0, 0, 0, 0, 0, 0, 0, 0, 0], "stateRewards": ["", 2, 4, -48, -48, 4, 4, -48, -48, -2, -8, 48, -24], "withholdReward": false, "trial_id": "mdp_175327338412", "block": "test1", "trialIndex": 20, "score": 42.75, "costs": -0.25, "simulationMode": [null, null, null], "rewards": [-2, -8, 48], "path": ["0", "0", "9", "10", "11"], "rt": [1216, 41, 115], "actions": ["left", "left", "up"], "actionTimes": [1874, 2420, 3035], "queries": {"click": {"state": {"target": ["11"], "time": [1181]}, "edge": {"target": [], "time": []}}, "mouseover": {"state": {"target": ["9", "11", "10"], "time": [865, 1124, 1426]}, "edge": {"target": [], "time": []}}, "mouseout": {"state": {"target": ["0", "9", "11", "10", "9"], "time": [841, 897, 1371, 1582, 3762]}, "edge": {"target": [], "time": []}}}, "displayed_time": "8.66", "trialTime": 9370, "trial_type": "mouselab-mdp", "trial_index": 27, "time_elapsed": 476562, "internal_node_id": "0.0-4.0-1.0-18.0"}}, {"uniqueid": "w22040264:a81298059", "current_trial": 28, "dateTime": 1664555486977, "trialdata": {"revealed_states": [], "num_clicks_accrued": [0, 0, 0, 0, 0, 0, 0, 0, 0, 0, 0, 0, 0], "stateRewards": ["", -2, 8, 48, -24, 2, 4, -48, -24, -4, 8, -48, -48], "withholdReward": false, "trial_id": "mdp_539167561933", "block": "test1", "trialIndex": 21, "score": 58, "costs": -1, "simulationMode": [null, null, null], "rewards": [-2, 8, 48], "path": ["0", "0", "1", "2", "3"], "rt": [2668, 424, 164], "actions": ["up", "up", "right"], "actionTimes": [3479, 4406, 5074], "queries": {"click": {"state": {"target": ["11", "12", "4", "3"], "time": [1346, 1752, 2387, 2837]}, "edge": {"target": [], "time": []}}, "mouseover": {"state": {"target": ["9", "11", "10", "12", "9", "1", "2", "4", "2", "3", "7"], "time": [1015, 1276, 1539, 1643, 1981, 2047, 2111, 2307, 2561, 2651, 3147]}, "edge": {"target": [], "time": []}}, "mouseout": {"state": {"target": ["0", "9", "11", "10", "12", "9", "1", "2", "4", "2", "3", "7", "5"], "time": [997, 1047, 1513, 1595, 1942, 1989, 2083, 2231, 2537, 2617, 3029, 3569, 5809]}, "edge": {"target": [], "time": []}}}, "displayed_time": "9.81", "trialTime": 10117, "trial_type": "mouselab-mdp", "trial_index": 28, "time_elapsed": 486711, "internal_node_id": "0.0-4.0-1.0-19.0"}}, {"uniqueid": "w22040264:a81298059", "current_trial": 29, "dateTime": 1664555496461, "trialdata": {"revealed_states": [], "num_clicks_accrued": [0, 0, 0, 0, 0, 0, 0, 0, 0, 0, 0, 0, 0], "stateRewards": ["", -4, -4, -24, 48, 2, 4, -24, -48, -2, 4, 24, 24], "withholdReward": false, "trial_id": "mdp_360934723192", "block": "test1", "trialIndex": 22, "score": 44.5, "costs": -0.5, "simulationMode": [null, null, null], "rewards": [-4, -4, 48], "path": ["0", "0", "1", "2", "4"], "rt": [1931, 58, 14], "actions": ["up", "up", "left"], "actionTimes": [2775, 3333, 3847], "queries": {"click": {"state": {"target": ["3", "4"], "time": [1294, 1809]}, "edge": {"target": [], "time": []}}, "mouseover": {"state": {"target": ["3", "2", "4", "11"], "time": [1176, 1540, 1612, 2116]}, "edge": {"target": [], "time": []}}, "mouseout": {"state": {"target": ["0", "3", "2", "4", "11", "1", "5"], "time": [574, 1491, 1574, 2041, 2433, 3171, 9208]}, "edge": {"target": [], "time": []}}}, "displayed_time": "8.85", "trialTime": 9454, "trial_type": "mouselab-mdp", "trial_index": 29, "time_elapsed": 496195, "internal_node_id": "0.0-4.0-1.0-20.0"}}, {"uniqueid": "w22040264:a81298059", "current_trial": 30, "dateTime": 1664555506558, "trialdata": {"revealed_states": [], "num_clicks_accrued": [0, 0, 0, 0, 0, 0, 0, 0, 0, 0, 0, 0, 0], "stateRewards": ["", -2, 4, -24, 48, 4, -8, 48, -48, 2, -8, 48, 24], "withholdReward": true, "trial_id": "mdp_501111216502", "block": "test1", "trialIndex": 23, "score": 54.75, "costs": -0.25, "simulationMode": [null, null, null], "rewards": [-2, 4, 48], "path": ["0", "0", "1", "2", "4"], "rt": [1025, 428, 132], "actions": ["up", "up", "left"], "actionTimes": [1706, 2644, 3277], "queries": {"click": {"state": {"target": ["4"], "time": [1198]}, "edge": {"target": [], "time": []}}, "mouseover": {"state": {"target": ["1", "4", "1"], "time": [882, 1117, 1657]}, "edge": {"target": [], "time": []}}, "mouseout": {"state": {"target": ["0", "1", "4", "1"], "time": [837, 917, 1481, 2088]}, "edge": {"target": [], "time": []}}}, "displayed_time": "9.68", "trialTime": 10065, "trial_type": "mouselab-mdp", "trial_index": 30, "time_elapsed": 506292, "internal_node_id": "0.0-4.0-1.0-21.0"}}, {"uniqueid": "w22040264:a81298059", "current_trial": 31, "dateTime": 1664555516874, "trialdata": {"revealed_states": [], "num_clicks_accrued": [0, 0, 0, 0, 0, 0, 0, 0, 0, 0, 0, 0, 0], "stateRewards": ["", 2, 8, 48, 24, 2, 8, 48, 48, -2, -4, -24, -48], "withholdReward": true, "trial_id": "mdp_717636349175", "block": "test1", "trialIndex": 24, "score": 62.5, "costs": -0.5, "simulationMode": [null, null, null], "rewards": [2, 8, 48], "path": ["0", "0", "1", "2", "3"], "rt": [1658, 57, 67], "actions": ["up", "up", "right"], "actionTimes": [2265, 2824, 3398], "queries": {"click": {"state": {"target": ["4", "3"], "time": [1062, 1676]}, "edge": {"target": [], "time": []}}, "mouseover": {"state": {"target": ["4", "2", "3", "1"], "time": [810, 1470, 1518, 1948]}, "edge": {"target": [], "time": []}}, "mouseout": {"state": {"target": ["9", "0", "4", "4", "2", "3", "1", "8"], "time": [60, 704, 1348, 1456, 1494, 1890, 2093, 4426]}, "edge": {"target": [], "time": []}}}, "displayed_time": "9.61", "trialTime": 10285, "trial_type": "mouselab-mdp", "trial_index": 31, "time_elapsed": 516608, "internal_node_id": "0.0-4.0-1.0-22.0"}}, {"uniqueid": "w22040264:a81298059", "current_trial": 32, "dateTime": 1664555529125, "trialdata": {"revealed_states": [], "num_clicks_accrued": [0, 0, 0, 0, 0, 0, 0, 0, 0, 0, 0, 0, 0], "stateRewards": ["", 4, 4, 48, -48, -2, -8, -48, -24, 2, 4, -24, -48], "withholdReward": true, "trial_id": "mdp_239929662917", "block": "test1", "trialIndex": 25, "score": 60.5, "costs": -0.5, "simulationMode": [null, null, null], "rewards": [4, 4, 48], "path": ["0", "0", "1", "2", "3"], "rt": [1672, 30, 23], "actions": ["up", "up", "right"], "actionTimes": [2404, 2936, 3463], "queries": {"click": {"state": {"target": ["4", "3"], "time": [1390, 1865]}, "edge": {"target": [], "time": []}}, "mouseover": {"state": {"target": ["1", "4", "4", "2", "3", "7"], "time": [930, 954, 1332, 1622, 1698, 2316]}, "edge": {"target": [], "time": []}}, "mouseout": {"state": {"target": ["8", "5", "0", "1", "4", "4", "2", "3"], "time": [303, 568, 910, 938, 962, 1602, 1662, 2062]}, "edge": {"target": [], "time": []}}}, "displayed_time": "9.73", "trialTime": 12222, "trial_type": "mouselab-mdp", "trial_index": 32, "time_elapsed": 528859, "internal_node_id": "0.0-4.0-1.0-23.0"}}, {"uniqueid": "w22040264:a81298059", "current_trial": 33, "dateTime": 1664555539351, "trialdata": {"revealed_states": [], "num_clicks_accrued": [0, 0, 0, 0, 0, 0, 0, 0, 0, 0, 0, 0, 0], "stateRewards": ["", 2, -4, 48, -48, 2, 4, -24, 24, -4, -8, 24, -48], "withholdReward": false, "trial_id": "mdp_238810765895", "block": "test1", "trialIndex": 26, "score": 50.75, "costs": -0.25, "simulationMode": [null, null, null], "rewards": [2, -4, 48], "path": ["0", "0", "1", "2", "3"], "rt": [1468, 166, 5088], "actions": ["up", "up", "right"], "actionTimes": [2535, 3205, 8797], "queries": {"click": {"state": {"target": ["3"], "time": [1491]}, "edge": {"target": [], "time": []}}, "mouseover": {"state": {"target": ["3", "2", "2"], "time": [1425, 1688, 2093]}, "edge": {"target": [], "time": []}}, "mouseout": {"state": {"target": ["7", "5", "5", "3", "2"], "time": [547, 739, 851, 1652, 1715]}, "edge": {"target": [], "time": []}}}, "displayed_time": "9.30", "trialTime": 10189, "trial_type": "mouselab-mdp", "trial_index": 33, "time_elapsed": 539085, "internal_node_id": "0.0-4.0-1.0-24.0"}}, {"uniqueid": "w22040264:a81298059", "current_trial": 34, "dateTime": 1664555551321, "trialdata": {"revealed_states": [], "num_clicks_accrued": [0, 0, 0, 0, 0, 0, 0, 0, 0, 0, 0, 0, 0], "stateRewards": ["", -2, 4, 24, 48, 2, 4, -48, -48, 2, 8, 48, -48], "withholdReward": true, "trial_id": "mdp_409609775558", "block": "test1", "trialIndex": 27, "score": 54.5, "costs": -0.5, "simulationMode": [null, null, null], "rewards": [-2, 4, 48], "path": ["0", "0", "1", "2", "4"], "rt": [1396, 228, 192], "actions": ["up", "up", "left"], "actionTimes": [2318, 3048, 3741], "queries": {"click": {"state": {"target": ["3", "4"], "time": [1346, 1791]}, "edge": {"target": [], "time": []}}, "mouseover": {"state": {"target": ["1", "3", "2", "4"], "time": [1088, 1304, 1554, 1610]}, "edge": {"target": [], "time": []}}, "mouseout": {"state": {"target": ["2", "1", "0", "1", "3", "2", "4", "9"], "time": [548, 597, 1062, 1104, 1528, 1586, 2006, 11612]}, "edge": {"target": [], "time": []}}}, "displayed_time": "8.92", "trialTime": 11940, "trial_type": "mouselab-mdp", "trial_index": 34, "time_elapsed": 551055, "internal_node_id": "0.0-4.0-1.0-25.0"}}, {"uniqueid": "w22040264:a81298059", "current_trial": 35, "dateTime": 1664555563930, "trialdata": {"revealed_states": [], "num_clicks_accrued": [0, 0, 0, 0, 0, 0, 0, 0, 0, 0, 0, 0, 0], "stateRewards": ["", 2, 8, 24, -48, 4, 8, 24, 48, 2, -8, -24, 24], "withholdReward": true, "trial_id": "mdp_939899431582", "block": "test1", "trialIndex": 28, "score": 64, "costs": -1, "simulationMode": [null, null, null], "rewards": [4, 8, 48], "path": ["0", "0", "5", "6", "8"], "rt": [2624, 5, 132], "actions": ["right", "right", "down"], "actionTimes": [4867, 5376, 6013], "queries": {"click": {"state": {"target": ["4", "3", "7", "8"], "time": [2907, 3478, 3954, 4461]}, "edge": {"target": [], "time": []}}, "mouseover": {"state": {"target": ["1", "4", "2", "3", "7", "6", "8"], "time": [2586, 2835, 3181, 3375, 3791, 4177, 4292]}, "edge": {"target": [], "time": []}}, "mouseout": {"state": {"target": ["0", "1", "4", "2", "3", "7", "6", "8"], "time": [2413, 2663, 3131, 3267, 3663, 4145, 4227, 5062]}, "edge": {"target": [], "time": []}}}, "displayed_time": "11.24", "trialTime": 12576, "trial_type": "mouselab-mdp", "trial_index": 35, "time_elapsed": 563664, "internal_node_id": "0.0-4.0-1.0-26.0"}}, {"uniqueid": "w22040264:a81298059", "current_trial": 36, "dateTime": 1664555573438, "trialdata": {"revealed_states": [], "num_clicks_accrued": [0, 0, 0, 0, 0, 0, 0, 0, 0, 0, 0, 0, 0], "stateRewards": ["", 4, 4, 24, 24, 4, -4, 48, 48, 4, 4, 24, -48], "withholdReward": true, "trial_id": "mdp_454251689008", "block": "test1", "trialIndex": 29, "score": 52.25, "costs": -0.75, "simulationMode": [null, null, null], "rewards": [4, -4, 48], "path": ["0", "0", "5", "6", "7"], "rt": [2141, 551, 158], "actions": ["right", "right", "up"], "actionTimes": [3386, 4437, 5100], "queries": {"click": {"state": {"target": ["4", "3", "7"], "time": [1771, 2194, 2906]}, "edge": {"target": [], "time": []}}, "mouseover": {"state": {"target": ["1", "4", "2", "3", "7", "7", "6", "8"], "time": [1416, 1701, 1939, 1999, 2672, 2826, 3107, 3187]}, "edge": {"target": [], "time": []}}, "mouseout": {"state": {"target": ["0", "1", "4", "2", "3", "7", "7", "6", "8", "6", "6"], "time": [1362, 1479, 1914, 1971, 2455, 2690, 3075, 3139, 3449, 3546, 9417]}, "edge": {"target": [], "time": []}}}, "displayed_time": "9.25", "trialTime": 9478, "trial_type": "mouselab-mdp", "trial_index": 36, "time_elapsed": 573172, "internal_node_id": "0.0-4.0-1.0-27.0"}}, {"uniqueid": "w22040264:a81298059", "current_trial": 37, "dateTime": 1664555582692, "trialdata": {"revealed_states": [], "num_clicks_accrued": [0, 0, 0, 0, 0, 0, 0, 0, 0, 0, 0, 0, 0], "stateRewards": ["", 4, -8, -48, 24, 4, 4, -24, -24, 2, 4, -48, 24], "withholdReward": true, "trial_id": "mdp_626971397185", "block": "test1", "trialIndex": 30, "score": 23.5, "costs": -1.5, "simulationMode": [null, null, null], "rewards": [4, -8, 24], "path": ["0", "0", "1", "2", "4"], "rt": [4936, 19, 81], "actions": ["up", "up", "left"], "actionTimes": [5606, 6125, 6714], "queries": {"click": {"state": {"target": ["7", "8", "4", "3", "11", "12"], "time": [1191, 1699, 2885, 3399, 4004, 4479]}, "edge": {"target": [], "time": []}}, "mouseover": {"state": {"target": ["5", "7", "6", "8", "1", "2", "4", "4", "2", "2", "4", "2", "3", "1", "11", "10", "12", "0"], "time": [876, 1028, 1384, 1619, 1972, 2023, 2199, 2399, 2480, 2609, 2770, 3066, 3228, 3733, 3940, 4236, 4304, 5106]}, "edge": {"target": [], "time": []}}, "mouseout": {"state": {"target": ["8", "6", "5", "0", "5", "7", "6", "8", "1", "2", "4", "4", "2", "2", "4", "2", "3", "1", "11", "10", "12", "0", "5"], "time": [148, 352, 385, 858, 932, 1360, 1470, 1895, 1980, 2150, 2265, 2465, 2514, 2684, 3030, 3156, 3672, 3752, 4213, 4276, 4753, 8557, 8594]}, "edge": {"target": [], "time": []}}}, "displayed_time": "8.67", "trialTime": 9225, "trial_type": "mouselab-mdp", "trial_index": 37, "time_elapsed": 582426, "internal_node_id": "0.0-4.0-1.0-28.0"}}, {"uniqueid": "w22040264:a81298059", "current_trial": 38, "dateTime": 1664555591863, "trialdata": {"revealed_states": [], "num_clicks_accrued": [0, 0, 0, 0, 0, 0, 0, 0, 0, 0, 0, 0, 0], "stateRewards": ["", 4, 4, 48, -48, -2, 4, 48, -48, -4, 4, -24, -24], "withholdReward": true, "trial_id": "mdp_753324812898", "block": "test1", "trialIndex": 31, "score": 60.5, "costs": -0.5, "simulationMode": [null, null, null], "rewards": [4, 4, 48], "path": ["0", "0", "1", "2", "3"], "rt": [1418, 85, 93], "actions": ["up", "up", "right"], "actionTimes": [2090, 2684, 3281], "queries": {"click": {"state": {"target": ["4", "3"], "time": [1155, 1680]}, "edge": {"target": [], "time": []}}, "mouseover": {"state": {"target": ["4", "2", "3", "7"], "time": [1045, 1433, 1507, 2009]}, "edge": {"target": [], "time": []}}, "mouseout": {"state": {"target": ["0", "4", "2", "3", "7", "6"], "time": [637, 1391, 1459, 1903, 8131, 8677]}, "edge": {"target": [], "time": []}}}, "displayed_time": "8.67", "trialTime": 9143, "trial_type": "mouselab-mdp", "trial_index": 38, "time_elapsed": 591597, "internal_node_id": "0.0-4.0-1.0-29.0"}}, {"uniqueid": "w22040264:a81298059", "current_trial": 39, "dateTime": 1664555597348, "trialdata": {"rt": 5481, "stimulus": "<h1> End of block! </h1>\n\nYou have reached the end of the block 1/4. If you need a short break, feel free to take one now before moving on.\n\n<br><br>\nIn the next block, you will complete another 30 rounds of this game.\n\n<br><br>\n<div style='text-align: center;'>Press <code>space</code> to begin.</div>\n<br><br>\n<div style='text-align: center;'>(If the experiment doesn't continue, try clicking on the text and then pressing <code>space</code>.)</div>", "response": " ", "trial_id": "mdp_ready_2", "trial_type": "html-keyboard-response", "trial_index": 39, "time_elapsed": 597082, "internal_node_id": "0.0-4.0-2.0"}}, {"uniqueid": "w22040264:a81298059", "current_trial": 40, "dateTime": 1664555608030, "trialdata": {"revealed_states": [], "num_clicks_accrued": [0, 0, 0, 0, 0, 0, 0, 0, 0, 0, 0, 0, 0], "stateRewards": ["", -4, -8, -48, 48, -2, -8, -48, -24, 4, 8, 24, -48], "withholdReward": true, "trial_id": "mdp_509977295685", "block": "test2", "trialIndex": 32, "score": 40.75, "costs": -0.25, "simulationMode": [null, null, null], "rewards": [-4, -8, 48], "path": ["0", "0", "1", "2", "4"], "rt": [1274, 31, 386], "actions": ["up", "up", "left"], "actionTimes": [2100, 2635, 3525], "queries": {"click": {"state": {"target": ["4"], "time": [1378]}, "edge": {"target": [], "time": []}}, "mouseover": {"state": {"target": ["1", "4", "2", "3"], "time": [1078, 1216, 1554, 1619]}, "edge": {"target": [], "time": []}}, "mouseout": {"state": {"target": ["2", "1", "0", "1", "4", "2", "3", "8"], "time": [248, 297, 458, 1112, 1530, 1594, 2416, 8882]}, "edge": {"target": [], "time": []}}}, "displayed_time": "9.83", "trialTime": 10647, "trial_type": "mouselab-mdp", "trial_index": 40, "time_elapsed": 607764, "internal_node_id": "0.0-4.0-3.0-0.0"}}, {"uniqueid": "w22040264:a81298059", "current_trial": 41, "dateTime": 1664555618461, "trialdata": {"revealed_states": [], "num_clicks_accrued": [0, 0, 0, 0, 0, 0, 0, 0, 0, 0, 0, 0, 0], "stateRewards": ["", -4, -8, -48, -48, 4, -8, 48, 48, 2, 8, 48, 24], "withholdReward": true, "trial_id": "mdp_880437222492", "block": "test2", "trialIndex": 33, "score": 48.25, "costs": -0.75, "simulationMode": [null, null, null], "rewards": [4, -8, 48], "path": ["0", "0", "5", "6", "7"], "rt": [2002, 33, 42], "actions": ["right", "right", "up"], "actionTimes": [2754, 3292, 3835], "queries": {"click": {"state": {"target": ["4", "3", "7"], "time": [1289, 1756, 2256]}, "edge": {"target": [], "time": []}}, "mouseover": {"state": {"target": ["1", "4", "2", "3", "7", "6"], "time": [1056, 1151, 1489, 1553, 2053, 2475]}, "edge": {"target": [], "time": []}}, "mouseout": {"state": {"target": ["0", "1", "4", "2", "3", "7", "6"], "time": [1000, 1063, 1473, 1529, 1986, 2441, 2521]}, "edge": {"target": [], "time": []}}}, "displayed_time": "8.75", "trialTime": 10398, "trial_type": "mouselab-mdp", "trial_index": 41, "time_elapsed": 618194, "internal_node_id": "0.0-4.0-3.0-1.0"}}, {"uniqueid": "w22040264:a81298059", "current_trial": 42, "dateTime": 1664555628106, "trialdata": {"revealed_states": [], "num_clicks_accrued": [0, 0, 0, 0, 0, 0, 0, 0, 0, 0, 0, 0, 0], "stateRewards": ["", 4, -8, 48, -24, -4, 4, 24, 24, -2, -4, 24, 24], "withholdReward": true, "trial_id": "mdp_542168715839", "block": "test2", "trialIndex": 34, "score": 48.5, "costs": -0.5, "simulationMode": [null, null, null], "rewards": [4, -8, 48], "path": ["0", "0", "1", "2", "3"], "rt": [1804, 66, 370], "actions": ["up", "up", "right"], "actionTimes": [3046, 3614, 4487], "queries": {"click": {"state": {"target": ["4", "3"], "time": [1768, 2571]}, "edge": {"target": [], "time": []}}, "mouseover": {"state": {"target": ["4", "2", "3", "7"], "time": [1702, 1958, 2467, 2802]}, "edge": {"target": [], "time": []}}, "mouseout": {"state": {"target": ["6", "5", "0", "0", "4", "2", "3"], "time": [435, 618, 716, 1393, 1917, 2122, 2763]}, "edge": {"target": [], "time": []}}}, "displayed_time": "9.24", "trialTime": 9613, "trial_type": "mouselab-mdp", "trial_index": 42, "time_elapsed": 627840, "internal_node_id": "0.0-4.0-3.0-2.0"}}, {"uniqueid": "w22040264:a81298059", "current_trial": 43, "dateTime": 1664555638140, "trialdata": {"revealed_states": [], "num_clicks_accrued": [0, 0, 0, 0, 0, 0, 0, 0, 0, 0, 0, 0, 0], "stateRewards": ["", -2, -4, -48, -48, 4, 8, 24, -48, 4, -8, 24, 24], "withholdReward": true, "trial_id": "mdp_749799219195", "block": "test2", "trialIndex": 35, "score": 23.5, "costs": -1.5, "simulationMode": [null, null, null], "rewards": [4, -8, 24], "path": ["0", "0", "9", "10", "11"], "rt": [3800, 21, 556], "actions": ["left", "left", "up"], "actionTimes": [5050, 5578, 6645], "queries": {"click": {"state": {"target": ["3", "4", "11", "12", "8", "7"], "time": [1875, 2276, 2767, 3253, 4146, 4484]}, "edge": {"target": [], "time": []}}, "mouseover": {"state": {"target": ["1", "2", "3", "2", "4", "11", "10", "12", "6", "8", "8", "6", "7"], "time": [1468, 1550, 1801, 2082, 2196, 2526, 2910, 2984, 3564, 3724, 3967, 4346, 4401]}, "edge": {"target": [], "time": []}}, "mouseout": {"state": {"target": ["7", "0", "0", "1", "2", "3", "2", "4", "11", "10", "12", "6", "8", "8", "6", "7", "6"], "time": [806, 1037, 1420, 1518, 1742, 2024, 2162, 2476, 2889, 2952, 3470, 3684, 3774, 4323, 4374, 4724, 9164]}, "edge": {"target": [], "time": []}}}, "displayed_time": "9.25", "trialTime": 10003, "trial_type": "mouselab-mdp", "trial_index": 43, "time_elapsed": 637874, "internal_node_id": "0.0-4.0-3.0-3.0"}}, {"uniqueid": "w22040264:a81298059", "current_trial": 44, "dateTime": 1664555647682, "trialdata": {"revealed_states": [], "num_clicks_accrued": [0, 0, 0, 0, 0, 0, 0, 0, 0, 0, 0, 0, 0], "stateRewards": ["", -4, -8, 48, -24, 4, -8, 48, 48, -2, 4, -48, -24], "withholdReward": false, "trial_id": "mdp_925905402462", "block": "test2", "trialIndex": 36, "score": 40, "costs": -1, "simulationMode": [null, null, null], "rewards": [-4, -8, 48], "path": ["0", "0", "1", "2", "3"], "rt": [2407, 46, 24], "actions": ["up", "up", "right"], "actionTimes": [3236, 3791, 4315], "queries": {"click": {"state": {"target": ["11", "12", "4", "3"], "time": [1325, 1728, 2210, 2717]}, "edge": {"target": [], "time": []}}, "mouseover": {"state": {"target": ["11", "10", "12", "10", "4", "2", "3", "3", "7"], "time": [1214, 1525, 1633, 1936, 2033, 2419, 2443, 2610, 2992]}, "edge": {"target": [], "time": []}}, "mouseout": {"state": {"target": ["0", "11", "10", "12", "10", "4", "2", "3", "3", "7", "4", "4"], "time": [774, 1494, 1588, 1930, 1951, 2403, 2435, 2475, 2931, 6655, 6693, 6923]}, "edge": {"target": [], "time": []}}}, "displayed_time": "8.83", "trialTime": 9512, "trial_type": "mouselab-mdp", "trial_index": 44, "time_elapsed": 647416, "internal_node_id": "0.0-4.0-3.0-4.0"}}, {"uniqueid": "w22040264:a81298059", "current_trial": 45, "dateTime": 1664555657714, "trialdata": {"revealed_states": [], "num_clicks_accrued": [0, 0, 0, 0, 0, 0, 0, 0, 0, 0, 0, 0, 0], "stateRewards": ["", 4, 4, 48, -48, -2, -8, -48, -24, 2, 4, -24, -48], "withholdReward": true, "trial_id": "mdp_239929662917", "block": "test2", "trialIndex": 37, "score": 60.5, "costs": -0.5, "simulationMode": [null, null, null], "rewards": [4, 4, 48], "path": ["0", "0", "1", "2", "3"], "rt": [1974, 400, 108], "actions": ["up", "up", "right"], "actionTimes": [2637, 3544, 4157], "queries": {"click": {"state": {"target": ["4", "3"], "time": [1642, 2174]}, "edge": {"target": [], "time": []}}, "mouseover": {"state": {"target": ["1", "4", "2", "3", "3", "7"], "time": [964, 1421, 1864, 1906, 2124, 2494]}, "edge": {"target": [], "time": []}}, "mouseout": {"state": {"target": ["0", "1", "4", "2", "3", "3", "7", "6"], "time": [496, 1068, 1827, 1890, 1937, 2406, 2834, 8950]}, "edge": {"target": [], "time": []}}}, "displayed_time": "9.66", "trialTime": 10001, "trial_type": "mouselab-mdp", "trial_index": 45, "time_elapsed": 657448, "internal_node_id": "0.0-4.0-3.0-5.0"}}, {"uniqueid": "w22040264:a81298059", "current_trial": 46, "dateTime": 1664555666802, "trialdata": {"revealed_states": [], "num_clicks_accrued": [0, 0, 0, 0, 0, 0, 0, 0, 0, 0, 0, 0, 0], "stateRewards": ["", -2, -4, -24, -48, 2, -8, -24, -24, 4, -8, 48, 48], "withholdReward": true, "trial_id": "mdp_950599994674", "block": "test2", "trialIndex": 38, "score": 47.75, "costs": -1.25, "simulationMode": [null, null, null], "rewards": [4, -8, 48], "path": ["0", "0", "9", "10", "11"], "rt": [3060, 86, 27], "actions": ["left", "left", "up"], "actionTimes": [3646, 4234, 4763], "queries": {"click": {"state": {"target": ["4", "3", "7", "8", "11"], "time": [1001, 1414, 1867, 2290, 2978]}, "edge": {"target": [], "time": []}}, "mouseover": {"state": {"target": ["4", "2", "3", "7", "6", "8", "0", "11", "11", "10", "12"], "time": [848, 1210, 1290, 1660, 2028, 2076, 2479, 2508, 2870, 3184, 3378]}, "edge": {"target": [], "time": []}}, "mouseout": {"state": {"target": ["5", "0", "4", "2", "3", "7", "6", "8", "0", "11", "11", "10", "12", "6"], "time": [174, 702, 1162, 1261, 1617, 2004, 2052, 2452, 2485, 2516, 3160, 3243, 3911, 4165]}, "edge": {"target": [], "time": []}}}, "displayed_time": "8.59", "trialTime": 9057, "trial_type": "mouselab-mdp", "trial_index": 46, "time_elapsed": 666536, "internal_node_id": "0.0-4.0-3.0-6.0"}}, {"uniqueid": "w22040264:a81298059", "current_trial": 47, "dateTime": 1664555674897, "trialdata": {"revealed_states": [], "num_clicks_accrued": [0, 0, 0, 0, 0, 0, 0, 0, 0, 0, 0, 0, 0], "stateRewards": ["", -4, 8, 24, -48, -4, -8, -24, 24, 2, -4, -48, 24], "withholdReward": true, "trial_id": "mdp_898449441629", "block": "test2", "trialIndex": 39, "score": 15.5, "costs": -1.5, "simulationMode": [null, null, null], "rewards": [-4, -8, 24], "path": ["0", "0", "5", "6", "8"], "rt": [3480, 388, 181], "actions": ["right", "right", "down"], "actionTimes": [4166, 5057, 5743], "queries": {"click": {"state": {"target": ["4", "3", "7", "8", "11", "12"], "time": [1217, 1653, 2130, 2564, 3143, 3497]}, "edge": {"target": [], "time": []}}, "mouseover": {"state": {"target": ["4", "2", "3", "7", "6", "8", "9", "11", "10", "12"], "time": [1135, 1429, 1538, 1993, 2296, 2333, 2820, 3052, 3319, 3419]}, "edge": {"target": [], "time": []}}, "mouseout": {"state": {"target": ["7", "4", "2", "3", "7", "6", "8", "9", "11", "10", "12"], "time": [179, 1376, 1478, 1900, 2280, 2312, 2730, 2861, 3285, 3358, 3730]}, "edge": {"target": [], "time": []}}}, "displayed_time": "7.69", "trialTime": 8063, "trial_type": "mouselab-mdp", "trial_index": 47, "time_elapsed": 674630, "internal_node_id": "0.0-4.0-3.0-7.0"}}, {"uniqueid": "w22040264:a81298059", "current_trial": 48, "dateTime": 1664555685007, "trialdata": {"revealed_states": [], "num_clicks_accrued": [0, 0, 0, 0, 0, 0, 0, 0, 0, 0, 0, 0, 0], "stateRewards": ["", 4, -8, 48, -24, 4, -4, -48, -48, 4, -4, 24, 24], "withholdReward": true, "trial_id": "mdp_221562928904", "block": "test2", "trialIndex": 40, "score": 48.5, "costs": -0.5, "simulationMode": [null, null, null], "rewards": [4, -8, 48], "path": ["0", "0", "1", "2", "3"], "rt": [1305, 98, 104], "actions": ["up", "up", "right"], "actionTimes": [2049, 2650, 3256], "queries": {"click": {"state": {"target": ["4", "3"], "time": [1174, 1643]}, "edge": {"target": [], "time": []}}, "mouseover": {"state": {"target": ["4", "4", "2", "3", "7"], "time": [931, 1109, 1399, 1495, 1923]}, "edge": {"target": [], "time": []}}, "mouseout": {"state": {"target": ["8", "0", "4", "4", "2", "3", "7", "5"], "time": [409, 852, 968, 1367, 1447, 1867, 9730, 9937]}, "edge": {"target": [], "time": []}}}, "displayed_time": "9.74", "trialTime": 10081, "trial_type": "mouselab-mdp", "trial_index": 48, "time_elapsed": 684741, "internal_node_id": "0.0-4.0-3.0-8.0"}}, {"uniqueid": "w22040264:a81298059", "current_trial": 49, "dateTime": 1664555693908, "trialdata": {"revealed_states": [], "num_clicks_accrued": [0, 0, 0, 0, 0, 0, 0, 0, 0, 0, 0, 0, 0], "stateRewards": ["", -2, -8, 24, -48, 4, 4, -24, -48, -2, -8, -48, 24], "withholdReward": true, "trial_id": "mdp_556006673466", "block": "test2", "trialIndex": 41, "score": 17.5, "costs": -1.5, "simulationMode": [null, null, null], "rewards": [-2, -8, 24], "path": ["0", "0", "9", "10", "12"], "rt": [3664, 17, 633], "actions": ["left", "left", "down"], "actionTimes": [4210, 4733, 5877], "queries": {"click": {"state": {"target": ["3", "4", "11", "12", "8", "7"], "time": [1079, 1634, 2108, 2794, 3414, 3818]}, "edge": {"target": [], "time": []}}, "mouseover": {"state": {"target": ["1", "3", "2", "4", "11", "10", "12", "8", "8", "6", "7", "6"], "time": [795, 981, 1404, 1561, 2035, 2320, 2690, 3277, 3333, 3663, 3751, 4131]}, "edge": {"target": [], "time": []}}, "mouseout": {"state": {"target": ["6", "7", "5", "1", "3", "2", "4", "11", "10", "12", "8", "8", "6", "7"], "time": [135, 292, 347, 845, 1351, 1464, 1835, 2285, 2368, 2977, 3293, 3631, 3711, 4065]}, "edge": {"target": [], "time": []}}}, "displayed_time": "8.55", "trialTime": 8872, "trial_type": "mouselab-mdp", "trial_index": 49, "time_elapsed": 693642, "internal_node_id": "0.0-4.0-3.0-9.0"}}, {"uniqueid": "w22040264:a81298059", "current_trial": 50, "dateTime": 1664555703681, "trialdata": {"revealed_states": [], "num_clicks_accrued": [0, 0, 0, 0, 0, 0, 0, 0, 0, 0, 0, 0, 0], "stateRewards": ["", -2, -4, -24, -48, -2, 8, -48, 24, 4, -4, -24, -24], "withholdReward": false, "trial_id": "mdp_915304165774", "block": "test2", "trialIndex": 42, "score": 33.5, "costs": -1.5, "simulationMode": [null, null, null], "rewards": [-2, 8, 24], "path": ["0", "0", "5", "6", "8"], "rt": [2972, 27, 49], "actions": ["right", "right", "down"], "actionTimes": [3415, 3948, 4498], "queries": {"click": {"state": {"target": ["4", "3", "8", "7", "12", "11"], "time": [902, 1265, 1766, 2150, 2730, 3036]}, "edge": {"target": [], "time": []}}, "mouseover": {"state": {"target": ["1", "4", "2", "3", "6", "8", "6", "7", "9", "10", "12", "10", "11", "9"], "time": [619, 795, 1061, 1154, 1553, 1641, 1923, 2013, 2415, 2431, 2665, 2915, 3003, 3309]}, "edge": {"target": [], "time": []}}, "mouseout": {"state": {"target": ["6", "5", "1", "4", "2", "3", "6", "8", "6", "7", "9", "10", "12", "10", "11", "9", "8"], "time": [61, 111, 643, 1037, 1111, 1473, 1593, 1901, 1967, 2349, 2423, 2463, 2889, 2955, 3261, 3333, 3653]}, "edge": {"target": [], "time": []}}}, "displayed_time": "9.44", "trialTime": 9745, "trial_type": "mouselab-mdp", "trial_index": 50, "time_elapsed": 703415, "internal_node_id": "0.0-4.0-3.0-10.0"}}, {"uniqueid": "w22040264:a81298059", "current_trial": 51, "dateTime": 1664555712739, "trialdata": {"revealed_states": [], "num_clicks_accrued": [0, 0, 0, 0, 0, 0, 0, 0, 0, 0, 0, 0, 0], "stateRewards": ["", -2, 8, 24, -48, -4, -8, -24, -48, -4, 8, -24, 48], "withholdReward": true, "trial_id": "mdp_464339499860", "block": "test2", "trialIndex": 43, "score": 55.5, "costs": -1.5, "simulationMode": [null, null, null], "rewards": [-4, 8, 48], "path": ["0", "0", "9", "10", "12"], "rt": [3156, 28, 110], "actions": ["left", "left", "down"], "actionTimes": [3677, 4208, 4817], "queries": {"click": {"state": {"target": ["8", "7", "3", "4", "11", "12"], "time": [1021, 1499, 2013, 2403, 2926, 3201]}, "edge": {"target": [], "time": []}}, "mouseover": {"state": {"target": ["5", "8", "6", "7", "2", "3", "2", "4", "11", "10", "12"], "time": [721, 923, 1205, 1285, 1737, 1937, 2201, 2261, 2861, 3075, 3159]}, "edge": {"target": [], "time": []}}, "mouseout": {"state": {"target": ["0", "5", "8", "6", "7", "2", "3", "2", "4", "11", "10", "12", "8"], "time": [487, 737, 1173, 1237, 1679, 1867, 2171, 2237, 2603, 3032, 3123, 3469, 8405]}, "edge": {"target": [], "time": []}}}, "displayed_time": "8.52", "trialTime": 9026, "trial_type": "mouselab-mdp", "trial_index": 51, "time_elapsed": 712472, "internal_node_id": "0.0-4.0-3.0-11.0"}}, {"uniqueid": "w22040264:a81298059", "current_trial": 52, "dateTime": 1664555721794, "trialdata": {"revealed_states": [], "num_clicks_accrued": [0, 0, 0, 0, 0, 0, 0, 0, 0, 0, 0, 0, 0], "stateRewards": ["", -2, -4, 48, -24, 2, -4, -24, -48, 2, 8, -48, -24], "withholdReward": true, "trial_id": "mdp_238243948191", "block": "test2", "trialIndex": 44, "score": 46, "costs": -1, "simulationMode": [null, null, null], "rewards": [-2, -4, 48], "path": ["0", "0", "1", "2", "3"], "rt": [2274, 5, 75], "actions": ["up", "up", "right"], "actionTimes": [2853, 3359, 3942], "queries": {"click": {"state": {"target": ["12", "11", "4", "3"], "time": [1021, 1435, 1805, 2248]}, "edge": {"target": [], "time": []}}, "mouseover": {"state": {"target": ["9", "10", "12", "12", "10", "11", "4", "2", "3", "7"], "time": [705, 753, 811, 939, 1237, 1293, 1737, 2037, 2091, 2495]}, "edge": {"target": [], "time": []}}, "mouseout": {"state": {"target": ["9", "0", "9", "10", "12", "12", "10", "11", "4", "2", "3", "7", "8", "8"], "time": [405, 689, 733, 781, 827, 1213, 1263, 1610, 2025, 2073, 2429, 3111, 8043, 8197]}, "edge": {"target": [], "time": []}}}, "displayed_time": "8.58", "trialTime": 9024, "trial_type": "mouselab-mdp", "trial_index": 52, "time_elapsed": 721528, "internal_node_id": "0.0-4.0-3.0-12.0"}}, {"uniqueid": "w22040264:a81298059", "current_trial": 53, "dateTime": 1664555731635, "trialdata": {"revealed_states": [], "num_clicks_accrued": [0, 0, 0, 0, 0, 0, 0, 0, 0, 0, 0, 0, 0], "stateRewards": ["", -2, 4, 24, 48, 2, 4, -48, -48, -2, 8, 48, -24], "withholdReward": false, "trial_id": "mdp_305701202606", "block": "test2", "trialIndex": 45, "score": 54.5, "costs": -0.5, "simulationMode": [null, null, null], "rewards": [-2, 4, 48], "path": ["0", "0", "1", "2", "4"], "rt": [1731, 52, 46], "actions": ["up", "up", "left"], "actionTimes": [2168, 2721, 3269], "queries": {"click": {"state": {"target": ["3", "4"], "time": [944, 1509]}, "edge": {"target": [], "time": []}}, "mouseover": {"state": {"target": ["1", "3", "3", "2", "4", "4", "11"], "time": [580, 676, 830, 1126, 1176, 1434, 1746]}, "edge": {"target": [], "time": []}}, "mouseout": {"state": {"target": ["0", "1", "3", "3", "2", "4", "4", "11", "1"], "time": [314, 596, 700, 1103, 1166, 1208, 1682, 1928, 2493]}, "edge": {"target": [], "time": []}}}, "displayed_time": "9.44", "trialTime": 9814, "trial_type": "mouselab-mdp", "trial_index": 53, "time_elapsed": 731369, "internal_node_id": "0.0-4.0-3.0-13.0"}}, {"uniqueid": "w22040264:a81298059", "current_trial": 54, "dateTime": 1664555742568, "trialdata": {"revealed_states": [], "num_clicks_accrued": [0, 0, 0, 0, 0, 0, 0, 0, 0, 0, 0, 0, 0], "stateRewards": ["", 2, -4, -48, 24, 4, 4, 48, -48, -2, -4, -24, -48], "withholdReward": false, "trial_id": "mdp_858916930936", "block": "test2", "trialIndex": 46, "score": 60, "costs": -1, "simulationMode": [null, null, null], "rewards": [4, 4, 48], "path": ["0", "0", "5", "6", "7"], "rt": [2165, 114, 1620], "actions": ["right", "right", "up"], "actionTimes": [2731, 3351, 5476], "queries": {"click": {"state": {"target": ["4", "3", "7", "8"], "time": [999, 1516, 2016, 2508]}, "edge": {"target": [], "time": []}}, "mouseover": {"state": {"target": ["4", "2", "3", "6", "7", "6", "8"], "time": [821, 1175, 1223, 1829, 1957, 2207, 2359]}, "edge": {"target": [], "time": []}}, "mouseout": {"state": {"target": ["0", "4", "2", "3", "6", "7", "6", "8"], "time": [675, 1161, 1191, 1700, 1910, 2187, 2263, 2729]}, "edge": {"target": [], "time": []}}}, "displayed_time": "9.57", "trialTime": 10904, "trial_type": "mouselab-mdp", "trial_index": 54, "time_elapsed": 742302, "internal_node_id": "0.0-4.0-3.0-14.0"}}, {"uniqueid": "w22040264:a81298059", "current_trial": 55, "dateTime": 1664555765688, "trialdata": {"revealed_states": [], "num_clicks_accrued": [0, 0, 0, 0, 0, 0, 0, 0, 0, 0, 0, 0, 0], "stateRewards": ["", -4, -4, 24, -48, -2, 8, -24, -48, -4, 4, 24, -48], "withholdReward": false, "trial_id": "mdp_934626330092", "block": "test2", "trialIndex": 47, "score": 19.5, "costs": -1.5, "simulationMode": [null, null, null], "rewards": [-4, -4, 24], "path": ["0", "0", "1", "2", "3"], "rt": [3514, 8, 8474], "actions": ["up", "up", "right"], "actionTimes": [10682, 11198, 20173], "queries": {"click": {"state": {"target": ["7", "8", "4", "3", "11", "12"], "time": [7779, 8125, 8617, 9013, 9826, 10132]}, "edge": {"target": [], "time": []}}, "mouseover": {"state": {"target": ["5", "7", "6", "8", "5", "1", "4", "2", "3", "3", "1", "1", "1", "11", "10", "12", "0", "5"], "time": [7454, 7704, 7951, 8010, 8342, 8392, 8486, 8760, 8793, 8906, 9212, 9396, 9518, 9709, 9952, 10010, 10546, 10558]}, "edge": {"target": [], "time": []}}, "mouseout": {"state": {"target": ["8", "5", "0", "5", "7", "6", "8", "5", "1", "4", "2", "3", "3", "1", "1", "1", "11", "10", "12", "0", "5", "7", "3"], "time": [6850, 7052, 7334, 7528, 7906, 7986, 8314, 8358, 8414, 8738, 8785, 8819, 9180, 9220, 9418, 9542, 9936, 9988, 10469, 10552, 10574, 19372, 19628]}, "edge": {"target": [], "time": []}}}, "displayed_time": "20.67", "trialTime": 23091, "trial_type": "mouselab-mdp", "trial_index": 55, "time_elapsed": 765422, "internal_node_id": "0.0-4.0-3.0-15.0"}}, {"uniqueid": "w22040264:a81298059", "current_trial": 56, "dateTime": 1664555778616, "trialdata": {"revealed_states": [], "num_clicks_accrued": [0, 0, 0, 0, 0, 0, 0, 0, 0, 0, 0, 0, 0], "stateRewards": ["", -2, -4, -24, -24, 4, 8, 24, 24, -2, 8, 48, 48], "withholdReward": false, "trial_id": "mdp_620787912291", "block": "test2", "trialIndex": 48, "score": 58.25, "costs": -0.75, "simulationMode": [null, null, null], "rewards": [-2, 8, 48], "path": ["0", "0", "9", "10", "11"], "rt": [2310, 58, 90], "actions": ["left", "left", "up"], "actionTimes": [4507, 5067, 5657], "queries": {"click": {"state": {"target": ["3", "4", "11"], "time": [2757, 3377, 3827]}, "edge": {"target": [], "time": []}}, "mouseover": {"state": {"target": ["3", "2", "4", "11", "10", "12", "12"], "time": [2673, 2939, 3231, 3633, 3971, 4035, 4494]}, "edge": {"target": [], "time": []}}, "mouseout": {"state": {"target": ["0", "3", "2", "4", "11", "10", "12", "12"], "time": [2395, 2899, 3007, 3519, 3959, 4011, 4076, 11963]}, "edge": {"target": [], "time": []}}}, "displayed_time": "10.20", "trialTime": 12894, "trial_type": "mouselab-mdp", "trial_index": 56, "time_elapsed": 778350, "internal_node_id": "0.0-4.0-3.0-16.0"}}, {"uniqueid": "w22040264:a81298059", "current_trial": 57, "dateTime": 1664555799864, "trialdata": {"revealed_states": [], "num_clicks_accrued": [0, 0, 0, 0, 0, 0, 0, 0, 0, 0, 0, 0, 0], "stateRewards": ["", 4, 4, -24, -48, -4, 4, -48, 24, 4, -8, -48, 48], "withholdReward": true, "trial_id": "mdp_566768794366", "block": "test2", "trialIndex": 49, "score": 47.5, "costs": -1.5, "simulationMode": [null, null, null], "rewards": [4, -8, 48], "path": ["0", "0", "9", "10", "12"], "rt": [3306, 448, 113], "actions": ["left", "left", "down"], "actionTimes": [5330, 6276, 6894], "queries": {"click": {"state": {"target": ["4", "3", "7", "8", "11", "12"], "time": [2782, 3121, 3481, 3912, 4372, 4719]}, "edge": {"target": [], "time": []}}, "mouseover": {"state": {"target": ["5", "1", "4", "2", "3", "7", "6", "8", "0", "9", "11", "10", "12"], "time": [2273, 2481, 2721, 2931, 3038, 3371, 3681, 3735, 4105, 4119, 4273, 4540, 4595]}, "edge": {"target": [], "time": []}}, "mouseout": {"state": {"target": ["0", "0", "5", "1", "4", "2", "3", "7", "6", "8", "0", "9", "11", "10", "12"], "time": [1353, 2243, 2307, 2569, 2907, 2979, 3319, 3666, 3705, 4055, 4111, 4138, 4524, 4572, 5591]}, "edge": {"target": [], "time": []}}}, "displayed_time": "10.02", "trialTime": 21213, "trial_type": "mouselab-mdp", "trial_index": 57, "time_elapsed": 799598, "internal_node_id": "0.0-4.0-3.0-17.0"}}, {"uniqueid": "w22040264:a81298059", "current_trial": 58, "dateTime": 1664555809333, "trialdata": {"revealed_states": [], "num_clicks_accrued": [0, 0, 0, 0, 0, 0, 0, 0, 0, 0, 0, 0, 0], "stateRewards": ["", -4, 8, -24, -24, 2, 4, 48, 48, -2, 4, 24, -48], "withholdReward": true, "trial_id": "mdp_397308196941", "block": "test2", "trialIndex": 50, "score": 58, "costs": -1, "simulationMode": [null, null, null], "rewards": [2, 4, 48], "path": ["0", "0", "5", "6", "7"], "rt": [2170, 11, 92], "actions": ["right", "right", "up"], "actionTimes": [3029, 3541, 4132], "queries": {"click": {"state": {"target": ["4", "3", "7", "8"], "time": [1526, 1943, 2340, 2820]}, "edge": {"target": [], "time": []}}, "mouseover": {"state": {"target": ["4", "2", "3", "7", "6", "8"], "time": [1424, 1699, 1884, 2337, 2609, 2771]}, "edge": {"target": [], "time": []}}, "mouseout": {"state": {"target": ["0", "4", "2", "3", "7", "6", "8"], "time": [804, 1674, 1804, 2118, 2577, 2642, 3141]}, "edge": {"target": [], "time": []}}}, "displayed_time": "8.86", "trialTime": 9432, "trial_type": "mouselab-mdp", "trial_index": 58, "time_elapsed": 809067, "internal_node_id": "0.0-4.0-3.0-18.0"}}, {"uniqueid": "w22040264:a81298059", "current_trial": 59, "dateTime": 1664555820807, "trialdata": {"revealed_states": [], "num_clicks_accrued": [0, 0, 0, 0, 0, 0, 0, 0, 0, 0, 0, 0, 0], "stateRewards": ["", -4, 4, -24, 48, 2, 4, -48, 24, 4, -8, -24, 24], "withholdReward": false, "trial_id": "mdp_740130150937", "block": "test2", "trialIndex": 51, "score": 52.25, "costs": -0.75, "simulationMode": [null, null, null], "rewards": [-4, 4, 48], "path": ["0", "0", "1", "2", "4"], "rt": [2706, 133, 61], "actions": ["up", "up", "left"], "actionTimes": [3246, 3881, 4446], "queries": {"click": {"state": {"target": ["7", "8", "4"], "time": [1307, 2037, 2579]}, "edge": {"target": [], "time": []}}, "mouseover": {"state": {"target": ["7", "6", "8", "5", "2", "4", "2", "3", "1"], "time": [1146, 1522, 1838, 2205, 2254, 2487, 2801, 2856, 3188]}, "edge": {"target": [], "time": []}}, "mouseout": {"state": {"target": ["0", "7", "6", "8", "5", "2", "4", "2", "3", "1"], "time": [772, 1491, 1564, 2182, 2222, 2270, 2762, 2825, 3140, 3205]}, "edge": {"target": [], "time": []}}}, "displayed_time": "9.54", "trialTime": 11441, "trial_type": "mouselab-mdp", "trial_index": 59, "time_elapsed": 820541, "internal_node_id": "0.0-4.0-3.0-19.0"}}, {"uniqueid": "w22040264:a81298059", "current_trial": 60, "dateTime": 1664555837991, "trialdata": {"revealed_states": [], "num_clicks_accrued": [0, 0, 0, 0, 0, 0, 0, 0, 0, 0, 0, 0, 0], "stateRewards": ["", -4, -8, 24, -48, 2, 4, -48, -48, 2, -8, 24, 48], "withholdReward": true, "trial_id": "mdp_111262146724", "block": "test2", "trialIndex": 52, "score": 45.5, "costs": -1.5, "simulationMode": [null, null, null], "rewards": [2, -8, 48], "path": ["0", "0", "9", "10", "12"], "rt": [5393, 71, 58], "actions": ["left", "left", "down"], "actionTimes": [10141, 10714, 11276], "queries": {"click": {"state": {"target": ["4", "3", "7", "8", "11", "12"], "time": [7630, 8024, 8461, 8878, 9417, 9795]}, "edge": {"target": [], "time": []}}, "mouseover": {"state": {"target": ["0", "8", "5", "1", "4", "2", "3", "7", "6", "8", "0", "9", "11", "10", "12"], "time": [5960, 6128, 7128, 7360, 7514, 7812, 7875, 8264, 8622, 8658, 9078, 9102, 9296, 9578, 9610]}, "edge": {"target": [], "time": []}}, "mouseout": {"state": {"target": ["1", "0", "8", "5", "1", "4", "2", "3", "7", "6", "8", "0", "9", "11", "10", "12"], "time": [4598, 6001, 6412, 7202, 7378, 7796, 7846, 8192, 8586, 8641, 9038, 9094, 9110, 9562, 9594, 10044]}, "edge": {"target": [], "time": []}}}, "displayed_time": "13.75", "trialTime": 17155, "trial_type": "mouselab-mdp", "trial_index": 60, "time_elapsed": 837725, "internal_node_id": "0.0-4.0-3.0-20.0"}}, {"uniqueid": "w22040264:a81298059", "current_trial": 61, "dateTime": 1664555853378, "trialdata": {"revealed_states": [], "num_clicks_accrued": [0, 0, 0, 0, 0, 0, 0, 0, 0, 0, 0, 0, 0], "stateRewards": ["", -4, 8, 24, -24, 4, 8, -24, -48, 2, 4, 24, -24], "withholdReward": true, "trial_id": "mdp_782187007008", "block": "test2", "trialIndex": 53, "score": 31.5, "costs": -1.5, "simulationMode": [null, null, null], "rewards": [-4, 8, 24], "path": ["0", "0", "1", "2", "3"], "rt": [3542, 78, 5658], "actions": ["up", "up", "right"], "actionTimes": [4265, 4852, 11014], "queries": {"click": {"state": {"target": ["3", "4", "11", "12", "8", "7"], "time": [1591, 2010, 2654, 2968, 3428, 3791]}, "edge": {"target": [], "time": []}}, "mouseover": {"state": {"target": ["3", "2", "4", "11", "11", "10", "12", "8", "6", "7"], "time": [1429, 1822, 1911, 2291, 2573, 2821, 2887, 3258, 3643, 3733]}, "edge": {"target": [], "time": []}}, "mouseout": {"state": {"target": ["0", "3", "2", "4", "11", "11", "10", "12", "8", "6", "7", "7", "6"], "time": [961, 1799, 1871, 2209, 2315, 2781, 2852, 3169, 3619, 3690, 4440, 11216, 11265]}, "edge": {"target": [], "time": []}}}, "displayed_time": "11.51", "trialTime": 15352, "trial_type": "mouselab-mdp", "trial_index": 61, "time_elapsed": 853111, "internal_node_id": "0.0-4.0-3.0-21.0"}}, {"uniqueid": "w22040264:a81298059", "current_trial": 62, "dateTime": 1664555866283, "trialdata": {"revealed_states": [], "num_clicks_accrued": [0, 0, 0, 0, 0, 0, 0, 0, 0, 0, 0, 0, 0], "stateRewards": ["", -2, -8, 48, 24, 4, -8, 24, 48, 4, -4, 24, -48], "withholdReward": true, "trial_id": "mdp_871576155740", "block": "test2", "trialIndex": 54, "score": 42.5, "costs": -0.5, "simulationMode": [null, null, null], "rewards": [-2, -8, 48], "path": ["0", "0", "1", "2", "3"], "rt": [1306, 65, 131], "actions": ["up", "up", "right"], "actionTimes": [2640, 3211, 3842], "queries": {"click": {"state": {"target": ["3", "4"], "time": [1880, 2283]}, "edge": {"target": [], "time": []}}, "mouseover": {"state": {"target": ["3", "2", "4"], "time": [1830, 2032, 2072]}, "edge": {"target": [], "time": []}}, "mouseout": {"state": {"target": ["5", "0", "3", "2", "4", "5"], "time": [840, 1565, 2000, 2060, 2500, 2727]}, "edge": {"target": [], "time": []}}}, "displayed_time": "10.34", "trialTime": 12871, "trial_type": "mouselab-mdp", "trial_index": 62, "time_elapsed": 866017, "internal_node_id": "0.0-4.0-3.0-22.0"}}, {"uniqueid": "w22040264:a81298059", "current_trial": 63, "dateTime": 1664555877749, "trialdata": {"revealed_states": [], "num_clicks_accrued": [0, 0, 0, 0, 0, 0, 0, 0, 0, 0, 0, 0, 0], "stateRewards": ["", 4, -8, 24, 48, -2, -4, -48, 24, 2, 4, -48, -24], "withholdReward": true, "trial_id": "mdp_749974461966", "block": "test2", "trialIndex": 55, "score": 48.5, "costs": -0.5, "simulationMode": [null, null, null], "rewards": [4, -8, 48], "path": ["0", "0", "1", "2", "4"], "rt": [1645, 121, 2873], "actions": ["up", "up", "left"], "actionTimes": [2257, 2882, 6259], "queries": {"click": {"state": {"target": ["3", "4"], "time": [1358, 1857]}, "edge": {"target": [], "time": []}}, "mouseover": {"state": {"target": ["1", "3", "2", "4"], "time": [1115, 1305, 1557, 1767]}, "edge": {"target": [], "time": []}}, "mouseout": {"state": {"target": ["0", "1", "3", "2", "4", "1", "5", "6", "5"], "time": [504, 1131, 1525, 1727, 2057, 2427, 2542, 7172, 7251]}, "edge": {"target": [], "time": []}}}, "displayed_time": "9.61", "trialTime": 11431, "trial_type": "mouselab-mdp", "trial_index": 63, "time_elapsed": 877483, "internal_node_id": "0.0-4.0-3.0-23.0"}}, {"uniqueid": "w22040264:a81298059", "current_trial": 64, "dateTime": 1664555887287, "trialdata": {"revealed_states": [], "num_clicks_accrued": [0, 0, 0, 0, 0, 0, 0, 0, 0, 0, 0, 0, 0], "stateRewards": ["", 2, 4, 48, 48, -2, 4, 48, -24, -4, 8, -48, 48], "withholdReward": false, "trial_id": "mdp_407586865939", "block": "test2", "trialIndex": 56, "score": 58.5, "costs": -0.5, "simulationMode": [null, null, null], "rewards": [2, 4, 48], "path": ["0", "0", "1", "2", "4"], "rt": [1008, 84, 196], "actions": ["up", "up", "left"], "actionTimes": [1968, 2557, 3258], "queries": {"click": {"state": {"target": ["4", "3"], "time": [1347, 1766]}, "edge": {"target": [], "time": []}}, "mouseover": {"state": {"target": ["1", "4", "2", "3"], "time": [1138, 1202, 1528, 1586]}, "edge": {"target": [], "time": []}}, "mouseout": {"state": {"target": ["0", "1", "4", "2", "3", "5"], "time": [908, 1146, 1504, 1563, 2024, 2170]}, "edge": {"target": [], "time": []}}}, "displayed_time": "8.96", "trialTime": 9500, "trial_type": "mouselab-mdp", "trial_index": 64, "time_elapsed": 887021, "internal_node_id": "0.0-4.0-3.0-24.0"}}, {"uniqueid": "w22040264:a81298059", "current_trial": 65, "dateTime": 1664555897192, "trialdata": {"revealed_states": [], "num_clicks_accrued": [0, 0, 0, 0, 0, 0, 0, 0, 0, 0, 0, 0, 0], "stateRewards": ["", 4, 4, 48, -24, 2, -4, 48, 24, -4, -4, -48, 24], "withholdReward": true, "trial_id": "mdp_496003763005", "block": "test2", "trialIndex": 57, "score": 60.5, "costs": -0.5, "simulationMode": [null, null, null], "rewards": [4, 4, 48], "path": ["0", "0", "1", "2", "3"], "rt": [1143, 126, 513], "actions": ["up", "up", "right"], "actionTimes": [1668, 2293, 3318], "queries": {"click": {"state": {"target": ["4", "3"], "time": [950, 1252]}, "edge": {"target": [], "time": []}}, "mouseover": {"state": {"target": ["1", "4", "2", "3", "7"], "time": [723, 786, 1092, 1147, 1572]}, "edge": {"target": [], "time": []}}, "mouseout": {"state": {"target": ["0", "1", "4", "2", "3", "7", "6"], "time": [658, 730, 1076, 1111, 1484, 1881, 9846]}, "edge": {"target": [], "time": []}}}, "displayed_time": "9.53", "trialTime": 9871, "trial_type": "mouselab-mdp", "trial_index": 65, "time_elapsed": 896926, "internal_node_id": "0.0-4.0-3.0-25.0"}}, {"uniqueid": "w22040264:a81298059", "current_trial": 66, "dateTime": 1664555907313, "trialdata": {"revealed_states": [], "num_clicks_accrued": [0, 0, 0, 0, 0, 0, 0, 0, 0, 0, 0, 0, 0], "stateRewards": ["", 2, -8, -48, 24, 4, 8, 48, -48, 2, -4, 24, 24], "withholdReward": true, "trial_id": "mdp_130475327289", "block": "test2", "trialIndex": 58, "score": 22, "costs": -1, "simulationMode": [null, null, null], "rewards": [2, -8, 24], "path": ["0", "0", "1", "2", "4"], "rt": [2669, 374, 27], "actions": ["up", "up", "left"], "actionTimes": [3133, 4015, 4546], "queries": {"click": {"state": {"target": ["4", "3", "8", "7"], "time": [1073, 1471, 2038, 2586]}, "edge": {"target": [], "time": []}}, "mouseover": {"state": {"target": ["1", "4", "4", "2", "3", "6", "8", "6", "7", "1", "6"], "time": [678, 742, 1013, 1250, 1306, 1778, 1962, 2188, 2518, 2808, 3124]}, "edge": {"target": [], "time": []}}, "mouseout": {"state": {"target": ["8", "0", "1", "4", "4", "2", "3", "6", "8", "6", "7", "1", "6", "6", "5", "0", "6"], "time": [146, 600, 694, 798, 1226, 1292, 1688, 1802, 2164, 2238, 2752, 2824, 3130, 3908, 3972, 4252, 5187]}, "edge": {"target": [], "time": []}}}, "displayed_time": "9.46", "trialTime": 10090, "trial_type": "mouselab-mdp", "trial_index": 66, "time_elapsed": 907047, "internal_node_id": "0.0-4.0-3.0-26.0"}}, {"uniqueid": "w22040264:a81298059", "current_trial": 67, "dateTime": 1664555916396, "trialdata": {"revealed_states": [], "num_clicks_accrued": [0, 0, 0, 0, 0, 0, 0, 0, 0, 0, 0, 0, 0], "stateRewards": ["", -2, 8, 48, -24, 2, 4, -48, -24, -4, 8, -48, -48], "withholdReward": true, "trial_id": "mdp_539167561933", "block": "test2", "trialIndex": 59, "score": 58.5, "costs": -0.5, "simulationMode": [null, null, null], "rewards": [-2, 8, 48], "path": ["0", "0", "1", "2", "3"], "rt": [1276, 18, 172], "actions": ["up", "up", "right"], "actionTimes": [1781, 2310, 2992], "queries": {"click": {"state": {"target": ["4", "3"], "time": [916, 1301]}, "edge": {"target": [], "time": []}}, "mouseover": {"state": {"target": ["1", "4", "2", "3", "7"], "time": [671, 855, 1097, 1187, 1501]}, "edge": {"target": [], "time": []}}, "mouseout": {"state": {"target": ["0", "1", "4", "2", "3", "7"], "time": [629, 679, 1073, 1155, 1469, 2037]}, "edge": {"target": [], "time": []}}}, "displayed_time": "8.51", "trialTime": 9052, "trial_type": "mouselab-mdp", "trial_index": 67, "time_elapsed": 916130, "internal_node_id": "0.0-4.0-3.0-27.0"}}, {"uniqueid": "w22040264:a81298059", "current_trial": 68, "dateTime": 1664555927769, "trialdata": {"revealed_states": [], "num_clicks_accrued": [0, 0, 0, 0, 0, 0, 0, 0, 0, 0, 0, 0, 0], "stateRewards": ["", -4, 4, 24, 24, -2, 8, 24, -48, 4, -8, -24, -48], "withholdReward": true, "trial_id": "mdp_651542905861", "block": "test2", "trialIndex": 60, "score": 27.5, "costs": -1.5, "simulationMode": [null, null, null], "rewards": [-4, 4, 24], "path": ["0", "0", "1", "2", "3"], "rt": [3666, 12, 176], "actions": ["up", "up", "right"], "actionTimes": [4636, 5148, 5827], "queries": {"click": {"state": {"target": ["3", "4", "11", "12", "8", "7"], "time": [1684, 2046, 2457, 3061, 3633, 4166]}, "edge": {"target": [], "time": []}}, "mouseover": {"state": {"target": ["1", "3", "2", "4", "11", "10", "12", "8", "8", "6", "7"], "time": [1212, 1610, 1844, 1988, 2368, 2630, 2814, 3294, 3577, 3794, 4085]}, "edge": {"target": [], "time": []}}, "mouseout": {"state": {"target": ["7", "1", "0", "1", "3", "2", "4", "11", "10", "12", "8", "8", "6", "7"], "time": [530, 554, 1147, 1228, 1812, 1902, 2278, 2600, 2666, 3182, 3310, 3778, 3826, 4402]}, "edge": {"target": [], "time": []}}}, "displayed_time": "9.97", "trialTime": 11342, "trial_type": "mouselab-mdp", "trial_index": 68, "time_elapsed": 927503, "internal_node_id": "0.0-4.0-3.0-28.0"}}, {"uniqueid": "w22040264:a81298059", "current_trial": 69, "dateTime": 1664555937189, "trialdata": {"revealed_states": [], "num_clicks_accrued": [0, 0, 0, 0, 0, 0, 0, 0, 0, 0, 0, 0, 0], "stateRewards": ["", 2, 8, -48, 24, -2, 4, 48, 48, -2, -8, 48, 24], "withholdReward": true, "trial_id": "mdp_157355418411", "block": "test2", "trialIndex": 61, "score": 42.25, "costs": -0.75, "simulationMode": [null, null, null], "rewards": [-2, -8, 48], "path": ["0", "0", "9", "10", "11"], "rt": [2305, 8, 68], "actions": ["left", "left", "up"], "actionTimes": [3229, 3738, 4315], "queries": {"click": {"state": {"target": ["3", "4", "11"], "time": [1501, 1929, 2386]}, "edge": {"target": [], "time": []}}, "mouseover": {"state": {"target": ["3", "2", "4", "11", "10", "12"], "time": [1297, 1709, 1821, 2321, 2590, 2644]}, "edge": {"target": [], "time": []}}, "mouseout": {"state": {"target": ["7", "6", "8", "0", "3", "2", "4", "11", "10", "12", "5"], "time": [355, 371, 387, 1151, 1650, 1781, 2127, 2561, 2612, 3682, 4167]}, "edge": {"target": [], "time": []}}}, "displayed_time": "8.93", "trialTime": 9389, "trial_type": "mouselab-mdp", "trial_index": 69, "time_elapsed": 936923, "internal_node_id": "0.0-4.0-3.0-29.0"}}, {"uniqueid": "w22040264:a81298059", "current_trial": 70, "dateTime": 1664555942574, "trialdata": {"rt": 5382, "stimulus": "<h1> End of block! </h1>\n\nYou have reached the end of the block 2/4. If you need a short break, feel free to take one now before moving on.\n\n<br><br>\nIn the next block, you will complete another 30 rounds of this game.\n\n<br><br>\n<div style='text-align: center;'>Press <code>space</code> to begin.</div>\n<br><br>\n<div style='text-align: center;'>(If the experiment doesn't continue, try clicking on the text and then pressing <code>space</code>.)</div>", "response": " ", "trial_id": "mdp_ready_3", "trial_type": "html-keyboard-response", "trial_index": 70, "time_elapsed": 942308, "internal_node_id": "0.0-4.0-4.0"}}, {"uniqueid": "w22040264:a81298059", "current_trial": 71, "dateTime": 1664555952620, "trialdata": {"revealed_states": [], "num_clicks_accrued": [0, 0, 0, 0, 0, 0, 0, 0, 0, 0, 0, 0, 0], "stateRewards": ["", -4, -4, -24, -24, -2, 4, 48, -24, -2, -4, -24, 48], "withholdReward": true, "trial_id": "mdp_855903341564", "block": "test3", "trialIndex": 62, "score": 54, "costs": -1, "simulationMode": [null, null, null], "rewards": [-2, 4, 48], "path": ["0", "0", "5", "6", "7"], "rt": [1886, 118, 272], "actions": ["right", "right", "up"], "actionTimes": [2637, 3257, 4030], "queries": {"click": {"state": {"target": ["4", "3", "7", "8"], "time": [1254, 1576, 2016, 2396]}, "edge": {"target": [], "time": []}}, "mouseover": {"state": {"target": ["1", "2", "4", "2", "3", "7", "7", "6", "8"], "time": [968, 1048, 1128, 1418, 1474, 1798, 1950, 2192, 2248]}, "edge": {"target": [], "time": []}}, "mouseout": {"state": {"target": ["2", "1", "2", "4", "2", "3", "7", "7", "6", "8", "6", "6", "8"], "time": [178, 1000, 1075, 1394, 1442, 1773, 1838, 2176, 2224, 2841, 3908, 4200, 4722]}, "edge": {"target": [], "time": []}}}, "displayed_time": "9.75", "trialTime": 10013, "trial_type": "mouselab-mdp", "trial_index": 71, "time_elapsed": 952354, "internal_node_id": "0.0-4.0-5.0-0.0"}}, {"uniqueid": "w22040264:a81298059", "current_trial": 72, "dateTime": 1664555962697, "trialdata": {"revealed_states": [], "num_clicks_accrued": [0, 0, 0, 0, 0, 0, 0, 0, 0, 0, 0, 0, 0], "stateRewards": ["", 2, 8, -48, 24, -2, 4, 48, 48, -2, -8, 48, 24], "withholdReward": false, "trial_id": "mdp_157355418411", "block": "test3", "trialIndex": 63, "score": 42, "costs": -1, "simulationMode": [null, null, null], "rewards": [-2, -8, 48], "path": ["0", "0", "9", "10", "11"], "rt": [1742, 42, 52], "actions": ["left", "left", "up"], "actionTimes": [2248, 2792, 3348], "queries": {"click": {"state": {"target": ["3", "4", "11", "12"], "time": [831, 1184, 1691, 1995]}, "edge": {"target": [], "time": []}}, "mouseover": {"state": {"target": ["1", "3", "2", "4", "11", "10", "12"], "time": [655, 730, 1005, 1117, 1629, 1831, 1895]}, "edge": {"target": [], "time": []}}, "mouseout": {"state": {"target": ["5", "1", "3", "2", "4", "11", "10", "12", "8"], "time": [381, 671, 989, 1037, 1390, 1809, 1863, 2403, 7020]}, "edge": {"target": [], "time": []}}}, "displayed_time": "9.51", "trialTime": 10043, "trial_type": "mouselab-mdp", "trial_index": 72, "time_elapsed": 962431, "internal_node_id": "0.0-4.0-5.0-1.0"}}, {"uniqueid": "w22040264:a81298059", "current_trial": 73, "dateTime": 1664555972958, "trialdata": {"revealed_states": [], "num_clicks_accrued": [0, 0, 0, 0, 0, 0, 0, 0, 0, 0, 0, 0, 0], "stateRewards": ["", -4, -8, -24, 24, 4, 4, -48, -48, -4, -4, 24, -48], "withholdReward": true, "trial_id": "mdp_431592223624", "block": "test3", "trialIndex": 64, "score": 15.5, "costs": -1.5, "simulationMode": [null, null, null], "rewards": [-4, -8, 24], "path": ["0", "0", "1", "2", "4"], "rt": [3138, 40, 100], "actions": ["up", "up", "left"], "actionTimes": [3636, 4181, 4781], "queries": {"click": {"state": {"target": ["11", "12", "4", "3", "7", "8"], "time": [1182, 1487, 2127, 2481, 2901, 3208]}, "edge": {"target": [], "time": []}}, "mouseover": {"state": {"target": ["11", "11", "10", "12", "9", "4", "2", "3", "7", "7", "6", "8", "5", "1"], "time": [762, 1093, 1350, 1410, 1745, 2058, 2308, 2374, 2704, 2872, 3082, 3146, 3527, 3559]}, "edge": {"target": [], "time": []}}, "mouseout": {"state": {"target": ["0", "11", "11", "10", "12", "9", "4", "2", "3", "7", "7", "6", "8", "5", "1", "4", "2", "3", "7", "5", "0"], "time": [440, 787, 1334, 1375, 1720, 1776, 2284, 2348, 2664, 2760, 3050, 3114, 3502, 3542, 3576, 3606, 3764, 3782, 9556, 9596, 9612]}, "edge": {"target": [], "time": []}}}, "displayed_time": "8.50", "trialTime": 10228, "trial_type": "mouselab-mdp", "trial_index": 73, "time_elapsed": 972691, "internal_node_id": "0.0-4.0-5.0-2.0"}}, {"uniqueid": "w22040264:a81298059", "current_trial": 74, "dateTime": 1664555986175, "trialdata": {"revealed_states": [], "num_clicks_accrued": [0, 0, 0, 0, 0, 0, 0, 0, 0, 0, 0, 0, 0], "stateRewards": ["", -2, -4, -24, 48, -2, -8, -48, -24, 4, 8, 48, 24], "withholdReward": true, "trial_id": "mdp_625355871626", "block": "test3", "trialIndex": 65, "score": 64.75, "costs": -0.25, "simulationMode": [null, null, null], "rewards": [4, 8, 48], "path": ["0", "0", "9", "10", "11"], "rt": [1220, 27, 762], "actions": ["left", "left", "up"], "actionTimes": [4166, 4700, 5963], "queries": {"click": {"state": {"target": ["11"], "time": [3716]}, "edge": {"target": [], "time": []}}, "mouseover": {"state": {"target": ["11", "10"], "time": [3653, 3939]}, "edge": {"target": [], "time": []}}, "mouseout": {"state": {"target": ["0", "1", "3", "3", "11", "10"], "time": [2295, 2312, 2335, 2521, 3923, 3971]}, "edge": {"target": [], "time": []}}}, "displayed_time": "10.95", "trialTime": 13178, "trial_type": "mouselab-mdp", "trial_index": 74, "time_elapsed": 985909, "internal_node_id": "0.0-4.0-5.0-3.0"}}, {"uniqueid": "w22040264:a81298059", "current_trial": 75, "dateTime": 1664555996334, "trialdata": {"revealed_states": [], "num_clicks_accrued": [0, 0, 0, 0, 0, 0, 0, 0, 0, 0, 0, 0, 0], "stateRewards": ["", -2, -8, 24, -48, 4, 4, -24, -48, -2, -8, -48, 24], "withholdReward": true, "trial_id": "mdp_556006673466", "block": "test3", "trialIndex": 66, "score": -53, "costs": 0, "simulationMode": [null, null, null], "rewards": [-2, -8, -48], "path": ["0", "0", "1", "2", "4"], "rt": [875, 888, 16], "actions": ["up", "up", "left"], "actionTimes": [1612, 3004, 3527], "queries": {"click": {"state": {"target": [], "time": []}, "edge": {"target": [], "time": []}}, "mouseover": {"state": {"target": ["0", "1"], "time": [1211, 1555]}, "edge": {"target": [], "time": []}}, "mouseout": {"state": {"target": ["0", "0", "1", "4", "4", "2", "3", "7", "8"], "time": [1097, 1436, 2012, 2265, 2825, 3056, 3092, 3850, 9099]}, "edge": {"target": [], "time": []}}}, "displayed_time": "9.74", "trialTime": 10114, "trial_type": "mouselab-mdp", "trial_index": 75, "time_elapsed": 996068, "internal_node_id": "0.0-4.0-5.0-4.0"}}, {"uniqueid": "w22040264:a81298059", "current_trial": 76, "dateTime": 1664556005431, "trialdata": {"revealed_states": [], "num_clicks_accrued": [0, 0, 0, 0, 0, 0, 0, 0, 0, 0, 0, 0, 0], "stateRewards": ["", 4, -8, 24, 48, 2, -4, 48, 48, 4, -8, 48, 48], "withholdReward": true, "trial_id": "mdp_962498334245", "block": "test3", "trialIndex": 67, "score": 48.75, "costs": -0.25, "simulationMode": [null, null, null], "rewards": [4, -8, 48], "path": ["0", "0", "1", "2", "4"], "rt": [1055, 63, 339], "actions": ["up", "up", "left"], "actionTimes": [1770, 2341, 3182], "queries": {"click": {"state": {"target": ["4"], "time": [1205]}, "edge": {"target": [], "time": []}}, "mouseover": {"state": {"target": ["4", "2", "3"], "time": [1147, 1332, 1538]}, "edge": {"target": [], "time": []}}, "mouseout": {"state": {"target": ["0", "4", "2", "3", "6"], "time": [575, 1315, 1374, 1759, 1889]}, "edge": {"target": [], "time": []}}}, "displayed_time": "8.71", "trialTime": 9061, "trial_type": "mouselab-mdp", "trial_index": 76, "time_elapsed": 1005165, "internal_node_id": "0.0-4.0-5.0-5.0"}}, {"uniqueid": "w22040264:a81298059", "current_trial": 77, "dateTime": 1664556015385, "trialdata": {"revealed_states": [], "num_clicks_accrued": [0, 0, 0, 0, 0, 0, 0, 0, 0, 0, 0, 0, 0], "stateRewards": ["", -2, 4, -48, -48, -4, -8, 48, -48, 2, 4, 48, -48], "withholdReward": true, "trial_id": "mdp_258647270500", "block": "test3", "trialIndex": 68, "score": 58.75, "costs": -0.25, "simulationMode": [null, null, null], "rewards": [2, 4, 48], "path": ["0", "0", "9", "10", "11"], "rt": [1173, 21, 356], "actions": ["left", "left", "up"], "actionTimes": [1782, 2302, 3166], "queries": {"click": {"state": {"target": ["11"], "time": [1126]}, "edge": {"target": [], "time": []}}, "mouseover": {"state": {"target": ["9", "10", "11", "10", "12", "9"], "time": [825, 864, 1067, 1285, 1373, 1599]}, "edge": {"target": [], "time": []}}, "mouseout": {"state": {"target": ["9", "0", "9", "10", "11", "10", "12", "9", "0", "5", "6"], "time": [447, 789, 849, 905, 1261, 1324, 1571, 1639, 2117, 2554, 2560]}, "edge": {"target": [], "time": []}}}, "displayed_time": "9.61", "trialTime": 9918, "trial_type": "mouselab-mdp", "trial_index": 77, "time_elapsed": 1015119, "internal_node_id": "0.0-4.0-5.0-6.0"}}, {"uniqueid": "w22040264:a81298059", "current_trial": 78, "dateTime": 1664556025034, "trialdata": {"revealed_states": [], "num_clicks_accrued": [0, 0, 0, 0, 0, 0, 0, 0, 0, 0, 0, 0, 0], "stateRewards": ["", -2, -4, -48, 48, -2, -4, 24, 48, -4, -8, -24, 24], "withholdReward": true, "trial_id": "mdp_917590390609", "block": "test3", "trialIndex": 69, "score": 46.25, "costs": -0.75, "simulationMode": [null, null, null], "rewards": [-2, -4, 48], "path": ["0", "0", "5", "6", "8"], "rt": [1900, 27, 232], "actions": ["right", "right", "down"], "actionTimes": [2952, 3483, 4215], "queries": {"click": {"state": {"target": ["11", "12", "8"], "time": [1451, 1824, 2342]}, "edge": {"target": [], "time": []}}, "mouseover": {"state": {"target": ["11", "10", "12", "8", "6", "7", "6"], "time": [1399, 1645, 1748, 2280, 2506, 2587, 2796]}, "edge": {"target": [], "time": []}}, "mouseout": {"state": {"target": ["6", "5", "0", "11", "10", "12", "8", "6", "7", "6"], "time": [750, 775, 1008, 1621, 1700, 2033, 2475, 2547, 2772, 2828]}, "edge": {"target": [], "time": []}}}, "displayed_time": "9.05", "trialTime": 9615, "trial_type": "mouselab-mdp", "trial_index": 78, "time_elapsed": 1024768, "internal_node_id": "0.0-4.0-5.0-7.0"}}, {"uniqueid": "w22040264:a81298059", "current_trial": 79, "dateTime": 1664556036139, "trialdata": {"revealed_states": [], "num_clicks_accrued": [0, 0, 0, 0, 0, 0, 0, 0, 0, 0, 0, 0, 0], "stateRewards": ["", 2, 8, 48, -48, -2, -4, -24, 24, 4, -4, 48, -48], "withholdReward": true, "trial_id": "mdp_105734044587", "block": "test3", "trialIndex": 70, "score": -25.5, "costs": -0.5, "simulationMode": [null, null, null], "rewards": [-2, -4, -24], "path": ["0", "0", "5", "6", "7"], "rt": [1353, 840, 127], "actions": ["right", "right", "up"], "actionTimes": [4168, 5517, 6150], "queries": {"click": {"state": {"target": ["4", "3"], "time": [3336, 3771]}, "edge": {"target": [], "time": []}}, "mouseover": {"state": {"target": ["4", "2", "3", "7"], "time": [3253, 3560, 3626, 4011]}, "edge": {"target": [], "time": []}}, "mouseout": {"state": {"target": ["0", "4", "2", "3", "7", "6", "7", "6", "8"], "time": [2923, 3536, 3591, 3956, 4476, 4954, 5410, 5474, 5562]}, "edge": {"target": [], "time": []}}}, "displayed_time": "10.82", "trialTime": 11068, "trial_type": "mouselab-mdp", "trial_index": 79, "time_elapsed": 1035873, "internal_node_id": "0.0-4.0-5.0-8.0"}}, {"uniqueid": "w22040264:a81298059", "current_trial": 80, "dateTime": 1664556046578, "trialdata": {"revealed_states": [], "num_clicks_accrued": [0, 0, 0, 0, 0, 0, 0, 0, 0, 0, 0, 0, 0], "stateRewards": ["", 2, -4, -48, -48, -2, -4, -24, -48, -2, 8, 24, 24], "withholdReward": true, "trial_id": "mdp_656069446729", "block": "test3", "trialIndex": 71, "score": 33.5, "costs": -1.5, "simulationMode": [null, null, null], "rewards": [-2, 8, 24], "path": ["0", "0", "9", "10", "11"], "rt": [3122, 191, 148], "actions": ["left", "left", "up"], "actionTimes": [3616, 4310, 4959], "queries": {"click": {"state": {"target": ["4", "3", "7", "8", "11", "12"], "time": [832, 1274, 1734, 2160, 2676, 3104]}, "edge": {"target": [], "time": []}}, "mouseover": {"state": {"target": ["4", "2", "3", "7", "6", "8", "0", "9", "11", "10", "12"], "time": [708, 1022, 1071, 1586, 1935, 1998, 2369, 2433, 2586, 2876, 2948]}, "edge": {"target": [], "time": []}}, "mouseout": {"state": {"target": ["5", "1", "4", "2", "3", "7", "6", "8", "0", "9", "11", "10", "12", "8"], "time": [177, 362, 991, 1046, 1499, 1909, 1967, 2321, 2401, 2441, 2852, 2917, 3401, 3962]}, "edge": {"target": [], "time": []}}}, "displayed_time": "8.49", "trialTime": 10401, "trial_type": "mouselab-mdp", "trial_index": 80, "time_elapsed": 1046312, "internal_node_id": "0.0-4.0-5.0-9.0"}}, {"uniqueid": "w22040264:a81298059", "current_trial": 81, "dateTime": 1664556062702, "trialdata": {"revealed_states": [], "num_clicks_accrued": [0, 0, 0, 0, 0, 0, 0, 0, 0, 0, 0, 0, 0], "stateRewards": ["", 4, 4, 48, -48, 4, 4, -48, 24, 2, 8, 24, -48], "withholdReward": true, "trial_id": "mdp_291674656283", "block": "test3", "trialIndex": 72, "score": 60.5, "costs": -0.5, "simulationMode": [null, null, null], "rewards": [4, 4, 48], "path": ["0", "0", "1", "2", "3"], "rt": [1940, 1, 139], "actions": ["up", "up", "right"], "actionTimes": [4863, 5373, 6018], "queries": {"click": {"state": {"target": ["4", "3"], "time": [3678, 4119]}, "edge": {"target": [], "time": []}}, "mouseover": {"state": {"target": ["4", "4", "2", "3", "7"], "time": [3128, 3570, 3844, 3915, 4335]}, "edge": {"target": [], "time": []}}, "mouseout": {"state": {"target": ["8", "0", "4", "4", "2", "3", "7", "6", "8"], "time": [2560, 3070, 3144, 3827, 3876, 4296, 4981, 5041, 5072]}, "edge": {"target": [], "time": []}}}, "displayed_time": "10.93", "trialTime": 16089, "trial_type": "mouselab-mdp", "trial_index": 81, "time_elapsed": 1062436, "internal_node_id": "0.0-4.0-5.0-10.0"}}, {"uniqueid": "w22040264:a81298059", "current_trial": 82, "dateTime": 1664556074559, "trialdata": {"revealed_states": [], "num_clicks_accrued": [0, 0, 0, 0, 0, 0, 0, 0, 0, 0, 0, 0, 0], "stateRewards": ["", -4, -8, 48, -24, 4, -8, 48, 48, -2, 4, -48, -24], "withholdReward": false, "trial_id": "mdp_925905402462", "block": "test3", "trialIndex": 73, "score": 40.5, "costs": -0.5, "simulationMode": [null, null, null], "rewards": [-4, -8, 48], "path": ["0", "0", "1", "2", "3"], "rt": [2171, 21, 112], "actions": ["up", "up", "right"], "actionTimes": [2682, 3207, 3821], "queries": {"click": {"state": {"target": ["4", "3"], "time": [1600, 2052]}, "edge": {"target": [], "time": []}}, "mouseover": {"state": {"target": ["1", "2", "4", "2", "3", "7"], "time": [1292, 1358, 1534, 1823, 1882, 2316]}, "edge": {"target": [], "time": []}}, "mouseout": {"state": {"target": ["0", "1", "2", "4", "2", "3", "7"], "time": [395, 1330, 1390, 1760, 1855, 2252, 2956]}, "edge": {"target": [], "time": []}}}, "displayed_time": "8.51", "trialTime": 11822, "trial_type": "mouselab-mdp", "trial_index": 82, "time_elapsed": 1074292, "internal_node_id": "0.0-4.0-5.0-11.0"}}, {"uniqueid": "w22040264:a81298059", "current_trial": 83, "dateTime": 1664556090637, "trialdata": {"revealed_states": [], "num_clicks_accrued": [0, 0, 0, 0, 0, 0, 0, 0, 0, 0, 0, 0, 0], "stateRewards": ["", -2, -4, 48, -24, 2, -4, -24, -48, 2, 8, -48, -24], "withholdReward": false, "trial_id": "mdp_238243948191", "block": "test3", "trialIndex": 74, "score": 46.5, "costs": -0.5, "simulationMode": [null, null, null], "rewards": [-2, -4, 48], "path": ["0", "0", "1", "2", "3"], "rt": [2213, 303, 113], "actions": ["up", "up", "right"], "actionTimes": [4422, 5224, 5841], "queries": {"click": {"state": {"target": ["4", "3"], "time": [2750, 3528]}, "edge": {"target": [], "time": []}}, "mouseover": {"state": {"target": ["4", "4", "2", "3", "7", "7"], "time": [2431, 2621, 2975, 3023, 3744, 3912]}, "edge": {"target": [], "time": []}}, "mouseout": {"state": {"target": ["0", "4", "4", "2", "3", "7", "7", "5"], "time": [2319, 2464, 2950, 2999, 3705, 3809, 14804, 14888]}, "edge": {"target": [], "time": []}}}, "displayed_time": "10.21", "trialTime": 16039, "trial_type": "mouselab-mdp", "trial_index": 83, "time_elapsed": 1090370, "internal_node_id": "0.0-4.0-5.0-12.0"}}, {"uniqueid": "w22040264:a81298059", "current_trial": 84, "dateTime": 1664556102932, "trialdata": {"revealed_states": [], "num_clicks_accrued": [0, 0, 0, 0, 0, 0, 0, 0, 0, 0, 0, 0, 0], "stateRewards": ["", -2, -8, -24, -48, 4, -8, 48, 24, 2, 4, -48, -48], "withholdReward": false, "trial_id": "mdp_898082967464", "block": "test3", "trialIndex": 75, "score": 48.25, "costs": -0.75, "simulationMode": [null, null, null], "rewards": [4, -8, 48], "path": ["0", "0", "5", "6", "7"], "rt": [2466, 59, 922], "actions": ["right", "right", "up"], "actionTimes": [5335, 5893, 7315], "queries": {"click": {"state": {"target": ["4", "3", "7"], "time": [3350, 4308, 4790]}, "edge": {"target": [], "time": []}}, "mouseover": {"state": {"target": ["4", "2", "3", "3", "3", "7", "6", "8"], "time": [3307, 3780, 3823, 4073, 4293, 4655, 4957, 5127]}, "edge": {"target": [], "time": []}}, "mouseout": {"state": {"target": ["1", "0", "0", "4", "2", "3", "3", "3", "7", "6"], "time": [2437, 2500, 2791, 3765, 3805, 3847, 4137, 4530, 4933, 5007]}, "edge": {"target": [], "time": []}}}, "displayed_time": "9.87", "trialTime": 12254, "trial_type": "mouselab-mdp", "trial_index": 84, "time_elapsed": 1102665, "internal_node_id": "0.0-4.0-5.0-13.0"}}, {"uniqueid": "w22040264:a81298059", "current_trial": 85, "dateTime": 1664556116973, "trialdata": {"revealed_states": [], "num_clicks_accrued": [0, 0, 0, 0, 0, 0, 0, 0, 0, 0, 0, 0, 0], "stateRewards": ["", 2, 4, 48, -24, 2, -8, -24, -24, 2, -8, -24, -48], "withholdReward": false, "trial_id": "mdp_274832552938", "block": "test3", "trialIndex": 76, "score": 58.5, "costs": -0.5, "simulationMode": [null, null, null], "rewards": [2, 4, 48], "path": ["0", "0", "1", "2", "3"], "rt": [1479, 129, 450], "actions": ["up", "up", "right"], "actionTimes": [2459, 3092, 4043], "queries": {"click": {"state": {"target": ["4", "3"], "time": [1415, 2067]}, "edge": {"target": [], "time": []}}, "mouseover": {"state": {"target": ["1", "4", "2", "3", "7"], "time": [1202, 1316, 1555, 1854, 2274]}, "edge": {"target": [], "time": []}}, "mouseout": {"state": {"target": ["8", "9", "1", "4", "2", "3", "7", "6"], "time": [525, 872, 1226, 1525, 1574, 2210, 13252, 13371]}, "edge": {"target": [], "time": []}}}, "displayed_time": "7.98", "trialTime": 14003, "trial_type": "mouselab-mdp", "trial_index": 85, "time_elapsed": 1116707, "internal_node_id": "0.0-4.0-5.0-14.0"}}, {"uniqueid": "w22040264:a81298