{"condition": 1, "counterbalance": 0, "assignmentId": "a26026661", "workerId": "w22931106", "hitId": "h69635475", "currenttrial": 155, "bonus": 0, "data": [{"uniqueid": "w22931106:a26026661", "current_trial": 0, "dateTime": 1664555394514, "trialdata": {"success": true, "trial_type": "fullscreen", "trial_index": 0, "time_elapsed": 4069, "internal_node_id": "0.0-0.0"}}, {"uniqueid": "w22931106:a26026661", "current_trial": 1, "dateTime": 1664555404703, "trialdata": {"view_history": [{"page_index": 0, "viewing_time": 10177}], "rt": 10179, "trial_id": "exp_instructions_no_distractor", "trial_type": "instructions", "trial_index": 1, "time_elapsed": 14258, "internal_node_id": "0.0-1.0"}}, {"uniqueid": "w22931106:a26026661", "current_trial": 2, "dateTime": 1664555408577, "trialdata": {"success": true, "trial_type": "fullscreen", "trial_index": 2, "time_elapsed": 18132, "internal_node_id": "0.0-2.0-0.0"}}, {"uniqueid": "w22931106:a26026661", "current_trial": 3, "dateTime": 1664555521887, "trialdata": {"view_history": [{"page_index": 0, "viewing_time": 43537}, {"page_index": 1, "viewing_time": 25703}, {"page_index": 2, "viewing_time": 11886}, {"page_index": 3, "viewing_time": 8833}, {"page_index": 4, "viewing_time": 23343}], "rt": 113303, "trial_id": "mouselab_instructions_1", "trial_type": "instructions", "trial_index": 3, "time_elapsed": 131442, "internal_node_id": "0.0-2.0-1.0"}}, {"uniqueid": "w22931106:a26026661", "current_trial": 4, "dateTime": 1664555540809, "trialdata": {"revealed_states": [], "num_clicks_accrued": [0, 0, 0, 0, 0, 0, 0, 0, 0, 0, 0, 0, 0], "stateRewards": ["", 10, 10, 10, -10, -10, 10, -10, 10, 10, -10, -10, -10], "withholdReward": false, "trial_id": "practice_1", "block": "test", "trialIndex": 0, "score": 11.75, "costs": -0.25, "simulationMode": [null, null, null], "rewards": [10, 10, -10], "path": ["0", "0", "1", "2", "4"], "rt": [7934, 860, 584], "actions": ["up", "up", "left"], "actionTimes": [13515, 14893, 16003], "queries": {"click": {"state": {"target": ["5"], "time": [11259]}, "edge": {"target": [], "time": []}}, "mouseover": {"state": {"target": ["5", "6", "6", "5"], "time": [6562, 7163, 7764, 7862]}, "edge": {"target": [], "time": []}}, "mouseout": {"state": {"target": ["5", "0", "9", "9", "0", "0", "5", "6", "6"], "time": [679, 1795, 3264, 4096, 4146, 5378, 7145, 7230, 7798]}, "edge": {"target": [], "time": []}}}, "displayed_time": "16.53", "trialTime": 18559, "trial_type": "mouselab-mdp", "trial_index": 4, "time_elapsed": 150363, "internal_node_id": "0.0-2.0-2.0-0.0"}}, {"uniqueid": "w22931106:a26026661", "current_trial": 5, "dateTime": 1664555549201, "trialdata": {"revealed_states": [], "num_clicks_accrued": [0, 0, 0, 0, 0, 0, 0, 0, 0, 0, 0, 0, 0], "stateRewards": ["", 10, 10, 10, -10, 10, 10, 10, -10, -10, -10, -10, 10], "withholdReward": false, "trial_id": "practice_2", "block": "test", "trialIndex": 1, "score": 11.75, "costs": -0.25, "simulationMode": [null, null, null], "rewards": [10, 10, -10], "path": ["0", "0", "1", "2", "4"], "rt": [2346, 335, 587], "actions": ["up", "up", "left"], "actionTimes": [4358, 5214, 6319], "queries": {"click": {"state": {"target": ["1"], "time": [3124]}, "edge": {"target": [], "time": []}}, "mouseover": {"state": {"target": ["1"], "time": [2993]}, "edge": {"target": [], "time": []}}, "mouseout": {"state": {"target": ["5", "0", "0", "1", "0"], "time": [1311, 1377, 2909, 4195, 7726]}, "edge": {"target": [], "time": []}}}, "displayed_time": "6.84", "trialTime": 8233, "trial_type": "mouselab-mdp", "trial_index": 5, "time_elapsed": 158756, "internal_node_id": "0.0-2.0-2.0-1.0"}}, {"uniqueid": "w22931106:a26026661", "current_trial": 6, "dateTime": 1664555622545, "trialdata": {"view_history": [{"page_index": 0, "viewing_time": 38993}, {"page_index": 1, "viewing_time": 20142}, {"page_index": 2, "viewing_time": 14204}], "rt": 73340, "trial_id": "mouselab_instructions_2_scarce", "trial_type": "instructions", "trial_index": 6, "time_elapsed": 232100, "internal_node_id": "0.0-2.0-3.0"}}, {"uniqueid": "w22931106:a26026661", "current_trial": 7, "dateTime": 1664555664307, "trialdata": {"rt": 41753, "response": {"Q0": "$-48 to $48", "Q1": "The cost is always $0.25.", "Q2": "The better I perform the higher my bonus will be.", "Q3": "No, the structure of the web will be different each time.", "Q4": "The values of the nodes walked through from start to finish.", "Q5": "No, the spider might forget to count the money on some rounds."}, "question_order": [0, 1, 2, 3, 4, 5], "correct": {"Q0": "$-48 to $48", "Q1": "The cost is always $0.25.", "Q2": "The better I perform the higher my bonus will be.", "Q3": "No, the amount of cash at each node of the web may be different each time.", "Q4": "The values of the nodes walked through from start to finish.", "Q5": "No, the spider might forget to count the money on some rounds."}, "trial_id": "mouselab_quiz_scarce", "trial_type": "survey-multi-choice", "trial_index": 7, "time_elapsed": 273862, "internal_node_id": "0.0-2.0-4.0"}}, {"uniqueid": "w22931106:a26026661", "current_trial": 8, "dateTime": 1664555679663, "trialdata": {"success": true, "trial_type": "fullscreen", "trial_index": 8, "time_elapsed": 289218, "internal_node_id": "0.0-2.1-0.1"}}, {"uniqueid": "w22931106:a26026661", "current_trial": 9, "dateTime": 1664555800704, "trialdata": {"view_history": [{"page_index": 0, "viewing_time": 23818}, {"page_index": 1, "viewing_time": 11462}, {"page_index": 2, "viewing_time": 12499}, {"page_index": 3, "viewing_time": 3873}, {"page_index": 4, "viewing_time": 69386}], "rt": 121039, "trial_id": "mouselab_instructions_1", "trial_type": "instructions", "trial_index": 9, "time_elapsed": 410259, "internal_node_id": "0.0-2.1-1.1"}}, {"uniqueid": "w22931106:a26026661", "current_trial": 10, "dateTime": 1664555807935, "trialdata": {"revealed_states": [], "num_clicks_accrued": [0, 0, 0, 0, 0, 0, 0, 0, 0, 0, 0, 0, 0], "stateRewards": ["", 10, 10, 10, -10, -10, 10, -10, 10, 10, -10, -10, -10], "withholdReward": false, "trial_id": "practice_1", "block": "test", "trialIndex": 2, "score": 11.75, "costs": -0.25, "simulationMode": [null, null, null], "rewards": [10, 10, -10], "path": ["0", "0", "1", "2", "4"], "rt": [2307, 512, 144], "actions": ["up", "up", "left"], "actionTimes": [3341, 4370, 5034], "queries": {"click": {"state": {"target": ["1"], "time": [1970]}, "edge": {"target": [], "time": []}}, "mouseover": {"state": {"target": ["1", "2"], "time": [1541, 2641]}, "edge": {"target": [], "time": []}}, "mouseout": {"state": {"target": ["5", "0", "1", "2", "6", "7"], "time": [638, 755, 2625, 2662, 6538, 6572]}, "edge": {"target": [], "time": []}}}, "displayed_time": "5.56", "trialTime": 7090, "trial_type": "mouselab-mdp", "trial_index": 10, "time_elapsed": 417490, "internal_node_id": "0.0-2.1-2.1-0.1"}}, {"uniqueid": "w22931106:a26026661", "current_trial": 11, "dateTime": 1664555814131, "trialdata": {"revealed_states": [], "num_clicks_accrued": [0, 0, 0, 0, 0, 0, 0, 0, 0, 0, 0, 0, 0], "stateRewards": ["", 10, 10, 10, -10, 10, 10, 10, -10, -10, -10, -10, 10], "withholdReward": false, "trial_id": "practice_2", "block": "test", "trialIndex": 3, "score": -8.25, "costs": -0.25, "simulationMode": [null, null, null], "rewards": [-10, -10, 10], "path": ["0", "0", "9", "10", "12"], "rt": [1582, 54, 134], "actions": ["left", "left", "down"], "actionTimes": [2796, 3371, 4034], "queries": {"click": {"state": {"target": ["9"], "time": [1761]}, "edge": {"target": [], "time": []}}, "mouseover": {"state": {"target": ["9"], "time": [1581]}, "edge": {"target": [], "time": []}}, "mouseout": {"state": {"target": ["9", "9", "0"], "time": [1948, 4848, 5232]}, "edge": {"target": [], "time": []}}}, "displayed_time": "4.55", "trialTime": 6062, "trial_type": "mouselab-mdp", "trial_index": 11, "time_elapsed": 423686, "internal_node_id": "0.0-2.1-2.1-1.1"}}, {"uniqueid": "w22931106:a26026661", "current_trial": 12, "dateTime": 1664555862619, "trialdata": {"view_history": [{"page_index": 0, "viewing_time": 34650}, {"page_index": 1, "viewing_time": 12071}, {"page_index": 2, "viewing_time": 1762}], "rt": 48484, "trial_id": "mouselab_instructions_2_scarce", "trial_type": "instructions", "trial_index": 12, "time_elapsed": 472174, "internal_node_id": "0.0-2.1-3.1"}}, {"uniqueid": "w22931106:a26026661", "current_trial": 13, "dateTime": 1664555908723, "trialdata": {"rt": 46094, "response": {"Q0": "$-48 to $48", "Q1": "The cost is always $0.25.", "Q2": "The better I perform the higher my bonus will be.", "Q3": "No, the structure of the web will be different each time.", "Q4": "The values of the nodes walked through from start to finish.", "Q5": "No, the spider might forget to count the money on some rounds."}, "question_order": [0, 1, 2, 3, 4, 5], "correct": {"Q0": "$-48 to $48", "Q1": "The cost is always $0.25.", "Q2": "The better I perform the higher my bonus will be.", "Q3": "No, the amount of cash at each node of the web may be different each time.", "Q4": "The values of the nodes walked through from start to finish.", "Q5": "No, the spider might forget to count the money on some rounds."}, "trial_id": "mouselab_quiz_scarce", "trial_type": "survey-multi-choice", "trial_index": 13, "time_elapsed": 518278, "internal_node_id": "0.0-2.1-4.1"}}, {"uniqueid": "w22931106:a26026661", "current_trial": 14, "dateTime": 1664555917169, "trialdata": {"success": true, "trial_type": "fullscreen", "trial_index": 14, "time_elapsed": 526724, "internal_node_id": "0.0-2.2-0.2"}}, {"uniqueid": "w22931106:a26026661", "current_trial": 15, "dateTime": 1664556069311, "trialdata": {"view_history": [{"page_index": 0, "viewing_time": 59403}, {"page_index": 1, "viewing_time": 26267}, {"page_index": 2, "viewing_time": 19046}, {"page_index": 3, "viewing_time": 7990}, {"page_index": 4, "viewing_time": 39432}], "rt": 152139, "trial_id": "mouselab_instructions_1", "trial_type": "instructions", "trial_index": 15, "time_elapsed": 678866, "internal_node_id": "0.0-2.2-1.2"}}, {"uniqueid": "w22931106:a26026661", "current_trial": 16, "dateTime": 1664556076596, "trialdata": {"revealed_states": [], "num_clicks_accrued": [0, 0, 0, 0, 0, 0, 0, 0, 0, 0, 0, 0, 0], "stateRewards": ["", 10, 10, 10, -10, -10, 10, -10, 10, 10, -10, -10, -10], "withholdReward": false, "trial_id": "practice_1", "block": "test", "trialIndex": 4, "score": 32, "costs": 0, "simulationMode": [null, null, null], "rewards": [10, 10, 10], "path": ["0", "0", "1", "2", "3"], "rt": [924, 546, 1278], "actions": ["up", "up", "right"], "actionTimes": [2308, 3374, 5173], "queries": {"click": {"state": {"target": [], "time": []}, "edge": {"target": [], "time": []}}, "mouseover": {"state": {"target": ["1"], "time": [1545]}, "edge": {"target": [], "time": []}}, "mouseout": {"state": {"target": ["5", "1", "1", "0"], "time": [758, 1561, 6144, 6159]}, "edge": {"target": [], "time": []}}}, "displayed_time": "5.69", "trialTime": 7166, "trial_type": "mouselab-mdp", "trial_index": 16, "time_elapsed": 686150, "internal_node_id": "0.0-2.2-2.2-0.2"}}, {"uniqueid": "w22931106:a26026661", "current_trial": 17, "dateTime": 1664556083954, "trialdata": {"revealed_states": [], "num_clicks_accrued": [0, 0, 0, 0, 0, 0, 0, 0, 0, 0, 0, 0, 0], "stateRewards": ["", 10, 10, 10, -10, 10, 10, 10, -10, -10, -10, -10, 10], "withholdReward": false, "trial_id": "practice_2", "block": "test", "trialIndex": 5, "score": 12, "costs": 0, "simulationMode": [null, null, null], "rewards": [10, 10, -10], "path": ["0", "0", "1", "2", "4"], "rt": [862, 439, 250], "actions": ["up", "up", "left"], "actionTimes": [3583, 4550, 5327], "queries": {"click": {"state": {"target": [], "time": []}, "edge": {"target": [], "time": []}}, "mouseover": {"state": {"target": ["2"], "time": [3094]}, "edge": {"target": [], "time": []}}, "mouseout": {"state": {"target": ["3", "7", "5", "0", "2", "4"], "time": [1960, 2044, 2242, 3045, 3110, 6457]}, "edge": {"target": [], "time": []}}}, "displayed_time": "5.85", "trialTime": 7239, "trial_type": "mouselab-mdp", "trial_index": 17, "time_elapsed": 693508, "internal_node_id": "0.0-2.2-2.2-1.2"}}, {"uniqueid": "w22931106:a26026661", "current_trial": 18, "dateTime": 1664556151915, "trialdata": {"view_history": [{"page_index": 0, "viewing_time": 51128}, {"page_index": 1, "viewing_time": 15080}, {"page_index": 2, "viewing_time": 1749}], "rt": 67958, "trial_id": "mouselab_instructions_2_scarce", "trial_type": "instructions", "trial_index": 18, "time_elapsed": 761470, "internal_node_id": "0.0-2.2-3.2"}}, {"uniqueid": "w22931106:a26026661", "current_trial": 19, "dateTime": 1664556506695, "trialdata": {"rt": 354772, "response": {"Q0": "$-48 to $48", "Q1": "The cost is always $0.25.", "Q2": "The better I perform the higher my bonus will be.", "Q3": "No, the amount of cash at each node of the web may be different each time.", "Q4": "The values of the nodes walked through from start to finish.", "Q5": "No, the score will only be displayed once at the end of the game."}, "question_order": [0, 1, 2, 3, 4, 5], "correct": {"Q0": "$-48 to $48", "Q1": "The cost is always $0.25.", "Q2": "The better I perform the higher my bonus will be.", "Q3": "No, the amount of cash at each node of the web may be different each time.", "Q4": "The values of the nodes walked through from start to finish.", "Q5": "No, the spider might forget to count the money on some rounds."}, "trial_id": "mouselab_quiz_scarce", "trial_type": "survey-multi-choice", "trial_index": 19, "time_elapsed": 1116250, "internal_node_id": "0.0-2.2-4.2"}}, {"uniqueid": "w22931106:a26026661", "current_trial": 20, "dateTime": 1664556522515, "trialdata": {"success": true, "trial_type": "fullscreen", "trial_index": 20, "time_elapsed": 1132070, "internal_node_id": "0.0-2.3-0.3"}}, {"uniqueid": "w22931106:a26026661", "current_trial": 21, "dateTime": 1664556644187, "trialdata": {"view_history": [{"page_index": 0, "viewing_time": 49358}, {"page_index": 1, "viewing_time": 25070}, {"page_index": 2, "viewing_time": 22380}, {"page_index": 3, "viewing_time": 3679}, {"page_index": 4, "viewing_time": 21179}], "rt": 121666, "trial_id": "mouselab_instructions_1", "trial_type": "instructions", "trial_index": 21, "time_elapsed": 1253742, "internal_node_id": "0.0-2.3-1.3"}}, {"uniqueid": "w22931106:a26026661", "current_trial": 22, "dateTime": 1664556653698, "trialdata": {"revealed_states": [], "num_clicks_accrued": [0, 0, 0, 0, 0, 0, 0, 0, 0, 0, 0, 0, 0], "stateRewards": ["", 10, 10, 10, -10, -10, 10, -10, 10, 10, -10, -10, -10], "withholdReward": false, "trial_id": "practice_1", "block": "test", "trialIndex": 6, "score": 11.75, "costs": -0.25, "simulationMode": [null, null, null], "rewards": [10, 10, -10], "path": ["0", "0", "1", "2", "4"], "rt": [2476, 462, 35], "actions": ["up", "up", "left"], "actionTimes": [5943, 6920, 7476], "queries": {"click": {"state": {"target": ["1"], "time": [4160]}, "edge": {"target": [], "time": []}}, "mouseover": {"state": {"target": ["1"], "time": [4006]}, "edge": {"target": [], "time": []}}, "mouseout": {"state": {"target": ["5", "3", "9", "0", "1", "7", "6", "8"], "time": [1170, 1204, 2923, 3724, 4772, 8489, 8506, 8522]}, "edge": {"target": [], "time": []}}}, "displayed_time": "7.99", "trialTime": 9353, "trial_type": "mouselab-mdp", "trial_index": 22, "time_elapsed": 1263253, "internal_node_id": "0.0-2.3-2.3-0.3"}}, {"uniqueid": "w22931106:a26026661", "current_trial": 23, "dateTime": 1664556661857, "trialdata": {"revealed_states": [], "num_clicks_accrued": [0, 0, 0, 0, 0, 0, 0, 0, 0, 0, 0, 0, 0], "stateRewards": ["", 10, 10, 10, -10, 10, 10, 10, -10, -10, -10, -10, 10], "withholdReward": false, "trial_id": "practice_2", "block": "test", "trialIndex": 7, "score": 32, "costs": 0, "simulationMode": [null, null, null], "rewards": [10, 10, 10], "path": ["0", "0", "1", "2", "3"], "rt": [1083, 104, 145], "actions": ["up", "up", "right"], "actionTimes": [3773, 4406, 5079], "queries": {"click": {"state": {"target": [], "time": []}, "edge": {"target": [], "time": []}}, "mouseover": {"state": {"target": ["3"], "time": [3133]}, "edge": {"target": [], "time": []}}, "mouseout": {"state": {"target": ["3", "5", "8", "8"], "time": [3149, 6219, 6351, 6984]}, "edge": {"target": [], "time": []}}}, "displayed_time": "5.60", "trialTime": 7990, "trial_type": "mouselab-mdp", "trial_index": 23, "time_elapsed": 1271412, "internal_node_id": "0.0-2.3-2.3-1.3"}}, {"uniqueid": "w22931106:a26026661", "current_trial": 24, "dateTime": 1664556726257, "trialdata": {"view_history": [{"page_index": 0, "viewing_time": 35774}, {"page_index": 1, "viewing_time": 26684}, {"page_index": 2, "viewing_time": 1934}], "rt": 64393, "trial_id": "mouselab_instructions_2_scarce", "trial_type": "instructions", "trial_index": 24, "time_elapsed": 1335812, "internal_node_id": "0.0-2.3-3.3"}}, {"uniqueid": "w22931106:a26026661", "current_trial": 25, "dateTime": 1664556781572, "trialdata": {"rt": 55306, "response": {"Q0": "$-48 to $48", "Q1": "The cost is always $0.25.", "Q2": "The better I perform the higher my bonus will be.", "Q3": "No, the structure of the web will be different each time.", "Q4": "The values of the nodes walked through from start to finish.", "Q5": "No, the spider might forget to count the money on some rounds."}, "question_order": [0, 1, 2, 3, 4, 5], "correct": {"Q0": "$-48 to $48", "Q1": "The cost is always $0.25.", "Q2": "The better I perform the higher my bonus will be.", "Q3": "No, the amount of cash at each node of the web may be different each time.", "Q4": "The values of the nodes walked through from start to finish.", "Q5": "No, the spider might forget to count the money on some rounds."}, "trial_id": "mouselab_quiz_scarce", "trial_type": "survey-multi-choice", "trial_index": 25, "time_elapsed": 1391127, "internal_node_id": "0.0-2.3-4.3"}}, {"uniqueid": "w22931106:a26026661", "current_trial": 26, "dateTime": 1664556795595, "trialdata": {"rt": 14006, "stimulus": "\n<h1> Get ready to start the game! </h1>\n\nThank you for reading the instructions. Get ready start with the first of 4 block(s) of this game.\n<br><br>\nIn this first block, you will complete 30 rounds of this game before moving on.\n<br><br>\nRemember, the more money the spider gets, the bigger your bonus will be!\n<br><br>\n<div style='text-align: center;'>Press <code>space</code> to begin.</div>\n\n<br><br>\n(If, at any point, the <code>space</code> key does not take you to the next page, click once on the text and try again.)", "response": " ", "trial_id": "mdp_ready_1", "trial_type": "html-keyboard-response", "trial_index": 26, "time_elapsed": 1405149, "internal_node_id": "0.0-4.0-0.0"}}, {"uniqueid": "w22931106:a26026661", "current_trial": 27, "dateTime": 1664556810092, "trialdata": {"revealed_states": [], "num_clicks_accrued": [0, 0, 0, 0, 0, 0, 0, 0, 0, 0, 0, 0, 0], "stateRewards": ["", 2, -4, 48, -48, -4, -8, -48, 24, -4, 4, 48, 48], "withholdReward": true, "trial_id": "mdp_544803968425", "block": "test1", "trialIndex": 8, "score": -45, "costs": 0, "simulationMode": [null, null, null], "rewards": [2, -4, -48], "path": ["0", "0", "1", "2", "4"], "rt": [981, 293, 316], "actions": ["up", "up", "left"], "actionTimes": [3307, 4132, 4973], "queries": {"click": {"state": {"target": [], "time": []}, "edge": {"target": [], "time": []}}, "mouseover": {"state": {"target": ["0"], "time": [3173]}, "edge": {"target": [], "time": []}}, "mouseout": {"state": {"target": ["8", "6", "5", "0", "0"], "time": [1455, 1837, 1921, 2493, 3190]}, "edge": {"target": [], "time": []}}}, "displayed_time": "12.33", "trialTime": 14317, "trial_type": "mouselab-mdp", "trial_index": 27, "time_elapsed": 1419646, "internal_node_id": "0.0-4.0-1.0-0.0"}}, {"uniqueid": "w22931106:a26026661", "current_trial": 28, "dateTime": 1664556822231, "trialdata": {"revealed_states": [], "num_clicks_accrued": [0, 0, 0, 0, 0, 0, 0, 0, 0, 0, 0, 0, 0], "stateRewards": ["", 2, 4, -48, -48, 2, 4, 48, -24, -2, 8, 48, -48], "withholdReward": false, "trial_id": "mdp_258528916140", "block": "test1", "trialIndex": 9, "score": 59, "costs": 0, "simulationMode": [null, null, null], "rewards": [2, 4, 48], "path": ["0", "0", "5", "6", "7"], "rt": [1129, 196, 271], "actions": ["right", "right", "up"], "actionTimes": [3157, 3874, 4666], "queries": {"click": {"state": {"target": [], "time": []}, "edge": {"target": [], "time": []}}, "mouseover": {"state": {"target": [], "time": []}, "edge": {"target": [], "time": []}}, "mouseout": {"state": {"target": ["5", "0", "5", "0"], "time": [1708, 6593, 7493, 9692]}, "edge": {"target": [], "time": []}}}, "displayed_time": "11.03", "trialTime": 11930, "trial_type": "mouselab-mdp", "trial_index": 28, "time_elapsed": 1431785, "internal_node_id": "0.0-4.0-1.0-1.0"}}, {"uniqueid": "w22931106:a26026661", "current_trial": 29, "dateTime": 1664556832492, "trialdata": {"revealed_states": [], "num_clicks_accrued": [0, 0, 0, 0, 0, 0, 0, 0, 0, 0, 0, 0, 0], "stateRewards": ["", 4, 8, -24, 48, 4, -8, -48, 48, -4, 8, -24, -48], "withholdReward": true, "trial_id": "mdp_376126356841", "block": "test1", "trialIndex": 10, "score": -15, "costs": 0, "simulationMode": [null, null, null], "rewards": [-4, 8, -24], "path": ["0", "0", "9", "10", "11"], "rt": [801, 105, 80], "actions": ["left", "left", "up"], "actionTimes": [2188, 2821, 3429], "queries": {"click": {"state": {"target": [], "time": []}, "edge": {"target": [], "time": []}}, "mouseover": {"state": {"target": ["1"], "time": [1599]}, "edge": {"target": [], "time": []}}, "mouseout": {"state": {"target": ["1", "0", "1", "1", "1", "0", "2"], "time": [930, 1582, 1617, 5399, 7781, 9916, 9999]}, "edge": {"target": [], "time": []}}}, "displayed_time": "9.39", "trialTime": 10113, "trial_type": "mouselab-mdp", "trial_index": 29, "time_elapsed": 1442046, "internal_node_id": "0.0-4.0-1.0-2.0"}}, {"uniqueid": "w22931106:a26026661", "current_trial": 30, "dateTime": 1664556843168, "trialdata": {"revealed_states": [], "num_clicks_accrued": [0, 0, 0, 0, 0, 0, 0, 0, 0, 0, 0, 0, 0], "stateRewards": ["", -2, -4, -48, -48, 4, -4, 48, 24, 4, 4, 48, 48], "withholdReward": true, "trial_id": "mdp_950960813932", "block": "test1", "trialIndex": 11, "score": 29, "costs": 0, "simulationMode": [null, null, null], "rewards": [4, -4, 24], "path": ["0", "0", "5", "6", "8"], "rt": [1178, 7, 229], "actions": ["right", "right", "down"], "actionTimes": [3129, 3653, 4406], "queries": {"click": {"state": {"target": [], "time": []}, "edge": {"target": [], "time": []}}, "mouseover": {"state": {"target": [], "time": []}, "edge": {"target": [], "time": []}}, "mouseout": {"state": {"target": ["8", "5", "0", "3"], "time": [1392, 1608, 2077, 9276]}, "edge": {"target": [], "time": []}}}, "displayed_time": "9.95", "trialTime": 10484, "trial_type": "mouselab-mdp", "trial_index": 30, "time_elapsed": 1452723, "internal_node_id": "0.0-4.0-1.0-3.0"}}, {"uniqueid": "w22931106:a26026661", "current_trial": 31, "dateTime": 1664556854232, "trialdata": {"revealed_states": [], "num_clicks_accrued": [0, 0, 0, 0, 0, 0, 0, 0, 0, 0, 0, 0, 0], "stateRewards": ["", -4, -4, -24, 24, -4, 4, -24, 48, -2, 4, 48, -48], "withholdReward": true, "trial_id": "mdp_774757609669", "block": "test1", "trialIndex": 12, "score": -27, "costs": 0, "simulationMode": [null, null, null], "rewards": [-4, -4, -24], "path": ["0", "0", "1", "2", "3"], "rt": [669, 134, 410], "actions": ["up", "up", "right"], "actionTimes": [2993, 3653, 4577], "queries": {"click": {"state": {"target": [], "time": []}, "edge": {"target": [], "time": []}}, "mouseover": {"state": {"target": [], "time": []}, "edge": {"target": [], "time": []}}, "mouseout": {"state": {"target": ["5", "8", "8", "5", "0", "9"], "time": [1566, 1649, 1784, 1966, 5401, 5434]}, "edge": {"target": [], "time": []}}}, "displayed_time": "10.32", "trialTime": 10906, "trial_type": "mouselab-mdp", "trial_index": 31, "time_elapsed": 1463786, "internal_node_id": "0.0-4.0-1.0-4.0"}}, {"uniqueid": "w22931106:a26026661", "current_trial": 32, "dateTime": 1664556866941, "trialdata": {"revealed_states": [], "num_clicks_accrued": [0, 0, 0, 0, 0, 0, 0, 0, 0, 0, 0, 0, 0], "stateRewards": ["", 2, 8, -48, -24, 4, 4, 24, 48, 4, -4, -48, 48], "withholdReward": true, "trial_id": "mdp_665096999232", "block": "test1", "trialIndex": 13, "score": 53, "costs": 0, "simulationMode": [null, null, null], "rewards": [4, -4, 48], "path": ["0", "0", "9", "10", "12"], "rt": [699, 17, 69], "actions": ["left", "left", "down"], "actionTimes": [3540, 4081, 4683], "queries": {"click": {"state": {"target": [], "time": []}, "edge": {"target": [], "time": []}}, "mouseover": {"state": {"target": [], "time": []}, "edge": {"target": [], "time": []}}, "mouseout": {"state": {"target": ["6", "5", "0", "0", "0", "0"], "time": [1533, 1595, 2045, 7482, 7528, 9863]}, "edge": {"target": [], "time": []}}}, "displayed_time": "11.84", "trialTime": 12562, "trial_type": "mouselab-mdp", "trial_index": 32, "time_elapsed": 1476495, "internal_node_id": "0.0-4.0-1.0-5.0"}}, {"uniqueid": "w22931106:a26026661", "current_trial": 33, "dateTime": 1664556878451, "trialdata": {"revealed_states": [], "num_clicks_accrued": [0, 0, 0, 0, 0, 0, 0, 0, 0, 0, 0, 0, 0], "stateRewards": ["", 4, -4, 48, -48, 4, -4, 24, -24, 4, 8, -24, -48], "withholdReward": true, "trial_id": "mdp_433630527224", "block": "test1", "trialIndex": 14, "score": -7, "costs": 0, "simulationMode": [null, null, null], "rewards": [4, 8, -24], "path": ["0", "0", "9", "10", "11"], "rt": [624, 564, 127], "actions": ["left", "left", "up"], "actionTimes": [2491, 3569, 4216], "queries": {"click": {"state": {"target": [], "time": []}, "edge": {"target": [], "time": []}}, "mouseover": {"state": {"target": [], "time": []}, "edge": {"target": [], "time": []}}, "mouseout": {"state": {"target": ["6", "6", "5", "0"], "time": [1053, 1287, 1487, 1969]}, "edge": {"target": [], "time": []}}}, "displayed_time": "10.87", "trialTime": 11330, "trial_type": "mouselab-mdp", "trial_index": 33, "time_elapsed": 1488006, "internal_node_id": "0.0-4.0-1.0-6.0"}}, {"uniqueid": "w22931106:a26026661", "current_trial": 34, "dateTime": 1664556889595, "trialdata": {"revealed_states": [], "num_clicks_accrued": [0, 0, 0, 0, 0, 0, 0, 0, 0, 0, 0, 0, 0], "stateRewards": ["", 2, -8, -24, 48, 4, -8, -24, -24, 2, 8, -24, 24], "withholdReward": true, "trial_id": "mdp_480787552818", "block": "test1", "trialIndex": 15, "score": -25, "costs": 0, "simulationMode": [null, null, null], "rewards": [2, -8, -24], "path": ["0", "0", "1", "2", "3"], "rt": [576, 124, 111], "actions": ["up", "up", "right"], "actionTimes": [2079, 2722, 3359], "queries": {"click": {"state": {"target": [], "time": []}, "edge": {"target": [], "time": []}}, "mouseover": {"state": {"target": ["1"], "time": [1729]}, "edge": {"target": [], "time": []}}, "mouseout": {"state": {"target": ["0", "0", "0", "1"], "time": [782, 1079, 1703, 4414]}, "edge": {"target": [], "time": []}}}, "displayed_time": "10.50", "trialTime": 10968, "trial_type": "mouselab-mdp", "trial_index": 34, "time_elapsed": 1499150, "internal_node_id": "0.0-4.0-1.0-7.0"}}, {"uniqueid": "w22931106:a26026661", "current_trial": 35, "dateTime": 1664556901461, "trialdata": {"revealed_states": [], "num_clicks_accrued": [0, 0, 0, 0, 0, 0, 0, 0, 0, 0, 0, 0, 0], "stateRewards": ["", -4, -4, 48, 24, -4, -4, -24, -48, -4, 4, 48, -24], "withholdReward": true, "trial_id": "mdp_896503755738", "block": "test1", "trialIndex": 16, "score": 21, "costs": 0, "simulationMode": [null, null, null], "rewards": [-4, -4, 24], "path": ["0", "0", "1", "2", "4"], "rt": [512, 6, 98], "actions": ["up", "up", "left"], "actionTimes": [2712, 3245, 3866], "queries": {"click": {"state": {"target": [], "time": []}, "edge": {"target": [], "time": []}}, "mouseover": {"state": {"target": [], "time": []}, "edge": {"target": [], "time": []}}, "mouseout": {"state": {"target": ["5", "0", "0", "5"], "time": [1131, 2348, 5299, 8686]}, "edge": {"target": [], "time": []}}}, "displayed_time": "11.20", "trialTime": 11703, "trial_type": "mouselab-mdp", "trial_index": 35, "time_elapsed": 1511016, "internal_node_id": "0.0-4.0-1.0-8.0"}}, {"uniqueid": "w22931106:a26026661", "current_trial": 36, "dateTime": 1664556911209, "trialdata": {"revealed_states": [], "num_clicks_accrued": [0, 0, 0, 0, 0, 0, 0, 0, 0, 0, 0, 0, 0], "stateRewards": ["", -2, -8, 24, -24, 4, -8, 48, 48, -4, -8, -24, -48], "withholdReward": true, "trial_id": "mdp_286767261523", "block": "test1", "trialIndex": 17, "score": -29, "costs": 0, "simulationMode": [null, null, null], "rewards": [-2, -8, -24], "path": ["0", "0", "1", "2", "4"], "rt": [570, 2, 839], "actions": ["up", "up", "left"], "actionTimes": [1558, 2080, 3451], "queries": {"click": {"state": {"target": [], "time": []}, "edge": {"target": [], "time": []}}, "mouseover": {"state": {"target": ["1"], "time": [1258]}, "edge": {"target": [], "time": []}}, "mouseout": {"state": {"target": ["5", "5", "0", "1", "5"], "time": [242, 642, 1243, 5210, 9326]}, "edge": {"target": [], "time": []}}}, "displayed_time": "8.99", "trialTime": 9561, "trial_type": "mouselab-mdp", "trial_index": 36, "time_elapsed": 1520763, "internal_node_id": "0.0-4.0-1.0-9.0"}}, {"uniqueid": "w22931106:a26026661", "current_trial": 37, "dateTime": 1664556922164, "trialdata": {"revealed_states": [], "num_clicks_accrued": [0, 0, 0, 0, 0, 0, 0, 0, 0, 0, 0, 0, 0], "stateRewards": ["", -4, 4, -24, -24, -4, -8, 24, 48, 4, -4, 24, 48], "withholdReward": false, "trial_id": "mdp_175395325183", "block": "test1", "trialIndex": 18, "score": 41, "costs": 0, "simulationMode": [null, null, null], "rewards": [-4, -8, 48], "path": ["0", "0", "5", "6", "8"], "rt": [794, 53, 28], "actions": ["right", "right", "down"], "actionTimes": [1581, 2159, 2703], "queries": {"click": {"state": {"target": [], "time": []}, "edge": {"target": [], "time": []}}, "mouseover": {"state": {"target": ["1"], "time": [971]}, "edge": {"target": [], "time": []}}, "mouseout": {"state": {"target": ["1", "7"], "time": [1354, 3873]}, "edge": {"target": [], "time": []}}}, "displayed_time": "9.79", "trialTime": 10780, "trial_type": "mouselab-mdp", "trial_index": 37, "time_elapsed": 1531719, "internal_node_id": "0.0-4.0-1.0-10.0"}}, {"uniqueid": "w22931106:a26026661", "current_trial": 38, "dateTime": 1664556933080, "trialdata": {"revealed_states": [], "num_clicks_accrued": [0, 0, 0, 0, 0, 0, 0, 0, 0, 0, 0, 0, 0], "stateRewards": ["", 2, -8, 48, -24, 2, -4, 24, 48, 4, -4, 48, -24], "withholdReward": true, "trial_id": "mdp_656500928756", "block": "test1", "trialIndex": 19, "score": 47, "costs": 0, "simulationMode": [null, null, null], "rewards": [2, -8, 48], "path": ["0", "0", "1", "2", "3"], "rt": [591, 108, 48], "actions": ["up", "up", "right"], "actionTimes": [1802, 2437, 3010], "queries": {"click": {"state": {"target": [], "time": []}, "edge": {"target": [], "time": []}}, "mouseover": {"state": {"target": ["1"], "time": [1475]}, "edge": {"target": [], "time": []}}, "mouseout": {"state": {"target": ["0", "1", "1"], "time": [1459, 4027, 6126]}, "edge": {"target": [], "time": []}}}, "displayed_time": "10.21", "trialTime": 10750, "trial_type": "mouselab-mdp", "trial_index": 38, "time_elapsed": 1542635, "internal_node_id": "0.0-4.0-1.0-11.0"}}, {"uniqueid": "w22931106:a26026661", "current_trial": 39, "dateTime": 1664556943995, "trialdata": {"revealed_states": [], "num_clicks_accrued": [0, 0, 0, 0, 0, 0, 0, 0, 0, 0, 0, 0, 0], "stateRewards": ["", -2, 8, 48, 48, 2, 4, -48, 24, -4, -8, 48, 24], "withholdReward": false, "trial_id": "mdp_572910394648", "block": "test1", "trialIndex": 20, "score": 41, "costs": 0, "simulationMode": [null, null, null], "rewards": [-4, -8, 48], "path": ["0", "0", "9", "10", "11"], "rt": [687, 571, 23], "actions": ["left", "left", "up"], "actionTimes": [1884, 2969, 3521], "queries": {"click": {"state": {"target": [], "time": []}, "edge": {"target": [], "time": []}}, "mouseover": {"state": {"target": ["1"], "time": [1461]}, "edge": {"target": [], "time": []}}, "mouseout": {"state": {"target": ["0", "1", "1"], "time": [1428, 1479, 4781]}, "edge": {"target": [], "time": []}}}, "displayed_time": "10.20", "trialTime": 10719, "trial_type": "mouselab-mdp", "trial_index": 39, "time_elapsed": 1553550, "internal_node_id": "0.0-4.0-1.0-12.0"}}, {"uniqueid": "w22931106:a26026661", "current_trial": 40, "dateTime": 1664556953521, "trialdata": {"revealed_states": [], "num_clicks_accrued": [0, 0, 0, 0, 0, 0, 0, 0, 0, 0, 0, 0, 0], "stateRewards": ["", -4, 8, 24, -24, -2, 4, -24, 48, -2, 8, -48, -24], "withholdReward": true, "trial_id": "mdp_799359103169", "block": "test1", "trialIndex": 21, "score": -17, "costs": 0, "simulationMode": [null, null, null], "rewards": [-2, 4, -24], "path": ["0", "0", "5", "6", "7"], "rt": [1062, 562, 379], "actions": ["right", "right", "up"], "actionTimes": [2904, 3988, 4886], "queries": {"click": {"state": {"target": [], "time": []}, "edge": {"target": [], "time": []}}, "mouseover": {"state": {"target": [], "time": []}, "edge": {"target": [], "time": []}}, "mouseout": {"state": {"target": ["0"], "time": [6940]}, "edge": {"target": [], "time": []}}}, "displayed_time": "8.84", "trialTime": 9356, "trial_type": "mouselab-mdp", "trial_index": 40, "time_elapsed": 1563075, "internal_node_id": "0.0-4.0-1.0-13.0"}}, {"uniqueid": "w22931106:a26026661", "current_trial": 41, "dateTime": 1664556964442, "trialdata": {"revealed_states": [], "num_clicks_accrued": [0, 0, 0, 0, 0, 0, 0, 0, 0, 0, 0, 0, 0], "stateRewards": ["", -2, -4, -48, 48, -4, 4, -48, 24, -4, -8, 24, 48], "withholdReward": false, "trial_id": "mdp_264482284450", "block": "test1", "trialIndex": 22, "score": 47, "costs": 0, "simulationMode": [null, null, null], "rewards": [-2, -4, 48], "path": ["0", "0", "1", "2", "4"], "rt": [579, 58, 92], "actions": ["up", "up", "left"], "actionTimes": [1842, 2426, 3044], "queries": {"click": {"state": {"target": [], "time": []}, "edge": {"target": [], "time": []}}, "mouseover": {"state": {"target": ["1"], "time": [1501]}, "edge": {"target": [], "time": []}}, "mouseout": {"state": {"target": ["9", "9", "0", "1", "2", "2", "1"], "time": [116, 149, 933, 1519, 4168, 5149, 5383]}, "edge": {"target": [], "time": []}}}, "displayed_time": "10.26", "trialTime": 10688, "trial_type": "mouselab-mdp", "trial_index": 41, "time_elapsed": 1573997, "internal_node_id": "0.0-4.0-1.0-14.0"}}, {"uniqueid": "w22931106:a26026661", "current_trial": 42, "dateTime": 1664556976906, "trialdata": {"revealed_states": [], "num_clicks_accrued": [0, 0, 0, 0, 0, 0, 0, 0, 0, 0, 0, 0, 0], "stateRewards": ["", -2, 8, -48, 48, 4, -8, -48, 48, 4, -4, -24, 48], "withholdReward": true, "trial_id": "mdp_144739116828", "block": "test1", "trialIndex": 23, "score": -37, "costs": 0, "simulationMode": [null, null, null], "rewards": [-2, 8, -48], "path": ["0", "0", "1", "2", "3"], "rt": [671, 833, 46], "actions": ["up", "up", "right"], "actionTimes": [3355, 4704, 5268], "queries": {"click": {"state": {"target": [], "time": []}, "edge": {"target": [], "time": []}}, "mouseover": {"state": {"target": [], "time": []}, "edge": {"target": [], "time": []}}, "mouseout": {"state": {"target": ["3", "2", "0"], "time": [402, 1168, 2436]}, "edge": {"target": [], "time": []}}}, "displayed_time": "11.68", "trialTime": 12305, "trial_type": "mouselab-mdp", "trial_index": 42, "time_elapsed": 1586460, "internal_node_id": "0.0-4.0-1.0-15.0"}}, {"uniqueid": "w22931106:a26026661", "current_trial": 43, "dateTime": 1664556987163, "trialdata": {"revealed_states": [], "num_clicks_accrued": [0, 0, 0, 0, 0, 0, 0, 0, 0, 0, 0, 0, 0], "stateRewards": ["", -2, 8, -24, 24, -4, -8, -24, 48, -2, -8, -48, 48], "withholdReward": false, "trial_id": "mdp_238332601315", "block": "test1", "trialIndex": 24, "score": 41, "costs": 0, "simulationMode": [null, null, null], "rewards": [-4, -8, 48], "path": ["0", "0", "5", "6", "8"], "rt": [478, 589, 105], "actions": ["right", "right", "down"], "actionTimes": [1643, 2748, 3379], "queries": {"click": {"state": {"target": [], "time": []}, "edge": {"target": [], "time": []}}, "mouseover": {"state": {"target": [], "time": []}, "edge": {"target": [], "time": []}}, "mouseout": {"state": {"target": ["5", "0", "1"], "time": [356, 540, 889]}, "edge": {"target": [], "time": []}}}, "displayed_time": "9.16", "trialTime": 10065, "trial_type": "mouselab-mdp", "trial_index": 43, "time_elapsed": 1596718, "internal_node_id": "0.0-4.0-1.0-16.0"}}, {"uniqueid": "w22931106:a26026661", "current_trial": 44, "dateTime": 1664556996563, "trialdata": {"revealed_states": [], "num_clicks_accrued": [0, 0, 0, 0, 0, 0, 0, 0, 0, 0, 0, 0, 0], "stateRewards": ["", 2, 4, -48, 24, -4, 4, -24, 48, -2, -8, -48, 48], "withholdReward": false, "trial_id": "mdp_424193661731", "block": "test1", "trialIndex": 25, "score": 43, "costs": 0, "simulationMode": [null, null, null], "rewards": [-2, -8, 48], "path": ["0", "0", "9", "10", "12"], "rt": [698, 106, 157], "actions": ["left", "left", "down"], "actionTimes": [1357, 1983, 2669], "queries": {"click": {"state": {"target": [], "time": []}, "edge": {"target": [], "time": []}}, "mouseover": {"state": {"target": ["1"], "time": [793]}, "edge": {"target": [], "time": []}}, "mouseout": {"state": {"target": ["0", "1"], "time": [307, 808]}, "edge": {"target": [], "time": []}}}, "displayed_time": "8.66", "trialTime": 9185, "trial_type": "mouselab-mdp", "trial_index": 44, "time_elapsed": 1606118, "internal_node_id": "0.0-4.0-1.0-17.0"}}, {"uniqueid": "w22931106:a26026661", "current_trial": 45, "dateTime": 1664557008935, "trialdata": {"revealed_states": [], "num_clicks_accrued": [0, 0, 0, 0, 0, 0, 0, 0, 0, 0, 0, 0, 0], "stateRewards": ["", 2, 4, -48, -24, 2, 8, 24, 48, -2, 4, 48, -48], "withholdReward": true, "trial_id": "mdp_551894842204", "block": "test1", "trialIndex": 26, "score": 55, "costs": 0, "simulationMode": [null, null, null], "rewards": [-2, 4, 48], "path": ["0", "0", "9", "10", "11"], "rt": [647, 65, 100], "actions": ["left", "left", "up"], "actionTimes": [2879, 3467, 4085], "queries": {"click": {"state": {"target": [], "time": []}, "edge": {"target": [], "time": []}}, "mouseover": {"state": {"target": [], "time": []}, "edge": {"target": [], "time": []}}, "mouseout": {"state": {"target": ["4", "6", "0"], "time": [1399, 1465, 5401]}, "edge": {"target": [], "time": []}}}, "displayed_time": "11.23", "trialTime": 12148, "trial_type": "mouselab-mdp", "trial_index": 45, "time_elapsed": 1618490, "internal_node_id": "0.0-4.0-1.0-18.0"}}, {"uniqueid": "w22931106:a26026661", "current_trial": 46, "dateTime": 1664557020530, "trialdata": {"revealed_states": [], "num_clicks_accrued": [0, 0, 0, 0, 0, 0, 0, 0, 0, 0, 0, 0, 0], "stateRewards": ["", 2, 8, 24, -48, 4, 8, 24, 24, 4, -8, 48, 48], "withholdReward": true, "trial_id": "mdp_646103824875", "block": "test1", "trialIndex": 27, "score": 41, "costs": 0, "simulationMode": [null, null, null], "rewards": [4, 8, 24], "path": ["0", "0", "5", "6", "7"], "rt": [588, 659, 149], "actions": ["right", "right", "up"], "actionTimes": [2272, 3457, 4130], "queries": {"click": {"state": {"target": [], "time": []}, "edge": {"target": [], "time": []}}, "mouseover": {"state": {"target": [], "time": []}, "edge": {"target": [], "time": []}}, "mouseout": {"state": {"target": ["1", "1", "1"], "time": [1261, 5329, 10844]}, "edge": {"target": [], "time": []}}}, "displayed_time": "10.69", "trialTime": 11391, "trial_type": "mouselab-mdp", "trial_index": 46, "time_elapsed": 1630085, "internal_node_id": "0.0-4.0-1.0-19.0"}}, {"uniqueid": "w22931106:a26026661", "current_trial": 47, "dateTime": 1664557029928, "trialdata": {"revealed_states": [], "num_clicks_accrued": [0, 0, 0, 0, 0, 0, 0, 0, 0, 0, 0, 0, 0], "stateRewards": ["", -2, -4, -24, -48, -4, -8, -48, 24, -4, -8, -24, -48], "withholdReward": true, "trial_id": "mdp_475782454549", "block": "test1", "trialIndex": 28, "score": -49, "costs": 0, "simulationMode": [null, null, null], "rewards": [-2, -4, -48], "path": ["0", "0", "1", "2", "4"], "rt": [457, 57, 100], "actions": ["up", "up", "left"], "actionTimes": [1217, 1792, 2418], "queries": {"click": {"state": {"target": [], "time": []}, "edge": {"target": [], "time": []}}, "mouseover": {"state": {"target": [], "time": []}, "edge": {"target": [], "time": []}}, "mouseout": {"state": {"target": ["0", "0"], "time": [851, 8467]}, "edge": {"target": [], "time": []}}}, "displayed_time": "8.79", "trialTime": 9211, "trial_type": "mouselab-mdp", "trial_index": 47, "time_elapsed": 1639483, "internal_node_id": "0.0-4.0-1.0-20.0"}}, {"uniqueid": "w22931106:a26026661", "current_trial": 48, "dateTime": 1664557041401, "trialdata": {"revealed_states": [], "num_clicks_accrued": [0, 0, 0, 0, 0, 0, 0, 0, 0, 0, 0, 0, 0], "stateRewards": ["", 4, -8, 24, 48, -2, -4, -48, 24, 2, 4, -48, -24], "withholdReward": true, "trial_id": "mdp_749974461966", "block": "test1", "trialIndex": 29, "score": 25, "costs": 0, "simulationMode": [null, null, null], "rewards": [4, -8, 24], "path": ["0", "0", "1", "2", "3"], "rt": [645, 584, 64], "actions": ["up", "up", "right"], "actionTimes": [2333, 3435, 4012], "queries": {"click": {"state": {"target": [], "time": []}, "edge": {"target": [], "time": []}}, "mouseover": {"state": {"target": ["1"], "time": [1963]}, "edge": {"target": [], "time": []}}, "mouseout": {"state": {"target": ["0", "1", "0", "0"], "time": [1431, 4733, 4948, 5081]}, "edge": {"target": [], "time": []}}}, "displayed_time": "10.69", "trialTime": 11214, "trial_type": "mouselab-mdp", "trial_index": 48, "time_elapsed": 1650956, "internal_node_id": "0.0-4.0-1.0-21.0"}}, {"uniqueid": "w22931106:a26026661", "current_trial": 49, "dateTime": 1664557051837, "trialdata": {"revealed_states": [], "num_clicks_accrued": [0, 0, 0, 0, 0, 0, 0, 0, 0, 0, 0, 0, 0], "stateRewards": ["", 4, -8, 48, -24, -4, 4, 24, 24, -2, -4, 24, 24], "withholdReward": true, "trial_id": "mdp_542168715839", "block": "test1", "trialIndex": 30, "score": 23, "costs": 0, "simulationMode": [null, null, null], "rewards": [-2, -4, 24], "path": ["0", "0", "9", "10", "11"], "rt": [713, 486, 96], "actions": ["left", "left", "up"], "actionTimes": [1390, 2394, 3005], "queries": {"click": {"state": {"target": [], "time": []}, "edge": {"target": [], "time": []}}, "mouseover": {"state": {"target": [], "time": []}, "edge": {"target": [], "time": []}}, "mouseout": {"state": {"target": ["0", "0", "5", "5"], "time": [923, 4505, 5239, 5642]}, "edge": {"target": [], "time": []}}}, "displayed_time": "9.68", "trialTime": 10243, "trial_type": "mouselab-mdp", "trial_index": 49, "time_elapsed": 1661391, "internal_node_id": "0.0-4.0-1.0-22.0"}}, {"uniqueid": "w22931106:a26026661", "current_trial": 50, "dateTime": 1664557062312, "trialdata": {"revealed_states": [], "num_clicks_accrued": [0, 0, 0, 0, 0, 0, 0, 0, 0, 0, 0, 0, 0], "stateRewards": ["", -4, 8, 24, 24, -2, 8, -48, 48, 4, -8, 48, -48], "withholdReward": false, "trial_id": "mdp_295249220524", "block": "test1", "trialIndex": 31, "score": -37, "costs": 0, "simulationMode": [null, null, null], "rewards": [-2, 8, -48], "path": ["0", "0", "5", "6", "7"], "rt": [482, 491, 162], "actions": ["right", "right", "up"], "actionTimes": [1593, 2600, 3287], "queries": {"click": {"state": {"target": [], "time": []}, "edge": {"target": [], "time": []}}, "mouseover": {"state": {"target": [], "time": []}, "edge": {"target": [], "time": []}}, "mouseout": {"state": {"target": [], "time": []}, "edge": {"target": [], "time": []}}}, "displayed_time": "9.11", "trialTime": 10269, "trial_type": "mouselab-mdp", "trial_index": 50, "time_elapsed": 1671867, "internal_node_id": "0.0-4.0-1.0-23.0"}}, {"uniqueid": "w22931106:a26026661", "current_trial": 51, "dateTime": 1664557073308, "trialdata": {"revealed_states": [], "num_clicks_accrued": [0, 0, 0, 0, 0, 0, 0, 0, 0, 0, 0, 0, 0], "stateRewards": ["", 2, -8, 24, -48, 2, 4, 48, -48, -2, -8, -48, 48], "withholdReward": true, "trial_id": "mdp_629420544881", "block": "test1", "trialIndex": 32, "score": 59, "costs": 0, "simulationMode": [null, null, null], "rewards": [2, 4, 48], "path": ["0", "0", "5", "6", "7"], "rt": [463, 117, 164], "actions": ["right", "right", "up"], "actionTimes": [2101, 2742, 3423], "queries": {"click": {"state": {"target": [], "time": []}, "edge": {"target": [], "time": []}}, "mouseover": {"state": {"target": [], "time": []}, "edge": {"target": [], "time": []}}, "mouseout": {"state": {"target": ["0", "0"], "time": [1205, 4407]}, "edge": {"target": [], "time": []}}}, "displayed_time": "9.64", "trialTime": 10765, "trial_type": "mouselab-mdp", "trial_index": 51, "time_elapsed": 1682863, "internal_node_id": "0.0-4.0-1.0-24.0"}}, {"uniqueid": "w22931106:a26026661", "current_trial": 52, "dateTime": 1664557083974, "trialdata": {"revealed_states": [], "num_clicks_accrued": [0, 0, 0, 0, 0, 0, 0, 0, 0, 0, 0, 0, 0], "stateRewards": ["", 2, -4, 24, 24, 2, 4, 24, 24, -4, 8, 24, 48], "withholdReward": true, "trial_id": "mdp_268430387178", "block": "test1", "trialIndex": 33, "score": 35, "costs": 0, "simulationMode": [null, null, null], "rewards": [2, 4, 24], "path": ["0", "0", "5", "6", "8"], "rt": [710, 162, 71], "actions": ["right", "right", "down"], "actionTimes": [1485, 2166, 2754], "queries": {"click": {"state": {"target": [], "time": []}, "edge": {"target": [], "time": []}}, "mouseover": {"state": {"target": ["4"], "time": [1182]}, "edge": {"target": [], "time": []}}, "mouseout": {"state": {"target": ["0", "4", "4", "1", "5"], "time": [1150, 1200, 9199, 9264, 9365]}, "edge": {"target": [], "time": []}}}, "displayed_time": "9.78", "trialTime": 10456, "trial_type": "mouselab-mdp", "trial_index": 52, "time_elapsed": 1693529, "internal_node_id": "0.0-4.0-1.0-25.0"}}, {"uniqueid": "w22931106:a26026661", "current_trial": 53, "dateTime": 1664557094725, "trialdata": {"revealed_states": [], "num_clicks_accrued": [0, 0, 0, 0, 0, 0, 0, 0, 0, 0, 0, 0, 0], "stateRewards": ["", -4, 8, 48, -48, 2, -4, 24, -24, -2, 4, -24, -24], "withholdReward": false, "trial_id": "mdp_804988042722", "block": "test1", "trialIndex": 34, "score": -17, "costs": 0, "simulationMode": [null, null, null], "rewards": [-2, 4, -24], "path": ["0", "0", "9", "10", "12"], "rt": [779, 183, 680], "actions": ["left", "left", "down"], "actionTimes": [1631, 2335, 3532], "queries": {"click": {"state": {"target": [], "time": []}, "edge": {"target": [], "time": []}}, "mouseover": {"state": {"target": ["4"], "time": [1219]}, "edge": {"target": [], "time": []}}, "mouseout": {"state": {"target": ["0", "0", "4", "2"], "time": [12, 1185, 1236, 4634]}, "edge": {"target": [], "time": []}}}, "displayed_time": "9.85", "trialTime": 10542, "trial_type": "mouselab-mdp", "trial_index": 53, "time_elapsed": 1704280, "internal_node_id": "0.0-4.0-1.0-26.0"}}, {"uniqueid": "w22931106:a26026661", "current_trial": 54, "dateTime": 1664557106540, "trialdata": {"revealed_states": [], "num_clicks_accrued": [0, 0, 0, 0, 0, 0, 0, 0, 0, 0, 0, 0, 0], "stateRewards": ["", 2, 4, 48, 48, -2, 4, 48, -24, -4, 8, -48, 48], "withholdReward": true, "trial_id": "mdp_407586865939", "block": "test1", "trialIndex": 35, "score": 57, "costs": 0, "simulationMode": [null, null, null], "rewards": [-4, 8, 48], "path": ["0", "0", "9", "10", "12"], "rt": [590, 243, 767], "actions": ["left", "left", "down"], "actionTimes": [2578, 3341, 4631], "queries": {"click": {"state": {"target": [], "time": []}, "edge": {"target": [], "time": []}}, "mouseover": {"state": {"target": [], "time": []}, "edge": {"target": [], "time": []}}, "mouseout": {"state": {"target": ["9", "0", "0"], "time": [1580, 2145, 5698]}, "edge": {"target": [], "time": []}}}, "displayed_time": "10.99", "trialTime": 11537, "trial_type": "mouselab-mdp", "trial_index": 54, "time_elapsed": 1716095, "internal_node_id": "0.0-4.0-1.0-27.0"}}, {"uniqueid": "w22931106:a26026661", "current_trial": 55, "dateTime": 1664557117285, "trialdata": {"revealed_states": [], "num_clicks_accrued": [0, 0, 0, 0, 0, 0, 0, 0, 0, 0, 0, 0, 0], "stateRewards": ["", 2, 4, 48, 24, -4, 8, 48, 48, 2, -4, -48, -24], "withholdReward": true, "trial_id": "mdp_822099887466", "block": "test1", "trialIndex": 36, "score": -21, "costs": 0, "simulationMode": [null, null, null], "rewards": [2, -4, -24], "path": ["0", "0", "9", "10", "12"], "rt": [523, 101, 31], "actions": ["left", "left", "down"], "actionTimes": [1458, 2080, 2626], "queries": {"click": {"state": {"target": [], "time": []}, "edge": {"target": [], "time": []}}, "mouseover": {"state": {"target": [], "time": []}, "edge": {"target": [], "time": []}}, "mouseout": {"state": {"target": ["0", "0", "0", "0"], "time": [1062, 3328, 3428, 3559]}, "edge": {"target": [], "time": []}}}, "displayed_time": "9.93", "trialTime": 10513, "trial_type": "mouselab-mdp", "trial_index": 55, "time_elapsed": 1726839, "internal_node_id": "0.0-4.0-1.0-28.0"}}, {"uniqueid": "w22931106:a26026661", "current_trial": 56, "dateTime": 1664557128186, "trialdata": {"revealed_states": [], "num_clicks_accrued": [0, 0, 0, 0, 0, 0, 0, 0, 0, 0, 0, 0, 0], "stateRewards": ["", 2, -4, 48, -48, -2, 8, -48, 24, -2, -8, 48, 48], "withholdReward": true, "trial_id": "mdp_949326095747", "block": "test1", "trialIndex": 37, "score": 43, "costs": 0, "simulationMode": [null, null, null], "rewards": [-2, -8, 48], "path": ["0", "0", "9", "10", "11"], "rt": [720, 384, 86], "actions": ["left", "left", "up"], "actionTimes": [1466, 2365, 2967], "queries": {"click": {"state": {"target": [], "time": []}, "edge": {"target": [], "time": []}}, "mouseover": {"state": {"target": [], "time": []}, "edge": {"target": [], "time": []}}, "mouseout": {"state": {"target": ["0", "0", "1"], "time": [979, 4198, 4913]}, "edge": {"target": [], "time": []}}}, "displayed_time": "9.75", "trialTime": 10683, "trial_type": "mouselab-mdp", "trial_index": 56, "time_elapsed": 1737741, "internal_node_id": "0.0-4.0-1.0-29.0"}}, {"uniqueid": "w22931106:a26026661", "current_trial": 57, "dateTime": 1664557133296, "trialdata": {"rt": 5098, "stimulus": "<h1> End of block! </h1>\n\nYou have reached the end of the block 1/4. If you need a short break, feel free to take one now before moving on.\n\n<br><br>\nIn the next block, you will complete another 30 rounds of this game.\n\n<br><br>\n<div style='text-align: center;'>Press <code>space</code> to begin.</div>\n<br><br>\n<div style='text-align: center;'>(If the experiment doesn't continue, try clicking on the text and then pressing <code>space</code>.)</div>", "response": " ", "trial_id": "mdp_ready_2", "trial_type": "html-keyboard-response", "trial_index": 57, "time_elapsed": 1742851, "internal_node_id": "0.0-4.0-2.0"}}, {"uniqueid": "w22931106:a26026661", "current_trial": 58, "dateTime": 1664557143780, "trialdata": {"revealed_states": [], "num_clicks_accrued": [0, 0, 0, 0, 0, 0, 0, 0, 0, 0, 0, 0, 0], "stateRewards": ["", 2, 8, -24, -48, -4, 8, -48, -48, -2, -8, -24, -24], "withholdReward": true, "trial_id": "mdp_978177451072", "block": "test2", "trialIndex": 38, "score": -29, "costs": 0, "simulationMode": [null, null, null], "rewards": [-2, -8, -24], "path": ["0", "0", "9", "10", "11"], "rt": [803, 332, 18], "actions": ["left", "left", "up"], "actionTimes": [1574, 2433, 2970], "queries": {"click": {"state": {"target": [], "time": []}, "edge": {"target": [], "time": []}}, "mouseover": {"state": {"target": ["7"], "time": [1063]}, "edge": {"target": [], "time": []}}, "mouseout": {"state": {"target": ["5", "0", "7", "7", "5"], "time": [413, 480, 1081, 9664, 9797]}, "edge": {"target": [], "time": []}}}, "displayed_time": "9.77", "trialTime": 10264, "trial_type": "mouselab-mdp", "trial_index": 58, "time_elapsed": 1753335, "internal_node_id": "0.0-4.0-3.0-0.0"}}, {"uniqueid": "w22931106:a26026661", "current_trial": 59, "dateTime": 1664557156316, "trialdata": {"revealed_states": [], "num_clicks_accrued": [0, 0, 0, 0, 0, 0, 0, 0, 0, 0, 0, 0, 0], "stateRewards": ["", -4, 4, -48, -48, -4, 8, -24, 24, 2, -4, 48, 48], "withholdReward": false, "trial_id": "mdp_821566905048", "block": "test2", "trialIndex": 39, "score": -43, "costs": 0, "simulationMode": [null, null, null], "rewards": [-4, 4, -48], "path": ["0", "0", "1", "2", "4"], "rt": [767, 709, 141], "actions": ["up", "up", "left"], "actionTimes": [2202, 3431, 4097], "queries": {"click": {"state": {"target": [], "time": []}, "edge": {"target": [], "time": []}}, "mouseover": {"state": {"target": ["1"], "time": [1819]}, "edge": {"target": [], "time": []}}, "mouseout": {"state": {"target": ["0", "0", "1", "7", "7"], "time": [520, 1619, 5338, 7954, 8505]}, "edge": {"target": [], "time": []}}}, "displayed_time": "11.44", "trialTime": 12323, "trial_type": "mouselab-mdp", "trial_index": 59, "time_elapsed": 1765871, "internal_node_id": "0.0-4.0-3.0-1.0"}}, {"uniqueid": "w22931106:a26026661", "current_trial": 60, "dateTime": 1664557166846, "trialdata": {"revealed_states": [], "num_clicks_accrued": [0, 0, 0, 0, 0, 0, 0, 0, 0, 0, 0, 0, 0], "stateRewards": ["", -4, 8, -48, -48, -4, 4, -24, -48, 2, -4, -24, 24], "withholdReward": true, "trial_id": "mdp_183773275291", "block": "test2", "trialIndex": 40, "score": -39, "costs": 0, "simulationMode": [null, null, null], "rewards": [-4, 8, -48], "path": ["0", "0", "1", "2", "3"], "rt": [578, 35, 150], "actions": ["up", "up", "right"], "actionTimes": [1364, 1915, 2581], "queries": {"click": {"state": {"target": [], "time": []}, "edge": {"target": [], "time": []}}, "mouseover": {"state": {"target": [], "time": []}, "edge": {"target": [], "time": []}}, "mouseout": {"state": {"target": ["1", "0", "1"], "time": [245, 963, 5862]}, "edge": {"target": [], "time": []}}}, "displayed_time": "9.79", "trialTime": 10294, "trial_type": "mouselab-mdp", "trial_index": 60, "time_elapsed": 1776400, "internal_node_id": "0.0-4.0-3.0-2.0"}}, {"uniqueid": "w22931106:a26026661", "current_trial": 61, "dateTime": 1664557177577, "trialdata": {"revealed_states": [], "num_clicks_accrued": [0, 0, 0, 0, 0, 0, 0, 0, 0, 0, 0, 0, 0], "stateRewards": ["", 2, -4, -48, 24, -4, 4, 24, 24, 2, -8, -24, -48], "withholdReward": false, "trial_id": "mdp_807654778305", "block": "test2", "trialIndex": 41, "score": 26.75, "costs": -0.25, "simulationMode": [null, null, null], "rewards": [2, -4, 24], "path": ["0", "0", "1", "2", "4"], "rt": [1342, 127, 124], "actions": ["up", "up", "left"], "actionTimes": [1967, 2612, 3259], "queries": {"click": {"state": {"target": ["1"], "time": [1118]}, "edge": {"target": [], "time": []}}, "mouseover": {"state": {"target": ["1", "2"], "time": [965, 1650]}, "edge": {"target": [], "time": []}}, "mouseout": {"state": {"target": ["0", "1", "2"], "time": [38, 1633, 1668]}, "edge": {"target": [], "time": []}}}, "displayed_time": "9.63", "trialTime": 10464, "trial_type": "mouselab-mdp", "trial_index": 61, "time_elapsed": 1787132, "internal_node_id": "0.0-4.0-3.0-3.0"}}, {"uniqueid": "w22931106:a26026661", "current_trial": 62, "dateTime": 1664557188607, "trialdata": {"revealed_states": [], "num_clicks_accrued": [0, 0, 0, 0, 0, 0, 0, 0, 0, 0, 0, 0, 0], "stateRewards": ["", -2, -4, -48, 48, -4, 4, -48, 24, -4, -8, 24, 48], "withholdReward": false, "trial_id": "mdp_264482284450", "block": "test2", "trialIndex": 42, "score": -43.25, "costs": -0.25, "simulationMode": [null, null, null], "rewards": [-4, 4, -48], "path": ["0", "0", "5", "6", "7"], "rt": [2951, 628, 142], "actions": ["right", "right", "up"], "actionTimes": [3804, 4962, 5627], "queries": {"click": {"state": {"target": ["9"], "time": [1436]}, "edge": {"target": [], "time": []}}, "mouseover": {"state": {"target": ["9", "5", "3"], "time": [1199, 2165, 2848]}, "edge": {"target": [], "time": []}}, "mouseout": {"state": {"target": ["0", "9", "5", "3", "7"], "time": [614, 1682, 2814, 6549, 10583]}, "edge": {"target": [], "time": []}}}, "displayed_time": "9.85", "trialTime": 10793, "trial_type": "mouselab-mdp", "trial_index": 62, "time_elapsed": 1798162, "internal_node_id": "0.0-4.0-3.0-4.0"}}, {"uniqueid": "w22931106:a26026661", "current_trial": 63, "dateTime": 1664557199557, "trialdata": {"revealed_states": [], "num_clicks_accrued": [0, 0, 0, 0, 0, 0, 0, 0, 0, 0, 0, 0, 0], "stateRewards": ["", 2, 8, -48, 24, -4, 8, 48, -24, 2, 8, 24, 24], "withholdReward": true, "trial_id": "mdp_175372499314", "block": "test2", "trialIndex": 43, "score": 57, "costs": 0, "simulationMode": [null, null, null], "rewards": [-4, 8, 48], "path": ["0", "0", "5", "6", "7"], "rt": [859, 51, 31], "actions": ["right", "right", "up"], "actionTimes": [1990, 2564, 3126], "queries": {"click": {"state": {"target": [], "time": []}, "edge": {"target": [], "time": []}}, "mouseover": {"state": {"target": ["1"], "time": [1645]}, "edge": {"target": [], "time": []}}, "mouseout": {"state": {"target": ["5", "0", "1", "2", "2", "1", "0"], "time": [596, 759, 1662, 4561, 9860, 10077, 10561]}, "edge": {"target": [], "time": []}}}, "displayed_time": "10.13", "trialTime": 10705, "trial_type": "mouselab-mdp", "trial_index": 63, "time_elapsed": 1809112, "internal_node_id": "0.0-4.0-3.0-5.0"}}, {"uniqueid": "w22931106:a26026661", "current_trial": 64, "dateTime": 1664557208055, "trialdata": {"revealed_states": [], "num_clicks_accrued": [0, 0, 0, 0, 0, 0, 0, 0, 0, 0, 0, 0, 0], "stateRewards": ["", 4, -8, 24, 48, 2, -4, 48, 48, 4, -8, 48, 48], "withholdReward": true, "trial_id": "mdp_962498334245", "block": "test2", "trialIndex": 44, "score": 51, "costs": 0, "simulationMode": [null, null, null], "rewards": [2, -4, 48], "path": ["0", "0", "5", "6", "8"], "rt": [1463, 23, 477], "actions": ["right", "right", "down"], "actionTimes": [2104, 2662, 3667], "queries": {"click": {"state": {"target": [], "time": []}, "edge": {"target": [], "time": []}}, "mouseover": {"state": {"target": ["1", "2"], "time": [1372, 1393]}, "edge": {"target": [], "time": []}}, "mouseout": {"state": {"target": ["0", "1", "2", "4", "0", "5"], "time": [1340, 1389, 1412, 5672, 6026, 7486]}, "edge": {"target": [], "time": []}}}, "displayed_time": "7.64", "trialTime": 8231, "trial_type": "mouselab-mdp", "trial_index": 64, "time_elapsed": 1817610, "internal_node_id": "0.0-4.0-3.0-6.0"}}, {"uniqueid": "w22931106:a26026661", "current_trial": 65, "dateTime": 1664557220204, "trialdata": {"revealed_states": [], "num_clicks_accrued": [0, 0, 0, 0, 0, 0, 0, 0, 0, 0, 0, 0, 0], "stateRewards": ["", -4, -8, 24, 48, 2, -4, -24, 24, -4, 8, 48, 48], "withholdReward": true, "trial_id": "mdp_496672670022", "block": "test2", "trialIndex": 45, "score": 17, "costs": 0, "simulationMode": [null, null, null], "rewards": [-4, -8, 24], "path": ["0", "0", "1", "2", "3"], "rt": [966, 11, 48], "actions": ["up", "up", "right"], "actionTimes": [1535, 2072, 2641], "queries": {"click": {"state": {"target": [], "time": []}, "edge": {"target": [], "time": []}}, "mouseover": {"state": {"target": ["1", "2"], "time": [1242, 1277]}, "edge": {"target": [], "time": []}}, "mouseout": {"state": {"target": ["0", "1", "2", "1", "5", "0", "1"], "time": [173, 1259, 3258, 3946, 8693, 10527, 11176]}, "edge": {"target": [], "time": []}}}, "displayed_time": "9.57", "trialTime": 11935, "trial_type": "mouselab-mdp", "trial_index": 65, "time_elapsed": 1829759, "internal_node_id": "0.0-4.0-3.0-7.0"}}, {"uniqueid": "w22931106:a26026661", "current_trial": 66, "dateTime": 1664557229640, "trialdata": {"revealed_states": [], "num_clicks_accrued": [0, 0, 0, 0, 0, 0, 0, 0, 0, 0, 0, 0, 0], "stateRewards": ["", 4, 8, -24, 48, -2, -4, 24, -24, -2, 4, 24, 24], "withholdReward": true, "trial_id": "mdp_948713805479", "block": "test2", "trialIndex": 46, "score": 64.75, "costs": -0.25, "simulationMode": [null, null, null], "rewards": [4, 8, 48], "path": ["0", "0", "1", "2", "4"], "rt": [1281, 84, 20], "actions": ["up", "up", "left"], "actionTimes": [1890, 2491, 3027], "queries": {"click": {"state": {"target": ["1"], "time": [1094]}, "edge": {"target": [], "time": []}}, "mouseover": {"state": {"target": ["1"], "time": [971]}, "edge": {"target": [], "time": []}}, "mouseout": {"state": {"target": ["0", "1", "2", "5"], "time": [420, 1587, 3990, 4054]}, "edge": {"target": [], "time": []}}}, "displayed_time": "8.61", "trialTime": 9168, "trial_type": "mouselab-mdp", "trial_index": 66, "time_elapsed": 1839194, "internal_node_id": "0.0-4.0-3.0-8.0"}}, {"uniqueid": "w22931106:a26026661", "current_trial": 67, "dateTime": 1664557240175, "trialdata": {"revealed_states": [], "num_clicks_accrued": [0, 0, 0, 0, 0, 0, 0, 0, 0, 0, 0, 0, 0], "stateRewards": ["", 4, 4, 24, 24, 4, -4, 48, 48, 4, 4, 24, -48], "withholdReward": true, "trial_id": "mdp_454251689008", "block": "test2", "trialIndex": 47, "score": 36.75, "costs": -0.25, "simulationMode": [null, null, null], "rewards": [4, 4, 24], "path": ["0", "0", "9", "10", "11"], "rt": [1164, 85, 386], "actions": ["left", "left", "up"], "actionTimes": [1968, 2571, 3473], "queries": {"click": {"state": {"target": ["9"], "time": [1146]}, "edge": {"target": [], "time": []}}, "mouseover": {"state": {"target": ["9", "2"], "time": [868, 1651]}, "edge": {"target": [], "time": []}}, "mouseout": {"state": {"target": ["0", "9", "2", "2"], "time": [852, 1587, 1668, 9519]}, "edge": {"target": [], "time": []}}}, "displayed_time": "9.80", "trialTime": 10299, "trial_type": "mouselab-mdp", "trial_index": 67, "time_elapsed": 1849730, "internal_node_id": "0.0-4.0-3.0-9.0"}}, {"uniqueid": "w22931106:a26026661", "current_trial": 68, "dateTime": 1664557250959, "trialdata": {"revealed_states": [], "num_clicks_accrued": [0, 0, 0, 0, 0, 0, 0, 0, 0, 0, 0, 0, 0], "stateRewards": ["", 4, -8, -48, -24, 2, -8, -48, 48, -4, 8, 48, -48], "withholdReward": false, "trial_id": "mdp_605757196263", "block": "test2", "trialIndex": 48, "score": 46.75, "costs": -0.25, "simulationMode": [null, null, null], "rewards": [2, -8, 48], "path": ["0", "0", "5", "6", "8"], "rt": [1065, 39, 445], "actions": ["right", "right", "down"], "actionTimes": [1845, 2398, 3377], "queries": {"click": {"state": {"target": ["5"], "time": [1119]}, "edge": {"target": [], "time": []}}, "mouseover": {"state": {"target": ["5"], "time": [957]}, "edge": {"target": [], "time": []}}, "mouseout": {"state": {"target": ["1", "0", "5"], "time": [223, 909, 1557]}, "edge": {"target": [], "time": []}}}, "displayed_time": "9.78", "trialTime": 10522, "trial_type": "mouselab-mdp", "trial_index": 68, "time_elapsed": 1860513, "internal_node_id": "0.0-4.0-3.0-10.0"}}, {"uniqueid": "w22931106:a26026661", "current_trial": 69, "dateTime": 1664557262229, "trialdata": {"revealed_states": [], "num_clicks_accrued": [0, 0, 0, 0, 0, 0, 0, 0, 0, 0, 0, 0, 0], "stateRewards": ["", 4, 8, 24, 24, 2, -4, 48, -24, -4, 8, -24, 24], "withholdReward": true, "trial_id": "mdp_932292142091", "block": "test2", "trialIndex": 49, "score": 40.75, "costs": -0.25, "simulationMode": [null, null, null], "rewards": [4, 8, 24], "path": ["0", "0", "1", "2", "3"], "rt": [1821, 138, 28], "actions": ["up", "up", "right"], "actionTimes": [3345, 4015, 4569], "queries": {"click": {"state": {"target": ["9"], "time": [1896]}, "edge": {"target": [], "time": []}}, "mouseover": {"state": {"target": ["9", "1"], "time": [1774, 2572]}, "edge": {"target": [], "time": []}}, "mouseout": {"state": {"target": ["1", "5", "5", "9", "1", "3"], "time": [722, 756, 972, 2321, 3022, 5607]}, "edge": {"target": [], "time": []}}}, "displayed_time": "10.52", "trialTime": 11040, "trial_type": "mouselab-mdp", "trial_index": 69, "time_elapsed": 1871781, "internal_node_id": "0.0-4.0-3.0-11.0"}}, {"uniqueid": "w22931106:a26026661", "current_trial": 70, "dateTime": 1664557271527, "trialdata": {"revealed_states": [], "num_clicks_accrued": [0, 0, 0, 0, 0, 0, 0, 0, 0, 0, 0, 0, 0], "stateRewards": ["", 2, 4, -48, 24, -4, 4, -24, 48, -2, -8, -48, 48], "withholdReward": true, "trial_id": "mdp_424193661731", "block": "test2", "trialIndex": 50, "score": 34.75, "costs": -0.25, "simulationMode": [null, null, null], "rewards": [2, 4, 24], "path": ["0", "0", "1", "2", "4"], "rt": [1155, 77, 4], "actions": ["up", "up", "left"], "actionTimes": [1770, 2366, 2895], "queries": {"click": {"state": {"target": ["1"], "time": [1042]}, "edge": {"target": [], "time": []}}, "mouseover": {"state": {"target": ["1", "2"], "time": [855, 1439]}, "edge": {"target": [], "time": []}}, "mouseout": {"state": {"target": ["3", "1", "2", "5"], "time": [170, 1437, 1458, 8688]}, "edge": {"target": [], "time": []}}}, "displayed_time": "8.62", "trialTime": 9041, "trial_type": "mouselab-mdp", "trial_index": 70, "time_elapsed": 1881082, "internal_node_id": "0.0-4.0-3.0-12.0"}}, {"uniqueid": "w22931106:a26026661", "current_trial": 71, "dateTime": 1664557282603, "trialdata": {"revealed_states": [], "num_clicks_accrued": [0, 0, 0, 0, 0, 0, 0, 0, 0, 0, 0, 0, 0], "stateRewards": ["", -2, -4, -24, 48, -2, -8, -48, -24, 4, 8, 48, 24], "withholdReward": false, "trial_id": "mdp_625355871626", "block": "test2", "trialIndex": 51, "score": 40.75, "costs": -0.25, "simulationMode": [null, null, null], "rewards": [4, 8, 24], "path": ["0", "0", "9", "10", "12"], "rt": [1528, 13, 5], "actions": ["left", "left", "down"], "actionTimes": [2905, 3445, 3987], "queries": {"click": {"state": {"target": ["5"], "time": [1898]}, "edge": {"target": [], "time": []}}, "mouseover": {"state": {"target": ["5", "0"], "time": [1762, 2363]}, "edge": {"target": [], "time": []}}, "mouseout": {"state": {"target": ["0", "5", "0"], "time": [1446, 2346, 2496]}, "edge": {"target": [], "time": []}}}, "displayed_time": "10.38", "trialTime": 10825, "trial_type": "mouselab-mdp", "trial_index": 71, "time_elapsed": 1892158, "internal_node_id": "0.0-4.0-3.0-13.0"}}, {"uniqueid": "w22931106:a26026661", "current_trial": 72, "dateTime": 1664557293039, "trialdata": {"revealed_states": [], "num_clicks_accrued": [0, 0, 0, 0, 0, 0, 0, 0, 0, 0, 0, 0, 0], "stateRewards": ["", -2, 8, -48, 48, 4, -8, -48, 48, 4, -4, -24, 48], "withholdReward": true, "trial_id": "mdp_144739116828", "block": "test2", "trialIndex": 52, "score": -19.25, "costs": -0.25, "simulationMode": [null, null, null], "rewards": [4, -4, -24], "path": ["0", "0", "9", "10", "11"], "rt": [1441, 20, 73], "actions": ["left", "left", "up"], "actionTimes": [2207, 2754, 3357], "queries": {"click": {"state": {"target": ["1"], "time": [1088]}, "edge": {"target": [], "time": []}}, "mouseover": {"state": {"target": ["1", "0", "2"], "time": [893, 1731, 1870]}, "edge": {"target": [], "time": []}}, "mouseout": {"state": {"target": ["1", "0", "1", "2"], "time": [1699, 1780, 1866, 1887]}, "edge": {"target": [], "time": []}}}, "displayed_time": "9.77", "trialTime": 10178, "trial_type": "mouselab-mdp", "trial_index": 72, "time_elapsed": 1902593, "internal_node_id": "0.0-4.0-3.0-14.0"}}, {"uniqueid": "w22931106:a26026661", "current_trial": 73, "dateTime": 1664557304572, "trialdata": {"revealed_states": [], "num_clicks_accrued": [0, 0, 0, 0, 0, 0, 0, 0, 0, 0, 0, 0, 0], "stateRewards": ["", -2, 8, -48, 48, -4, -8, 24, 24, -2, -4, 48, -48], "withholdReward": true, "trial_id": "mdp_867247318592", "block": "test2", "trialIndex": 53, "score": -37, "costs": 0, "simulationMode": [null, null, null], "rewards": [-2, 8, -48], "path": ["0", "0", "1", "2", "3"], "rt": [995, 42, 779], "actions": ["up", "up", "right"], "actionTimes": [1577, 2135, 3439], "queries": {"click": {"state": {"target": [], "time": []}, "edge": {"target": [], "time": []}}, "mouseover": {"state": {"target": ["1"], "time": [1242]}, "edge": {"target": [], "time": []}}, "mouseout": {"state": {"target": ["0", "1", "4", "4"], "time": [1191, 1259, 5357, 9825]}, "edge": {"target": [], "time": []}}}, "displayed_time": "10.58", "trialTime": 11221, "trial_type": "mouselab-mdp", "trial_index": 73, "time_elapsed": 1914127, "internal_node_id": "0.0-4.0-3.0-15.0"}}, {"uniqueid": "w22931106:a26026661", "current_trial": 74, "dateTime": 1664557314307, "trialdata": {"revealed_states": [], "num_clicks_accrued": [0, 0, 0, 0, 0, 0, 0, 0, 0, 0, 0, 0, 0], "stateRewards": ["", 4, -8, -24, 48, -4, 8, -24, -48, -4, -4, 24, 48], "withholdReward": false, "trial_id": "mdp_282352776624", "block": "test2", "trialIndex": 54, "score": 48.75, "costs": -0.25, "simulationMode": [null, null, null], "rewards": [4, -8, 48], "path": ["0", "0", "1", "2", "4"], "rt": [1192, 453, 42], "actions": ["up", "up", "left"], "actionTimes": [1904, 2883, 3439], "queries": {"click": {"state": {"target": ["1"], "time": [1054]}, "edge": {"target": [], "time": []}}, "mouseover": {"state": {"target": ["1"], "time": [736]}, "edge": {"target": [], "time": []}}, "mouseout": {"state": {"target": ["0", "1", "4"], "time": [733, 1527, 5012]}, "edge": {"target": [], "time": []}}}, "displayed_time": "8.71", "trialTime": 9477, "trial_type": "mouselab-mdp", "trial_index": 74, "time_elapsed": 1923862, "internal_node_id": "0.0-4.0-3.0-16.0"}}, {"uniqueid": "w22931106:a26026661", "current_trial": 75, "dateTime": 1664557323323, "trialdata": {"revealed_states": [], "num_clicks_accrued": [0, 0, 0, 0, 0, 0, 0, 0, 0, 0, 0, 0, 0], "stateRewards": ["", 2, -8, 24, 24, 2, 4, -48, -48, 4, 4, -24, 48], "withholdReward": true, "trial_id": "mdp_985707010949", "block": "test2", "trialIndex": 55, "score": -37.25, "costs": -0.25, "simulationMode": [null, null, null], "rewards": [2, 4, -48], "path": ["0", "0", "5", "6", "7"], "rt": [1104, 785, 344], "actions": ["right", "right", "up"], "actionTimes": [1867, 3184, 4058], "queries": {"click": {"state": {"target": ["5"], "time": [1163]}, "edge": {"target": [], "time": []}}, "mouseover": {"state": {"target": ["5"], "time": [911]}, "edge": {"target": [], "time": []}}, "mouseout": {"state": {"target": ["5", "4"], "time": [1577, 6445]}, "edge": {"target": [], "time": []}}}, "displayed_time": "7.76", "trialTime": 8793, "trial_type": "mouselab-mdp", "trial_index": 75, "time_elapsed": 1932878, "internal_node_id": "0.0-4.0-3.0-17.0"}}, {"uniqueid": "w22931106:a26026661", "current_trial": 76, "dateTime": 1664557332650, "trialdata": {"revealed_states": [], "num_clicks_accrued": [0, 0, 0, 0, 0, 0, 0, 0, 0, 0, 0, 0, 0], "stateRewards": ["", -2, -4, -24, 24, -2, 4, -24, -24, -4, 4, 24, -24], "withholdReward": true, "trial_id": "mdp_999419261719", "block": "test2", "trialIndex": 56, "score": -17.25, "costs": -0.25, "simulationMode": [null, null, null], "rewards": [-2, 4, -24], "path": ["0", "0", "5", "6", "8"], "rt": [1691, 22, 441], "actions": ["right", "right", "down"], "actionTimes": [2249, 2799, 3767], "queries": {"click": {"state": {"target": ["9"], "time": [1232]}, "edge": {"target": [], "time": []}}, "mouseover": {"state": {"target": ["0", "9", "0", "5", "6"], "time": [973, 1040, 1758, 1858, 1877]}, "edge": {"target": [], "time": []}}, "mouseout": {"state": {"target": ["0", "0", "9", "0", "5", "6", "3", "7"], "time": [823, 991, 1726, 1823, 1874, 1907, 6257, 6756]}, "edge": {"target": [], "time": []}}}, "displayed_time": "8.56", "trialTime": 9050, "trial_type": "mouselab-mdp", "trial_index": 76, "time_elapsed": 1942205, "internal_node_id": "0.0-4.0-3.0-18.0"}}, {"uniqueid": "w22931106:a26026661", "current_trial": 77, "dateTime": 1664557341898, "trialdata": {"revealed_states": [], "num_clicks_accrued": [0, 0, 0, 0, 0, 0, 0, 0, 0, 0, 0, 0, 0], "stateRewards": ["", -4, -4, -24, 48, 2, 4, -24, -48, -2, 4, 24, 24], "withholdReward": true, "trial_id": "mdp_360934723192", "block": "test2", "trialIndex": 57, "score": -13.25, "costs": -0.25, "simulationMode": [null, null, null], "rewards": [2, 4, -24], "path": ["0", "0", "5", "6", "7"], "rt": [1353, 7, 46], "actions": ["right", "right", "up"], "actionTimes": [1854, 2382, 2954], "queries": {"click": {"state": {"target": ["1"], "time": [1019]}, "edge": {"target": [], "time": []}}, "mouseover": {"state": {"target": ["1"], "time": [873]}, "edge": {"target": [], "time": []}}, "mouseout": {"state": {"target": ["0", "1", "3"], "time": [378, 1622, 4138]}, "edge": {"target": [], "time": []}}}, "displayed_time": "8.50", "trialTime": 8913, "trial_type": "mouselab-mdp", "trial_index": 77, "time_elapsed": 1951452, "internal_node_id": "0.0-4.0-3.0-19.0"}}, {"uniqueid": "w22931106:a26026661", "current_trial": 78, "dateTime": 1664557352310, "trialdata": {"revealed_states": [], "num_clicks_accrued": [0, 0, 0, 0, 0, 0, 0, 0, 0, 0, 0, 0, 0], "stateRewards": ["", 2, 4, -48, -24, -4, 4, -24, 24, -2, -8, -24, 24], "withholdReward": true, "trial_id": "mdp_640720803523", "block": "test2", "trialIndex": 58, "score": 28.75, "costs": -0.25, "simulationMode": [null, null, null], "rewards": [-4, 4, 24], "path": ["0", "0", "5", "6", "8"], "rt": [1160, 120, 431], "actions": ["right", "right", "down"], "actionTimes": [1796, 2436, 3397], "queries": {"click": {"state": {"target": ["9"], "time": [962]}, "edge": {"target": [], "time": []}}, "mouseover": {"state": {"target": ["9", "4"], "time": [717, 1512]}, "edge": {"target": [], "time": []}}, "mouseout": {"state": {"target": ["0", "9", "4", "3", "7", "3"], "time": [663, 1447, 1531, 4861, 5328, 5561]}, "edge": {"target": [], "time": []}}}, "displayed_time": "9.64", "trialTime": 10117, "trial_type": "mouselab-mdp", "trial_index": 78, "time_elapsed": 1961865, "internal_node_id": "0.0-4.0-3.0-20.0"}}, {"uniqueid": "w22931106:a26026661", "current_trial": 79, "dateTime": 1664557362473, "trialdata": {"revealed_states": [], "num_clicks_accrued": [0, 0, 0, 0, 0, 0, 0, 0, 0, 0, 0, 0, 0], "stateRewards": ["", -2, 8, 48, -24, 2, 4, -48, -24, -4, 8, -48, -48], "withholdReward": true, "trial_id": "mdp_539167561933", "block": "test2", "trialIndex": 59, "score": -37.25, "costs": -0.25, "simulationMode": [null, null, null], "rewards": [2, 4, -48], "path": ["0", "0", "5", "6", "7"], "rt": [1541, 38, 163], "actions": ["right", "right", "up"], "actionTimes": [2152, 2720, 3412], "queries": {"click": {"state": {"target": ["9"], "time": [1154]}, "edge": {"target": [], "time": []}}, "mouseover": {"state": {"target": ["9", "4"], "time": [1028, 1912]}, "edge": {"target": [], "time": []}}, "mouseout": {"state": {"target": ["0", "9", "4", "2"], "time": [995, 1795, 1930, 9447]}, "edge": {"target": [], "time": []}}}, "displayed_time": "9.61", "trialTime": 9881, "trial_type": "mouselab-mdp", "trial_index": 79, "time_elapsed": 1972028, "internal_node_id": "0.0-4.0-3.0-21.0"}}, {"uniqueid": "w22931106:a26026661", "current_trial": 80, "dateTime": 1664557372031, "trialdata": {"revealed_states": [], "num_clicks_accrued": [0, 0, 0, 0, 0, 0, 0, 0, 0, 0, 0, 0, 0], "stateRewards": ["", 2, 4, 24, 48, -2, 8, 24, -24, -4, -4, 48, 48], "withholdReward": true, "trial_id": "mdp_753439303214", "block": "test2", "trialIndex": 60, "score": 34.75, "costs": -0.25, "simulationMode": [null, null, null], "rewards": [2, 4, 24], "path": ["0", "0", "1", "2", "3"], "rt": [1154, 139, 7], "actions": ["up", "up", "right"], "actionTimes": [1992, 2656, 3184], "queries": {"click": {"state": {"target": ["1"], "time": [1277]}, "edge": {"target": [], "time": []}}, "mouseover": {"state": {"target": ["1"], "time": [1090]}, "edge": {"target": [], "time": []}}, "mouseout": {"state": {"target": ["1", "0", "1"], "time": [388, 923, 1623]}, "edge": {"target": [], "time": []}}}, "displayed_time": "8.84", "trialTime": 9265, "trial_type": "mouselab-mdp", "trial_index": 80, "time_elapsed": 1981585, "internal_node_id": "0.0-4.0-3.0-22.0"}}, {"uniqueid": "w22931106:a26026661", "current_trial": 81, "dateTime": 1664557382837, "trialdata": {"revealed_states": [], "num_clicks_accrued": [0, 0, 0, 0, 0, 0, 0, 0, 0, 0, 0, 0, 0], "stateRewards": ["", 2, -4, 24, 24, 2, 4, 24, 24, -4, 8, 24, 48], "withholdReward": true, "trial_id": "mdp_268430387178", "block": "test2", "trialIndex": 61, "score": 34.75, "costs": -0.25, "simulationMode": [null, null, null], "rewards": [2, 4, 24], "path": ["0", "0", "5", "6", "8"], "rt": [1291, 123, 336], "actions": ["right", "right", "down"], "actionTimes": [2007, 2664, 3540], "queries": {"click": {"state": {"target": ["9"], "time": [1114]}, "edge": {"target": [], "time": []}}, "mouseover": {"state": {"target": ["9", "2"], "time": [919, 1668]}, "edge": {"target": [], "time": []}}, "mouseout": {"state": {"target": ["1", "0", "9", "2", "1"], "time": [175, 466, 1452, 1687, 8968]}, "edge": {"target": [], "time": []}}}, "displayed_time": "9.72", "trialTime": 10467, "trial_type": "mouselab-mdp", "trial_index": 81, "time_elapsed": 1992392, "internal_node_id": "0.0-4.0-3.0-23.0"}}, {"uniqueid": "w22931106:a26026661", "current_trial": 82, "dateTime": 1664557393659, "trialdata": {"revealed_states": [], "num_clicks_accrued": [0, 0, 0, 0, 0, 0, 0, 0, 0, 0, 0, 0, 0], "stateRewards": ["", -4, 4, 48, 24, -4, 4, -24, 48, -2, -8, 24, -48], "withholdReward": true, "trial_id": "mdp_261501605436", "block": "test2", "trialIndex": 62, "score": 52.75, "costs": -0.25, "simulationMode": [null, null, null], "rewards": [-4, 4, 48], "path": ["0", "0", "1", "2", "3"], "rt": [2021, 1396, 342], "actions": ["up", "up", "right"], "actionTimes": [2632, 4558, 5420], "queries": {"click": {"state": {"target": ["1"], "time": [1739]}, "edge": {"target": [], "time": []}}, "mouseover": {"state": {"target": ["1", "1", "7"], "time": [1042, 1625, 2044]}, "edge": {"target": [], "time": []}}, "mouseout": {"state": {"target": ["0", "1", "1", "7", "3", "5"], "time": [976, 1125, 2026, 2062, 6592, 10291]}, "edge": {"target": [], "time": []}}}, "displayed_time": "9.61", "trialTime": 10547, "trial_type": "mouselab-mdp", "trial_index": 82, "time_elapsed": 2003213, "internal_node_id": "0.0-4.0-3.0-24.0"}}, {"uniqueid": "w22931106:a26026661", "current_trial": 83, "dateTime": 1664557404205, "trialdata": {"revealed_states": [], "num_clicks_accrued": [0, 0, 0, 0, 0, 0, 0, 0, 0, 0, 0, 0, 0], "stateRewards": ["", 2, -4, 48, -48, -2, 8, -48, 24, -2, -8, 48, 48], "withholdReward": true, "trial_id": "mdp_949326095747", "block": "test2", "trialIndex": 63, "score": -45.25, "costs": -0.25, "simulationMode": [null, null, null], "rewards": [2, -4, -48], "path": ["0", "0", "1", "2", "4"], "rt": [1084, 94, 86], "actions": ["up", "up", "left"], "actionTimes": [2737, 3346, 3960], "queries": {"click": {"state": {"target": ["1"], "time": [1983]}, "edge": {"target": [], "time": []}}, "mouseover": {"state": {"target": ["1", "3"], "time": [1854, 2381]}, "edge": {"target": [], "time": []}}, "mouseout": {"state": {"target": ["0", "1", "1", "3", "7", "7", "5"], "time": [964, 1017, 2364, 2399, 8831, 9998, 10048]}, "edge": {"target": [], "time": []}}}, "displayed_time": "9.65", "trialTime": 10249, "trial_type": "mouselab-mdp", "trial_index": 83, "time_elapsed": 2013759, "internal_node_id": "0.0-4.0-3.0-25.0"}}, {"uniqueid": "w22931106:a26026661", "current_trial": 84, "dateTime": 1664557415706, "trialdata": {"revealed_states": [], "num_clicks_accrued": [0, 0, 0, 0, 0, 0, 0, 0, 0, 0, 0, 0, 0], "stateRewards": ["", -4, -4, -24, 24, 4, 4, -24, -24, -4, 4, 24, 24], "withholdReward": true, "trial_id": "mdp_787781487383", "block": "test2", "trialIndex": 64, "score": -11.25, "costs": -0.25, "simulationMode": [null, null, null], "rewards": [4, 4, -24], "path": ["0", "0", "5", "6", "8"], "rt": [1275, 8, 300], "actions": ["right", "right", "down"], "actionTimes": [2692, 3225, 4067], "queries": {"click": {"state": {"target": ["9"], "time": [1766]}, "edge": {"target": [], "time": []}}, "mouseover": {"state": {"target": ["9"], "time": [1587]}, "edge": {"target": [], "time": []}}, "mouseout": {"state": {"target": ["11", "10", "9", "9", "3", "0"], "time": [860, 892, 976, 2043, 10326, 10910]}, "edge": {"target": [], "time": []}}}, "displayed_time": "10.42", "trialTime": 11213, "trial_type": "mouselab-mdp", "trial_index": 84, "time_elapsed": 2025261, "internal_node_id": "0.0-4.0-3.0-26.0"}}, {"uniqueid": "w22931106:a26026661", "current_trial": 85, "dateTime": 1664557426235, "trialdata": {"revealed_states": [], "num_clicks_accrued": [0, 0, 0, 0, 0, 0, 0, 0, 0, 0, 0, 0, 0], "stateRewards": ["", 4, -4, 48, 24, 2, 4, 24, -24, 2, 4, 24, 48], "withholdReward": false, "trial_id": "mdp_736351885282", "block": "test2", "trialIndex": 65, "score": 29, "costs": 0, "simulationMode": [null, null, null], "rewards": [4, -4, 24], "path": ["0", "0", "1", "2", "4"], "rt": [708, 123, 612], "actions": ["up", "up", "left"], "actionTimes": [1257, 1901, 3042], "queries": {"click": {"state": {"target": [], "time": []}, "edge": {"target": [], "time": []}}, "mouseover": {"state": {"target": ["1", "2"], "time": [958, 977]}, "edge": {"target": [], "time": []}}, "mouseout": {"state": {"target": ["0", "1", "2", "3"], "time": [824, 974, 993, 9674]}, "edge": {"target": [], "time": []}}}, "displayed_time": "9.55", "trialTime": 10206, "trial_type": "mouselab-mdp", "trial_index": 85, "time_elapsed": 2035790, "internal_node_id": "0.0-4.0-3.0-27.0"}}, {"uniqueid": "w22931106:a26026661", "current_trial": 86, "dateTime": 1664557435758, "trialdata": {"revealed_states": [], "num_clicks_accrued": [0, 0, 0, 0, 0, 0, 0, 0, 0, 0, 0, 0, 0], "stateRewards": ["", -4, -8, 48, 48, -4, 4, 48, -24, 4, 8, -24, -48], "withholdReward": true, "trial_id": "mdp_142906093415", "block": "test2", "trialIndex": 66, "score": -7.25, "costs": -0.25, "simulationMode": [null, null, null], "rewards": [4, 8, -24], "path": ["0", "0", "9", "10", "11"], "rt": [1145, 86, 63], "actions": ["left", "left", "up"], "actionTimes": [1899, 2515, 3095], "queries": {"click": {"state": {"target": ["5"], "time": [1090]}, "edge": {"target": [], "time": []}}, "mouseover": {"state": {"target": ["5", "3"], "time": [911, 1610]}, "edge": {"target": [], "time": []}}, "mouseout": {"state": {"target": ["5", "0", "5", "3", "7"], "time": [93, 878, 1576, 1630, 8877]}, "edge": {"target": [], "time": []}}}, "displayed_time": "8.76", "trialTime": 9266, "trial_type": "mouselab-mdp", "trial_index": 86, "time_elapsed": 2045312, "internal_node_id": "0.0-4.0-3.0-28.0"}}, {"uniqueid": "w22931106:a26026661", "current_trial": 87, "dateTime": 1664557445662, "trialdata": {"revealed_states": [], "num_clicks_accrued": [0, 0, 0, 0, 0, 0, 0, 0, 0, 0, 0, 0, 0], "stateRewards": ["", 2, 4, 48, -48, 2, -4, 48, 24, -2, -8, -24, 48], "withholdReward": false, "trial_id": "mdp_962424406744", "block": "test2", "trialIndex": 67, "score": 26.75, "costs": -0.25, "simulationMode": [null, null, null], "rewards": [2, -4, 24], "path": ["0", "0", "5", "6", "8"], "rt": [1108, 54, 261], "actions": ["right", "right", "down"], "actionTimes": [1831, 2408, 3199], "queries": {"click": {"state": {"target": ["5"], "time": [1182]}, "edge": {"target": [], "time": []}}, "mouseover": {"state": {"target": ["5"], "time": [1135]}, "edge": {"target": [], "time": []}}, "mouseout": {"state": {"target": ["5", "0", "5"], "time": [36, 835, 1553]}, "edge": {"target": [], "time": []}}}, "displayed_time": "8.72", "trialTime": 9596, "trial_type": "mouselab-mdp", "trial_index": 87, "time_elapsed": 2055217, "internal_node_id": "0.0-4.0-3.0-29.0"}}, {"uniqueid": "w22931106:a26026661", "current_trial": 88, "dateTime": 1664557447056, "trialdata": {"rt": 1386, "stimulus": "<h1> End of block! </h1>\n\nYou have reached the end of the block 2/4. If you need a short break, feel free to take one now before moving on.\n\n<br><br>\nIn the next block, you will complete another 30 rounds of this game.\n\n<br><br>\n<div style='text-align: center;'>Press <code>space</code> to begin.</div>\n<br><br>\n<div style='text-align: center;'>(If the experiment doesn't continue, try clicking on the text and then pressing <code>space</code>.)</div>", "response": " ", "trial_id": "mdp_ready_3", "trial_type": "html-keyboard-response", "trial_index": 88, "time_elapsed": 2056611, "internal_node_id": "0.0-4.0-4.0"}}, {"uniqueid": "w22931106:a26026661", "current_trial": 89, "dateTime": 1664557457029, "trialdata": {"revealed_states": [], "num_clicks_accrued": [0, 0, 0, 0, 0, 0, 0, 0, 0, 0, 0, 0, 0], "stateRewards": ["", -4, 8, -48, -48, -2, -8, -24, -48, 2, -4, -48, 24], "withholdReward": true, "trial_id": "mdp_743906784415", "block": "test3", "trialIndex": 68, "score": -29.25, "costs": -0.25, "simulationMode": [null, null, null], "rewards": [-2, -8, -24], "path": ["0", "0", "5", "6", "7"], "rt": [1462, 169, 54], "actions": ["right", "right", "up"], "actionTimes": [2507, 3199, 3785], "queries": {"click": {"state": {"target": ["1"], "time": [1379]}, "edge": {"target": [], "time": []}}, "mouseover": {"state": {"target": ["1"], "time": [1160]}, "edge": {"target": [], "time": []}}, "mouseout": {"state": {"target": ["2", "1", "0", "1", "0", "5"], "time": [376, 409, 1130, 1810, 8026, 8442]}, "edge": {"target": [], "time": []}}}, "displayed_time": "9.04", "trialTime": 9704, "trial_type": "mouselab-mdp", "trial_index": 89, "time_elapsed": 2066584, "internal_node_id": "0.0-4.0-5.0-0.0"}}, {"uniqueid": "w22931106:a26026661", "current_trial": 90, "dateTime": 1664557467950, "trialdata": {"revealed_states": [], "num_clicks_accrued": [0, 0, 0, 0, 0, 0, 0, 0, 0, 0, 0, 0, 0], "stateRewards": ["", 2, 4, 48, 24, -2, -8, 24, 24, -2, 4, -48, 24], "withholdReward": false, "trial_id": "mdp_130849500124", "block": "test3", "trialIndex": 69, "score": 34.75, "costs": -0.25, "simulationMode": [null, null, null], "rewards": [2, 4, 24], "path": ["0", "0", "1", "2", "4"], "rt": [1008, 54, 582], "actions": ["up", "up", "left"], "actionTimes": [1763, 2334, 3446], "queries": {"click": {"state": {"target": ["1"], "time": [1168]}, "edge": {"target": [], "time": []}}, "mouseover": {"state": {"target": ["1"], "time": [865]}, "edge": {"target": [], "time": []}}, "mouseout": {"state": {"target": ["0", "1", "4"], "time": [780, 1510, 4726]}, "edge": {"target": [], "time": []}}}, "displayed_time": "9.76", "trialTime": 10609, "trial_type": "mouselab-mdp", "trial_index": 90, "time_elapsed": 2077505, "internal_node_id": "0.0-4.0-5.0-1.0"}}, {"uniqueid": "w22931106:a26026661", "current_trial": 91, "dateTime": 1664557477610, "trialdata": {"revealed_states": [], "num_clicks_accrued": [0, 0, 0, 0, 0, 0, 0, 0, 0, 0, 0, 0, 0], "stateRewards": ["", -2, 8, -24, 48, -4, 4, -48, 24, 4, -8, 48, -24], "withholdReward": true, "trial_id": "mdp_425320427962", "block": "test3", "trialIndex": 70, "score": 48.75, "costs": -0.25, "simulationMode": [null, null, null], "rewards": [4, -8, 48], "path": ["0", "0", "9", "10", "11"], "rt": [1135, 80, 9], "actions": ["left", "left", "up"], "actionTimes": [1927, 2530, 3065], "queries": {"click": {"state": {"target": ["5"], "time": [1123]}, "edge": {"target": [], "time": []}}, "mouseover": {"state": {"target": ["5"], "time": [892]}, "edge": {"target": [], "time": []}}, "mouseout": {"state": {"target": ["5", "5", "4", "0"], "time": [408, 1592, 4841, 7674]}, "edge": {"target": [], "time": []}}}, "displayed_time": "8.79", "trialTime": 9301, "trial_type": "mouselab-mdp", "trial_index": 91, "time_elapsed": 2087164, "internal_node_id": "0.0-4.0-5.0-2.0"}}, {"uniqueid": "w22931106:a26026661", "current_trial": 92, "dateTime": 1664557487523, "trialdata": {"revealed_states": [], "num_clicks_accrued": [0, 0, 0, 0, 0, 0, 0, 0, 0, 0, 0, 0, 0], "stateRewards": ["", 2, 4, -24, -24, 4, 8, -48, 48, 2, 4, -24, -48], "withholdReward": true, "trial_id": "mdp_565165082781", "block": "test3", "trialIndex": 71, "score": -31.25, "costs": -0.25, "simulationMode": [null, null, null], "rewards": [4, 8, -48], "path": ["0", "0", "5", "6", "7"], "rt": [896, 42, 96], "actions": ["right", "right", "up"], "actionTimes": [1756, 2337, 2960], "queries": {"click": {"state": {"target": ["5"], "time": [1245]}, "edge": {"target": [], "time": []}}, "mouseover": {"state": {"target": ["5"], "time": [1066]}, "edge": {"target": [], "time": []}}, "mouseout": {"state": {"target": ["0", "5"], "time": [650, 1549]}, "edge": {"target": [], "time": []}}}, "displayed_time": "8.86", "trialTime": 9656, "trial_type": "mouselab-mdp", "trial_index": 92, "time_elapsed": 2097077, "internal_node_id": "0.0-4.0-5.0-3.0"}}, {"uniqueid": "w22931106:a26026661", "current_trial": 93, "dateTime": 1664557496647, "trialdata": {"revealed_states": [], "num_clicks_accrued": [0, 0, 0, 0, 0, 0, 0, 0, 0, 0, 0, 0, 0], "stateRewards": ["", 2, 8, -48, -24, 4, 4, 24, 48, 4, -4, -48, 48], "withholdReward": true, "trial_id": "mdp_665096999232", "block": "test3", "trialIndex": 72, "score": -43.25, "costs": -0.25, "simulationMode": [null, null, null], "rewards": [4, -4, -48], "path": ["0", "0", "9", "10", "11"], "rt": [1199, 51, 53], "actions": ["left", "left", "up"], "actionTimes": [1579, 2149, 2734], "queries": {"click": {"state": {"target": ["9"], "time": [910]}, "edge": {"target": [], "time": []}}, "mouseover": {"state": {"target": ["9"], "time": [793]}, "edge": {"target": [], "time": []}}, "mouseout": {"state": {"target": ["0", "9", "10", "10", "12"], "time": [744, 1325, 4476, 4592, 4826]}, "edge": {"target": [], "time": []}}}, "displayed_time": "8.38", "trialTime": 8773, "trial_type": "mouselab-mdp", "trial_index": 93, "time_elapsed": 2106202, "internal_node_id": "0.0-4.0-5.0-4.0"}}, {"uniqueid": "w22931106:a26026661", "current_trial": 94, "dateTime": 1664557506967, "trialdata": {"revealed_states": [], "num_clicks_accrued": [0, 0, 0, 0, 0, 0, 0, 0, 0, 0, 0, 0, 0], "stateRewards": ["", 2, -4, -48, 24, 4, 4, 48, -48, -2, -4, -24, -48], "withholdReward": true, "trial_id": "mdp_858916930936", "block": "test3", "trialIndex": 73, "score": 26.75, "costs": -0.25, "simulationMode": [null, null, null], "rewards": [2, -4, 24], "path": ["0", "0", "1", "2", "4"], "rt": [1068, 16, 433], "actions": ["up", "up", "left"], "actionTimes": [1622, 2176, 3139], "queries": {"click": {"state": {"target": ["1"], "time": [1018]}, "edge": {"target": [], "time": []}}, "mouseover": {"state": {"target": ["1"], "time": [800]}, "edge": {"target": [], "time": []}}, "mouseout": {"state": {"target": ["0", "1", "4"], "time": [703, 1368, 5017]}, "edge": {"target": [], "time": []}}}, "displayed_time": "9.55", "trialTime": 10001, "trial_type": "mouselab-mdp", "trial_index": 94, "time_elapsed": 2116522, "internal_node_id": "0.0-4.0-5.0-5.0"}}, {"uniqueid": "w22931106:a26026661", "current_trial": 95, "dateTime": 1664557517821, "trialdata": {"revealed_states": [], "num_clicks_accrued": [0, 0, 0, 0, 0, 0, 0, 0, 0, 0, 0, 0, 0], "stateRewards": ["", -4, 8, 48, -48, 2, -4, 24, -24, -2, 4, -24, -24], "withholdReward": false, "trial_id": "mdp_804988042722", "block": "test3", "trialIndex": 74, "score": -21.25, "costs": -0.25, "simulationMode": [null, null, null], "rewards": [2, -4, -24], "path": ["0", "0", "5", "6", "8"], "rt": [1095, 15, 412], "actions": ["right", "right", "down"], "actionTimes": [2073, 2625, 3571], "queries": {"click": {"state": {"target": ["5"], "time": [1358]}, "edge": {"target": [], "time": []}}, "mouseover": {"state": {"target": ["5"], "time": [1074]}, "edge": {"target": [], "time": []}}, "mouseout": {"state": {"target": ["11", "9", "0", "5"], "time": [300, 399, 632, 1800]}, "edge": {"target": [], "time": []}}}, "displayed_time": "9.98", "trialTime": 10372, "trial_type": "mouselab-mdp", "trial_index": 95, "time_elapsed": 2127375, "internal_node_id": "0.0-4.0-5.0-6.0"}}, {"uniqueid": "w22931106:a26026661", "current_trial": 96, "dateTime": 1664557528557, "trialdata": {"revealed_states": [], "num_clicks_accrued": [0, 0, 0, 0, 0, 0, 0, 0, 0, 0, 0, 0, 0], "stateRewards": ["", -4, -8, 48, 48, -4, 4, 48, -24, 4, 8, -24, -48], "withholdReward": true, "trial_id": "mdp_142906093415", "block": "test3", "trialIndex": 75, "score": -7.25, "costs": -0.25, "simulationMode": [null, null, null], "rewards": [4, 8, -24], "path": ["0", "0", "9", "10", "11"], "rt": [1346, 85, 61], "actions": ["left", "left", "up"], "actionTimes": [2202, 2820, 3409], "queries": {"click": {"state": {"target": ["9"], "time": [1284]}, "edge": {"target": [], "time": []}}, "mouseover": {"state": {"target": ["9", "4"], "time": [998, 1944]}, "edge": {"target": [], "time": []}}, "mouseout": {"state": {"target": ["9", "4", "0"], "time": [1643, 4842, 5409]}, "edge": {"target": [], "time": []}}}, "displayed_time": "9.86", "trialTime": 10417, "trial_type": "mouselab-mdp", "trial_index": 96, "time_elapsed": 2138112, "internal_node_id": "0.0-4.0-5.0-7.0"}}, {"uniqueid": "w22931106:a26026661", "current_trial": 97, "dateTime": 1664557539057, "trialdata": {"revealed_states": [], "num_clicks_accrued": [0, 0, 0, 0, 0, 0, 0, 0, 0, 0, 0, 0, 0], "stateRewards": ["", -2, 8, 48, -48, 4, -8, 24, 24, 4, 4, -48, -24], "withholdReward": false, "trial_id": "mdp_746937869927", "block": "test3", "trialIndex": 76, "score": 24.75, "costs": -0.25, "simulationMode": [null, null, null], "rewards": [4, -8, 24], "path": ["0", "0", "5", "6", "7"], "rt": [1075, 65, 14], "actions": ["right", "right", "up"], "actionTimes": [2371, 2954, 3489], "queries": {"click": {"state": {"target": ["1"], "time": [1574]}, "edge": {"target": [], "time": []}}, "mouseover": {"state": {"target": ["1"], "time": [1360]}, "edge": {"target": [], "time": []}}, "mouseout": {"state": {"target": ["0", "1", "4", "2", "1", "0"], "time": [416, 2133, 5100, 8982, 9115, 9715]}, "edge": {"target": [], "time": []}}}, "displayed_time": "9.29", "trialTime": 10125, "trial_type": "mouselab-mdp", "trial_index": 97, "time_elapsed": 2148611, "internal_node_id": "0.0-4.0-5.0-8.0"}}, {"uniqueid": "w22931106:a26026661", "current_trial": 98, "dateTime": 1664557548357, "trialdata": {"revealed_states": [], "num_clicks_accrued": [0, 0, 0, 0, 0, 0, 0, 0, 0, 0, 0, 0, 0], "stateRewards": ["", -2, -4, -48, -48, 4, -4, 48, 24, 4, 4, 48, 48], "withholdReward": true, "trial_id": "mdp_950960813932", "block": "test3", "trialIndex": 77, "score": 60.75, "costs": -0.25, "simulationMode": [null, null, null], "rewards": [4, 4, 48], "path": ["0", "0", "9", "10", "11"], "rt": [1264, 281, 118], "actions": ["left", "left", "up"], "actionTimes": [1888, 2690, 3327], "queries": {"click": {"state": {"target": ["1"], "time": [1158]}, "edge": {"target": [], "time": []}}, "mouseover": {"state": {"target": ["1"], "time": [1072]}, "edge": {"target": [], "time": []}}, "mouseout": {"state": {"target": ["0", "1", "2"], "time": [666, 1604, 4422]}, "edge": {"target": [], "time": []}}}, "displayed_time": "8.63", "trialTime": 8947, "trial_type": "mouselab-mdp", "trial_index": 98, "time_elapsed": 2157912, "internal_node_id": "0.0-4.0-5.0-9.0"}}, {"uniqueid": "w22931106:a26026661", "current_trial": 99, "dateTime": 1664557557627, "trialdata": {"revealed_states": [], "num_clicks_accrued": [0, 0, 0, 0, 0, 0, 0, 0, 0, 0, 0, 0, 0], "stateRewards": ["", -2, -4, -24, -48, 2, -8, -24, -24, 4, -8, 48, 48], "withholdReward": false, "trial_id": "mdp_950599994674", "block": "test3", "trialIndex": 78, "score": -25.25, "costs": -0.25, "simulationMode": [null, null, null], "rewards": [2, -8, -24], "path": ["0", "0", "5", "6", "7"], "rt": [1245, 46, 57], "actions": ["right", "right", "up"], "actionTimes": [1736, 2309, 2904], "queries": {"click": {"state": {"target": ["1"], "time": [907]}, "edge": {"target": [], "time": []}}, "mouseover": {"state": {"target": ["1", "4"], "time": [802, 1507]}, "edge": {"target": [], "time": []}}, "mouseout": {"state": {"target": ["0", "1", "4"], "time": [537, 1504, 1529]}, "edge": {"target": [], "time": []}}}, "displayed_time": "8.52", "trialTime": 8879, "trial_type": "mouselab-mdp", "trial_index": 99, "time_elapsed": 2167181, "internal_node_id": "0.0-4.0-5.0-10.0"}}, {"uniqueid": "w22931106:a26026661", "current_trial": 100, "dateTime": 1664557567386, "trialdata": {"revealed_states": [], "num_clicks_accrued": [0, 0, 0, 0, 0, 0, 0, 0, 0, 0, 0, 0, 0], "stateRewards": ["", -4, 8, -24, 48, 2, -8, 24, 48, 2, -8, -24, -48], "withholdReward": true, "trial_id": "mdp_493778446445", "block": "test3", "trialIndex": 79, "score": 22.75, "costs": -0.25, "simulationMode": [null, null, null], "rewards": [2, -8, 24], "path": ["0", "0", "5", "6", "7"], "rt": [1250, 91, 75], "actions": ["right", "right", "up"], "actionTimes": [2096, 2728, 3334], "queries": {"click": {"state": {"target": ["1"], "time": [1198]}, "edge": {"target": [], "time": []}}, "mouseover": {"state": {"target": ["1", "4"], "time": [1069, 1887]}, "edge": {"target": [], "time": []}}, "mouseout": {"state": {"target": ["0", "0", "1", "4"], "time": [351, 501, 1885, 1907]}, "edge": {"target": [], "time": []}}}, "displayed_time": "8.85", "trialTime": 9458, "trial_type": "mouselab-mdp", "trial_index": 100, "time_elapsed": 2176941, "internal_node_id": "0.0-4.0-5.0-11.0"}}, {"uniqueid": "w22931106:a26026661", "current_trial": 101, "dateTime": 1664557577323, "trialdata": {"revealed_states": [], "num_clicks_accrued": [0, 0, 0, 0, 0, 0, 0, 0, 0, 0, 0, 0, 0], "stateRewards": ["", -2, -8, 48, 24, -2, 8, -48, -24, -2, 4, -48, 48], "withholdReward": false, "trial_id": "mdp_295220852217", "block": "test3", "trialIndex": 80, "score": -37.25, "costs": -0.25, "simulationMode": [null, null, null], "rewards": [-2, 8, -48], "path": ["0", "0", "5", "6", "7"], "rt": [1139, 54, 122], "actions": ["right", "right", "up"], "actionTimes": [1813, 2397, 3045], "queries": {"click": {"state": {"target": ["1"], "time": [1030]}, "edge": {"target": [], "time": []}}, "mouseover": {"state": {"target": ["1", "2"], "time": [855, 1610]}, "edge": {"target": [], "time": []}}, "mouseout": {"state": {"target": ["0", "1", "2", "2", "3", "3", "5"], "time": [438, 1606, 1643, 4621, 4670, 8522, 9061]}, "edge": {"target": [], "time": []}}}, "displayed_time": "8.67", "trialTime": 9531, "trial_type": "mouselab-mdp", "trial_index": 101, "time_elapsed": 2186878, "internal_node_id": "0.0-4.0-5.0-12.0"}}, {"uniqueid": "w22931106:a26026661", "current_trial": 102, "dateTime": 1664557587991, "trialdata": {"revealed_states": [], "num_clicks_accrued": [0, 0, 0, 0, 0, 0, 0, 0, 0, 0, 0, 0, 0], "stateRewards": ["", -2, 4, -48, -48, 4, 4, 48, -48, 2, 8, 24, 48], "withholdReward": true, "trial_id": "mdp_686771069745", "block": "test3", "trialIndex": 81, "score": 39, "costs": 0, "simulationMode": [null, null, null], "rewards": [2, 8, 24], "path": ["0", "0", "9", "10", "11"], "rt": [435, 20, 71], "actions": ["left", "left", "up"], "actionTimes": [1315, 1861, 2462], "queries": {"click": {"state": {"target": [], "time": []}, "edge": {"target": [], "time": []}}, "mouseover": {"state": {"target": [], "time": []}, "edge": {"target": [], "time": []}}, "mouseout": {"state": {"target": ["0", "2", "1"], "time": [996, 4955, 5355]}, "edge": {"target": [], "time": []}}}, "displayed_time": "9.88", "trialTime": 10484, "trial_type": "mouselab-mdp", "trial_index": 102, "time_elapsed": 2197546, "internal_node_id": "0.0-4.0-5.0-13.0"}}, {"uniqueid": "w22931106:a26026661", "current_trial": 103, "dateTime": 1664557597330, "trialdata": {"revealed_states": [], "num_clicks_accrued": [0, 0, 0, 0, 0, 0, 0, 0, 0, 0, 0, 0, 0], "stateRewards": ["", 4, 4, 24, 24, 4, -4, 48, 48, 4, 4, 24, -48], "withholdReward": true, "trial_id": "mdp_454251689008", "block": "test3", "trialIndex": 82, "score": 36.5, "costs": -0.5, "simulationMode": [null, null, null], "rewards": [4, 4, 24], "path": ["0", "0", "9", "10", "11"], "rt": [2282, 616, 21], "actions": ["left", "left", "up"], "actionTimes": [2740, 3872, 4411], "queries": {"click": {"state": {"target": ["9", "10"], "time": [1044, 1737]}, "edge": {"target": [], "time": []}}, "mouseover": {"state": {"target": ["9", "10", "11", "11"], "time": [906, 1254, 2121, 2286]}, "edge": {"target": [], "time": []}}, "mouseout": {"state": {"target": ["0", "9", "10", "11", "11", "7"], "time": [155, 1221, 2104, 2139, 2304, 8603]}, "edge": {"target": [], "time": []}}}, "displayed_time": "8.46", "trialTime": 9070, "trial_type": "mouselab-mdp", "trial_index": 103, "time_elapsed": 2206885, "internal_node_id": "0.0-4.0-5.0-14.0"}}, {"uniqueid": "w22931106:a26026661", "current_trial": 104, "dateTime": 1664557608735, "trialdata": {"revealed_states": [], "num_clicks_accrued": [0, 0, 0, 0, 0, 0, 0, 0, 0, 0, 0, 0, 0], "stateRewards": ["", 4, -8, -24, 48, -4, 8, -24, -48, -4, -4, 24, 48], "withholdReward": true, "trial_id": "mdp_282352776624", "block": "test3", "trialIndex": 83, "score": -23.25, "costs": -0.25, "simulationMode": [null, null, null], "rewards": [4, -8, -24], "path": ["0", "0", "1", "2", "3"], "rt": [860, 586, 55], "actions": ["up", "up", "right"], "actionTimes": [1574, 2688, 3261], "queries": {"click": {"state": {"target": ["1"], "time": [1023]}, "edge": {"target": [], "time": []}}, "mouseover": {"state": {"target": ["1"], "time": [883]}, "edge": {"target": [], "time": []}}, "mouseout": {"state": {"target": ["5", "0", "1", "4", "1", "6", "6", "5"], "time": [124, 837, 1317, 4269, 4535, 8302, 10271, 10652]}, "edge": {"target": [], "time": []}}}, "displayed_time": "10.71", "trialTime