{"condition": 1, "counterbalance": 0, "assignmentId": "a24787106", "workerId": "w58575345", "hitId": "h62920139", "currenttrial": 137, "bonus": 0, "data": [{"uniqueid": "w58575345:a24787106", "current_trial": 0, "dateTime": 1664464003771, "trialdata": {"success": true, "trial_type": "fullscreen", "trial_index": 0, "time_elapsed": 4208, "internal_node_id": "0.0-0.0"}}, {"uniqueid": "w58575345:a24787106", "current_trial": 1, "dateTime": 1664464027129, "trialdata": {"view_history": [{"page_index": 0, "viewing_time": 23353}], "rt": 23354, "trial_id": "exp_instructions_no_distractor", "trial_type": "instructions", "trial_index": 1, "time_elapsed": 27567, "internal_node_id": "0.0-1.0"}}, {"uniqueid": "w58575345:a24787106", "current_trial": 2, "dateTime": 1664464033355, "trialdata": {"success": true, "trial_type": "fullscreen", "trial_index": 2, "time_elapsed": 33793, "internal_node_id": "0.0-2.0-0.0"}}, {"uniqueid": "w58575345:a24787106", "current_trial": 3, "dateTime": 1664464184427, "trialdata": {"view_history": [{"page_index": 0, "viewing_time": 68840}, {"page_index": 1, "viewing_time": 33781}, {"page_index": 2, "viewing_time": 18924}, {"page_index": 3, "viewing_time": 11137}, {"page_index": 4, "viewing_time": 18387}], "rt": 151069, "trial_id": "mouselab_instructions_1", "trial_type": "instructions", "trial_index": 3, "time_elapsed": 184865, "internal_node_id": "0.0-2.0-1.0"}}, {"uniqueid": "w58575345:a24787106", "current_trial": 4, "dateTime": 1664464221498, "trialdata": {"revealed_states": [], "num_clicks_accrued": [0, 0, 0, 0, 0, 0, 0, 0, 0, 0, 0, 0, 0], "stateRewards": ["", 10, -10, 10, -10, 10, 10, 10, 10, -10, -10, -10, -10], "withholdReward": false, "trial_id": "practice_1", "block": "test", "trialIndex": 0, "score": 11.75, "costs": -0.25, "simulationMode": [null, null, null], "rewards": [10, -10, 10], "path": ["0", "0", "1", "2", "3"], "rt": [10962, 11907, 3104], "actions": ["up", "up", "right"], "actionTimes": [14621, 27025, 30626], "queries": {"click": {"state": {"target": ["1"], "time": [9050]}, "edge": {"target": [], "time": []}}, "mouseover": {"state": {"target": ["0", "1"], "time": [6729, 8528]}, "edge": {"target": [], "time": []}}, "mouseout": {"state": {"target": ["3", "0", "0", "1", "11", "10", "0", "0", "1", "0", "1", "2", "2", "1", "5"], "time": [null, 285, 863, 971, 1096, 1112, 5072, 8465, 13329, 18400, 18474, 18550, 24224, 33411, 33969]}, "edge": {"target": [], "time": []}}}, "displayed_time": "31.13", "trialTime": 35500, "trial_type": "mouselab-mdp", "trial_index": 4, "time_elapsed": 221935, "internal_node_id": "0.0-2.0-2.0-0.0"}}, {"uniqueid": "w58575345:a24787106", "current_trial": 5, "dateTime": 1664464242025, "trialdata": {"revealed_states": [], "num_clicks_accrued": [0, 0, 0, 0, 0, 0, 0, 0, 0, 0, 0, 0, 0], "stateRewards": ["", -10, -10, 10, 10, -10, 10, -10, 10, -10, -10, 10, 10], "withholdReward": false, "trial_id": "practice_2", "block": "test", "trialIndex": 1, "score": -8.25, "costs": -0.25, "simulationMode": [null, null, null], "rewards": [-10, 10, -10], "path": ["0", "0", "5", "6", "7"], "rt": [10233, 1166, 1217], "actions": ["right", "right", "up"], "actionTimes": [13671, 15353, 17070], "queries": {"click": {"state": {"target": ["6"], "time": [7844]}, "edge": {"target": [], "time": []}}, "mouseover": {"state": {"target": ["5", "6", "8", "9", "10"], "time": [5337, 6378, 8170, 9078, 9336]}, "edge": {"target": [], "time": []}}, "mouseout": {"state": {"target": ["0", "5", "6", "8", "9", "10", "10", "9", "9"], "time": [3112, 6312, 8089, 9011, 9242, 18283, 18643, 18724, 19116]}, "edge": {"target": [], "time": []}}}, "displayed_time": "17.57", "trialTime": 20464, "trial_type": "mouselab-mdp", "trial_index": 5, "time_elapsed": 242463, "internal_node_id": "0.0-2.0-2.0-1.0"}}, {"uniqueid": "w58575345:a24787106", "current_trial": 6, "dateTime": 1664464322807, "trialdata": {"view_history": [{"page_index": 0, "viewing_time": 43856}, {"page_index": 1, "viewing_time": 25181}, {"page_index": 2, "viewing_time": 11738}], "rt": 80776, "trial_id": "mouselab_instructions_2_scarce", "trial_type": "instructions", "trial_index": 6, "time_elapsed": 323245, "internal_node_id": "0.0-2.0-3.0"}}, {"uniqueid": "w58575345:a24787106", "current_trial": 7, "dateTime": 1664464369556, "trialdata": {"rt": 46744, "response": {"Q0": "$-48 to $48", "Q1": "The cost is always $0.25.", "Q2": "The better I perform the higher my bonus will be.", "Q3": "No, the amount of cash at each node of the web may be different each time.", "Q4": "The values of the nodes walked through from start to finish.", "Q5": "No, the spider might forget to count the money on some rounds."}, "question_order": [0, 1, 2, 3, 4, 5], "correct": {"Q0": "$-48 to $48", "Q1": "The cost is always $0.25.", "Q2": "The better I perform the higher my bonus will be.", "Q3": "No, the amount of cash at each node of the web may be different each time.", "Q4": "The values of the nodes walked through from start to finish.", "Q5": "No, the spider might forget to count the money on some rounds."}, "trial_id": "mouselab_quiz_scarce", "trial_type": "survey-multi-choice", "trial_index": 7, "time_elapsed": 369994, "internal_node_id": "0.0-2.0-4.0"}}, {"uniqueid": "w58575345:a24787106", "current_trial": 8, "dateTime": 1664464383250, "trialdata": {"rt": 13685, "stimulus": "\n<h1> Get ready to start the game! </h1>\n\nThank you for reading the instructions. Get ready start with the first of 4 block(s) of this game.\n<br><br>\nIn this first block, you will complete 30 rounds of this game before moving on.\n<br><br>\nRemember, the more money the spider gets, the bigger your bonus will be!\n<br><br>\n<div style='text-align: center;'>Press <code>space</code> to begin.</div>\n\n<br><br>\n(If, at any point, the <code>space</code> key does not take you to the next page, click once on the text and try again.)", "response": " ", "trial_id": "mdp_ready_1", "trial_type": "html-keyboard-response", "trial_index": 8, "time_elapsed": 383688, "internal_node_id": "0.0-4.0-0.0"}}, {"uniqueid": "w58575345:a24787106", "current_trial": 9, "dateTime": 1664464407904, "trialdata": {"revealed_states": [], "num_clicks_accrued": [0, 0, 0, 0, 0, 0, 0, 0, 0, 0, 0, 0, 0], "stateRewards": ["", 2, 4, -48, -48, 4, 4, -48, -48, -2, -8, 48, -24], "withholdReward": false, "trial_id": "mdp_175327338412", "block": "test1", "trialIndex": 2, "score": -37.5, "costs": -0.5, "simulationMode": [null, null, null], "rewards": [2, 4, -48], "path": ["0", "0", "1", "2", "3"], "rt": [13058, 680, 1319], "actions": ["up", "up", "right"], "actionTimes": [15534, 16722, 18544], "queries": {"click": {"state": {"target": ["1", "2"], "time": [5008, 13723]}, "edge": {"target": [], "time": []}}, "mouseover": {"state": {"target": ["1", "1", "5", "3", "2", "7"], "time": [3628, 3804, 5271, 13250, 13393, 13984]}, "edge": {"target": [], "time": []}}, "mouseout": {"state": {"target": ["1", "0", "1", "1", "5", "3", "2", "7", "4", "1", "0"], "time": [1478, 2679, 3686, 5224, 9551, 13336, 13872, 20033, 23297, 23363, 23409]}, "edge": {"target": [], "time": []}}}, "displayed_time": "19.04", "trialTime": 24591, "trial_type": "mouselab-mdp", "trial_index": 9, "time_elapsed": 408342, "internal_node_id": "0.0-4.0-1.0-0.0"}}, {"uniqueid": "w58575345:a24787106", "current_trial": 10, "dateTime": 1664464438847, "trialdata": {"revealed_states": [], "num_clicks_accrued": [0, 0, 0, 0, 0, 0, 0, 0, 0, 0, 0, 0, 0], "stateRewards": ["", -4, -8, 48, 48, -4, 4, 48, -24, 4, 8, -24, -48], "withholdReward": true, "trial_id": "mdp_142906093415", "block": "test1", "trialIndex": 3, "score": 39, "costs": -2, "simulationMode": [null, null, null], "rewards": [-4, -8, 48], "path": ["0", "0", "1", "2", "4"], "rt": [24176, 182, 1111], "actions": ["up", "up", "left"], "actionTimes": [25990, 26678, 28297], "queries": {"click": {"state": {"target": ["9", "5", "10", "11", "12", "1", "2", "4"], "time": [5271, 8047, 9938, 11216, 13970, 16060, 19661, 21461]}, "edge": {"target": [], "time": []}}, "mouseover": {"state": {"target": ["5", "0", "9", "10", "0", "5", "10", "12", "11", "0", "12", "8", "1", "7", "2", "4", "4"], "time": [3045, 4100, 4284, 6749, 7406, 7823, 9647, 10106, 10913, 12647, 12880, 14714, 15451, 16271, 19180, 20339, 20668]}, "edge": {"target": [], "time": []}}, "mouseout": {"state": {"target": ["0", "5", "0", "9", "9", "10", "9", "0", "5", "9", "10", "12", "10", "11", "5", "5", "0", "9", "10", "12", "8", "5", "1", "7", "2", "4", "4", "1"], "time": [2159, 4041, 4245, 5438, 6541, 7333, 7390, 7606, 8174, 9590, 10072, 10147, 10773, 11363, 11456, 12640, 12672, 12705, 12824, 14113, 14730, 15371, 16235, 16712, 19860, 20541, 21686, 22204]}, "edge": {"target": [], "time": []}}}, "displayed_time": "28.79", "trialTime": 30889, "trial_type": "mouselab-mdp", "trial_index": 10, "time_elapsed": 439285, "internal_node_id": "0.0-4.0-1.0-1.0"}}, {"uniqueid": "w58575345:a24787106", "current_trial": 11, "dateTime": 1664464452368, "trialdata": {"revealed_states": [], "num_clicks_accrued": [0, 0, 0, 0, 0, 0, 0, 0, 0, 0, 0, 0, 0], "stateRewards": ["", -4, -4, -48, -24, 2, 8, 24, -48, 4, 4, 48, 48], "withholdReward": true, "trial_id": "mdp_693501840209", "block": "test1", "trialIndex": 4, "score": 59.75, "costs": -1.25, "simulationMode": [null, null, null], "rewards": [4, 4, 48], "path": ["0", "0", "9", "10", "12"], "rt": [8120, 243, 252], "actions": ["left", "left", "down"], "actionTimes": [9849, 10593, 11351], "queries": {"click": {"state": {"target": ["1", "5", "9", "10", "12"], "time": [3450, 4914, 6308, 7412, 8139]}, "edge": {"target": [], "time": []}}, "mouseover": {"state": {"target": ["1", "0", "5", "9", "10", "12"], "time": [3076, 3633, 4300, 5409, 7210, 7714]}, "edge": {"target": [], "time": []}}, "mouseout": {"state": {"target": ["0", "1", "0", "5", "9", "10", "12"], "time": [1337, 3610, 3650, 5121, 6458, 7642, 8290]}, "edge": {"target": [], "time": []}}}, "displayed_time": "11.86", "trialTime": 13461, "trial_type": "mouselab-mdp", "trial_index": 11, "time_elapsed": 452806, "internal_node_id": "0.0-4.0-1.0-2.0"}}, {"uniqueid": "w58575345:a24787106", "current_trial": 12, "dateTime": 1664464465466, "trialdata": {"revealed_states": [], "num_clicks_accrued": [0, 0, 0, 0, 0, 0, 0, 0, 0, 0, 0, 0, 0], "stateRewards": ["", 4, 8, -24, 48, -2, -4, 24, -24, -2, 4, 24, 24], "withholdReward": false, "trial_id": "mdp_948713805479", "block": "test1", "trialIndex": 5, "score": 64, "costs": -1, "simulationMode": [null, null, null], "rewards": [4, 8, 48], "path": ["0", "0", "1", "2", "4"], "rt": [5548, 127, 1060], "actions": ["up", "up", "left"], "actionTimes": [7070, 7701, 9267], "queries": {"click": {"state": {"target": ["1", "2", "3", "4"], "time": [2714, 3726, 4582, 5798]}, "edge": {"target": [], "time": []}}, "mouseover": {"state": {"target": ["1", "2", "3", "4", "9"], "time": [2476, 3373, 4325, 5448, 5990]}, "edge": {"target": [], "time": []}}, "mouseout": {"state": {"target": ["0", "1", "2", "3", "1", "4", "9", "5", "5"], "time": [888, 2890, 3900, 4741, 5390, 5935, 10334, 11454, 12039]}, "edge": {"target": [], "time": []}}}, "displayed_time": "10.53", "trialTime": 13044, "trial_type": "mouselab-mdp", "trial_index": 12, "time_elapsed": 465904, "internal_node_id": "0.0-4.0-1.0-3.0"}}, {"uniqueid": "w58575345:a24787106", "current_trial": 13, "dateTime": 1664464478852, "trialdata": {"revealed_states": [], "num_clicks_accrued": [0, 0, 0, 0, 0, 0, 0, 0, 0, 0, 0, 0, 0], "stateRewards": ["", 4, -4, 48, -48, 2, 8, -48, 24, -2, -4, -24, 48], "withholdReward": true, "trial_id": "mdp_937564992306", "block": "test1", "trialIndex": 6, "score": 51.75, "costs": -1.25, "simulationMode": [null, null, null], "rewards": [4, -4, 48], "path": ["0", "0", "1", "2", "3"], "rt": [7959, 131, 304], "actions": ["up", "up", "right"], "actionTimes": [9390, 10028, 10841], "queries": {"click": {"state": {"target": ["5", "9", "1", "2", "3"], "time": [2189, 3229, 4398, 5446, 6878]}, "edge": {"target": [], "time": []}}, "mouseover": {"state": {"target": ["5", "9", "1", "2", "3"], "time": [1963, 2820, 4171, 5276, 5948]}, "edge": {"target": [], "time": []}}, "mouseout": {"state": {"target": ["0", "5", "9", "1", "2", "3", "2"], "time": [1046, 2339, 3362, 4523, 5725, 7020, 12374]}, "edge": {"target": [], "time": []}}}, "displayed_time": "11.35", "trialTime": 13322, "trial_type": "mouselab-mdp", "trial_index": 13, "time_elapsed": 479289, "internal_node_id": "0.0-4.0-1.0-4.0"}}, {"uniqueid": "w58575345:a24787106", "current_trial": 14, "dateTime": 1664464496743, "trialdata": {"revealed_states": [], "num_clicks_accrued": [0, 0, 0, 0, 0, 0, 0, 0, 0, 0, 0, 0, 0], "stateRewards": ["", 4, -4, 48, -48, 4, -4, 24, -24, 4, 8, -24, -48], "withholdReward": false, "trial_id": "mdp_433630527224", "block": "test1", "trialIndex": 7, "score": 50.75, "costs": -2.25, "simulationMode": [null, null, null], "rewards": [4, -4, 48], "path": ["0", "0", "1", "2", "3"], "rt": [12706, 90, 137], "actions": ["up", "up", "right"], "actionTimes": [13817, 14406, 15053], "queries": {"click": {"state": {"target": ["9", "10", "11", "12", "5", "6", "7", "8", "3"], "time": [2352, 4008, 4905, 6001, 7330, 8849, 9497, 10394, 12122]}, "edge": {"target": [], "time": []}}, "mouseover": {"state": {"target": ["9", "5", "6", "5", "10", "11", "12", "5", "6", "7", "8", "3", "2"], "time": [1919, 2519, 2560, 3159, 3823, 4720, 5680, 6960, 7535, 9215, 10037, 11923, 12357]}, "edge": {"target": [], "time": []}}, "mouseout": {"state": {"target": ["0", "9", "5", "6", "5", "9", "10", "10", "11", "9", "12", "5", "6", "7", "6", "8", "7", "3", "2", "1", "0"], "time": [1184, 2479, 2535, 3015, 3592, 3685, 4159, 4484, 5055, 5095, 6267, 7488, 9080, 9716, 9899, 10524, 11632, 12297, 12382, 16641, 16747]}, "edge": {"target": [], "time": []}}}, "displayed_time": "15.56", "trialTime": 17830, "trial_type": "mouselab-mdp", "trial_index": 14, "time_elapsed": 497180, "internal_node_id": "0.0-4.0-1.0-5.0"}}, {"uniqueid": "w58575345:a24787106", "current_trial": 15, "dateTime": 1664464514848, "trialdata": {"revealed_states": [], "num_clicks_accrued": [0, 0, 0, 0, 0, 0, 0, 0, 0, 0, 0, 0, 0], "stateRewards": ["", 2, 8, 24, -48, 4, 8, 24, 48, 2, -8, -24, 24], "withholdReward": true, "trial_id": "mdp_939899431582", "block": "test1", "trialIndex": 8, "score": 63, "costs": -2, "simulationMode": [null, null, null], "rewards": [4, 8, 48], "path": ["0", "0", "5", "6", "8"], "rt": [12815, 68, 82], "actions": ["right", "right", "down"], "actionTimes": [14762, 15336, 15925], "queries": {"click": {"state": {"target": ["3", "4", "12", "11", "7", "8", "6", "5"], "time": [5660, 8299, 9443, 10196, 11117, 11876, 13388, 13836]}, "edge": {"target": [], "time": []}}, "mouseover": {"state": {"target": ["7", "3", "1", "1", "2", "3", "2", "4", "2", "4", "10", "12", "10", "11", "1", "7", "7", "6", "8", "6", "5"], "time": [2145, 2697, 3889, 4194, 4802, 5244, 6538, 6619, 7751, 8128, 9101, 9144, 9876, 9952, 10514, 10562, 10883, 11343, 11643, 12734, 13542]}, "edge": {"target": [], "time": []}}, "mouseout": {"state": {"target": ["6", "5", "0", "7", "3", "1", "1", "2", "3", "2", "4", "2", "4", "10", "12", "10", "11", "1", "7", "7", "6", "8", "6", "5"], "time": [658, 913, 1169, 2169, 3841, 4130, 4761, 5211, 6514, 6586, 7691, 7818, 8477, 9109, 9859, 9909, 10460, 10522, 10595, 11307, 11418, 12034, 13517, 14011]}, "edge": {"target": [], "time": []}}}, "displayed_time": "16.43", "trialTime": 18042, "trial_type": "mouselab-mdp", "trial_index": 15, "time_elapsed": 515286, "internal_node_id": "0.0-4.0-1.0-6.0"}}, {"uniqueid": "w58575345:a24787106", "current_trial": 16, "dateTime": 1664464528769, "trialdata": {"revealed_states": [], "num_clicks_accrued": [0, 0, 0, 0, 0, 0, 0, 0, 0, 0, 0, 0, 0], "stateRewards": ["", -2, 8, -24, 48, -4, 4, -48, 24, 4, -8, 48, -24], "withholdReward": true, "trial_id": "mdp_425320427962", "block": "test1", "trialIndex": 9, "score": 58, "costs": -1, "simulationMode": [null, null, null], "rewards": [-2, 8, 48], "path": ["0", "0", "1", "2", "4"], "rt": [6445, 36, 663], "actions": ["up", "up", "left"], "actionTimes": [10079, 10617, 11786], "queries": {"click": {"state": {"target": ["3", "4", "1", "2"], "time": [5145, 5897, 8626, 9049]}, "edge": {"target": [], "time": []}}, "mouseover": {"state": {"target": ["1", "2", "3", "2", "4", "1", "2"], "time": [4356, 4808, 4922, 5321, 5488, 8265, 8871]}, "edge": {"target": [], "time": []}}, "mouseout": {"state": {"target": ["6", "5", "1", "2", "3", "2", "4", "1", "2"], "time": [922, 3064, 4737, 4848, 5288, 5408, 6097, 8771, 13029]}, "edge": {"target": [], "time": []}}}, "displayed_time": "12.29", "trialTime": 13862, "trial_type": "mouselab-mdp", "trial_index": 16, "time_elapsed": 529207, "internal_node_id": "0.0-4.0-1.0-7.0"}}, {"uniqueid": "w58575345:a24787106", "current_trial": 17, "dateTime": 1664464553587, "trialdata": {"revealed_states": [], "num_clicks_accrued": [0, 0, 0, 0, 0, 0, 0, 0, 0, 0, 0, 0, 0], "stateRewards": ["", 2, -4, -48, 24, -4, 4, 24, 24, 2, -8, -24, -48], "withholdReward": false, "trial_id": "mdp_807654778305", "block": "test1", "trialIndex": 10, "score": 24.75, "costs": -2.25, "simulationMode": [null, null, null], "rewards": [2, -4, 24], "path": ["0", "0", "1", "2", "4"], "rt": [19640, 78, 47], "actions": ["up", "up", "left"], "actionTimes": [21163, 21745, 22298], "queries": {"click": {"state": {"target": ["3", "4", "11", "12", "8", "7", "5", "6", "1"], "time": [4698, 5393, 7091, 7651, 8673, 9474, 12938, 13506, 18851]}, "edge": {"target": [], "time": []}}, "mouseover": {"state": {"target": ["1", "2", "1", "2", "3", "2", "4", "11", "10", "12", "8", "6", "7", "6", "5", "6", "1"], "time": [2863, 3112, 3405, 4291, 4423, 4854, 5013, 6256, 7290, 7370, 8270, 8896, 9011, 12528, 12745, 13233, 18651]}, "edge": {"target": [], "time": []}}, "mouseout": {"state": {"target": ["0", "1", "2", "1", "2", "3", "2", "4", "11", "10", "12", "8", "6", "7", "6", "5", "6", "6", "5", "1", "0"], "time": [1343, 3079, 3354, 4191, 4391, 4828, 4895, 5528, 7257, 7329, 7808, 8865, 8961, 10370, 12685, 13102, 13705, 18292, 18347, 19114, 23675]}, "edge": {"target": [], "time": []}}}, "displayed_time": "22.81", "trialTime": 24749, "trial_type": "mouselab-mdp", "trial_index": 17, "time_elapsed": 554025, "internal_node_id": "0.0-4.0-1.0-8.0"}}, {"uniqueid": "w58575345:a24787106", "current_trial": 18, "dateTime": 1664464572698, "trialdata": {"revealed_states": [], "num_clicks_accrued": [0, 0, 0, 0, 0, 0, 0, 0, 0, 0, 0, 0, 0], "stateRewards": ["", 2, 4, -48, 24, -4, -4, -24, 24, 2, -4, 24, -24], "withholdReward": true, "trial_id": "mdp_163600331068", "block": "test1", "trialIndex": 11, "score": 33, "costs": -2, "simulationMode": [null, null, null], "rewards": [2, 4, 24], "path": ["0", "0", "1", "2", "4"], "rt": [13255, 102, 362], "actions": ["up", "up", "left"], "actionTimes": [14868, 15475, 16344], "queries": {"click": {"state": {"target": ["8", "7", "3", "4", "11", "12", "5", "1"], "time": [4087, 4615, 5279, 6072, 6847, 7407, 9761, 13625]}, "edge": {"target": [], "time": []}}, "mouseover": {"state": {"target": ["6", "8", "6", "7", "3", "2", "4", "4", "11", "10", "12", "0", "5", "2", "6", "6", "5", "6", "2", "1"], "time": [3718, 3875, 4270, 4326, 5166, 5486, 5510, 5908, 6649, 7016, 7167, 8285, 8816, 9119, 9215, 9503, 9582, 9915, 12359, 12689]}, "edge": {"target": [], "time": []}}, "mouseout": {"state": {"target": ["5", "6", "8", "6", "7", "3", "2", "4", "4", "11", "10", "12", "0", "5", "3", "2", "6", "6", "5", "6", "5", "3", "2", "1", "5"], "time": [804, 3800, 4238, 4302, 4894, 5478, 5509, 5534, 6270, 6991, 7116, 7558, 8290, 8871, 9032, 9150, 9224, 9548, 9888, 10648, 11423, 12273, 12447, 13752, 17513]}, "edge": {"target": [], "time": []}}}, "displayed_time": "16.85", "trialTime": 19053, "trial_type": "mouselab-mdp", "trial_index": 18, "time_elapsed": 573136, "internal_node_id": "0.0-4.0-1.0-9.0"}}, {"uniqueid": "w58575345:a24787106", "current_trial": 19, "dateTime": 1664464587441, "trialdata": {"revealed_states": [], "num_clicks_accrued": [0, 0, 0, 0, 0, 0, 0, 0, 0, 0, 0, 0, 0], "stateRewards": ["", -2, 8, -24, 24, -4, -8, -24, 48, -2, -8, -48, 48], "withholdReward": false, "trial_id": "mdp_238332601315", "block": "test1", "trialIndex": 12, "score": 41, "costs": -2, "simulationMode": [null, null, null], "rewards": [-2, -8, 48], "path": ["0", "0", "9", "10", "12"], "rt": [9411, 158, 92], "actions": ["left", "left", "down"], "actionTimes": [11009, 11666, 12267], "queries": {"click": {"state": {"target": ["8", "7", "5", "3", "4", "11", "12", "9"], "time": [2916, 3716, 4876, 6332, 6851, 7492, 8084, 9188]}, "edge": {"target": [], "time": []}}, "mouseover": {"state": {"target": ["1", "5", "6", "8", "6", "7", "6", "5", "6", "1", "2", "4", "2", "3", "2", "4", "11", "10", "12", "10", "9"], "time": [2135, 2291, 2571, 2701, 3093, 3267, 4403, 4602, 5044, 5733, 5776, 5992, 6034, 6092, 6491, 6666, 7125, 7667, 7741, 8733, 8908]}, "edge": {"target": [], "time": []}}, "mouseout": {"state": {"target": ["0", "0", "1", "5", "6", "8", "6", "7", "6", "5", "6", "5", "1", "2", "4", "2", "3", "2", "4", "11", "10", "12", "10", "9"], "time": [1018, 1445, 2220, 2531, 2675, 3068, 3203, 3954, 4450, 5011, 5451, 5499, 5759, 5818, 6001, 6067, 6458, 6526, 7091, 7644, 7708, 8225, 8780, 9332]}, "edge": {"target": [], "time": []}}}, "displayed_time": "12.77", "trialTime": 14677, "trial_type": "mouselab-mdp", "trial_index": 19, "time_elapsed": 587879, "internal_node_id": "0.0-4.0-1.0-10.0"}}, {"uniqueid": "w58575345:a24787106", "current_trial": 20, "dateTime": 1664464604670, "trialdata": {"revealed_states": [], "num_clicks_accrued": [0, 0, 0, 0, 0, 0, 0, 0, 0, 0, 0, 0, 0], "stateRewards": ["", -4, 4, 48, 24, -4, 4, -24, 48, -2, -8, 24, -48], "withholdReward": true, "trial_id": "mdp_261501605436", "block": "test1", "trialIndex": 13, "score": 50.75, "costs": -2.25, "simulationMode": [null, null, null], "rewards": [-4, 4, 48], "path": ["0", "0", "5", "6", "8"], "rt": [11806, 64, 33], "actions": ["right", "right", "down"], "actionTimes": [13113, 13682, 14225], "queries": {"click": {"state": {"target": ["8", "5", "6", "3", "1", "2", "11", "12", "4"], "time": [3790, 5279, 5726, 6734, 7999, 8552, 10358, 10902, 11607]}, "edge": {"target": [], "time": []}}, "mouseover": {"state": {"target": ["3", "6", "8", "6", "7", "6", "5", "5", "6", "7", "3", "2", "4", "2", "2", "1", "2", "11", "12", "0", "4"], "time": [2253, 3354, 3586, 3936, 4044, 4702, 4761, 5037, 5445, 6310, 6462, 6968, 7222, 7454, 7542, 7668, 8201, 10181, 10734, 11126, 11317]}, "edge": {"target": [], "time": []}}, "mouseout": {"state": {"target": ["9", "0", "3", "6", "8", "6", "7", "6", "5", "5", "6", "7", "3", "2", "4", "2", "2", "1", "2", "3", "1", "11", "12", "0", "1", "4", "2", "3", "5"], "time": [853, 1070, 3142, 3527, 3911, 3977, 4612, 4727, 4836, 5404, 5878, 6352, 6935, 7019, 7421, 7484, 7568, 8166, 8653, 8718, 9974, 10502, 11038, 11142, 11237, 11702, 11785, 15499, 16125]}, "edge": {"target": [], "time": []}}}, "displayed_time": "14.73", "trialTime": 17170, "trial_type": "mouselab-mdp", "trial_index": 20, "time_elapsed": 605108, "internal_node_id": "0.0-4.0-1.0-11.0"}}, {"uniqueid": "w58575345:a24787106", "current_trial": 21, "dateTime": 1664464622198, "trialdata": {"revealed_states": [], "num_clicks_accrued": [0, 0, 0, 0, 0, 0, 0, 0, 0, 0, 0, 0, 0], "stateRewards": ["", -2, -4, -48, -48, -2, -8, 48, -48, 4, -8, -48, 24], "withholdReward": true, "trial_id": "mdp_468495641521", "block": "test1", "trialIndex": 14, "score": 41, "costs": -2, "simulationMode": [null, null, null], "rewards": [-2, -8, 48], "path": ["0", "0", "5", "6", "7"], "rt": [10293, 85, 1477], "actions": ["right", "right", "up"], "actionTimes": [11658, 12243, 14225], "queries": {"click": {"state": {"target": ["4", "3", "7", "5", "6", "12", "11", "8"], "time": [2250, 2929, 3578, 4850, 5298, 6593, 7194, 8003]}, "edge": {"target": [], "time": []}}, "mouseover": {"state": {"target": ["1", "2", "4", "2", "3", "7", "8", "5", "5", "6", "9", "12", "10", "11", "0", "8", "8"], "time": [1834, 1926, 2056, 2409, 2634, 3129, 3821, 4450, 4633, 5025, 6257, 6394, 6769, 6891, 7557, 7608, 7851]}, "edge": {"target": [], "time": []}}, "mouseout": {"state": {"target": ["1", "2", "4", "2", "3", "7", "8", "5", "5", "6", "6", "5", "9", "12", "10", "11", "0", "8", "8", "6"], "time": [1893, 1959, 2368, 2481, 3084, 3729, 4361, 4500, 4945, 5441, 5849, 5874, 6274, 6738, 6834, 7353, 7574, 7649, 8129, 15730]}, "edge": {"target": [], "time": []}}}, "displayed_time": "14.73", "trialTime": 17467, "trial_type": "mouselab-mdp", "trial_index": 21, "time_elapsed": 622636, "internal_node_id": "0.0-4.0-1.0-12.0"}}, {"uniqueid": "w58575345:a24787106", "current_trial": 22, "dateTime": 1664464636959, "trialdata": {"revealed_states": [], "num_clicks_accrued": [0, 0, 0, 0, 0, 0, 0, 0, 0, 0, 0, 0, 0], "stateRewards": ["", 2, -4, 48, -48, -4, -8, -48, 24, -4, 4, 48, 48], "withholdReward": true, "trial_id": "mdp_544803968425", "block": "test1", "trialIndex": 15, "score": 51.25, "costs": -1.75, "simulationMode": [null, null, null], "rewards": [-4, 4, 48], "path": ["0", "0", "9", "10", "12"], "rt": [8960, 140, 121], "actions": ["left", "left", "down"], "actionTimes": [11712, 12349, 12981], "queries": {"click": {"state": {"target": ["4", "3", "1", "2", "7", "8", "12"], "time": [4208, 4695, 5711, 6191, 7287, 7823, 8535]}, "edge": {"target": [], "time": []}}, "mouseover": {"state": {"target": ["2", "4", "2", "3", "7", "0", "1", "2", "7", "7", "6", "8", "0", "9", "12", "10", "11"], "time": [3902, 3969, 4366, 4462, 4926, 5269, 5495, 6010, 6782, 7102, 7518, 7590, 8060, 8093, 8262, 8671, 8783]}, "edge": {"target": [], "time": []}}, "mouseout": {"state": {"target": ["0", "2", "4", "2", "3", "7", "0", "1", "2", "3", "7", "7", "6", "8", "0", "9", "12", "10"], "time": [2886, 3941, 4343, 4421, 4885, 5202, 5334, 5854, 6359, 6718, 6822, 7485, 7551, 8018, 8077, 8134, 8654, 8710]}, "edge": {"target": [], "time": []}}}, "displayed_time": "13.48", "trialTime": 14702, "trial_type": "mouselab-mdp", "trial_index": 22, "time_elapsed": 637397, "internal_node_id": "0.0-4.0-1.0-13.0"}}, {"uniqueid": "w58575345:a24787106", "current_trial": 23, "dateTime": 1664464649448, "trialdata": {"revealed_states": [], "num_clicks_accrued": [0, 0, 0, 0, 0, 0, 0, 0, 0, 0, 0, 0, 0], "stateRewards": ["", 2, 4, -48, -48, 2, 4, 48, -24, -2, 8, 48, -48], "withholdReward": true, "trial_id": "mdp_258528916140", "block": "test1", "trialIndex": 16, "score": 57.75, "costs": -1.25, "simulationMode": [null, null, null], "rewards": [2, 4, 48], "path": ["0", "0", "5", "6", "7"], "rt": [4808, 80, 1690], "actions": ["right", "right", "up"], "actionTimes": [5950, 6535, 8727], "queries": {"click": {"state": {"target": ["4", "3", "7", "5", "6"], "time": [2151, 2601, 3439, 4609, 5009]}, "edge": {"target": [], "time": []}}, "mouseover": {"state": {"target": ["1", "4", "2", "3", "7", "7", "7", "6", "8", "8", "5", "6"], "time": [1671, 1971, 2320, 2380, 2871, 3112, 3215, 3600, 3654, 3896, 4395, 4795]}, "edge": {"target": [], "time": []}}, "mouseout": {"state": {"target": ["11", "1", "4", "2", "3", "7", "7", "7", "6", "8", "8", "5", "6", "6", "8"], "time": [647, 1687, 2280, 2346, 2784, 2879, 3151, 3600, 3638, 3687, 4304, 4746, 5296, 9848, 11328]}, "edge": {"target": [], "time": []}}}, "displayed_time": "10.15", "trialTime": 12421, "trial_type": "mouselab-mdp", "trial_index": 23, "time_elapsed": 649886, "internal_node_id": "0.0-4.0-1.0-14.0"}}, {"uniqueid": "w58575345:a24787106", "current_trial": 24, "dateTime": 1664464660705, "trialdata": {"revealed_states": [], "num_clicks_accrued": [0, 0, 0, 0, 0, 0, 0, 0, 0, 0, 0, 0, 0], "stateRewards": ["", 4, -8, 24, 48, 2, -4, 48, 48, 4, -8, 48, 48], "withholdReward": true, "trial_id": "mdp_962498334245", "block": "test1", "trialIndex": 17, "score": 49.5, "costs": -1.5, "simulationMode": [null, null, null], "rewards": [2, -4, 48], "path": ["0", "0", "5", "6", "8"], "rt": [7054, 82, 70], "actions": ["right", "right", "down"], "actionTimes": [8321, 8901, 9480], "queries": {"click": {"state": {"target": ["12", "9", "10", "8", "5", "6"], "time": [2335, 3262, 3623, 5157, 6758, 7086]}, "edge": {"target": [], "time": []}}, "mouseover": {"state": {"target": ["1", "9", "10", "12", "10", "11", "11", "9", "10", "5", "8", "6", "7", "6", "5", "6"], "time": [1728, 1844, 2020, 2052, 2536, 2561, 2845, 3094, 3428, 4813, 4902, 5360, 5410, 6377, 6493, 6901]}, "edge": {"target": [], "time": []}}, "mouseout": {"state": {"target": ["5", "0", "1", "9", "10", "12", "10", "11", "11", "9", "10", "9", "5", "8", "6", "7", "6", "5", "6", "8"], "time": [861, 1398, 1786, 1986, 2028, 2519, 2544, 2578, 2861, 3374, 3789, 4560, 4845, 5324, 5385, 5827, 6468, 6868, 7293, 10567]}, "edge": {"target": [], "time": []}}}, "displayed_time": "9.98", "trialTime": 11197, "trial_type": "mouselab-mdp", "trial_index": 24, "time_elapsed": 661143, "internal_node_id": "0.0-4.0-1.0-15.0"}}, {"uniqueid": "w58575345:a24787106", "current_trial": 25, "dateTime": 1664464671185, "trialdata": {"revealed_states": [], "num_clicks_accrued": [0, 0, 0, 0, 0, 0, 0, 0, 0, 0, 0, 0, 0], "stateRewards": ["", 2, -4, 48, -48, 2, 4, -24, 24, -4, -8, 24, -48], "withholdReward": true, "trial_id": "mdp_238810765895", "block": "test1", "trialIndex": 18, "score": 50, "costs": -1, "simulationMode": [null, null, null], "rewards": [2, -4, 48], "path": ["0", "0", "1", "2", "3"], "rt": [5034, 67, 37], "actions": ["up", "up", "right"], "actionTimes": [6260, 6833, 7377], "queries": {"click": {"state": {"target": ["4", "3", "1", "2"], "time": [2204, 2731, 3843, 4183]}, "edge": {"target": [], "time": []}}, "mouseover": {"state": {"target": ["1", "4", "2", "3", "7", "5", "1", "2", "1", "2", "7", "6", "7"], "time": [1834, 2041, 2357, 2417, 3027, 3299, 3426, 3450, 3665, 3987, 4940, 4991, 5123]}, "edge": {"target": [], "time": []}}, "mouseout": {"state": {"target": ["5", "1", "4", "2", "3", "7", "5", "1", "2", "1", "2", "3", "7", "6", "7", "5"], "time": [803, 1882, 2324, 2394, 2932, 3267, 3386, 3434, 3574, 3947, 4310, 4874, 4966, 5106, 8560, 8639]}, "edge": {"target": [], "time": []}}}, "displayed_time": "9.23", "trialTime": 10418, "trial_type": "mouselab-mdp", "trial_index": 25, "time_elapsed": 671622, "internal_node_id": "0.0-4.0-1.0-16.0"}}, {"uniqueid": "w58575345:a24787106", "current_trial": 26, "dateTime": 1664464681741, "trialdata": {"revealed_states": [], "num_clicks_accrued": [0, 0, 0, 0, 0, 0, 0, 0, 0, 0, 0, 0, 0], "stateRewards": ["", -4, -4, -24, 48, -4, -8, -24, 48, 2, 4, 48, 48], "withholdReward": true, "trial_id": "mdp_810954007398", "block": "test1", "trialIndex": 19, "score": 58.25, "costs": -0.75, "simulationMode": [null, null, null], "rewards": [2, 4, 48], "path": ["0", "0", "9", "10", "11"], "rt": [3244, 333, 333], "actions": ["left", "left", "up"], "actionTimes": [4580, 5411, 6252], "queries": {"click": {"state": {"target": ["11", "9", "10"], "time": [2100, 3171, 3493]}, "edge": {"target": [], "time": []}}, "mouseover": {"state": {"target": ["11", "10", "12", "10", "9", "10"], "time": [1878, 2270, 2362, 2876, 3028, 3328]}, "edge": {"target": [], "time": []}}, "mouseout": {"state": {"target": ["0", "11", "10", "12", "10", "9", "10", "11", "9"], "time": [1155, 2253, 2303, 2836, 2886, 3286, 3644, 7173, 7235]}, "edge": {"target": [], "time": []}}}, "displayed_time": "9.34", "trialTime": 10489, "trial_type": "mouselab-mdp", "trial_index": 26, "time_elapsed": 682178, "internal_node_id": "0.0-4.0-1.0-17.0"}}, {"uniqueid": "w58575345:a24787106", "current_trial": 27, "dateTime": 1664464693860, "trialdata": {"revealed_states": [], "num_clicks_accrued": [0, 0, 0, 0, 0, 0, 0, 0, 0, 0, 0, 0, 0], "stateRewards": ["", 2, 4, 48, -48, 2, 8, -24, 48, 4, 8, 48, -48], "withholdReward": false, "trial_id": "mdp_110142964375", "block": "test1", "trialIndex": 20, "score": 58, "costs": -1, "simulationMode": [null, null, null], "rewards": [2, 4, 48], "path": ["0", "0", "1", "2", "3"], "rt": [3525, 85, 302], "actions": ["up", "up", "right"], "actionTimes": [4892, 5476, 6285], "queries": {"click": {"state": {"target": ["4", "3", "1", "2"], "time": [2183, 2703, 3648, 4031]}, "edge": {"target": [], "time": []}}, "mouseover": {"state": {"target": ["2", "4", "2", "3", "6", "1", "2"], "time": [1824, 1999, 2318, 2367, 2908, 3358, 3883]}, "edge": {"target": [], "time": []}}, "mouseout": {"state": {"target": ["9", "1", "0", "2", "4", "2", "3", "6", "1", "2", "3", "1"], "time": [774, 887, 1463, 1841, 2286, 2341, 2833, 3294, 3710, 4158, 4224, 9776]}, "edge": {"target": [], "time": []}}}, "displayed_time": "10.37", "trialTime": 12049, "trial_type": "mouselab-mdp", "trial_index": 27, "time_elapsed": 694298, "internal_node_id": "0.0-4.0-1.0-18.0"}}, {"uniqueid": "w58575345:a24787106", "current_trial": 28, "dateTime": 1664464705997, "trialdata": {"revealed_states": [], "num_clicks_accrued": [0, 0, 0, 0, 0, 0, 0, 0, 0, 0, 0, 0, 0], "stateRewards": ["", 2, 4, 48, 24, -2, -8, 24, 24, -2, 4, -48, 24], "withholdReward": true, "trial_id": "mdp_130849500124", "block": "test1", "trialIndex": 21, "score": 57.75, "costs": -1.25, "simulationMode": [null, null, null], "rewards": [2, 4, 48], "path": ["0", "0", "1", "2", "3"], "rt": [4580, 88, 80], "actions": ["up", "up", "right"], "actionTimes": [7225, 7818, 8401], "queries": {"click": {"state": {"target": ["8", "7", "3", "1", "2"], "time": [3415, 4061, 4927, 5846, 6167]}, "edge": {"target": [], "time": []}}, "mouseover": {"state": {"target": ["5", "6", "6", "8", "6", "7", "7", "3", "2", "4", "4", "2", "1", "2"], "time": [2997, 3029, 3133, 3230, 3563, 3741, 3870, 4749, 5062, 5113, 5333, 5446, 5693, 5988]}, "edge": {"target": [], "time": []}}, "mouseout": {"state": {"target": ["8", "6", "5", "0", "5", "6", "6", "8", "6", "7", "7", "3", "2", "4", "4", "2", "1", "2", "3"], "time": [988, 2238, 2288, 2455, 3013, 3071, 3156, 3530, 3613, 3747, 4229, 5046, 5087, 5189, 5429, 5454, 5954, 6309, 6510]}, "edge": {"target": [], "time": []}}}, "displayed_time": "11.65", "trialTime": 12070, "trial_type": "mouselab-mdp", "trial_index": 28, "time_elapsed": 706435, "internal_node_id": "0.0-4.0-1.0-19.0"}}, {"uniqueid": "w58575345:a24787106", "current_trial": 29, "dateTime": 1664464717513, "trialdata": {"revealed_states": [], "num_clicks_accrued": [0, 0, 0, 0, 0, 0, 0, 0, 0, 0, 0, 0, 0], "stateRewards": ["", -2, 4, -24, -48, -4, 8, -24, 48, 4, 4, -48, 24], "withholdReward": true, "trial_id": "mdp_341117665701", "block": "test1", "trialIndex": 22, "score": 55.75, "costs": -1.25, "simulationMode": [null, null, null], "rewards": [-4, 8, 48], "path": ["0", "0", "5", "6", "8"], "rt": [5793, 78, 97], "actions": ["right", "right", "down"], "actionTimes": [6935, 7519, 8121], "queries": {"click": {"state": {"target": ["11", "12", "8", "5", "6"], "time": [2089, 2640, 3409, 4360, 4672]}, "edge": {"target": [], "time": []}}, "mouseover": {"state": {"target": ["11", "10", "12", "8", "6", "7", "6", "5", "6", "7", "3", "2", "4", "2"], "time": [1899, 2283, 2432, 3174, 3526, 3880, 4065, 4191, 4524, 4941, 5448, 5523, 5743, 5882]}, "edge": {"target": [], "time": []}}, "mouseout": {"state": {"target": ["1", "0", "11", "10", "12", "8", "6", "7", "6", "5", "6", "7", "3", "2", "4", "2", "5"], "time": [735, 1292, 2247, 2341, 2743, 3494, 3534, 3959, 4166, 4464, 4848, 5391, 5473, 5566, 5848, 5898, 9190]}, "edge": {"target": [], "time": []}}}, "displayed_time": "10.15", "trialTime": 11454, "trial_type": "mouselab-mdp", "trial_index": 29, "time_elapsed": 717951, "internal_node_id": "0.0-4.0-1.0-20.0"}}, {"uniqueid": "w58575345:a24787106", "current_trial": 30, "dateTime": 1664464729877, "trialdata": {"revealed_states": [], "num_clicks_accrued": [0, 0, 0, 0, 0, 0, 0, 0, 0, 0, 0, 0, 0], "stateRewards": ["", -4, 4, -24, 24, 2, 4, -24, 48, -4, 8, -48, 48], "withholdReward": true, "trial_id": "mdp_422109108860", "block": "test1", "trialIndex": 23, "score": 57.5, "costs": -1.5, "simulationMode": [null, null, null], "rewards": [2, 4, 48], "path": ["0", "0", "5", "6", "8"], "rt": [5439, 83, 76], "actions": ["right", "right", "down"], "actionTimes": [7536, 8124, 8709], "queries": {"click": {"state": {"target": ["4", "3", "7", "8", "5", "6"], "time": [3729, 4321, 4930, 5497, 6371, 6681]}, "edge": {"target": [], "time": []}}, "mouseover": {"state": {"target": ["1", "4", "2", "3", "7", "6", "8", "6", "5", "6"], "time": [2633, 2759, 3959, 4097, 4616, 5082, 5208, 6124, 6216, 6541]}, "edge": {"target": [], "time": []}}, "mouseout": {"state": {"target": ["0", "1", "4", "2", "3", "7", "6", "8", "6", "5", "6", "0"], "time": [1810, 2650, 3944, 3992, 4481, 5066, 5099, 5649, 6185, 6507, 9914, 10569]}, "edge": {"target": [], "time": []}}}, "displayed_time": "10.10", "trialTime": 12304, "trial_type": "mouselab-mdp", "trial_index": 30, "time_elapsed": 730315, "internal_node_id": "0.0-4.0-1.0-21.0"}}, {"uniqueid": "w58575345:a24787106", "current_trial": 31, "dateTime": 1664464740894, "trialdata": {"revealed_states": [], "num_clicks_accrued": [0, 0, 0, 0, 0, 0, 0, 0, 0, 0, 0, 0, 0], "stateRewards": ["", -2, 8, 48, 24, 2, -8, -24, -48, -4, 8, -48, 24], "withholdReward": true, "trial_id": "mdp_224053025943", "block": "test1", "trialIndex": 24, "score": 57.5, "costs": -1.5, "simulationMode": [null, null, null], "rewards": [-2, 8, 48], "path": ["0", "0", "1", "2", "3"], "rt": [5532, 70, 89], "actions": ["up", "up", "right"], "actionTimes": [6579, 7151, 7744], "queries": {"click": {"state": {"target": ["11", "12", "4", "3", "1", "2"], "time": [1797, 2212, 3180, 3709, 4669, 4940]}, "edge": {"target": [], "time": []}}, "mouseover": {"state": {"target": ["9", "11", "10", "12", "9", "4", "2", "3", "7", "2", "1", "2", "7"], "time": [1438, 1531, 1956, 2047, 2371, 3004, 3339, 3604, 4063, 4323, 4505, 4795, 5504]}, "edge": {"target": [], "time": []}}, "mouseout": {"state": {"target": ["0", "9", "11", "10", "12", "9", "4", "2", "3", "7", "2", "1", "2", "3", "7", "5"], "time": [1405, 1481, 1923, 1996, 2339, 2380, 3315, 3371, 3879, 4155, 4454, 4754, 5099, 5180, 5652, 8929]}, "edge": {"target": [], "time": []}}}, "displayed_time": "10.05", "trialTime": 10946, "trial_type": "mouselab-mdp", "trial_index": 31, "time_elapsed": 741332, "internal_node_id": "0.0-4.0-1.0-22.0"}}, {"uniqueid": "w58575345:a24787106", "current_trial": 32, "dateTime": 1664464752039, "trialdata": {"revealed_states": [], "num_clicks_accrued": [0, 0, 0, 0, 0, 0, 0, 0, 0, 0, 0, 0, 0], "stateRewards": ["", 2, -8, 24, -48, 2, 4, 48, -48, -2, -8, -48, 48], "withholdReward": true, "trial_id": "mdp_629420544881", "block": "test1", "trialIndex": 25, "score": 58.25, "costs": -0.75, "simulationMode": [null, null, null], "rewards": [2, 4, 48], "path": ["0", "0", "5", "6", "7"], "rt": [3089, 71, 647], "actions": ["right", "right", "up"], "actionTimes": [3975, 4547, 5698], "queries": {"click": {"state": {"target": ["7", "5", "6"], "time": [1651, 2611, 2914]}, "edge": {"target": [], "time": []}}, "mouseover": {"state": {"target": ["7", "6", "8", "5", "6"], "time": [1482, 1817, 1893, 2473, 2759]}, "edge": {"target": [], "time": []}}, "mouseout": {"state": {"target": ["7", "6", "8", "5", "6", "7", "7", "5", "5"], "time": [1793, 1857, 2226, 2717, 3050, 6330, 6651, 6691, 9771]}, "edge": {"target": [], "time": []}}}, "displayed_time": "9.89", "trialTime": 11066, "trial_type": "mouselab-mdp", "trial_index": 32, "time_elapsed": 752477, "internal_node_id": "0.0-4.0-1.0-23.0"}}, {"uniqueid": "w58575345:a24787106", "current_trial": 33, "dateTime": 1664464764888, "trialdata": {"revealed_states": [], "num_clicks_accrued": [0, 0, 0, 0, 0, 0, 0, 0, 0, 0, 0, 0, 0], "stateRewards": ["", 2, -4, 24, 48, -2, 4, -48, -48, -4, 4, 24, -24], "withholdReward": true, "trial_id": "mdp_900363662757", "block": "test1", "trialIndex": 26, "score": 50.25, "costs": -0.75, "simulationMode": [null, null, null], "rewards": [2, -4, 48], "path": ["0", "0", "1", "2", "4"], "rt": [8507, 116, 174], "actions": ["up", "up", "left"], "actionTimes": [9590, 10211, 10894], "queries": {"click": {"state": {"target": ["4", "1", "2"], "time": [1988, 3111, 3468]}, "edge": {"target": [], "time": []}}, "mouseover": {"state": {"target": ["11", "4", "2", "3", "1", "2", "3", "9", "10", "11"], "time": [1539, 1723, 2171, 2252, 2875, 3283, 3679, 4508, 4612, 4772]}, "edge": {"target": [], "time": []}}, "mouseout": {"state": {"target": ["0", "11", "4", "2", "3", "1", "2", "3", "1", "9", "10", "11", "1", "1", "5"], "time": [914, 1546, 2131, 2212, 2763, 3244, 3637, 3687, 4428, 4537, 4676, 6086, 7677, 8852, 11943]}, "edge": {"target": [], "time": []}}}, "displayed_time": "11.40", "trialTime": 12771, "trial_type": "mouselab-mdp", "trial_index": 33, "time_elapsed": 765326, "internal_node_id": "0.0-4.0-1.0-24.0"}}, {"uniqueid": "w58575345:a24787106", "current_trial": 34, "dateTime": 1664464781410, "trialdata": {"revealed_states": [], "num_clicks_accrued": [0, 0, 0, 0, 0, 0, 0, 0, 0, 0, 0, 0, 0], "stateRewards": ["", 2, -4, 24, -24, 2, -8, 48, 48, 4, -4, 24, 48], "withholdReward": true, "trial_id": "mdp_947836623875", "block": "test1", "trialIndex": 27, "score": 50.75, "costs": -2.25, "simulationMode": [null, null, null], "rewards": [4, -4, 48], "path": ["0", "0", "9", "10", "12"], "rt": [12027, 126, 96], "actions": ["left", "left", "down"], "actionTimes": [13095, 13723, 14326], "queries": {"click": {"state": {"target": ["8", "5", "6", "4", "3", "11", "12", "9", "10"], "time": [2315, 3252, 3620, 7436, 8060, 9062, 9597, 10612, 11133]}, "edge": {"target": [], "time": []}}, "mouseover": {"state": {"target": ["5", "8", "6", "5", "6", "7", "3", "2", "4", "2", "3", "2", "1", "11", "10", "12", "9", "9", "10"], "time": [1722, 2123, 2857, 3082, 3441, 6812, 6914, 7047, 7256, 7697, 7831, 8364, 8650, 8923, 9219, 9380, 10139, 10388, 10772]}, "edge": {"target": [], "time": []}}, "mouseout": {"state": {"target": ["0", "0", "5", "8", "6", "5", "6", "7", "3", "2", "4", "2", "3", "2", "1", "11", "10", "12", "5", "9", "9", "10", "9", "8", "8"], "time": [642, 1218, 1748, 2451, 2865, 3409, 3779, 6831, 6947, 7064, 7643, 7780, 8339, 8388, 8755, 9195, 9297, 9731, 10036, 10172, 10747, 11246, 11271, 15212, 15365]}, "edge": {"target": [], "time": []}}}, "displayed_time": "14.83", "trialTime": 16458, "trial_type": "mouselab-mdp", "trial_index": 34, "time_elapsed": 781848, "internal_node_id": "0.0-4.0-1.0-25.0"}}, {"uniqueid": "w58575345:a24787106", "current_trial": 35, "dateTime": 1664464792670, "trialdata": {"revealed_states": [], "num_clicks_accrued": [0, 0, 0, 0, 0, 0, 0, 0, 0, 0, 0, 0, 0], "stateRewards": ["", 2, 8, 48, 24, -4, 4, -48, 24, 2, 8, 48, 48], "withholdReward": false, "trial_id": "mdp_367344599162", "block": "test1", "trialIndex": 28, "score": 61.75, "costs": -1.25, "simulationMode": [null, null, null], "rewards": [2, 8, 48], "path": ["0", "0", "1", "2", "3"], "rt": [4643, 47, 8], "actions": ["up", "up", "right"], "actionTimes": [5528, 6078, 6596], "queries": {"click": {"state": {"target": ["7", "8", "3", "1", "2"], "time": [1700, 2268, 3372, 4293, 4588]}, "edge": {"target": [], "time": []}}, "mouseover": {"state": {"target": ["7", "6", "8", "8", "6", "3", "3", "2", "4", "2", "2", "1", "2"], "time": [1598, 1867, 1922, 2180, 2797, 2856, 3172, 3498, 3571, 3856, 4014, 4122, 4439]}, "edge": {"target": [], "time": []}}, "mouseout": {"state": {"target": ["5", "0", "7", "6", "8", "8", "6", "7", "3", "3", "2", "4", "2", "2", "1", "2", "3"], "time": [370, 1210, 1850, 1898, 1939, 2435, 2805, 2831, 2988, 3475, 3539, 3819, 3889, 4084, 4380, 4765, 7669]}, "edge": {"target": [], "time": []}}}, "displayed_time": "9.89", "trialTime": 11187, "trial_type": "mouselab-mdp", "trial_index": 35, "time_elapsed": 793108, "internal_node_id": "0.0-4.0-1.0-26.0"}}, {"uniqueid": "w58575345:a24787106", "current_trial": 36, "dateTime": 1664464804780, "trialdata": {"revealed_states": [], "num_clicks_accrued": [0, 0, 0, 0, 0, 0, 0, 0, 0, 0, 0, 0, 0], "stateRewards": ["", -2, -4, 48, -24, 2, -4, -24, -48, 2, 8, -48, -24], "withholdReward": true, "trial_id": "mdp_238243948191", "block": "test1", "trialIndex": 29, "score": 45, "costs": -2, "simulationMode": [null, null, null], "rewards": [-2, -4, 48], "path": ["0", "0", "1", "2", "3"], "rt": [7327, 95, 204], "actions": ["up", "up", "right"], "actionTimes": [8216, 8812, 9521], "queries": {"click": {"state": {"target": ["4", "3", "1", "2", "7", "8", "12", "11"], "time": [1827, 2282, 3257, 3587, 4499, 5027, 5843, 6635]}, "edge": {"target": [], "time": []}}, "mouseover": {"state": {"target": ["1", "2", "4", "2", "3", "7", "1", "2", "7", "7", "6", "8", "12", "12", "11", "11"], "time": [1384, 1459, 1576, 2018, 2101, 2542, 3100, 3426, 4117, 4337, 4676, 4759, 5517, 5730, 6124, 6441]}, "edge": {"target": [], "time": []}}, "mouseout": {"state": {"target": ["0", "1", "2", "4", "2", "3", "7", "1", "2", "3", "7", "7", "6", "8", "12", "12", "11", "11", "1", "3", "1"], "time": [696, 1425, 1476, 1993, 2058, 2474, 2593, 3385, 3776, 4075, 4167, 4642, 4683, 5250, 5592, 6001, 6158, 7011, 7092, 10116, 10363]}, "edge": {"target": [], "time": []}}}, "displayed_time": "10.02", "trialTime": 12046, "trial_type": "mouselab-mdp", "trial_index": 36, "time_elapsed": 805218, "internal_node_id": "0.0-4.0-1.0-27.0"}}, {"uniqueid": "w58575345:a24787106", "current_trial": 37, "dateTime": 1664464817235, "trialdata": {"revealed_states": [], "num_clicks_accrued": [0, 0, 0, 0, 0, 0, 0, 0, 0, 0, 0, 0, 0], "stateRewards": ["", -4, 8, 24, 24, 2, 4, -48, 24, -2, -4, -24, -24], "withholdReward": true, "trial_id": "mdp_752328329546", "block": "test1", "trialIndex": 30, "score": 31.5, "costs": -1.5, "simulationMode": [null, null, null], "rewards": [-4, 8, 24], "path": ["0", "0", "1", "2", "4"], "rt": [8002, 79, 126], "actions": ["up", "up", "left"], "actionTimes": [8935, 9514, 10143], "queries": {"click": {"state": {"target": ["3", "4", "11", "12", "8", "7"], "time": [2102, 2764, 3347, 3924, 4476, 5084]}, "edge": {"target": [], "time": []}}, "mouseover": {"state": {"target": ["3", "3", "2", "4", "4", "11", "10", "12", "8", "6", "7", "7"], "time": [1793, 1993, 2276, 2335, 2691, 3138, 3543, 3725, 4234, 4610, 4634, 4842]}, "edge": {"target": [], "time": []}}, "mouseout": {"state": {"target": ["0", "3", "3", "2", "4", "4", "11", "10", "12", "8", "6", "7", "7", "7", "3", "1", "0"], "time": [761, 1818, 2234, 2309, 2368, 3059, 3509, 3628, 4059, 4594, 4626, 4642, 5267, 6523, 7612, 11291, 11424]}, "edge": {"target": [], "time": []}}}, "displayed_time": "10.65", "trialTime": 12387, "trial_type": "mouselab-mdp", "trial_index": 37, "time_elapsed": 817673, "internal_node_id": "0.0-4.0-1.0-28.0"}}, {"uniqueid": "w58575345:a24787106", "current_trial": 38, "dateTime": 1664464828944, "trialdata": {"revealed_states": [], "num_clicks_accrued": [0, 0, 0, 0, 0, 0, 0, 0, 0, 0, 0, 0, 0], "stateRewards": ["", -2, -4, -24, -48, -2, 8, -48, 24, 4, -4, -24, -24], "withholdReward": false, "trial_id": "mdp_915304165774", "block": "test1", "trialIndex": 31, "score": 33.5, "costs": -1.5, "simulationMode": [null, null, null], "rewards": [-2, 8, 24], "path": ["0", "0", "5", "6", "8"], "rt": [7040, 185, 1044], "actions": ["right", "right", "down"], "actionTimes": [7771, 8460, 10014], "queries": {"click": {"state": {"target": ["3", "4", "11", "12", "8", "7"], "time": [1701, 2134, 2750, 3254, 3886, 4430]}, "edge": {"target": [], "time": []}}, "mouseover": {"state": {"target": ["3", "2", "4", "11", "10", "12", "8", "6", "7", "6", "6"], "time": [1542, 1876, 1933, 2573, 2893, 3025, 3625, 4033, 4205, 6269, 6525]}, "edge": {"target": [], "time": []}}, "mouseout": {"state": {"target": ["3", "2", "4", "11", "10", "12", "8", "6", "7", "6", "6"], "time": [1838, 1908, 2421, 2876, 2941, 3413, 3991, 4125, 4629, 6374, 10502]}, "edge": {"target": [], "time": []}}}, "displayed_time": "10.51", "trialTime": 11641, "trial_type": "mouselab-mdp", "trial_index": 38, "time_elapsed": 829382, "internal_node_id": "0.0-4.0-1.0-29.0"}}, {"uniqueid": "w58575345:a24787106", "current_trial": 39, "dateTime": 1664464849837, "trialdata": {"rt": 20888, "stimulus": "<h1> End of block! </h1>\n\nYou have reached the end of the block 1/4. If you need a short break, feel free to take one now before moving on.\n\n<br><br>\nIn the next block, you will complete another 30 rounds of this game.\n\n<br><br>\n<div style='text-align: center;'>Press <code>space</code> to begin.</div>\n<br><br>\n<div style='text-align: center;'>(If the experiment doesn't continue, try clicking on the text and then pressing <code>space</code>.)</div>", "response": " ", "trial_id": "mdp_ready_2", "trial_type": "html-keyboard-response", "trial_index": 39, "time_elapsed": 850275, "internal_node_id": "0.0-4.0-2.0"}}, {"uniqueid": "w58575345:a24787106", "current_trial": 40, "dateTime": 1664464861901, "trialdata": {"revealed_states": [], "num_clicks_accrued": [0, 0, 0, 0, 0, 0, 0, 0, 0, 0, 0, 0, 0], "stateRewards": ["", 4, 4, 48, -24, 2, -4, 48, 24, -4, -4, -48, 24], "withholdReward": true, "trial_id": "mdp_496003763005", "block": "test2", "trialIndex": 32, "score": 60, "costs": -1, "simulationMode": [null, null, null], "rewards": [4, 4, 48], "path": ["0", "0", "1", "2", "3"], "rt": [4656, 76, 186], "actions": ["up", "up", "right"], "actionTimes": [6505, 7079, 7773], "queries": {"click": {"state": {"target": ["4", "3", "1", "2"], "time": [3446, 4062, 5095, 5463]}, "edge": {"target": [], "time": []}}, "mouseover": {"state": {"target": ["1", "4", "2", "3", "7", "1", "2"], "time": [2196, 3212, 3587, 3902, 4270, 4911, 5318]}, "edge": {"target": [], "time": []}}, "mouseout": {"state": {"target": ["7", "1", "4", "2", "3", "7", "1", "2", "3", "0"], "time": [1279, 2213, 3558, 3637, 4230, 4765, 5206, 5590, 8360, 8615]}, "edge": {"target": [], "time": []}}}, "displayed_time": "10.86", "trialTime": 11989, "trial_type": "mouselab-mdp", "trial_index": 40, "time_elapsed": 862339, "internal_node_id": "0.0-4.0-3.0-0.0"}}, {"uniqueid": "w58575345:a24787106", "current_trial": 41, "dateTime": 1664464874447, "trialdata": {"revealed_states": [], "num_clicks_accrued": [0, 0, 0, 0, 0, 0, 0, 0, 0, 0, 0, 0, 0], "stateRewards": ["", -2, -4, 48, -24, -4, -4, -24, -24, -2, 4, -48, -24], "withholdReward": false, "trial_id": "mdp_410467837196", "block": "test2", "trialIndex": 33, "score": 45.25, "costs": -1.75, "simulationMode": [null, null, null], "rewards": [-2, -4, 48], "path": ["0", "0", "1", "2", "3"], "rt": [8406, 92, 139], "actions": ["up", "up", "right"], "actionTimes": [9348, 9944, 10591], "queries": {"click": {"state": {"target": ["11", "12", "8", "7", "3", "1", "2"], "time": [1840, 2626, 3593, 5529, 6241, 7250, 7697]}, "edge": {"target": [], "time": []}}, "mouseover": {"state": {"target": ["9", "10", "11", "10", "12", "12", "5", "8", "6", "7", "3", "2", "4", "2", "1", "2"], "time": [1287, 1319, 1662, 2011, 2070, 2416, 3224, 3361, 3744, 4036, 5878, 6393, 6452, 6744, 7078, 7402]}, "edge": {"target": [], "time": []}}, "mouseout": {"state": {"target": ["0", "9", "10", "11", "10", "12", "12", "5", "8", "6", "7", "3", "2", "4", "2", "1", "2", "3", "3", "5"], "time": [1263, 1312, 1599, 1979, 2045, 2127, 2799, 3270, 3720, 3769, 5661, 6368, 6418, 6711, 6887, 7368, 7865, 7953, 11729, 12100]}, "edge": {"target": [], "time": []}}}, "displayed_time": "11.11", "trialTime": 12479, "trial_type": "mouselab-mdp", "trial_index": 41, "time_elapsed": 874885, "internal_node_id": "0.0-4.0-3.0-1.0"}}, {"uniqueid": "w58575345:a24787106", "current_trial": 42, "dateTime": 1664464889475, "trialdata": {"revealed_states": [], "num_clicks_accrued": [0, 0, 0, 0, 0, 0, 0, 0, 0, 0, 0, 0, 0], "stateRewards": ["", -4, -4, -24, 24, 4, 4, -24, -24, -4, 4, 24, 24], "withholdReward": false, "trial_id": "mdp_787781487383", "block": "test2", "trialIndex": 34, "score": 27, "costs": -2, "simulationMode": [null, null, null], "rewards": [-4, 4, 24], "path": ["0", "0", "9", "10", "12"], "rt": [10900, 124, 166], "actions": ["left", "left", "down"], "actionTimes": [11774, 12405, 13078], "queries": {"click": {"state": {"target": ["4", "3", "7", "8", "11", "12", "9", "1"], "time": [1754, 2202, 2788, 3229, 3932, 4469, 6011, 8312]}, "edge": {"target": [], "time": []}}, "mouseover": {"state": {"target": ["4", "2", "3", "7", "6", "8", "10", "11", "10", "12", "9", "0", "5", "5", "1"], "time": [1556, 1890, 2006, 2589, 2922, 3014, 3588, 3778, 4090, 4197, 5306, 6713, 6796, 7455, 7954]}, "edge": {"target": [], "time": []}}, "mouseout": {"state": {"target": ["3", "3", "1", "4", "2", "3", "7", "6", "8", "10", "11", "10", "12", "8", "9", "9", "9", "0", "5", "5", "1", "10", "12"], "time": [129, 497, 553, 1857, 1930, 2347, 2898, 2930, 3449, 3664, 4057, 4156, 4587, 4655, 6203, 6488, 6682, 6747, 6896, 7488, 8382, 14009, 14069]}, "edge": {"target": [], "time": []}}}, "displayed_time": "13.59", "trialTime": 14964, "trial_type": "mouselab-mdp", "trial_index": 42, "time_elapsed": 889913, "internal_node_id": "0.0-4.0-3.0-2.0"}}, {"uniqueid": "w58575345:a24787106", "current_trial": 43, "dateTime": 1664464901435, "trialdata": {"revealed_states": [], "num_clicks_accrued": [0, 0, 0, 0, 0, 0, 0, 0, 0, 0, 0, 0, 0], "stateRewards": ["", -4, -8, -48, 48, -2, -8, -48, -24, 4, 8, 24, -48], "withholdReward": true, "trial_id": "mdp_509977295685", "block": "test2", "trialIndex": 35, "score": 39.25, "costs": -1.75, "simulationMode": [null, null, null], "rewards": [-4, -8, 48], "path": ["0", "0", "1", "2", "4"], "rt": [7199, 61, 1060], "actions": ["up", "up", "left"], "actionTimes": [8124, 8691, 10257], "queries": {"click": {"state": {"target": ["4", "1", "3", "7", "8", "12", "11"], "time": [1988, 3043, 4133, 5012, 5540, 6204, 6756]}, "edge": {"target": [], "time": []}}, "mouseover": {"state": {"target": ["1", "2", "4", "2", "3", "1", "3", "7", "6", "8", "12", "10", "11", "2"], "time": [1506, 1572, 1827, 2155, 2238, 2796, 3419, 4571, 5187, 5379, 6062, 6346, 6588, 7062]}, "edge": {"target": [], "time": []}}, "mouseout": {"state": {"target": ["0", "0", "1", "2", "4", "2", "3", "1", "3", "7", "6", "8", "12", "10", "11", "2", "1", "0", "0"], "time": [489, 1179, 1539, 1580, 2138, 2203, 2515, 3195, 4259, 5163, 5204, 5683, 6321, 6404, 6892, 7283, 10886, 10944, 11764]}, "edge": {"target": [], "time": []}}}, "displayed_time": "10.75", "trialTime": 11894, "trial_type": "mouselab-mdp", "trial_index": 43, "time_elapsed": 901873, "internal_node_id": "0.0-4.0-3.0-3.0"}}, {"uniqueid": "w58575345:a24787106", "current_trial": 44, "dateTime": 1664464911207, "trialdata": {"revealed_states": [], "num_clicks_accrued": [0, 0, 0, 0, 0, 0, 0, 0, 0, 0, 0, 0, 0], "stateRewards": ["", 2, 4, 24, 48, -2, 8, 24, -24, -4, -4, 48, 48], "withholdReward": true, "trial_id": "mdp_753439303214", "block": "test2", "trialIndex": 36, "score": 58.25, "costs": -0.75, "simulationMode": [null, null, null], "rewards": [2, 4, 48], "path": ["0", "0", "1", "2", "4"], "rt": [4513, 115, 437], "actions": ["up", "up", "left"], "actionTimes": [5219, 5838, 6785], "queries": {"click": {"state": {"target": ["3", "4", "1"], "time": [1865, 2591, 3513]}, "edge": {"target": [], "time": []}}, "mouseover": {"state": {"target": ["3", "3", "2", "4", "11", "1", "1", "10", "11"], "time": [974, 1685, 2247, 2397, 2981, 3106, 3397, 4094, 4288]}, "edge": {"target": [], "time": []}}, "mouseout": {"state": {"target": ["1", "3", "3", "2", "4", "11", "1", "1", "1", "10", "11", "0"], "time": [374, 1333, 2223, 2289, 2747, 3055, 3131, 3759, 4039, 4247, 4296, 7572]}, "edge": {"target": [], "time": []}}}, "displayed_time": "8.71", "trialTime": 9694, "trial_type": "mouselab-mdp", "trial_index": 44, "time_elapsed": 911644, "internal_node_id": "0.0-4.0-3.0-4.0"}}, {"uniqueid": "w58575345:a24787106", "current_trial": 45, "dateTime": 1664464921449, "trialdata": {"revealed_states": [], "num_clicks_accrued": [0, 0, 0, 0, 0, 0, 0, 0, 0, 0, 0, 0, 0], "stateRewards": ["", 2, 4, 48, 48, 4, -8, 24, -48, -4, -8, -24, -48], "withholdReward": false, "trial_id": "mdp_343818007251", "block": "test2", "trialIndex": 37, "score": 58, "costs": -1, "simulationMode": [null, null, null], "rewards": [2, 4, 48], "path": ["0", "0", "1", "2", "4"], "rt": [5506, 89, 219], "actions": ["up", "up", "left"], "actionTimes": [6520, 7116, 7846], "queries": {"click": {"state": {"target": ["4", "1", "8", "7"], "time": [2042, 2985, 4488, 4929]}, "edge": {"target": [], "time": []}}, "mouseover": {"state": {"target": ["1", "4", "2", "3", "1", "7", "8", "6", "7", "2"], "time": [1511, 1810, 2202, 2252, 2729, 3335, 3855, 4643, 4693, 5560]}, "edge": {"target": [], "time": []}}, "mouseout": {"state": {"target": ["5", "0", "1", "4", "2", "3", "1", "7", "8", "6", "7", "7", "2", "1"], "time": [647, 703, 1769, 2184, 2235, 2679, 3185, 3496, 4618, 4668, 5081, 5440, 5689, 8833]}, "edge": {"target": [], "time": []}}}, "displayed_time": "10.02", "trialTime": 10168, "trial_type": "mouselab-mdp", "trial_index": 45, "time_elapsed": 921887, "internal_node_id": "0.0-4.0-3.0-5.0"}}, {"uniqueid": "w58575345:a24787106", "current_trial": 46, "dateTime": 1664464934334, "trialdata": {"revealed_states": [], "num_clicks_accrued": [0, 0, 0, 0, 0, 0, 0, 0, 0, 0, 0, 0, 0], "stateRewards": ["", -2, 8, 24, -48, -4, -8, -24, -48, -4, 8, -24, 48], "withholdReward": false, "trial_id": "mdp_464339499860", "block": "test2", "trialIndex": 38, "score": 55.25, "costs": -1.75, "simulationMode": [null, null, null], "rewards": [-4, 8, 48], "path": ["0", "0", "9", "10", "12"], "rt": [7335, 161, 119], "actions": ["left", "left", "down"], "actionTimes": [9490, 10152, 10776], "queries": {"click": {"state": {"target": ["4", "3", "7", "8", "12", "9", "11"], "time": [2747, 3914, 4498, 4946, 5570, 6491, 7938]}, "edge": {"target": [], "time": []}}, "mouseover": {"state": {"target": ["4", "2", "3", "3", "7", "6", "8", "12", "10", "11", "9", "5", "1", "11", "1"], "time": [2458, 2983, 3159, 3474, 4216, 4673, 4858, 5416, 5724, 5905, 6241, 7413, 7562, 7799, 8400]}, "edge": {"target": [], "time": []}}, "mouseout": {"state": {"target": ["1", "0", "5", "0", "4", "2", "3", "3", "7", "6", "8", "12", "10", "11", "9", "5", "1", "11", "1", "5"], "time": [791, 1108, 1407, 2337, 2905, 3091, 3225, 4042, 4633, 4733, 5176, 5690, 5801, 6097, 6715, 7484, 7590, 8107, 8433, 11915]}, "edge": {"target": [], "time": []}}}, "displayed_time": "11.28", "trialTime": 12812, "trial_type": "mouselab-mdp", "trial_index": 46, "time_elapsed": 934771, "internal_node_id": "0.0-4.0-3.0-6.0"}}, {"uniqueid": "w58575345:a24787106", "current_trial": 47, "dateTime": 1664464945175, "trialdata": {"revealed_states": [], "num_clicks_accrued": [0, 0, 0, 0, 0, 0, 0, 0, 0, 0, 0, 0, 0], "stateRewards": ["", 2, -8, 48, -24, 2, 8, 24, -24, 4, -4, -48, -48], "withholdReward": true, "trial_id": "mdp_130946197263", "block": "test2", "trialIndex": 39, "score": 45.75, "costs": -1.25, "simulationMode": [null, null, null], "rewards": [2, -8, 48], "path": ["0", "0", "1", "2", "3"], "rt": [5237, 110, 272], "actions": ["up", "up", "right"], "actionTimes": [5957, 6574, 7353], "queries": {"click": {"state": {"target": ["4", "3", "1", "7", "8"], "time": [1457, 1848, 2745, 3849, 4385]}, "edge": {"target": [], "time": []}}, "mouseover": {"state": {"target": ["1", "2", "4", "2", "3", "7", "1", "6", "7", "6", "8"], "time": [1049, 1114, 1215, 1632, 1680, 2039, 2539, 2981, 3448, 4005, 4281]}, "edge": {"target": [], "time": []}}, "mouseout": {"state": {"target": ["1", "2", "4", "2", "3", "7", "1", "6", "7", "6", "8", "7", "1", "3", "0", "5"], "time": [1089, 1181, 1615, 1656, 1999, 2105, 2872, 3144, 3977, 4080, 4505, 4938, 5209, 8075, 8204, 8729]}, "edge": {"target": [], "time": []}}}, "displayed_time": "9.72", "trialTime": 10755, "trial_type": "mouselab-mdp", "trial_index": 47, "time_elapsed": 945613, "internal_node_id": "0.0-4.0-3.0-7.0"}}, {"uniqueid": "w58575345:a24787106", "current_trial": 48, "dateTime": 1664464957976, "trialdata": {"revealed_states": [], "num_clicks_accrued": [0, 0, 0, 0, 0, 0, 0, 0, 0, 0, 0, 0, 0], "stateRewards": ["", -2, -8, 48, -24, 2, -4, -48, -24, -2, -4, -48, 48], "withholdReward": false, "trial_id": "mdp_143798438087", "block": "test2", "trialIndex": 40, "score": 41.25, "costs": -1.75, "simulationMode": [null, null, null], "rewards": [-2, -8, 48], "path": ["0", "0", "1", "2", "3"], "rt": [8360, 115, 112], "actions": ["up", "up", "right"], "actionTimes": [9291, 9925, 10542], "queries": {"click": {"state": {"target": ["4", "3", "1", "12", "9", "7", "8"], "time": [1755, 2250, 3228, 4033, 5260, 7123, 7619]}, "edge": {"target": [], "time": []}}, "mouseover": {"state": {"target": ["1", "4", "2", "3", "0", "1", "5", "0", "12", "10", "11", "9", "9", "8", "7", "6", "7", "6", "8"], "time": [1449, 1587, 2046, 2096, 2521, 3020, 3537, 3620, 3812, 4195, 4427, 4618, 4936, 5970, 6628, 6761, 6937, 7337, 7419]}, "edge": {"target": [], "time": []}}, "mouseout": {"state": {"target": ["1", "4", "2", "3", "0", "1", "5", "0", "12", "10", "11", "9", "9", "8", "7", "6", "7", "6", "8", "7"], "time": [1496, 2009, 2063, 2433, 2528, 3345, 3595, 3637, 4178, 4220, 4546, 4690, 5478, 6138, 6723, 6878, 7298, 7386, 7770, 10994]}, "edge": {"target": [], "time": []}}}, "displayed_time": "11.04", "trialTime": 12716, "trial_type": "mouselab-mdp", "trial_index": 48, "time_elapsed": 958414, "internal_node_id": "0.0-4.0-3.0-8.0"}}, {"uniqueid": "w58575345:a24787106", "current_trial": 49, "dateTime": 1664464969122, "trialdata": {"revealed_states": [], "num_clicks_accrued": [0, 0, 0, 0, 0, 0, 0, 0, 0, 0, 0, 0, 0], "stateRewards": ["", -2, 4, -24, -24, -2, 4, 48, 24, -4, -8, 24, -48], "withholdReward": true, "trial_id": "mdp_191839460481", "block": "test2", "trialIndex": 41, "score": 53.5, "costs": -1.5, "simulationMode": [null, null, null], "rewards": [-2, 4, 48], "path": ["0", "0", "5", "6", "7"], "rt": [5775, 21, 1238], "actions": ["right", "right", "up"], "actionTimes": [6702, 7225, 8967], "queries": {"click": {"state": {"target": ["4", "3", "12", "11", "7", "8"], "time": [1809, 2665, 3456, 3898, 4594, 5082]}, "edge": {"target": [], "time": []}}, "mouseover": {"state": {"target": ["1", "2", "4", "2", "3", "3", "0", "12", "10", "11", "1", "7", "6", "6", "8", "6"], "time": [1089, 1530, 1613, 1963, 2360, 2496, 2929, 3104, 3621, 3688, 4096, 4440, 4753, 4803, 4871, 5520]}, "edge": {"target": [], "time": []}}, "mouseout": {"state": {"target": ["5", "1", "2", "4", "2", "3", "3", "0", "12", "10", "11", "1", "7", "6", "6", "8", "6", "6"], "time": [330, 1121, 1579, 1938, 1996, 2404, 2832, 2948, 3599, 3663, 4037, 4103, 4729, 4761, 4837, 5208, 5969, 10136]}, "edge": {"target": [], "time": []}}}, "displayed_time": "9.47", "trialTime": 11074, "trial_type": "mouselab-mdp", "trial_index": 49, "time_elapsed": 969560, "internal_node_id": "0.0-4.0-3.0-9.0"}}, {"uniqueid": "w58575345:a24787106", "current_trial": 50, "dateTime": 1664464983277, "trialdata": {"revealed_states": [], "num_clicks_accrued": [0, 0, 0, 0, 0, 0, 0, 0, 0, 0, 0, 0, 0], "stateRewards": ["", 4, 4, -24, -48, 2, 4, 24, -48, 2, 4, 24, 24], "withholdReward": true, "trial_id": "mdp_223558518218", "block": "test2", "trialIndex": 42, "score": 33.25, "costs": -1.75, "simulationMode": [null, null, null], "rewards": [2, 4, 24], "path": ["0", "0", "9", "10", "11"], "rt": [9876, 198, 281], "actions": ["left", "left", "up"], "actionTimes": [10642, 11348, 12139], "queries": {"click": {"state": {"target": ["4", "3", "7", "8", "11", "12", "9"], "time": [1701, 2693, 3869, 4477, 6982, 7440, 9471]}, "edge": {"target": [], "time": []}}, "mouseover": {"state": {"target": ["1", "4", "2", "3", "3", "3", "7", "6", "8", "8", "9", "11", "10", "12", "0", "9"], "time": [1387, 1492, 1843, 1960, 2292, 2585, 3651, 4043, 4125, 4325, 5819, 6425, 7149, 7258, 7599, 8399]}, "edge": {"target": [], "time": []}}, "mouseout": {"state": {"target": ["0", "1", "4", "2", "3", "3", "3", "7", "6", "8", "8", "9", "11", "10", "12", "0", "9", "0"], "time": [1076, 1435, 1813, 1884, 2011, 2300, 2852, 4011, 4076, 4176, 4604, 5842, 7117, 7191, 7558, 7607, 9589, 12966]}, "edge": {"target": [], "time": []}}}, "displayed_time": "12.64", "trialTime": 14086, "trial_type": "mouselab-mdp", "trial_index": 50, "time_elapsed": 983714, "internal_node_id": "0.0-4.0-3.0-10.0"}}, {"uniqueid": "w58575345:a24787106", "current_trial": 51, "dateTime": 1664465002008, "trialdata": {"revealed_states": [], "num_clicks_accrued": [0, 0, 0, 0, 0, 0, 0, 0, 0, 0, 0, 0, 0], "stateRewards": ["", -4, -4, 24, -48, -2, 8, -24, -48, -4, 4, 24, -48], "withholdReward": true, "trial_id": "mdp_934626330092", "block": "test2", "trialIndex": 43, "score": 19, "costs": -2, "simulationMode": [null, null, null], "rewards": [-4, -4, 24], "path": ["0", "0", "1", "2", "3"], "rt": [14101, 140, 58], "actions": ["up", "up", "right"], "actionTimes": [15380, 16023, 16589], "queries": {"click": {"state": {"target": ["6", "7", "8", "11", "12", "3", "4", "9"], "time": [2541, 6136, 7056, 8568, 10120, 11433, 12002, 13546]}, "edge": {"target": [], "time": []}}, "mouseover": {"state": {"target": ["1", "6", "6", "7", "7", "3", "2", "4", "4", "2", "7", "8", "9", "10", "11", "10", "12", "3", "2", "4", "1", "9", "0", "5", "1", "1"], "time": [1961, 2177, 2326, 3213, 3860, 5007, 5026, 5061, 5326, 5702, 5750, 6894, 7625, 7650, 8472, 8824, 8950, 11108, 11574, 11742, 12208, 13232, 13665, 14082, 14165, 14424]}, "edge": {"target": [], "time": []}}, "mouseout": {"state": {"target": ["0", "1", "0", "1", "6", "6", "7", "7", "3", "2", "4", "4", "2", "7", "6", "8", "9", "10", "11", "10", "12", "6", "7", "3", "2", "4", "1", "9", "0", "5", "1", "1", "7", "1", "0", "5", "7"], "time": [212, 764, 1781, 2101, 2185, 2743, 3235, 4976, 5013, 5043, 5159, 5686, 5719, 6600, 6655, 7200, 7642, 7683, 8791, 8858, 10297, 10466, 11009, 11552, 11600, 12124, 13082, 13664, 13688, 14098, 14207, 14697, 17259, 17400, 17465, 18198, 18240]}, "edge": {"target": [], "time": []}}}, "displayed_time": "17.10", "trialTime": 18656, "trial_type": "mouselab-mdp", "trial_index": 51, "time_elapsed": 1002446, "internal_node_id": "0.0-4.0-3.0-11.0"}}, {"uniqueid": "w58575345:a24787106", "current_trial": 52, "dateTime": 1664465012823, "trialdata": {"revealed_states": [], "num_clicks_accrued": [0, 0, 0, 0, 0, 0, 0, 0, 0, 0, 0, 0, 0], "stateRewards": ["", 4, 8, -24, 48, 4, -8, -48, 48, -4, 8, -24, -48], "withholdReward": true, "trial_id": "mdp_376126356841", "block": "test2", "trialIndex": 44, "score": 64.5, "costs": -0.5, "simulationMode": [null, null, null], "rewards": [4, 8, 48], "path": ["0", "0", "1", "2", "4"], "rt": [3992, 206, 189], "actions": ["up", "up", "left"], "actionTimes": [5278, 5990, 6688], "queries": {"click": {"state": {"target": ["4", "1"], "time": [1890, 4092]}, "edge": {"target": [], "time": []}}, "mouseover": {"state": {"target": ["4", "4", "2", "3", "6", "6", "7", "1"], "time": [1477, 1688, 2018, 2069, 2985, 3393, 3536, 3865]}, "edge": {"target": [], "time": []}}, "mouseout": {"state": {"target": ["3", "0", "4", "4", "2", "3", "6", "6", "7", "1", "1", "9", "5", "2"], "time": [573, 799, 1485, 2010, 2043, 2834, 3068, 3485, 3568, 4616, 7191, 7335, 8015, 10581]}, "edge": {"target": [], "time": []}}}, "displayed_time": "10.29", "trialTime": 10725, "trial_type": "mouselab-mdp", "trial_index": 52, "time_elapsed": 1013261, "internal_node_id": "0.0-4.0-3.0-12.0"}}, {"uniqueid": "w58575345:a24787106", "current_trial": 53, "dateTime": 1664465024185, "trialdata": {"revealed_states": [], "num_clicks_accrued": [0, 0, 0, 0, 0, 0, 0, 0, 0, 0, 0, 0, 0], "stateRewards": ["", 2, 4, -48, -24, 2, 8, 24, 48, -2, 4, 48, -48], "withholdReward": true, "trial_id": "mdp_551894842204", "block": "test2", "trialIndex": 45, "score": 61.75, "costs": -1.25, "simulationMode": [null, null, null], "rewards": [2, 8, 48], "path": ["0", "0", "5", "6", "8"], "rt": [5500, 114, 288], "actions": ["right", "right", "down"], "actionTimes": [6249, 6866, 7657], "queries": {"click": {"state": {"target": ["11", "9", "7", "8", "5"], "time": [1518, 2537, 3471, 4042, 5079]}, "edge": {"target": [], "time": []}}, "mouseover": {"state": {"target": ["11", "10", "11", "10", "12", "10", "9", "5", "6", "7", "6", "8", "6", "5", "6"], "time": [1111, 1237, 1336, 1710, 1861, 2186, 2394, 2935, 3094, 3169, 3735, 3870, 4510, 4857, 5536]}, "edge": {"target": [], "time": []}}, "mouseout": {"state": {"target": ["2", "1", "11", "10", "11", "10", "12", "10", "9", "5", "6", "7", "6", "8", "7", "6", "5", "6", "6"], "time": [414, 477, 1135, 1302, 1678, 1812, 2152, 2278, 2670, 3030, 3127, 3695, 3803, 4194, 4494, 4827, 5245, 5558, 8760]}, "edge": {"target": [], "time": []}}}, "displayed_time": "9.75", "trialTime": 11285, "trial_type": "mouselab-mdp", "trial_index": 53, "time_elapsed": 1024623, "internal_node_id": "0.0-4.0-3.0-13.0"}}, {"uniqueid": "w58575345:a24787106", "current_trial": 54, "dateTime": 1664465035167, "trialdata": {"revealed_states": [], "num_clicks_accrued": [0, 0, 0, 0, 0, 0, 0, 0, 0, 0, 0, 0, 0], "stateRewards": ["", -2, -4, -48, -48, 4, 8, 24, -48, 4, -8, 24, 24], "withholdReward": true, "trial_id": "mdp_749799219195", "block": "test2", "trialIndex": 46, "score": 23.25, "costs": -1.75, "simulationMode": [null, null, null], "rewards": [4, -8, 24], "path": ["0", "0", "9", "10", "12"], "rt": [7296, 214, 104], "actions": ["left", "left", "down"], "actionTimes": [7941, 8658, 9265], "queries": {"click": {"state": {"target": ["4", "3", "7", "8", "11", "12", "9"], "time": [1406, 2094, 2668, 3221, 4005, 4525, 6766]}, "edge": {"target": [], "time": []}}, "mouseover": {"state": {"target": ["4", "4", "2", "3", "7", "6", "8", "10", "11", "10", "12", "0", "9"], "time": [954, 1203, 1739, 1786, 2364, 2810, 2844, 3636, 3769, 4168, 4364, 5127, 5295]}, "edge": {"target": [], "time": []}}, "mouseout": {"state": {"target": ["0", "4", "4", "2", "3", "7", "6", "8", "10", "11", "10", "12", "0", "9"], "time": [411, 970, 1717, 1769, 2316, 2786, 2835, 3436, 3668, 4135, 4236, 4652, 5152, 7143]}, "edge": {"target": [], "time": []}}}, "displayed_time": "9.77", "trialTime": 10895, "trial_type": "mouselab-mdp", "trial_index": 54, "time_elapsed": 1035605, "internal_node_id": "0.0-4.0-3.0-14.0"}}, {"uniqueid": "w58575345:a24787106", "current_trial": 55, "dateTime": 1664465047853, "trialdata": {"revealed_states": [], "num_clicks_accrued": [0, 0, 0, 0, 0, 0, 0, 0, 0, 0, 0, 0, 0], "stateRewards": ["", -4, 4, -48, -48, -2, -8, -48, -24, 4, 8, -24, 24], "withholdReward": true, "trial_id": "mdp_449260894259", "block": "test2", "trialIndex": 47, "score": 39, "costs": -2, "simulationMode": [null, null, null], "rewards": [4, 8, 24], "path": ["0", "0", "9", "10", "12"], "rt": [7351, 139, 96], "actions": ["left", "left", "down"], "actionTimes": [9689, 10334, 10932], "queries": {"click": {"state": {"target": ["4", "3", "7", "8", "11", "12", "9", "10"], "time": [3054, 3516, 4205, 4646, 5469, 6455, 8941, 9294]}, "edge": {"target": [], "time": []}}, "mouseover": {"state": {"target": ["1", "2", "4", "2", "3", "6", "6", "7", "6", "8", "1", "11", "11", "0", "0", "12", "9", "9", "10"], "time": [2588, 2796, 2879, 3229, 3288, 3755, 3868, 4004, 4354, 4405, 5028, 5061, 5278, 6070, 6149, 6228, 7453, 8701, 9045]}, "edge": {"target": [], "time": []}}, "mouseout": {"state": {"target": ["0", "0", "0", "1", "1", "2", "4", "2", "3", "6", "6", "7", "6", "8", "1", "11", "11", "0", "0", "12", "9", "9", "10", "12", "5"], "time": [173, 555, 1072, 2013, 2738, 2846, 3204, 3262, 3684, 3780, 3963, 4346, 4387, 4787, 5036, 5070, 5612, 6103, 6187, 6564, 8542, 9028, 9437, 9461, 12174]}, "edge": {"target": [], "time": []}}}, "displayed_time": "11.44", "trialTime": 12611, "trial_type": "mouselab-mdp", "trial_index": 55, "time_elapsed": 1048291, "internal_node_id": "0.0-4.0-3.0-15.0"}}, {"uniqueid": "w58575345:a24787106", "current_trial": 56, "dateTime": 1664465058920, "trialdata": {"revealed_states": [], "num_clicks_accrued": [0, 0, 0, 0, 0, 0, 0, 0, 0, 0, 0, 0, 0], "stateRewards": ["", -2, -8, 48, 24, 2, 8, -48, 24, -4, 8, 48, 48], "withholdReward": true, "trial_id": "mdp_875436109858", "block": "test2", "trialIndex": 48, "score": 41.25, "costs": -1.75, "simulationMode": [null, null, null], "rewards": [-2, -8, 48], "path": ["0", "0", "1", "2", "3"], "rt": [7406, 6, 60], "actions": ["up", "up", "right"], "actionTimes": [8152, 8665, 9235], "queries": {"click": {"state": {"target": ["4", "3", "7", "8", "12", "1", "9"], "time": [1569, 2185, 2818, 3549, 4748, 6122, 6739]}, "edge": {"target": [], "time": []}}, "mouseover": {"state": {"target": ["2", "4", "2", "3", "7", "6", "8", "12", "12", "10", "11", "9", "1", "9", "0", "0"], "time": [1258, 1333, 1726, 1809, 2570, 3009, 3108, 4314, 4545, 4891, 4957, 5434, 5906, 6402, 6857, 7315]}, "edge": {"target": [], "time": []}}, "mouseout": {"state": {"target": ["0", "2", "4", "2", "3", "7", "6", "8", "12", "12", "10", "11", "9", "1", "9", "0", "0", "0", "5", "3"], "time": [907, 1305, 1705, 1759, 2342, 2962, 3066, 3675, 4341, 4866, 4924, 5377, 5786, 6257, 6826, 6890, 7450, 10023, 10531, 10581]}, "edge": {"target": [], "time": []}}}, "displayed_time": "9.74", "trialTime": 10977, "trial_type": "mouselab-mdp", "trial_index": 56, "time_elapsed": 1059358, "internal_node_id": "0.0-4.0-3.0-16.0"}}, {"uniqueid": "w58575345:a24787106", "current_trial": 57, "dateTime": 1664465073518, "trialdata": {"revealed_states": [], "num_clicks_accrued": [0, 0, 0, 0, 0, 0, 0, 0, 0, 0, 0, 0, 0], "stateRewards": ["", -4, 8, 24, -24, 4, -8, -24, -24, -2, 8, -48, 24], "withholdReward": true, "trial_id": "mdp_240302100183", "block": "test2", "trialIndex": 49, "score": 33, "costs": -2, "simulationMode": [null, null, null], "rewards": [-2, 8, 24], "path": ["0", "0", "9", "10", "12"], "rt": [10486, 143, 147], "actions": ["left", "left", "down"], "actionTimes": [11402, 12049, 12704], "queries": {"click": {"state": {"target": ["4", "3", "7", "8", "11", "12", "9", "1"], "time": [3858, 4266, 4858, 5250, 6051, 6460, 7726, 10357]}, "edge": {"target": [], "time": []}}, "mouseover": {"state": {"target": ["2", "4", "2", "3", "7", "6", "8", "12", "10", "11", "10", "12", "9", "5", "6", "2", "1"], "time": [3209, 3339, 3998, 4048, 4714, 5005, 5055, 5571, 5664, 5889, 6205, 6379, 7482, 7907, 7940, 9797, 10180]}, "edge": {"target": [], "time": []}}, "mouseout": {"state": {"target": ["2", "1", "0", "2", "4", "2", "3", "7", "6", "8", "12", "10", "11", "10", "12", "9", "5", "6", "2", "1", "7", "7", "5", "5"], "time": [440, 456, 1771, 3250, 3977, 4023, 4457, 4978, 5039, 5513, 5614, 5738, 6177, 6264, 6580, 7860, 7925, 8291, 10100, 10472, 10548, 13429, 13588, 14088]}, "edge": {"target": [], "time": []}}}, "displayed_time": "13.21", "trialTime": 14509, "trial_type": "mouselab-mdp", "trial_index": 57, "time_elapsed": 1073956, "internal_node_id": "0.0-4.0-3.0-17.0"}}, {"uniqueid": "w58575345:a24787106", "current_trial": 58, "dateTime": 1664465084191, "trialdata": {"revealed_states": [], "num_clicks_accrued": [0, 0, 0, 0, 0, 0, 0, 0, 0, 0, 0, 0, 0], "stateRewards": ["", 2, -8, 24, 24, 2, 4, -48, -48, 4, 4, -24, 48], "withholdReward": false, "trial_id": "mdp_985707010949", "block": "test2", "trialIndex": 50, "score": 59.5, "costs": -1.5, "simulationMode": [null, null, null], "rewards": [4, 4, 48], "path": ["0", "0", "9", "10", "12"], "rt": [5280, 153, 556], "actions": ["left", "left", "down"], "actionTimes": [6240, 6901, 7962], "queries": {"click": {"state": {"target": ["4", "3", "7", "8", "12", "9"], "time": [1729, 2131, 2730, 3162, 3914, 5259]}, "edge": {"target": [], "time": []}}, "mouseover": {"state": {"target": ["1", "2", "4", "2", "3", "7", "6", "7", "6", "8", "12", "10", "11", "9"], "time": [1367, 1482, 1599, 1881, 2001, 2306, 2340, 2552, 2864, 3057, 3752, 4072, 4139, 4816]}, "edge": {"target": [], "time": []}}, "mouseout": {"state": {"target": ["3", "0", "1", "2", "4", "2", "3", "7", "6", "7", "6", "8", "12", "10", "11", "9", "9", "9"], "time": [432, 782, 1448, 1557, 1856, 1932, 2273, 2323, 2473, 2840, 2873, 3330, 4048, 4106, 4416, 5370, 8651, 8970]}, "edge": {"target": [], "time": []}}}, "displayed_time": "9.97", "trialTime": 10584, "trial_type": "mouselab-mdp", "trial_index": 58, "time_elapsed": 1084629, "internal_node_id": "0.0-4.0-3.0-18.0"}}, {"uniqueid": "w58575345:a24787106", "current_trial": 59, "dateTime": 1664465097481, "trialdata": {"revealed_states": [], "num_clicks_accrued": [0, 0, 0, 0, 0, 0, 0, 0, 0, 0, 0, 0, 0], "stateRewards": ["", -4, -4, 24, 48, 4, -4, -24, 24, -4, -4, 24, 24], "withholdReward": true, "trial_id": "mdp_357725458160", "block": "test2", "trialIndex": 51, "score": 43.25, "costs": -1.75, "simulationMode": [null, null, null], "rewards": [-4, -4, 48], "path": ["0", "0", "1", "2", "4"], "rt": [9188, 106, 371], "actions": ["up", "up", "left"], "actionTimes": [10161, 10775, 11656], "queries": {"click": {"state": {"target": ["4", "1", "7", "8", "12", "11", "3"], "time": [1776, 3359, 4583, 5017, 6040, 6479, 7176]}, "edge": {"target": [], "time": []}}, "mouseover": {"state": {"target": ["2", "4", "2", "2", "1", "7", "6", "6", "7", "6", "8", "9", "12", "10", "11", "3", "2"], "time": [1320, 1605, 1920, 2479, 2812, 3936, 4020, 4328, 4391, 4753, 4845, 5720, 5870, 6182, 6236, 6994, 9010]}, "edge": {"target": [], "time": []}}, "mouseout": {"state": {"target": ["0", "0", "2", "4", "2", "2", "1", "7", "6", "6", "7", "6", "8", "9", "12", "10", "11", "1", "3", "1", "4", "4", "2", "1", "1", "0"], "time": [613, 1230, 1354, 1904, 1953, 2743, 3603, 3978, 4182, 4361, 4728, 4807, 5175, 5752, 6144, 6211, 6591, 6671, 7320, 8628, 8904, 8977, 9168, 10077, 12536, 12576]}, "edge": {"target": [], "time": []}}}, "displayed_time": "12.16", "trialTime": 13183, "trial_type": "mouselab-mdp", "trial_index": 59, "time_elapsed": 1097919, "internal_node_id": "0.0-4.0-3.0-19.0"}}, {"uniqueid": "w58575345:a24787106", "current_trial": 60, "dateTime": 1664465107809, "trialdata": {"revealed_states": [], "num_clicks_accrued": [0, 0, 0, 0, 0, 0, 0, 0, 0, 0, 0, 0, 0], "stateRewards": ["", -4, -4, -24, 24, -4, 4, -24, 48, -2, 4, 48, -48], "withholdReward": true, "trial_id": "mdp_774757609669", "block": "test2", "trialIndex": 52, "score": 53.25, "costs": -1.75, "simulationMode": [null, null, null], "rewards": [-2, 4, 48], "path": ["0", "0", "9", "10", "11"], "rt": [6454, 153, 271], "actions": ["left", "left", "up"], "actionTimes": [7175, 7829, 8606], "queries": {"click": {"state": {"target": ["4", "3", "7", "8", "5", "11", "10"], "time": [1337, 1793, 2297, 2794, 3906, 4762, 5497]}, "edge": {"target": [], "time": []}}, "mouseover": {"state": {"target": ["4", "4", "2", "3", "7", "8", "9", "0", "5", "5", "0", "9", "10", "11", "10", "12", "10", "9"], "time": [936, 1152, 1520, 1585, 2027, 2635, 3095, 3425, 3494, 3660, 4351, 4377, 4410, 4618, 4913, 5072, 5319, 5664]}, "edge": {"target": [], "time": []}}, "mouseout": {"state": {"target": ["1", "4", "4", "2", "3", "7", "8", "9", "0", "5", "5", "5", "0", "9", "10", "11", "10", "12", "10", "9", "9"], "time": [478, 961, 1494, 1560, 1936, 2443, 3016, 3376, 3463, 3552, 4079, 4344, 4359, 4392, 4496, 4889, 4985, 5266, 5634, 9068, 9384]}, "edge": {"target": [], "time": []}}}, "displayed_time": "9.13", "trialTime": 10237, "trial_type": "mouselab-mdp", "trial_index": 60, "time_elapsed": 1108247, "internal_node_id": "0.0-4.0-3.0-20.0"}}, {"uniqueid": "w58575345:a24787106", "current_trial": 61, "dateTime": 1664465117408, "trialdata": {"revealed_states": [], "num_clicks_accrued": [0, 0, 0, 0, 0, 0, 0, 0, 0, 0, 0, 0, 0], "stateRewards": ["", -4, 8, -48, -48, -4, 4, -24, -48, 2, -4, -24, 24], "withholdReward": true, "trial_id": "mdp_183773275291", "block": "test2", "trialIndex": 53, "score": 25.5, "costs": -1.5, "simulationMode": [null, null, null], "rewards": [2, -4, 24], "path": ["0", "0", "9", "10", "12"], "rt": [5615, 110, 278], "actions": ["left", "left", "down"], "actionTimes": [6586, 7193, 7981], "queries": {"click": {"state": {"target": ["4", "3", "7", "8", "12", "11"], "time": [2024, 2585, 3201, 3689, 4329, 4810]}, "edge": {"target": [], "time": []}}, "mouseover": {"state": {"target": ["1", "4", "2", "3", "7", "7", "8", "12", "10", "11"], "time": [1728, 1808, 2175, 2216, 2823, 3041, 3458, 4160, 4483, 4583]}, "edge": {"target": [], "time": []}}, "mouseout": {"state": {"target": ["0", "1", "4", "2", "3", "7", "7", "8", "12", "10", "11", "9"], "time": [1379, 1750, 2159, 2200, 2760, 2872, 3336, 3849, 4458, 4524, 5049, 8473]}, "edge": {"target": [], "time": []}}}, "displayed_time": "8.97", "trialTime": 9512, "trial_type": "mouselab-mdp", "trial_index": 61, "time_elapsed": 1117845, "internal_node_id": "0.0-4.0-3.0-21.0"}}, {"uniqueid": "w58575345:a24787106", "current_trial": 62, "dateTime": 1664465127418, "trialdata": {"revealed_states": [], "num_clicks_accrued": [0, 0, 0, 0, 0, 0, 0, 0, 0, 0, 0, 0, 0], "stateRewards": ["", 2, -4, 48, -48, -4, -8, -48, 24, -4, 4, 48, 48], "withholdReward": false, "trial_id": "mdp_544803968425", "block": "test2", "trialIndex": 54, "score": 50.25, "costs": -0.75, "simulationMode": [null, null, null], "rewards": [2, -4, 48], "path": ["0", "0", "1", "2", "3"], "rt": [3012, 80, 198], "actions": ["up", "up", "right"], "actionTimes": [4443, 5027, 5732], "queries": {"click": {"state": {"target": ["4", "3", "1"], "time": [2203, 2601, 3530]}, "edge": {"target": [], "time": []}}, "mouseover": {"state": {"target": ["4", "2", "3", "7", "5", "1"], "time": [2106, 2347, 2488, 2904, 3138, 3281]}, "edge": {"target": [], "time": []}}, "mouseout": {"state": {"target": ["0", "4", "2", "3", "7", "5", "1", "1"], "time": [873, 2314, 2391, 2856, 3096, 3147, 3705, 6640]}, "edge": {"target": [], "time": []}}}, "displayed_time": "9.44", "trialTime": 9930, "trial_type": "mouselab-mdp", "trial_index": 62, "time_elapsed": 1127856, "internal_node_id": "0.0-4.0-3.0-22.0"}}, {"uniqueid": "w58575345:a24787106", "current_trial": 63, "dateTime": 1664465136631, "trialdata": {"revealed_states": [], "num_clicks_accrued": [0, 0, 0, 0, 0, 0, 0, 0, 0, 0, 0, 0, 0], "stateRewards": ["", 4, -8, -48, 24, 4, 4, -24, -24, 2, 4, -48, 24], "withholdReward": true, "trial_id": "mdp_626971397185", "block": "test2", "trialIndex": 55, "score": 33.25, "costs": -1.75, "simulationMode": [null, null, null], "rewards": [2, 4, 24], "path": ["0", "0", "9", "10", "12"], "rt": [5493, 131, 145], "actions": ["left", "left", "down"], "actionTimes": [6401, 7038, 7693], "queries": {"click": {"state": {"target": ["11", "12", "8", "7", "3", "4", "9"], "time": [1596, 1997, 2613, 3108, 3597, 4068, 5476]}, "edge": {"target": [], "time": []}}, "mouseover": {"state": {"target": ["11", "11", "10", "12", "8", "6", "7", "3", "2", "4", "1", "9", "0"], "time": [1293, 1453, 1731, 1835, 2202, 2748, 2986, 3406, 3773, 3823, 4240, 5181, 5606]}, "edge": {"target": [], "time": []}}, "mouseout": {"state": {"target": ["0", "0", "0", "11", "11", "10", "12", "8", "6", "7", "3", "2", "4", "1", "9", "0", "5"], "time": [319, 399, 812, 1406, 1706, 1780, 2116, 2723, 2773, 3267, 3739, 3798, 4214, 4274, 5572, 5631, 8412]}, "edge": {"target": [], "time": []}}}, "displayed_time": "8.92", "trialTime": 9146, "trial_type": "mouselab-mdp", "trial_index": 63, "time_elapsed": 1137068, "internal_node_id": "0.0-4.0-3.0-23.0"}}, {"uniqueid": "w58575345:a24787106", "current_trial": 64, "dateTime": 1664465147884, "trialdata": {"revealed_states": [], "num_clicks_accrued": [0, 0, 0, 0, 0, 0, 0, 0, 0, 0, 0, 0, 0], "stateRewards": ["", 2, -4, -48, 24, 4, 4, 48, -48, -2, -4, -24, -48], "withholdReward": true, "trial_id": "mdp_858916930936", "block": "test2", "trialIndex": 56, "score": 59.25, "costs": -1.75, "simulationMode": [null, null, null], "rewards": [4, 4, 48], "path": ["0", "0", "5", "6", "7"], "rt": [5962, 191, 687], "actions": ["right", "right", "up"], "actionTimes": [6782, 7478, 8675], "queries": {"click": {"state": {"target": ["7", "8", "4", "3", "11", "12", "5"], "time": [1619, 1980, 3156, 3499, 4467, 5020, 5757]}, "edge": {"target": [], "time": []}}, "mouseover": {"state": {"target": ["7", "6", "8", "2", "4", "2", "3", "1", "11", "10", "12", "12", "5"], "time": [1474, 1771, 1804, 2604, 2829, 3267, 3314, 3682, 4271, 4637, 4729, 4931, 5612]}, "edge": {"target": [], "time": []}}, "mouseout": {"state": {"target": ["5", "0", "7", "6", "8", "8", "2", "4", "2", "3", "1", "11", "10", "12", "12", "5", "6", "5"], "time": [506, 1204, 1754, 1787, 2179, 2530, 2637, 3229, 3291, 3652, 3713, 4610, 4684, 4737, 5171, 5899, 9294, 9361]}, "edge": {"target": [], "time": []}}}, "displayed_time": "10.82", "trialTime": 11149, "trial_type": "mouselab-mdp", "trial_index": 64, "time_elapsed": 1148322, "internal_node_id": "0.0-4.0-3.0-24.0"}}, {"uniqueid": "w58575345:a24787106", "current_trial": 65, "dateTime": 1664465158336, "trialdata": {"revealed_states": [], "num_clicks_accrued": [0, 0, 0, 0, 0, 0, 0, 0, 0, 0, 0, 0, 0], "stateRewards": ["", -4, 4, 24, 24, 4, -8, 48, -48, -2, -8, 24, 24], "withholdReward": false, "trial_id": "mdp_395264223239", "block": "test2", "trialIndex": 57, "score": 48, "costs": -1, "simulationMode": [null, null, null], "rewards": [4, -8, 48], "path": ["0", "0", "5", "6", "7"], "rt": [3698, 152, 607], "actions": ["right", "right", "up"], "actionTimes": [4406, 5065, 6177], "queries": {"click": {"state": {"target": ["4", "3", "7", "5"], "time": [1387, 1819, 2476, 3252]}, "edge": {"target": [], "time": []}}, "mouseover": {"state": {"target": ["1", "4", "2", "3", "7", "6", "8", "6", "5"], "time": [1080, 1232, 1545, 1654, 2266, 2611, 2706, 3019, 3129]}, "edge": {"target": [], "time": []}}, "mouseout": {"state": {"target": ["5", "1", "4", "2", "3", "7", "6", "8", "6", "5", "6", "5", "5"], "time": [201, 1121, 1521, 1578, 1962, 2578, 2645, 2990, 3045, 3361, 6770, 6859, 10210]}, "edge": {"target": [], "time": []}}}, "displayed_time": "8.71", "trialTime": 10270, "trial_type": "mouselab-mdp", "trial_index": 65, "time_elapsed": 1158773, "internal_node_id": "0.0-4.0-3.0-25.0"}}, {"uniqueid": "w58575345:a24787106", "current_trial": 66, "dateTime": 1664465169377, "trialdata": {"revealed_states": [], "num_clicks_accrued": [0, 0, 0, 0, 0, 0, 0, 0, 0, 0, 0, 0, 0], "stateRewards": ["", 2, -4, 48, -48, 2, 4, -24, 24, -4, -8, 24, -48], "withholdReward": true, "trial_id": "mdp_238810765895", "block": "test2", "trialIndex": 58, "score": 50.25, "costs": -0.75, "simulationMode": [null, null, null], "rewards": [2, -4, 48], "path": ["0", "0", "1", "2", "3"], "rt": [3030, 152, 274], "actions": ["up", "up", "right"], "actionTimes": [5459, 6114, 6894], "queries": {"click": {"state": {"target": ["4", "3", "1"], "time": [3283, 3665, 4532]}, "edge": {"target": [], "time": []}}, "mouseover": {"state": {"target": ["1", "4", "2", "3", "7", "5", "0", "1"], "time": [2872, 3153, 3432, 3504, 4041, 4161, 4194, 4320]}, "edge": {"target": [], "time": []}}, "mouseout": {"state": {"target": ["0", "0", "1", "4", "2", "3", "7", "5", "0", "1", "0"], "time": [812, 1407, 2945, 3394, 3473, 3817, 4121, 4178, 4220, 4713, 7689]}, "edge": {"target": [], "time": []}}}, "displayed_time": "10.43", "trialTime": 10965, "trial_type": "mouselab-mdp", "trial_index": 66, "time_elapsed": 1169815, "internal_node_id": "0.0-4.0-3.0-26.0"}}, {"uniqueid": "w58575345:a24787106", "current_trial": 67, "dateTime": 1664465180157, "trialdata": {"revealed_states": [], "num_clicks_accrued": [0, 0, 0, 0, 0, 0, 0, 0, 0, 0, 0, 0, 0], "stateRewards": ["", 2, 4, -24, -24, 4, 8, -48, 48, 2, 4, -24, -48], "withholdReward": true, "trial_id": "mdp_565165082781", "block": "test2", "trialIndex": 59, "score": 63.75, "costs": -1.25, "simulationMode": [null, null, null], "rewards": [4, 8, 48], "path": ["0", "0", "5", "6", "8"], "rt": [3690, 133, 2111], "actions": ["right", "right", "down"], "actionTimes": [4489, 5123, 7742], "queries": {"click": {"state": {"target": ["4", "3", "7", "8", "5"], "time": [1410, 1845, 2335, 2791, 3663]}, "edge": {"target": [], "time": []}}, "mouseover": {"state": {"target": ["4", "2", "3", "7", "6", "8", "0", "5", "6"], "time": [1231, 1548, 1598, 2159, 2497, 2556, 3366, 3414, 3863]}, "edge": {"target": [], "time": []}}, "mouseout": {"state": {"target": ["5", "0", "4", "2", "3", "7", "6", "8", "0", "5", "6", "6"], "time": [256, 598, 1515, 1573, 1989, 2480, 2531, 2965, 3389, 3806, 3872, 8728]}, "edge": {"target": [], "time": []}}}, "displayed_time": "9.80", "trialTime": 10699, "trial_type": "mouselab-mdp", "trial_index": 67, "time_elapsed": 1180595, "internal_node_id": "0.0-4.0-3.0-27.0"}}, {"uniqueid": "w58575345:a24787106", "current_trial": 68, "dateTime": 1664465191400, "trialdata": {"revealed_states": [], "num_clicks_accrued": [0, 0, 0, 0, 0, 0, 0, 0, 0, 0, 0, 0, 0], "stateRewards": ["", -4, -8, 48, 24, 4, -8, 24, -48, -2, -8, 24, -48], "withholdReward": true, "trial_id": "mdp_952038635544", "block": "test2", "trialIndex": 60, "score": 39.25, "costs": -1.75, "simulationMode": [null, null, null], "rewards": [-4, -8, 48], "path": ["0", "0", "1", "2", "3"], "rt": [6504, 211, 243], "actions": ["up", "up", "right"], "actionTimes": [7283, 7996, 8744], "queries": {"click": {"state": {"target": ["4", "3", "1", "7", "8", "11", "12"], "time": [1617, 1994, 2898, 4210, 4866, 5779, 6146]}, "edge": {"target": [], "time": []}}, "mouseover": {"state": {"target": ["1", "4", "2", "3", "5", "5", "1", "6", "7", "6", "8", "10", "11", "12"], "time": [1225, 1408, 1754, 1813, 2289, 2630, 2745, 3864, 4071, 4378, 4462, 5544, 5654, 6012]}, "edge": {"target": [], "time": []}}, "mouseout": {"state": {"target": ["0", "1", "4", "2", "3", "5", "5", "1", "6", "7", "6", "8", "10", "11", "12", "1"], "time": [729, 1248, 1729, 1788, 2177, 2438, 2646, 3079, 4021, 4354, 4428, 4995, 5612, 5904, 6264, 6658]}, "edge": {"target": [], "time": []}}}, "displayed_time": "9.78", "trialTime": 11136, "trial_type": "mouselab-mdp", "trial_index": 68, "time_elapsed": 1191838, "internal_node_id": "0.0-4.0-3.0-28.0"}}, {"uniqueid": "w58575345:a24787106", "current_trial": 69, "dateTime": 1664465201238, "trialdata": {"revealed_states": [], "num_clicks_accrued": [0, 0, 0, 0, 0, 0, 0, 0, 0, 0, 0, 0, 0], "stateRewards": ["", 2, -8, 24, -48, 2, 4, 48, -48, -2, -8, -48, 48], "withholdReward": true, "trial_id": "mdp_629420544881", "block": "test2", "trialIndex": 61, "score": 58, "costs": -1, "simulationMode": [null, null, null], "rewards": [2, 4, 48], "path": ["0", "0", "5", "6", "7"], "rt": [4247, 199, 621], "actions": ["right", "right", "up"], "actionTimes": [5167, 5873, 7003], "queries": {"click": {"state": {"target": ["4", "3", "7", "5"], "time": [1634, 2673, 3479, 4249]}, "edge": {"target": [], "time": []}}, "mouseover": {"state": {"target": ["1", "4", "2", "3", "3", "6", "7", "3", "5", "6", "7", "6", "8", "5", "6"], "time": [1335, 1448, 1790, 1839, 2182, 2298, 2398, 2481, 3191, 3272, 3306, 3664, 3765, 4097, 4414]}, "edge": {"target": [], "time": []}}, "mouseout": {"state": {"target": ["0", "0", "1", "4", "2", "3", "3", "6", "7", "3", "5", "6", "7", "6", "8", "5", "6"], "time": [518, 715, 1366, 1765, 1814, 1957, 2206, 2365, 2423, 2839, 3240, 3280, 3622, 3731, 4047, 4375, 7798]}, "edge": {"target": [], "time": []}}}, "displayed_time": "8.93", "trialTime": 9747, "trial_type": "mouselab-mdp", "trial_index": 69, "time_elapsed": 1201676, "internal_node_id": "0.0-4.0-3.0-29.0"}}, {"uniqueid": "w58575345:a24787106", "current_trial": 70, "dateTime": 1664465230425, "trialdata": {"rt": 29181, "stimulus": "<h1> End of block! </h1>\n\nYou have reached the end of the block 2/4. If you need a short break, feel free to take one now before moving on.\n\n<br><br>\nIn the next block, you will complete another 30 rounds of this game.\n\n<br><br>\n<div style='text-align: center;'>Press <code>space</code> to begin.</div>\n<br><br>\n<div style='text-align: center;'>(If the experiment doesn't continue, try clicking on the text and then pressing <code>space</code>.)</div>", "response": " ", "trial_id": "mdp_ready_3", "trial_type": "html-keyboard-response", "trial_index": 70, "time_elapsed": 1230863, "internal_node_id": "0.0-4.0-4.0"}}, {"uniqueid": "w58575345:a24787106", "current_trial": 71, "dateTime": 1664465241431, "trialdata": {"revealed_states": [], "num_clicks_accrued": [0, 0, 0, 0, 0, 0, 0, 0, 0, 0, 0, 0, 0], "stateRewards": ["", 4, 4, -24, -48, 2, 4, 24, -48, 2, 4, 24, 24], "withholdReward": true, "trial_id": "mdp_223558518218", "block": "test3", "trialIndex": 62, "score": 33.25, "costs": -1.75, "simulationMode": [null, null, null], "rewards": [2, 4, 24], "path": ["0", "0", "9", "10", "12"], "rt": [6392, 570, 180], "actions": ["left", "left", "down"], "actionTimes": [7486, 8557, 9241], "queries": {"click": {"state": {"target": ["4", "3", "7", "8", "11", "12", "9"], "time": [1783, 2399, 3000, 3584, 4455, 4872, 6464]}, "edge": {"target": [], "time": []}}, "mouseover": {"state": {"target": ["4", "2", "3", "7", "7", "6", "8", "8", "5", "9", "11", "10", "12", "6", "5", "9", "0"], "time": [1686, 2004, 2094, 2621, 2830, 3154, 3195, 3414, 3970, 4103, 4263, 4594, 4686, 5328, 5369, 5598, 6794]}, "edge": {"target": [], "time": []}}, "mouseout": {"state": {"target": ["4", "2", "3", "7", "7", "6", "8", "8", "5", "9", "11", "10", "12", "8", "6", "5", "9", "0"], "time": [1946, 2053, 2574, 2695, 3137, 3170, 3229, 3928, 4003, 4153, 4578, 4637, 5015, 5170, 5345, 5403, 6695, 10088]}, "edge": {"target": [], "time": []}}}, "displayed_time": "9.74", "trialTime": 10906, "trial_type": "mouselab-mdp", "trial_index": 71, "time_elapsed": 1241868, "internal_node_id": "0.0-4.0-5.0-0.0"}}, {"uniqueid": "w58575345:a24787106", "current_trial": 72, "dateTime": 1664465252339, "trialdata": {"revealed_states": [], "num_clicks_accrued": [0, 0, 0, 0, 0, 0, 0, 0, 0, 0, 0, 0, 0], "stateRewards": ["", 2, 4, -48, -24, 2, 8, 24, 48, -2, 4, 48, -48], "withholdReward": true, "trial_id": "mdp_551894842204", "block": "test3", "trialIndex": 63, "score": 61.75, "costs": -1.25, "simulationMode": [null, null, null], "rewards": [2, 8, 48], "path": ["0", "0", "5", "6", "8"], "rt": [4084, 134, 1369], "actions": ["right", "right", "down"], "actionTimes": [5232, 5872, 7749], "queries": {"click": {"state": {"target": ["4", "3", "7", "8", "5"], "time": [1691, 2084, 2571, 3179, 4316]}, "edge": {"target": [], "time": []}}, "mouseover": {"state": {"target": ["1", "4", "2", "3", "7", "6", "8", "5", "5"], "time": [1394, 1470, 1819, 1852, 2345, 2705, 2761, 3961, 4155]}, "edge": {"target": [], "time": []}}, "mouseout": {"state": {"target": ["0", "1", "4", "2", "3", "7", "6", "8", "8", "5", "5", "8"], "time": [681, 1402, 1794, 1844, 2228, 2698, 2736, 3311, 3802, 3969, 4468, 8904]}, "edge": {"target": [], "time": []}}}, "displayed_time": "10.15", "trialTime": 10817, "trial_type": "mouselab-mdp", "trial_index": 72, "time_elapsed": 1252777, "internal_node_id": "0.0-4.0-5.0-1.0"}}, {"uniqueid": "w58575345:a24787106", "current_trial": 73, "dateTime": 1664465263302, "trialdata": {"revealed_states": [], "num_clicks_accrued": [0, 0, 0, 0, 0, 0, 0, 0, 0, 0, 0, 0, 0], "stateRewards": ["", 4, -8, 48, 48, 2, 4, 48, -48, 4, -4, -48, 48], "withholdReward": true, "trial_id": "mdp_519605841135", "block": "test3", "trialIndex": 64, "score": 48.25, "costs": -0.75, "simulationMode": [null, null, null], "rewards": [4, -8, 48], "path": ["0", "0", "1", "2", "4"], "rt": [3898, 127, 229], "actions": ["up", "up", "left"], "actionTimes": [4689, 5321, 6057], "queries": {"click": {"state": {"target": ["4", "3", "1"], "time": [1571, 1996, 3266]}, "edge": {"target": [], "time": []}}, "mouseover": {"state": {"target": ["1", "4", "4", "2", "3", "1", "2"], "time": [1145, 1209, 1444, 1720, 1761, 2898, 3652]}, "edge": {"target": [], "time": []}}, "mouseout": {"state": {"target": ["9", "1", "1", "4", "4", "2", "3", "1", "2", "2"], "time": [346, 427, 1154, 1244, 1697, 1736, 2250, 3502, 7810, 8379]}, "edge": {"target": [], "time": []}}}, "displayed_time": "9.80", "trialTime": 10856, "trial_type": "mouselab-mdp", "trial_index": 73, "time_elapsed": 1263740, "internal_node_id": "0.0-4.0-5.0-2.0"}}, {"uniqueid": "w58575345:a24787106", "current_trial": 74, "dateTime": 1664465274265, "trialdata": {"revealed_states": [], "num_clicks_accrued": [0, 0, 0, 0, 0, 0, 0, 0, 0, 0, 0, 0, 0], "stateRewards": ["", 2, 8, 24, -48, 4, 8, 24, 24, 4, -8, 48, 48], "withholdReward": true, "trial_id": "mdp_646103824875", "block": "test3", "trialIndex": 65, "score": 48.25, "costs": -0.75, "simulationMode": [null, null, null], "rewards": [4, -8, 48], "path": ["0", "0", "9", "10", "11"], "rt": [3014, 296, 195], "actions": ["left", "left", "up"], "actionTimes": [3965, 4764, 5463], "queries": {"click": {"state": {"target": ["4", "11", "9"], "time": [1449, 2128, 3065]}, "edge": {"target": [], "time": []}}, "mouseover": {"state": {"target": ["1", "4", "10", "11", "10", "12", "9"], "time": [1120, 1193, 1843, 1959, 2271, 2384, 2919]}, "edge": {"target": [], "time": []}}, "mouseout": {"state": {"target": ["1", "1", "4", "10", "11", "10", "12", "9", "9", "0", "5"], "time": [576, 1128, 1631, 1893, 2247, 2326, 2609, 3224, 6776, 6858, 7475]}, "edge": {"target": [], "time": []}}}, "displayed_time": "9.96", "trialTime": 10879, "trial_type": "mouselab-mdp", "trial_index": 74, "time_elapsed": 1274703, "internal_node_id": "0.0-4.0-5.0-3.0"}}, {"uniqueid": "w58575345:a24787106", "current_trial": 75, "dateTime": 1664465285390, "trialdata": {"revealed_states": [], "num_clicks_accrued": [0, 0, 0, 0, 0, 0, 0, 0, 0, 0, 0, 0, 0], "stateRewards": ["", -2, -4, -24, -48, 2, -8, -24, -24, 4, -8, 48, 48], "withholdReward": true, "trial_id": "mdp_950599994674", "block": "test3", "trialIndex": 66, "score": 47.5, "costs": -1.5, "simulationMode": [null, null, null], "rewards": [4, -8, 48], "path": ["0", "0", "9", "10", "12"], "rt": [7283, 111, 142], "actions": ["left", "left", "down"], "actionTimes": [8053, 8664, 9312], "queries": {"click": {"state": {"target": ["3", "4", "11", "12", "10", "9"], "time": [1418, 1850, 2856, 3324, 5063, 5415]}, "edge": {"target": [], "time": []}}, "mouseover": {"state": {"target": ["3", "2", "4", "9", "11", "10", "12", "9", "10", "9", "7"], "time": [1256, 1562, 1638, 2487, 2596, 3027, 3044, 3570, 4386, 5220, 7196]}, "edge": {"target": [], "time": []}}, "mouseout": {"state": {"target": ["5", "0", "3", "2", "4", "9", "11", "10", "12", "9", "10", "9", "7"], "time": [512, 898, 1529, 1587, 2037, 2495, 3003, 3035, 3499, 4347, 5203, 5528, 10262]}, "edge": {"target": [], "time": []}}}, "displayed_time": "9.82", "trialTime": 11042, "trial_type": "mouselab-mdp", "trial_index": 75, "time_elapsed": 1285828, "internal_node_id": "0.0-4.0-5.0-4.0"}}, {"uniqueid": "w58575345:a24787106", "current_trial": 76, "dateTime": 1664465296052, "trialdata": {"revealed_states": [], "num_clicks_accrued": [0, 0, 0, 0, 0, 0, 0, 0, 0, 0, 0, 0, 0], "stateRewards": ["", -2, 8, 24, -48, -4, -8, -24, -48, -4, 8, -24, 48], "withholdReward": true, "trial_id": "mdp_464339499860", "block": "test3", "trialIndex": 67, "score": 55.5, "costs": -1.5, "simulationMode": [null, null, null], "rewards": [-4, 8, 48], "path": ["0", "0", "9", "10", "12"], "rt": [5755, 119, 217], "actions": ["left", "left", "down"], "actionTimes": [6541, 7166, 7888], "queries": {"click": {"state": {"target": ["4", "3", "7", "8", "11", "12"], "time": [1491, 1841, 2653, 3148, 4013, 4692]}, "edge": {"target": [], "time": []}}, "mouseover": {"state": {"target": ["1", "2", "4", "2", "3", "6", "7", "6", "8", "10", "11", "10", "12", "9"], "time": [1187, 1217, 1340, 1627, 1672, 2355, 2442, 2843, 2914, 3596, 3796, 4179, 4388, 5447]}, "edge": {"target": [], "time": []}}, "mouseout": {"state": {"target": ["0", "1", "2", "4", "2", "3", "6", "7", "6", "8", "10", "11", "10", "12", "9"], "time": [883, 1202, 1247, 1603, 1649, 1994, 2413, 2811, 2882, 3307, 3723, 4147, 4315, 4821, 5747]}, "edge": {"target": [], "time": []}}}, "displayed_time": "8.79", "trialTime": 10551, "trial_type": "mouselab-mdp", "trial_index": 76, "time_elapsed": 1296490, "internal_node_id": "0.0-4.0-5.0-5.0"}}, {"uniqueid": "w58575345:a24787106", "current_trial": 77, "dateTime": 1664465308724, "trialdata": {"revealed_states": [], "num_clicks_accrued": [0, 0, 0, 0, 0, 0, 0, 0, 0, 0, 0, 0, 0], "stateRewards": ["", 4, -8, -24, 24, 2, -4, 24, 24, 2, -4, 48, 48], "withholdReward": false, "trial_id": "mdp_457607480918", "block": "test3", "trialIndex": 68, "score": 49.25, "costs": -1.75, "simulationMode": [null, null, null], "rewards": [2, -4, 48], "path": ["0", "0", "9", "10", "11"], "rt": [6139, 79, 58], "actions": ["left", "left", "up"], "actionTimes": [8037, 8621, 9183], "queries": {"click": {"state": {"target": ["4", "3", "7", "8", "11", "9", "10"], "time": [2375, 2785, 3431, 3