{"condition": 1, "counterbalance": 0, "assignmentId": "a55176063", "workerId": "w93078496", "hitId": "h93633019", "currenttrial": 8, "bonus": 0, "data": [{"uniqueid": "w93078496:a55176063", "current_trial": 0, "dateTime": 1664554808230, "trialdata": {"success": true, "trial_type": "fullscreen", "trial_index": 0, "time_elapsed": 5588, "internal_node_id": "0.0-0.0"}}, {"uniqueid": "w93078496:a55176063", "current_trial": 1, "dateTime": 1664554815384, "trialdata": {"view_history": [{"page_index": 0, "viewing_time": 7144}], "rt": 7145, "trial_id": "exp_instructions_no_distractor", "trial_type": "instructions", "trial_index": 1, "time_elapsed": 12744, "internal_node_id": "0.0-1.0"}}, {"uniqueid": "w93078496:a55176063", "current_trial": 2, "dateTime": 1664554818359, "trialdata": {"success": true, "trial_type": "fullscreen", "trial_index": 2, "time_elapsed": 15719, "internal_node_id": "0.0-2.0-0.0"}}, {"uniqueid": "w93078496:a55176063", "current_trial": 3, "dateTime": 1664554908411, "trialdata": {"view_history": [{"page_index": 0, "viewing_time": 49435}, {"page_index": 1, "viewing_time": 2064}, {"page_index": 2, "viewing_time": 12286}, {"page_index": 3, "viewing_time": 7695}, {"page_index": 4, "viewing_time": 18567}], "rt": 90049, "trial_id": "mouselab_instructions_1", "trial_type": "instructions", "trial_index": 3, "time_elapsed": 105771, "internal_node_id": "0.0-2.0-1.0"}}, {"uniqueid": "w93078496:a55176063", "current_trial": 4, "dateTime": 1664554931507, "trialdata": {"revealed_states": [], "num_clicks_accrued": [0, 0, 0, 0, 0, 0, 0, 0, 0, 0, 0, 0, 0], "stateRewards": ["", -10, 10, 10, -10, -10, -10, 10, 10, 10, -10, -10, 10], "withholdReward": false, "trial_id": "practice_1", "block": "test", "trialIndex": 0, "score": -8.5, "costs": -0.5, "simulationMode": [null, null, null], "rewards": [10, -10, -10], "path": ["0", "0", "9", "10", "11"], "rt": [7593, 828, 5056], "actions": ["left", "left", "up"], "actionTimes": [10478, 11822, 17382], "queries": {"click": {"state": {"target": ["5", "9"], "time": [7378, 9389]}, "edge": {"target": [], "time": []}}, "mouseover": {"state": {"target": ["5", "5", "0", "9"], "time": [5497, 6058, 8391, 8625]}, "edge": {"target": [], "time": []}}, "mouseout": {"state": {"target": ["0", "5", "5", "0", "9", "0", "11", "10"], "time": [5328, 5742, 8341, 8524, 9856, 13322, 13773, 14039]}, "edge": {"target": [], "time": []}}}, "displayed_time": "17.89", "trialTime": 22831, "trial_type": "mouselab-mdp", "trial_index": 4, "time_elapsed": 128866, "internal_node_id": "0.0-2.0-2.0-0.0"}}, {"uniqueid": "w93078496:a55176063", "current_trial": 5, "dateTime": 1664554940385, "trialdata": {"revealed_states": [], "num_clicks_accrued": [0, 0, 0, 0, 0, 0, 0, 0, 0, 0, 0, 0, 0], "stateRewards": ["", 10, -10, 10, 10, 10, -10, 10, -10, 10, 10, -10, 10], "withholdReward": false, "trial_id": "practice_2", "block": "test", "trialIndex": 1, "score": 12, "costs": 0, "simulationMode": [null, null, null], "rewards": [10, -10, 10], "path": ["0", "0", "1", "2", "4"], "rt": [1033, 1342, 218], "actions": ["up", "up", "left"], "actionTimes": [4393, 6252, 6974], "queries": {"click": {"state": {"target": [], "time": []}, "edge": {"target": [], "time": []}}, "mouseover": {"state": {"target": [], "time": []}, "edge": {"target": [], "time": []}}, "mouseout": {"state": {"target": ["11"], "time": [2805]}, "edge": {"target": [], "time": []}}}, "displayed_time": "7.49", "trialTime": 8746, "trial_type": "mouselab-mdp", "trial_index": 5, "time_elapsed": 137744, "internal_node_id": "0.0-2.0-2.0-1.0"}}, {"uniqueid": "w93078496:a55176063", "current_trial": 6, "dateTime": 1664555005606, "trialdata": {"view_history": [{"page_index": 0, "viewing_time": 40982}, {"page_index": 1, "viewing_time": 13926}, {"page_index": 2, "viewing_time": 10308}], "rt": 65217, "trial_id": "mouselab_instructions_2_scarce", "trial_type": "instructions", "trial_index": 6, "time_elapsed": 202966, "internal_node_id": "0.0-2.0-3.0"}}, {"uniqueid": "w93078496:a55176063", "current_trial": 7, "dateTime": 1664556013725, "trialdata": {"rt": 1008111, "response": {"Q0": "$-48 to $48", "Q1": "The cost is always $0.25.", "Q2": "The better I perform the higher my bonus will be.", "Q3": "No, the structure of the web will be different each time.", "Q4": "The values of the nodes walked through from start to finish.", "Q5": "No, the spider might forget to count the money on some rounds."}, "question_order": [0, 1, 2, 3, 4, 5], "correct": {"Q0": "$-48 to $48", "Q1": "The cost is always $0.25.", "Q2": "The better I perform the higher my bonus will be.", "Q3": "No, the amount of cash at each node of the web may be different each time.", "Q4": "The values of the nodes walked through from start to finish.", "Q5": "No, the spider might forget to count the money on some rounds."}, "trial_id": "mouselab_quiz_scarce", "trial_type": "survey-multi-choice", "trial_index": 7, "time_elapsed": 1211085, "internal_node_id": "0.0-2.0-4.0"}}], "questiondata": {"params": {"CODE": "C6DMOQA6", "MIN_TIME": 7, "inspectCost": 0.25, "startTime": "Fri Sep 30 2022 17:20:02 GMT+0100 (Western European Summer Time)", "bonusRate": 0.002, "variance": "2_4_24", "branching": "312"}}, "eventdata": [{"eventtype": "initialized", "value": null, "timestamp": 1664554801818, "interval": 0}, {"eventtype": "window_resize", "value": [1745, 898], "timestamp": 1664554801818, "interval": 0}, {"eventtype": "window_resize", "value": [1745, 898], "timestamp": 1664554802127, "interval": 309}, {"eventtype": "window_resize", "value": [1745, 982], "timestamp": 1664554807456, "interval": 5329}, {"eventtype": "focus", "value": "off", "timestamp": 1664555647599, "interval": 840143}, {"eventtype": "window_resize", "value": [1745, 981], "timestamp": 1664555647878, "interval": 279}, {"eventtype": "focus", "value": "on", "timestamp": 1664555649114, "interval": 1236}, {"eventtype": "window_resize", "value": [1745, 982], "timestamp": 1664555649331, "interval": 217}, {"eventtype": "focus", "value": "off", "timestamp": 1664555958236, "interval": 308905}, {"eventtype": "window_resize", "value": [1745, 981], "timestamp": 1664555958600, "interval": 364}, {"eventtype": "focus", "value": "on", "timestamp": 1664556003571, "interval": 44971}, {"eventtype": "window_resize", "value": [1745, 982], "timestamp": 1664556003804, "interval": 233}, {"eventtype": "focus", "value": "off", "timestamp": 1664556003974, "interval": 170}, {"eventtype": "window_resize", "value": [1745, 981], "timestamp": 1664556004266, "interval": 292}, {"eventtype": "focus", "value": "on", "timestamp": 1664556004858, "interval": 592}, {"eventtype": "window_resize", "value": [1745, 982], "timestamp": 1664556005139, "interval": 281}, {"eventtype": "focus", "value": "off", "timestamp": 1664556006401, "interval": 1262}, {"eventtype": "window_resize", "value": [1745, 981], "timestamp": 1664556006622, "interval": 221}, {"eventtype": "focus", "value": "on", "timestamp": 1664556011320, "interval": 4698}, {"eventtype": "window_resize", "value": [1745, 898], "timestamp": 1664556011525, "interval": 205}, {"eventtype": "focus", "value": "off", "timestamp": 1664556018248, "interval": 6723}], "useragent": "Mozilla/5.0 (Windows NT 10.0; Win64; x64) AppleWebKit/537.36 (KHTML, like Gecko) Chrome/105.0.0.0 Safari/537.36", "mode": "live", "id": "w93078496:a55176063", "status": "user data saved", "Beginhit": "2022-09-30 16:20:00.827451", "Beginexp": "2022-09-30 16:20:08.458077", "Endhit": null, "psiturkStatus": 6, "browser": "<redacted>", "platform": "windows", "language": "en-US"}