{"condition": 1, "counterbalance": 0, "assignmentId": "a29715244", "workerId": "w60156856", "hitId": "h67706512", "currenttrial": 29, "bonus": 0, "data": [{"uniqueid": "w60156856:a29715244", "current_trial": 0, "dateTime": 1664873300595, "trialdata": {"success": true, "trial_type": "fullscreen", "trial_index": 0, "time_elapsed": 8281, "internal_node_id": "0.0-0.0"}}, {"uniqueid": "w60156856:a29715244", "current_trial": 1, "dateTime": 1664873353769, "trialdata": {"view_history": [{"page_index": 0, "viewing_time": 53163}], "rt": 53167, "trial_id": "exp_instructions_no_distractor", "trial_type": "instructions", "trial_index": 1, "time_elapsed": 61455, "internal_node_id": "0.0-1.0"}}, {"uniqueid": "w60156856:a29715244", "current_trial": 2, "dateTime": 1664873358459, "trialdata": {"success": true, "trial_type": "fullscreen", "trial_index": 2, "time_elapsed": 66145, "internal_node_id": "0.0-2.0-0.0"}}, {"uniqueid": "w60156856:a29715244", "current_trial": 3, "dateTime": 1664873541420, "trialdata": {"view_history": [{"page_index": 0, "viewing_time": 70418}, {"page_index": 1, "viewing_time": 38462}, {"page_index": 2, "viewing_time": 26361}, {"page_index": 3, "viewing_time": 16186}, {"page_index": 4, "viewing_time": 31529}], "rt": 182956, "trial_id": "mouselab_instructions_1", "trial_type": "instructions", "trial_index": 3, "time_elapsed": 249106, "internal_node_id": "0.0-2.0-1.0"}}, {"uniqueid": "w60156856:a29715244", "current_trial": 4, "dateTime": 1664873560304, "trialdata": {"revealed_states": [], "num_clicks_accrued": [0, 0, 0, 0, 0, 0, 0, 0, 0, 0, 0, 0, 0], "stateRewards": ["", 10, 10, -10, -10, 10, 10, 10, -10, -10, -10, 10, 10], "withholdReward": false, "trial_id": "practice_1", "block": "test", "trialIndex": 0, "score": 12, "costs": 0, "simulationMode": [null, null, null], "rewards": [10, 10, -10], "path": ["0", "0", "5", "6", "8"], "rt": [6671, 139, 1489], "actions": ["right", "right", "down"], "actionTimes": [11474, 12120, 14115], "queries": {"click": {"state": {"target": [], "time": []}, "edge": {"target": [], "time": []}}, "mouseover": {"state": {"target": [], "time": []}, "edge": {"target": [], "time": []}}, "mouseout": {"state": {"target": [], "time": []}, "edge": {"target": [], "time": []}}}, "displayed_time": "14.63", "trialTime": 18723, "trial_type": "mouselab-mdp", "trial_index": 4, "time_elapsed": 267989, "internal_node_id": "0.0-2.0-2.0-0.0"}}, {"uniqueid": "w60156856:a29715244", "current_trial": 5, "dateTime": 1664873572646, "trialdata": {"revealed_states": [], "num_clicks_accrued": [0, 0, 0, 0, 0, 0, 0, 0, 0, 0, 0, 0, 0], "stateRewards": ["", 10, -10, 10, 10, 10, -10, -10, -10, -10, 10, 10, -10], "withholdReward": false, "trial_id": "practice_2", "block": "test", "trialIndex": 1, "score": 12, "costs": 0, "simulationMode": [null, null, null], "rewards": [10, -10, 10], "path": ["0", "0", "1", "2", "3"], "rt": [2608, 339, 600], "actions": ["up", "up", "right"], "actionTimes": [7680, 8521, 9658], "queries": {"click": {"state": {"target": [], "time": []}, "edge": {"target": [], "time": []}}, "mouseover": {"state": {"target": [], "time": []}, "edge": {"target": [], "time": []}}, "mouseout": {"state": {"target": ["0"], "time": [5020]}, "edge": {"target": [], "time": []}}}, "displayed_time": "10.17", "trialTime": 12245, "trial_type": "mouselab-mdp", "trial_index": 5, "time_elapsed": 280331, "internal_node_id": "0.0-2.0-2.0-1.0"}}, {"uniqueid": "w60156856:a29715244", "current_trial": 6, "dateTime": 1664873661459, "trialdata": {"view_history": [{"page_index": 0, "viewing_time": 51296}, {"page_index": 1, "viewing_time": 20046}, {"page_index": 2, "viewing_time": 17465}], "rt": 88809, "trial_id": "mouselab_instructions_2_scarce", "trial_type": "instructions", "trial_index": 6, "time_elapsed": 369145, "internal_node_id": "0.0-2.0-3.0"}}, {"uniqueid": "w60156856:a29715244", "current_trial": 7, "dateTime": 1664873797984, "trialdata": {"rt": 136518, "response": {"Q0": "$-48 to $48", "Q1": "The cost is always $0.25.", "Q2": "The better I perform the higher my bonus will be.", "Q3": "Yes.", "Q4": "The values of the nodes walked through from start to finish.", "Q5": "No, the spider might forget to count the money on some rounds."}, "question_order": [0, 1, 2, 3, 4, 5], "correct": {"Q0": "$-48 to $48", "Q1": "The cost is always $0.25.", "Q2": "The better I perform the higher my bonus will be.", "Q3": "No, the amount of cash at each node of the web may be different each time.", "Q4": "The values of the nodes walked through from start to finish.", "Q5": "No, the spider might forget to count the money on some rounds."}, "trial_id": "mouselab_quiz_scarce", "trial_type": "survey-multi-choice", "trial_index": 7, "time_elapsed": 505670, "internal_node_id": "0.0-2.0-4.0"}}, {"uniqueid": "w60156856:a29715244", "current_trial": 8, "dateTime": 1664873809091, "trialdata": {"success": true, "trial_type": "fullscreen", "trial_index": 8, "time_elapsed": 516777, "internal_node_id": "0.0-2.1-0.1"}}, {"uniqueid": "w60156856:a29715244", "current_trial": 9, "dateTime": 1664873919030, "trialdata": {"view_history": [{"page_index": 0, "viewing_time": 34943}, {"page_index": 1, "viewing_time": 20452}, {"page_index": 2, "viewing_time": 13116}, {"page_index": 3, "viewing_time": 9409}, {"page_index": 4, "viewing_time": 32014}], "rt": 109934, "trial_id": "mouselab_instructions_1", "trial_type": "instructions", "trial_index": 9, "time_elapsed": 626716, "internal_node_id": "0.0-2.1-1.1"}}, {"uniqueid": "w60156856:a29715244", "current_trial": 10, "dateTime": 1664873925929, "trialdata": {"revealed_states": [], "num_clicks_accrued": [0, 0, 0, 0, 0, 0, 0, 0, 0, 0, 0, 0, 0], "stateRewards": ["", 10, 10, -10, -10, 10, 10, 10, -10, -10, -10, 10, 10], "withholdReward": false, "trial_id": "practice_1", "block": "test", "trialIndex": 2, "score": 12, "costs": 0, "simulationMode": [null, null, null], "rewards": [10, 10, -10], "path": ["0", "0", "1", "2", "3"], "rt": [2048, 57, 579], "actions": ["up", "up", "right"], "actionTimes": [3801, 4367, 5480], "queries": {"click": {"state": {"target": [], "time": []}, "edge": {"target": [], "time": []}}, "mouseover": {"state": {"target": [], "time": []}, "edge": {"target": [], "time": []}}, "mouseout": {"state": {"target": [], "time": []}, "edge": {"target": [], "time": []}}}, "displayed_time": "5.99", "trialTime": 6804, "trial_type": "mouselab-mdp", "trial_index": 10, "time_elapsed": 633614, "internal_node_id": "0.0-2.1-2.1-0.1"}}, {"uniqueid": "w60156856:a29715244", "current_trial": 11, "dateTime": 1664873939055, "trialdata": {"revealed_states": [], "num_clicks_accrued": [0, 0, 0, 0, 0, 0, 0, 0, 0, 0, 0, 0, 0], "stateRewards": ["", 10, -10, 10, 10, 10, -10, -10, -10, -10, 10, 10, -10], "withholdReward": false, "trial_id": "practice_2", "block": "test", "trialIndex": 3, "score": -8, "costs": 0, "simulationMode": [null, null, null], "rewards": [-10, 10, -10], "path": ["0", "0", "9", "10", "12"], "rt": [2192, 193, 696], "actions": ["left", "left", "down"], "actionTimes": [9267, 9969, 11198], "queries": {"click": {"state": {"target": [], "time": []}, "edge": {"target": [], "time": []}}, "mouseover": {"state": {"target": [], "time": []}, "edge": {"target": [], "time": []}}, "mouseout": {"state": {"target": ["0"], "time": [4134]}, "edge": {"target": [], "time": []}}}, "displayed_time": "11.72", "trialTime": 13060, "trial_type": "mouselab-mdp", "trial_index": 11, "time_elapsed": 646740, "internal_node_id": "0.0-2.1-2.1-1.1"}}, {"uniqueid": "w60156856:a29715244", "current_trial": 12, "dateTime": 1664873993274, "trialdata": {"view_history": [{"page_index": 0, "viewing_time": 31649}, {"page_index": 1, "viewing_time": 19925}, {"page_index": 2, "viewing_time": 2638}], "rt": 54213, "trial_id": "mouselab_instructions_2_scarce", "trial_type": "instructions", "trial_index": 12, "time_elapsed": 700960, "internal_node_id": "0.0-2.1-3.1"}}, {"uniqueid": "w60156856:a29715244", "current_trial": 13, "dateTime": 1664874157753, "trialdata": {"rt": 164473, "response": {"Q0": "$-48 to $48", "Q1": "The cost for clicking on nodes varies between nodes.", "Q2": "The better I perform the higher my bonus will be.", "Q3": "Yes.", "Q4": "The values of the nodes walked through from start to finish.", "Q5": "Yes."}, "question_order": [0, 1, 2, 3, 4, 5], "correct": {"Q0": "$-48 to $48", "Q1": "The cost is always $0.25.", "Q2": "The better I perform the higher my bonus will be.", "Q3": "No, the amount of cash at each node of the web may be different each time.", "Q4": "The values of the nodes walked through from start to finish.", "Q5": "No, the spider might forget to count the money on some rounds."}, "trial_id": "mouselab_quiz_scarce", "trial_type": "survey-multi-choice", "trial_index": 13, "time_elapsed": 865438, "internal_node_id": "0.0-2.1-4.1"}}, {"uniqueid": "w60156856:a29715244", "current_trial": 14, "dateTime": 1664874165690, "trialdata": {"success": true, "trial_type": "fullscreen", "trial_index": 14, "time_elapsed": 873376, "internal_node_id": "0.0-2.2-0.2"}}, {"uniqueid": "w60156856:a29715244", "current_trial": 15, "dateTime": 1664874173848, "trialdata": {"view_history": [{"page_index": 0, "viewing_time": 3949}, {"page_index": 1, "viewing_time": 954}, {"page_index": 2, "viewing_time": 985}, {"page_index": 3, "viewing_time": 1083}, {"page_index": 4, "viewing_time": 1182}], "rt": 8153, "trial_id": "mouselab_instructions_1", "trial_type": "instructions", "trial_index": 15, "time_elapsed": 881534, "internal_node_id": "0.0-2.2-1.2"}}, {"uniqueid": "w60156856:a29715244", "current_trial": 16, "dateTime": 1664874186483, "trialdata": {"revealed_states": [], "num_clicks_accrued": [0, 0, 0, 0, 0, 0, 0, 0, 0, 0, 0, 0, 0], "stateRewards": ["", 10, 10, -10, -10, 10, 10, 10, -10, -10, -10, 10, 10], "withholdReward": false, "trial_id": "practice_1", "block": "test", "trialIndex": 4, "score": 12, "costs": 0, "simulationMode": [null, null, null], "rewards": [10, 10, -10], "path": ["0", "0", "1", "2", "3"], "rt": [1881, 532, 455], "actions": ["up", "up", "right"], "actionTimes": [8543, 9585, 10547], "queries": {"click": {"state": {"target": [], "time": []}, "edge": {"target": [], "time": []}}, "mouseover": {"state": {"target": [], "time": []}, "edge": {"target": [], "time": []}}, "mouseout": {"state": {"target": ["12"], "time": [1801]}, "edge": {"target": [], "time": []}}}, "displayed_time": "11.07", "trialTime": 12543, "trial_type": "mouselab-mdp", "trial_index": 16, "time_elapsed": 894168, "internal_node_id": "0.0-2.2-2.2-0.2"}}, {"uniqueid": "w60156856:a29715244", "current_trial": 17, "dateTime": 1664874195193, "trialdata": {"revealed_states": [], "num_clicks_accrued": [0, 0, 0, 0, 0, 0, 0, 0, 0, 0, 0, 0, 0], "stateRewards": ["", 10, -10, 10, 10, 10, -10, -10, -10, -10, 10, 10, -10], "withholdReward": false, "trial_id": "practice_2", "block": "test", "trialIndex": 5, "score": -8, "costs": 0, "simulationMode": [null, null, null], "rewards": [-10, 10, -10], "path": ["0", "0", "9", "10", "12"], "rt": [1583, 258, 791], "actions": ["left", "left", "down"], "actionTimes": [3699, 4463, 5761], "queries": {"click": {"state": {"target": [], "time": []}, "edge": {"target": [], "time": []}}, "mouseover": {"state": {"target": [], "time": []}, "edge": {"target": [], "time": []}}, "mouseout": {"state": {"target": [], "time": []}, "edge": {"target": [], "time": []}}}, "displayed_time": "6.27", "trialTime": 8636, "trial_type": "mouselab-mdp", "trial_index": 17, "time_elapsed": 902879, "internal_node_id": "0.0-2.2-2.2-1.2"}}, {"uniqueid": "w60156856:a29715244", "current_trial": 18, "dateTime": 1664874237750, "trialdata": {"view_history": [{"page_index": 0, "viewing_time": 32431}, {"page_index": 1, "viewing_time": 7670}, {"page_index": 2, "viewing_time": 2450}], "rt": 42552, "trial_id": "mouselab_instructions_2_scarce", "trial_type": "instructions", "trial_index": 18, "time_elapsed": 945436, "internal_node_id": "0.0-2.2-3.2"}}, {"uniqueid": "w60156856:a29715244", "current_trial": 19, "dateTime": 1664874481829, "trialdata": {"rt": 244074, "response": {"Q0": "$-48 to $48", "Q1": "The cost is always $0.25.", "Q2": "The better I perform the higher my bonus will be.", "Q3": "No, the amount of cash at each node of the web may be different each time.", "Q4": "The values of the nodes walked through from start to finish.", "Q5": "Yes."}, "question_order": [0, 1, 2, 3, 4, 5], "correct": {"Q0": "$-48 to $48", "Q1": "The cost is always $0.25.", "Q2": "The better I perform the higher my bonus will be.", "Q3": "No, the amount of cash at each node of the web may be different each time.", "Q4": "The values of the nodes walked through from start to finish.", "Q5": "No, the spider might forget to count the money on some rounds."}, "trial_id": "mouselab_quiz_scarce", "trial_type": "survey-multi-choice", "trial_index": 19, "time_elapsed": 1189514, "internal_node_id": "0.0-2.2-4.2"}}, {"uniqueid": "w60156856:a29715244", "current_trial": 20, "dateTime": 1664874493354, "trialdata": {"success": true, "trial_type": "fullscreen", "trial_index": 20, "time_elapsed": 1201040, "internal_node_id": "0.0-2.3-0.3"}}, {"uniqueid": "w60156856:a29715244", "current_trial": 21, "dateTime": 1664874683662, "trialdata": {"view_history": [{"page_index": 0, "viewing_time": 86190}, {"page_index": 1, "viewing_time": 37316}, {"page_index": 2, "viewing_time": 20415}, {"page_index": 3, "viewing_time": 13538}, {"page_index": 4, "viewing_time": 32843}], "rt": 190303, "trial_id": "mouselab_instructions_1", "trial_type": "instructions", "trial_index": 21, "time_elapsed": 1391347, "internal_node_id": "0.0-2.3-1.3"}}, {"uniqueid": "w60156856:a29715244", "current_trial": 22, "dateTime": 1664874704986, "trialdata": {"revealed_states": [], "num_clicks_accrued": [0, 0, 0, 0, 0, 0, 0, 0, 0, 0, 0, 0, 0], "stateRewards": ["", 10, 10, -10, -10, 10, 10, 10, -10, -10, -10, 10, 10], "withholdReward": false, "trial_id": "practice_1", "block": "test", "trialIndex": 6, "score": 32, "costs": 0, "simulationMode": [null, null, null], "rewards": [10, 10, 10], "path": ["0", "0", "5", "6", "7"], "rt": [6640, 1332, 1724], "actions": ["right", "right", "up"], "actionTimes": [11580, 13440, 15675], "queries": {"click": {"state": {"target": [], "time": []}, "edge": {"target": [], "time": []}}, "mouseover": {"state": {"target": [], "time": []}, "edge": {"target": [], "time": []}}, "mouseout": {"state": {"target": [], "time": []}, "edge": {"target": [], "time": []}}}, "displayed_time": "16.19", "trialTime": 21181, "trial_type": "mouselab-mdp", "trial_index": 22, "time_elapsed": 1412671, "internal_node_id": "0.0-2.3-2.3-0.3"}}, {"uniqueid": "w60156856:a29715244", "current_trial": 23, "dateTime": 1664874718610, "trialdata": {"revealed_states": [], "num_clicks_accrued": [0, 0, 0, 0, 0, 0, 0, 0, 0, 0, 0, 0, 0], "stateRewards": ["", 10, -10, 10, 10, 10, -10, -10, -10, -10, 10, 10, -10], "withholdReward": false, "trial_id": "practice_2", "block": "test", "trialIndex": 7, "score": -8, "costs": 0, "simulationMode": [null, null, null], "rewards": [-10, 10, -10], "path": ["0", "0", "9", "10", "12"], "rt": [2622, 538, 1192], "actions": ["left", "left", "down"], "actionTimes": [6702, 7750, 9470], "queries": {"click": {"state": {"target": [], "time": []}, "edge": {"target": [], "time": []}}, "mouseover": {"state": {"target": [], "time": []}, "edge": {"target": [], "time": []}}, "mouseout": {"state": {"target": ["0", "1"], "time": [1897, 2391]}, "edge": {"target": [], "time": []}}}, "displayed_time": "9.98", "trialTime": 13557, "trial_type": "mouselab-mdp", "trial_index": 23, "time_elapsed": 1426295, "internal_node_id": "0.0-2.3-2.3-1.3"}}, {"uniqueid": "w60156856:a29715244", "current_trial": 24, "dateTime": 1664874790753, "trialdata": {"view_history": [{"page_index": 0, "viewing_time": 39675}, {"page_index": 1, "viewing_time": 26043}, {"page_index": 2, "viewing_time": 6421}], "rt": 72139, "trial_id": "mouselab_instructions_2_scarce", "trial_type": "instructions", "trial_index": 24, "time_elapsed": 1498439, "internal_node_id": "0.0-2.3-3.3"}}, {"uniqueid": "w60156856:a29715244", "current_trial": 25, "dateTime": 1664875027102, "trialdata": {"rt": 236345, "response": {"Q0": "$-48 to $48", "Q1": "There is no cost for clicking on nodes.", "Q2": "The better I perform the higher my bonus will be.", "Q3": "No, the amount of cash at each node of the web may be different each time.", "Q4": "The values of the nodes walked through from start to finish.", "Q5": "Yes."}, "question_order": [0, 1, 2, 3, 4, 5], "correct": {"Q0": "$-48 to $48", "Q1": "The cost is always $0.25.", "Q2": "The better I perform the higher my bonus will be.", "Q3": "No, the amount of cash at each node of the web may be different each time.", "Q4": "The values of the nodes walked through from start to finish.", "Q5": "No, the spider might forget to count the money on some rounds."}, "trial_id": "mouselab_quiz_scarce", "trial_type": "survey-multi-choice", "trial_index": 25, "time_elapsed": 1734788, "internal_node_id": "0.0-2.3-4.3"}}, {"uniqueid": "w60156856:a29715244", "current_trial": 26, "dateTime": 1664875180015, "trialdata": {"rt": 152881, "response": {"Q0": "Everything-There were too many pages of instructions to remember and then answer questions about. The question about the node and the node inspector was misleading.\n\nNone of the questions were clear ", "Q1": "58", "Q2": "female", "Q3": "No", "Q4": ""}, "trial_id": "finish_fail_nodistractor", "trial_type": "survey-text", "trial_index": 26, "time_elapsed": 1887701, "internal_node_id": "0.0-3.0-0.0"}}, {"uniqueid": "w60156856:a29715244", "current_trial": 27, "dateTime": 1664875189109, "trialdata": {"rt": 9077, "stimulus": "Press 'Finish HIT' in order to reach the completion code. Once the data has been saved, you will receive the code either in this window or in the original browser window where you started the experiment.\n", "response": 0, "trial_type": "html-button-response", "trial_index": 27, "time_elapsed": 1896794, "internal_node_id": "0.0-6.0"}}, {"uniqueid": "w60156856:a29715244", "current_trial": 28, "dateTime": 1664875190115, "trialdata": {"success": true, "trial_type": "fullscreen", "trial_index": 28, "time_elapsed": 1897801, "internal_node_id": "0.0-7.0"}}], "questiondata": {"params": {"CODE": "C6DMOQA6", "MIN_TIME": 7, "inspectCost": 0.25, "startTime": "Tue Oct 04 2022 09:48:12 GMT+0100 (British Summer Time)", "bonusRate": 0.002, "variance": "2_4_24", "branching": "312"}, "final_score": 0}, "eventdata": [{"eventtype": "initialized", "value": null, "timestamp": 1664873291663, "interval": 0}, {"eventtype": "window_resize", "value": [1500, 898], "timestamp": 1664873291663, "interval": 0}, {"eventtype": "window_resize", "value": [1500, 898], "timestamp": 1664873291910, "interval": 247}, {"eventtype": "window_resize", "value": [1500, 1000], "timestamp": 1664873299850, "interval": 7940}, {"eventtype": "focus", "value": "off", "timestamp": 1664873805848, "interval": 505998}, {"eventtype": "focus", "value": "on", "timestamp": 1664873805850, "interval": 2}, {"eventtype": "window_resize", "value": [1500, 898], "timestamp": 1664873806085, "interval": 235}, {"eventtype": "window_resize", "value": [1500, 1000], "timestamp": 1664873808331, "interval": 2246}, {"eventtype": "focus", "value": "off", "timestamp": 1664874162557, "interval": 354226}, {"eventtype": "focus", "value": "on", "timestamp": 1664874162559, "interval": 2}, {"eventtype": "window_resize", "value": [1500, 898], "timestamp": 1664874162779, "interval": 220}, {"eventtype": "window_resize", "value": [1500, 1000], "timestamp": 1664874164934, "interval": 2155}, {"eventtype": "focus", "value": "off", "timestamp": 1664874488594, "interval": 323660}, {"eventtype": "focus", "value": "on", "timestamp": 1664874488596, "interval": 2}, {"eventtype": "window_resize", "value": [1500, 898], "timestamp": 1664874488828, "interval": 232}, {"eventtype": "window_resize", "value": [1500, 1000], "timestamp": 1664874492586, "interval": 3758}, {"eventtype": "window_resize", "value": [1500, 898], "timestamp": 1664875189387, "interval": 696801}], "useragent": "Mozilla/5.0 (Windows NT 10.0; Win64; x64) AppleWebKit/537.36 (KHTML, like Gecko) Chrome/105.0.0.0 Safari/537.36 Edg/105.0.1343.53", "mode": "live", "id": "w60156856:a29715244", "status": "user data saved", "Beginhit": "2022-10-04 08:48:11.525901", "Beginexp": "2022-10-04 08:48:21.264754", "Endhit": "2022-10-04 09:19:50.879829", "psiturkStatus": 3, "browser": "<redacted>", "platform": "windows", "language": "en-GB"}