{"condition": 0, "counterbalance": 0, "assignmentId": "a26670280", "workerId": "w54260747", "hitId": "h19643165", "currenttrial": 959, "bonus": 0, "data": [{"uniqueid": "w54260747:a26670280", "current_trial": 0, "dateTime": 1664464836694, "trialdata": {"success": true, "trial_type": "fullscreen", "trial_index": 0, "time_elapsed": 903658, "internal_node_id": "0.0-0.0"}}, {"uniqueid": "w54260747:a26670280", "current_trial": 1, "dateTime": 1664464861861, "trialdata": {"view_history": [{"page_index": 0, "viewing_time": 25159}], "rt": 25159, "trial_id": "exp_instructions_distractor", "trial_type": "instructions", "trial_index": 1, "time_elapsed": 928827, "internal_node_id": "0.0-1.0"}}, {"uniqueid": "w54260747:a26670280", "current_trial": 2, "dateTime": 1664464878545, "trialdata": {"view_history": [{"page_index": 0, "viewing_time": 16683}], "rt": 16683, "trial_id": "color_game_instructions", "trial_type": "instructions", "trial_index": 2, "time_elapsed": 945511, "internal_node_id": "0.0-2.0"}}, {"uniqueid": "w54260747:a26670280", "current_trial": 3, "dateTime": 1664464881563, "trialdata": {"rt": 3015, "stimulus": "<h1> Get ready to start the game! </h1>\n\nThank you for reading the instructions. Get ready start with the first of 5 block(s) of this game.\n<br><br>\nIn this first block, you will complete 90 rounds of this game before moving on.\n<br><br>\nRemember, the better you perform, the bigger your bonus will be!\n<br><br>\n<div style='text-align: center;'>Press <code>space</code> to begin.</div>", "response": " ", "trial_id": "stroop_1_ready_1", "trial_type": "html-keyboard-response", "trial_index": 3, "time_elapsed": 948529, "internal_node_id": "0.0-3.0"}}, {"uniqueid": "w54260747:a26670280", "current_trial": 4, "dateTime": 1664464883212, "trialdata": {"rt": 1640, "stimulus": "<p id='stroop-text' class='stroop-yellow'>BOTTLE</p>", "response": "y", "stimulus-type": "unrelated", "word": "BOTTLE", "color": "yellow", "correct_response": "y", "trial_id": "stroop-trial-1-unrelated-8", "trial_type": "html-keyboard-response", "trial_index": 4, "time_elapsed": 950176, "internal_node_id": "0.0-4.0-0.0"}}, {"uniqueid": "w54260747:a26670280", "current_trial": 5, "dateTime": 1664464884963, "trialdata": {"rt": 1247, "stimulus": "<p id='stroop-text' class='stroop-red'>RED</p>", "response": "r", "stimulus-type": "congruent", "word": "red", "color": "red", "correct_response": "r", "trial_id": "stroop-trial-1-congruent-18", "trial_type": "html-keyboard-response", "trial_index": 5, "time_elapsed": 951928, "internal_node_id": "0.0-4.0-1.0"}}, {"uniqueid": "w54260747:a26670280", "current_trial": 6, "dateTime": 1664464887449, "trialdata": {"rt": 1983, "stimulus": "<p id='stroop-text' class='stroop-green'>YELLOW</p>", "response": "g", "stimulus-type": "incongruent", "word": "yellow", "color": "green", "correct_response": "g", "trial_id": "stroop-trial-1-incongruent-14", "trial_type": "html-keyboard-response", "trial_index": 6, "time_elapsed": 954415, "internal_node_id": "0.0-4.0-2.0"}}, {"uniqueid": "w54260747:a26670280", "current_trial": 7, "dateTime": 1664464889420, "trialdata": {"rt": 1467, "stimulus": "<p id='stroop-text' class='stroop-red'>BOAT</p>", "response": "r", "stimulus-type": "unrelated", "word": "BOAT", "color": "red", "correct_response": "r", "trial_id": "stroop-trial-1-unrelated-6", "trial_type": "html-keyboard-response", "trial_index": 7, "time_elapsed": 956385, "internal_node_id": "0.0-4.0-3.0"}}, {"uniqueid": "w54260747:a26670280", "current_trial": 8, "dateTime": 1664464891857, "trialdata": {"rt": 1924, "stimulus": "<p id='stroop-text' class='stroop-yellow'>YELLOW</p>", "response": "y", "stimulus-type": "congruent", "word": "yellow", "color": "yellow", "correct_response": "y", "trial_id": "stroop-trial-1-congruent-21", "trial_type": "html-keyboard-response", "trial_index": 8, "time_elapsed": 958823, "internal_node_id": "0.0-4.0-4.0"}}, {"uniqueid": "w54260747:a26670280", "current_trial": 9, "dateTime": 1664464894449, "trialdata": {"rt": 2088, "stimulus": "<p id='stroop-text' class='stroop-red'>YELLOW</p>", "response": "r", "stimulus-type": "incongruent", "word": "yellow", "color": "red", "correct_response": "r", "trial_id": "stroop-trial-1-incongruent-23", "trial_type": "html-keyboard-response", "trial_index": 9, "time_elapsed": 961415, "internal_node_id": "0.0-4.0-5.0"}}, {"uniqueid": "w54260747:a26670280", "current_trial": 10, "dateTime": 1664464896075, "trialdata": {"rt": 1123, "stimulus": "<p id='stroop-text' class='stroop-blue'>MONKEY</p>", "response": "b", "stimulus-type": "unrelated", "word": "MONKEY", "color": "blue", "correct_response": "b", "trial_id": "stroop-trial-1-unrelated-2", "trial_type": "html-keyboard-response", "trial_index": 10, "time_elapsed": 963040, "internal_node_id": "0.0-4.0-6.0"}}, {"uniqueid": "w54260747:a26670280", "current_trial": 11, "dateTime": 1664464897658, "trialdata": {"rt": 1079, "stimulus": "<p id='stroop-text' class='stroop-yellow'>YELLOW</p>", "response": "y", "stimulus-type": "congruent", "word": "yellow", "color": "yellow", "correct_response": "y", "trial_id": "stroop-trial-1-congruent-14", "trial_type": "html-keyboard-response", "trial_index": 11, "time_elapsed": 964624, "internal_node_id": "0.0-4.0-7.0"}}, {"uniqueid": "w54260747:a26670280", "current_trial": 12, "dateTime": 1664464899211, "trialdata": {"rt": 1050, "stimulus": "<p id='stroop-text' class='stroop-yellow'>CHAIR</p>", "response": "y", "stimulus-type": "unrelated", "word": "CHAIR", "color": "yellow", "correct_response": "y", "trial_id": "stroop-trial-1-unrelated-18", "trial_type": "html-keyboard-response", "trial_index": 12, "time_elapsed": 966176, "internal_node_id": "0.0-4.0-8.0"}}, {"uniqueid": "w54260747:a26670280", "current_trial": 13, "dateTime": 1664464900596, "trialdata": {"rt": 880, "stimulus": "<p id='stroop-text' class='stroop-blue'>BLUE</p>", "response": "b", "stimulus-type": "congruent", "word": "blue", "color": "blue", "correct_response": "b", "trial_id": "stroop-trial-1-congruent-10", "trial_type": "html-keyboard-response", "trial_index": 13, "time_elapsed": 967561, "internal_node_id": "0.0-4.0-9.0"}}, {"uniqueid": "w54260747:a26670280", "current_trial": 14, "dateTime": 1664464902267, "trialdata": {"rt": 1166, "stimulus": "<p id='stroop-text' class='stroop-red'>BRAIN</p>", "response": "r", "stimulus-type": "unrelated", "word": "BRAIN", "color": "red", "correct_response": "r", "trial_id": "stroop-trial-1-unrelated-12", "trial_type": "html-keyboard-response", "trial_index": 14, "time_elapsed": 969232, "internal_node_id": "0.0-4.0-10.0"}}, {"uniqueid": "w54260747:a26670280", "current_trial": 15, "dateTime": 1664464904444, "trialdata": {"rt": 1671, "stimulus": "<p id='stroop-text' class='stroop-green'>RED</p>", "response": "g", "stimulus-type": "incongruent", "word": "red", "color": "green", "correct_response": "g", "trial_id": "stroop-trial-1-incongruent-5", "trial_type": "html-keyboard-response", "trial_index": 15, "time_elapsed": 971410, "internal_node_id": "0.0-4.0-11.0"}}, {"uniqueid": "w54260747:a26670280", "current_trial": 16, "dateTime": 1664464906633, "trialdata": {"rt": 1687, "stimulus": "<p id='stroop-text' class='stroop-green'>BOTTLE</p>", "response": "g", "stimulus-type": "unrelated", "word": "BOTTLE", "color": "green", "correct_response": "g", "trial_id": "stroop-trial-1-unrelated-21", "trial_type": "html-keyboard-response", "trial_index": 16, "time_elapsed": 973599, "internal_node_id": "0.0-4.0-12.0"}}, {"uniqueid": "w54260747:a26670280", "current_trial": 17, "dateTime": 1664464908265, "trialdata": {"rt": 1130, "stimulus": "<p id='stroop-text' class='stroop-red'>RED</p>", "response": "r", "stimulus-type": "congruent", "word": "red", "color": "red", "correct_response": "r", "trial_id": "stroop-trial-1-congruent-11", "trial_type": "html-keyboard-response", "trial_index": 17, "time_elapsed": 975231, "internal_node_id": "0.0-4.0-13.0"}}, {"uniqueid": "w54260747:a26670280", "current_trial": 18, "dateTime": 1664464909876, "trialdata": {"rt": 1107, "stimulus": "<p id='stroop-text' class='stroop-red'>YELLOW</p>", "response": "r", "stimulus-type": "incongruent", "word": "yellow", "color": "red", "correct_response": "r", "trial_id": "stroop-trial-1-incongruent-6", "trial_type": "html-keyboard-response", "trial_index": 18, "time_elapsed": 976841, "internal_node_id": "0.0-4.0-14.0"}}, {"uniqueid": "w54260747:a26670280", "current_trial": 19, "dateTime": 1664464911130, "trialdata": {"rt": 751, "stimulus": "<p id='stroop-text' class='stroop-blue'>BRIDGE</p>", "response": "b", "stimulus-type": "unrelated", "word": "BRIDGE", "color": "blue", "correct_response": "b", "trial_id": "stroop-trial-1-unrelated-25", "trial_type": "html-keyboard-response", "trial_index": 19, "time_elapsed": 978095, "internal_node_id": "0.0-4.0-15.0"}}, {"uniqueid": "w54260747:a26670280", "current_trial": 20, "dateTime": 1664464913948, "trialdata": {"rt": 2314, "stimulus": "<p id='stroop-text' class='stroop-green'>GREEN</p>", "response": "g", "stimulus-type": "congruent", "word": "green", "color": "green", "correct_response": "g", "trial_id": "stroop-trial-1-congruent-12", "trial_type": "html-keyboard-response", "trial_index": 20, "time_elapsed": 980914, "internal_node_id": "0.0-4.0-16.0"}}, {"uniqueid": "w54260747:a26670280", "current_trial": 21, "dateTime": 1664464915084, "trialdata": {"rt": 628, "stimulus": "<p id='stroop-text' class='stroop-green'>GREEN</p>", "response": "g", "stimulus-type": "congruent", "word": "green", "color": "green", "correct_response": "g", "trial_id": "stroop-trial-1-congruent-5", "trial_type": "html-keyboard-response", "trial_index": 21, "time_elapsed": 982049, "internal_node_id": "0.0-4.0-17.0"}}, {"uniqueid": "w54260747:a26670280", "current_trial": 22, "dateTime": 1664464916603, "trialdata": {"rt": 1013, "stimulus": "<p id='stroop-text' class='stroop-yellow'>YELLOW</p>", "response": "y", "stimulus-type": "congruent", "word": "yellow", "color": "yellow", "correct_response": "y", "trial_id": "stroop-trial-1-congruent-20", "trial_type": "html-keyboard-response", "trial_index": 22, "time_elapsed": 983568, "internal_node_id": "0.0-4.0-18.0"}}, {"uniqueid": "w54260747:a26670280", "current_trial": 23, "dateTime": 1664464917683, "trialdata": {"rt": 575, "stimulus": "<p id='stroop-text' class='stroop-yellow'>YELLOW</p>", "response": "y", "stimulus-type": "congruent", "word": "yellow", "color": "yellow", "correct_response": "y", "trial_id": "stroop-trial-1-congruent-29", "trial_type": "html-keyboard-response", "trial_index": 23, "time_elapsed": 984649, "internal_node_id": "0.0-4.0-19.0"}}, {"uniqueid": "w54260747:a26670280", "current_trial": 24, "dateTime": 1664464919729, "trialdata": {"rt": 1542, "stimulus": "<p id='stroop-text' class='stroop-blue'>BLUE</p>", "response": "b", "stimulus-type": "congruent", "word": "blue", "color": "blue", "correct_response": "b", "trial_id": "stroop-trial-1-congruent-4", "trial_type": "html-keyboard-response", "trial_index": 24, "time_elapsed": 986695, "internal_node_id": "0.0-4.0-20.0"}}, {"uniqueid": "w54260747:a26670280", "current_trial": 25, "dateTime": 1664464921851, "trialdata": {"rt": 1617, "stimulus": "<p id='stroop-text' class='stroop-green'>BLUE</p>", "response": "g", "stimulus-type": "incongruent", "word": "blue", "color": "green", "correct_response": "g", "trial_id": "stroop-trial-1-incongruent-18", "trial_type": "html-keyboard-response", "trial_index": 25, "time_elapsed": 988817, "internal_node_id": "0.0-4.0-21.0"}}, {"uniqueid": "w54260747:a26670280", "current_trial": 26, "dateTime": 1664464923009, "trialdata": {"rt": 654, "stimulus": "<p id='stroop-text' class='stroop-green'>BOTTLE</p>", "response": "g", "stimulus-type": "unrelated", "word": "BOTTLE", "color": "green", "correct_response": "g", "trial_id": "stroop-trial-1-unrelated-3", "trial_type": "html-keyboard-response", "trial_index": 26, "time_elapsed": 989975, "internal_node_id": "0.0-4.0-22.0"}}, {"uniqueid": "w54260747:a26670280", "current_trial": 27, "dateTime": 1664464924058, "trialdata": {"rt": 545, "stimulus": "<p id='stroop-text' class='stroop-green'>GREEN</p>", "response": "g", "stimulus-type": "congruent", "word": "green", "color": "green", "correct_response": "g", "trial_id": "stroop-trial-1-congruent-30", "trial_type": "html-keyboard-response", "trial_index": 27, "time_elapsed": 991023, "internal_node_id": "0.0-4.0-23.0"}}, {"uniqueid": "w54260747:a26670280", "current_trial": 28, "dateTime": 1664464925113, "trialdata": {"rt": 552, "stimulus": "<p id='stroop-text' class='stroop-green'>MONKEY</p>", "response": "g", "stimulus-type": "unrelated", "word": "MONKEY", "color": "green", "correct_response": "g", "trial_id": "stroop-trial-1-unrelated-17", "trial_type": "html-keyboard-response", "trial_index": 28, "time_elapsed": 992079, "internal_node_id": "0.0-4.0-24.0"}}, {"uniqueid": "w54260747:a26670280", "current_trial": 29, "dateTime": 1664464926617, "trialdata": {"rt": 1001, "stimulus": "<p id='stroop-text' class='stroop-blue'>RED</p>", "response": "b", "stimulus-type": "incongruent", "word": "red", "color": "blue", "correct_response": "b", "trial_id": "stroop-trial-1-incongruent-30", "trial_type": "html-keyboard-response", "trial_index": 29, "time_elapsed": 993583, "internal_node_id": "0.0-4.0-25.0"}}, {"uniqueid": "w54260747:a26670280", "current_trial": 30, "dateTime": 1664464927994, "trialdata": {"rt": 874, "stimulus": "<p id='stroop-text' class='stroop-yellow'>YELLOW</p>", "response": "y", "stimulus-type": "congruent", "word": "yellow", "color": "yellow", "correct_response": "y", "trial_id": "stroop-trial-1-congruent-3", "trial_type": "html-keyboard-response", "trial_index": 30, "time_elapsed": 994960, "internal_node_id": "0.0-4.0-26.0"}}, {"uniqueid": "w54260747:a26670280", "current_trial": 31, "dateTime": 1664464929515, "trialdata": {"rt": 1017, "stimulus": "<p id='stroop-text' class='stroop-yellow'>RED</p>", "response": "y", "stimulus-type": "incongruent", "word": "red", "color": "yellow", "correct_response": "y", "trial_id": "stroop-trial-1-incongruent-3", "trial_type": "html-keyboard-response", "trial_index": 31, "time_elapsed": 996480, "internal_node_id": "0.0-4.0-27.0"}}, {"uniqueid": "w54260747:a26670280", "current_trial": 32, "dateTime": 1664464930571, "trialdata": {"rt": 551, "stimulus": "<p id='stroop-text' class='stroop-yellow'>BLUE</p>", "response": "y", "stimulus-type": "incongruent", "word": "blue", "color": "yellow", "correct_response": "y", "trial_id": "stroop-trial-1-incongruent-10", "trial_type": "html-keyboard-response", "trial_index": 32, "time_elapsed": 997536, "internal_node_id": "0.0-4.0-28.0"}}, {"uniqueid": "w54260747:a26670280", "current_trial": 33, "dateTime": 1664464932275, "trialdata": {"rt": 1200, "stimulus": "<p id='stroop-text' class='stroop-blue'>BLUE</p>", "response": "b", "stimulus-type": "congruent", "word": "blue", "color": "blue", "correct_response": "b", "trial_id": "stroop-trial-1-congruent-28", "trial_type": "html-keyboard-response", "trial_index": 33, "time_elapsed": 999241, "internal_node_id": "0.0-4.0-29.0"}}, {"uniqueid": "w54260747:a26670280", "current_trial": 34, "dateTime": 1664464934065, "trialdata": {"rt": 1285, "stimulus": "<p id='stroop-text' class='stroop-red'>GREEN</p>", "response": "r", "stimulus-type": "incongruent", "word": "green", "color": "red", "correct_response": "r", "trial_id": "stroop-trial-1-incongruent-28", "trial_type": "html-keyboard-response", "trial_index": 34, "time_elapsed": 1001031, "internal_node_id": "0.0-4.0-30.0"}}, {"uniqueid": "w54260747:a26670280", "current_trial": 35, "dateTime": 1664464935761, "trialdata": {"rt": 1195, "stimulus": "<p id='stroop-text' class='stroop-green'>GREEN</p>", "response": "g", "stimulus-type": "congruent", "word": "green", "color": "green", "correct_response": "g", "trial_id": "stroop-trial-1-congruent-24", "trial_type": "html-keyboard-response", "trial_index": 35, "time_elapsed": 1002727, "internal_node_id": "0.0-4.0-31.0"}}, {"uniqueid": "w54260747:a26670280", "current_trial": 36, "dateTime": 1664464938921, "trialdata": {"rt": 2658, "stimulus": "<p id='stroop-text' class='stroop-yellow'>YELLOW</p>", "response": "y", "stimulus-type": "congruent", "word": "yellow", "color": "yellow", "correct_response": "y", "trial_id": "stroop-trial-1-congruent-8", "trial_type": "html-keyboard-response", "trial_index": 36, "time_elapsed": 1005887, "internal_node_id": "0.0-4.0-32.0"}}, {"uniqueid": "w54260747:a26670280", "current_trial": 37, "dateTime": 1664464940777, "trialdata": {"rt": 1354, "stimulus": "<p id='stroop-text' class='stroop-blue'>YELLOW</p>", "response": "b", "stimulus-type": "incongruent", "word": "yellow", "color": "blue", "correct_response": "b", "trial_id": "stroop-trial-1-incongruent-1", "trial_type": "html-keyboard-response", "trial_index": 37, "time_elapsed": 1007743, "internal_node_id": "0.0-4.0-33.0"}}, {"uniqueid": "w54260747:a26670280", "current_trial": 38, "dateTime": 1664464942428, "trialdata": {"rt": 1148, "stimulus": "<p id='stroop-text' class='stroop-green'>CHAIR</p>", "response": "g", "stimulus-type": "unrelated", "word": "CHAIR", "color": "green", "correct_response": "g", "trial_id": "stroop-trial-1-unrelated-10", "trial_type": "html-keyboard-response", "trial_index": 38, "time_elapsed": 1009393, "internal_node_id": "0.0-4.0-34.0"}}, {"uniqueid": "w54260747:a26670280", "current_trial": 39, "dateTime": 1664464945641, "trialdata": {"rt": 2709, "stimulus": "<p id='stroop-text' class='stroop-red'>GREEN</p>", "response": "r", "stimulus-type": "incongruent", "word": "green", "color": "red", "correct_response": "r", "trial_id": "stroop-trial-1-incongruent-15", "trial_type": "html-keyboard-response", "trial_index": 39, "time_elapsed": 1012607, "internal_node_id": "0.0-4.0-35.0"}}, {"uniqueid": "w54260747:a26670280", "current_trial": 40, "dateTime": 1664464947132, "trialdata": {"rt": 988, "stimulus": "<p id='stroop-text' class='stroop-red'>BOAT</p>", "response": "r", "stimulus-type": "unrelated", "word": "BOAT", "color": "red", "correct_response": "r", "trial_id": "stroop-trial-1-unrelated-15", "trial_type": "html-keyboard-response", "trial_index": 40, "time_elapsed": 1014097, "internal_node_id": "0.0-4.0-36.0"}}, {"uniqueid": "w54260747:a26670280", "current_trial": 41, "dateTime": 1664464949322, "trialdata": {"rt": 1685, "stimulus": "<p id='stroop-text' class='stroop-yellow'>GREEN</p>", "response": "y", "stimulus-type": "incongruent", "word": "green", "color": "yellow", "correct_response": "y", "trial_id": "stroop-trial-1-incongruent-27", "trial_type": "html-keyboard-response", "trial_index": 41, "time_elapsed": 1016287, "internal_node_id": "0.0-4.0-37.0"}}, {"uniqueid": "w54260747:a26670280", "current_trial": 42, "dateTime": 1664464950283, "trialdata": {"rt": 456, "stimulus": "<p id='stroop-text' class='stroop-yellow'>YELLOW</p>", "response": "y", "stimulus-type": "congruent", "word": "yellow", "color": "yellow", "correct_response": "y", "trial_id": "stroop-trial-1-congruent-23", "trial_type": "html-keyboard-response", "trial_index": 42, "time_elapsed": 1017248, "internal_node_id": "0.0-4.0-38.0"}}, {"uniqueid": "w54260747:a26670280", "current_trial": 43, "dateTime": 1664464951939, "trialdata": {"rt": 1150, "stimulus": "<p id='stroop-text' class='stroop-red'>YELLOW</p>", "response": "r", "stimulus-type": "incongruent", "word": "yellow", "color": "red", "correct_response": "r", "trial_id": "stroop-trial-1-incongruent-8", "trial_type": "html-keyboard-response", "trial_index": 43, "time_elapsed": 1018904, "internal_node_id": "0.0-4.0-39.0"}}, {"uniqueid": "w54260747:a26670280", "current_trial": 44, "dateTime": 1664464952908, "trialdata": {"rt": 463, "stimulus": "<p id='stroop-text' class='stroop-red'>RED</p>", "response": "r", "stimulus-type": "congruent", "word": "red", "color": "red", "correct_response": "r", "trial_id": "stroop-trial-1-congruent-26", "trial_type": "html-keyboard-response", "trial_index": 44, "time_elapsed": 1019873, "internal_node_id": "0.0-4.0-40.0"}}, {"uniqueid": "w54260747:a26670280", "current_trial": 45, "dateTime": 1664464954221, "trialdata": {"rt": 808, "stimulus": "<p id='stroop-text' class='stroop-blue'>BLUE</p>", "response": "b", "stimulus-type": "congruent", "word": "blue", "color": "blue", "correct_response": "b", "trial_id": "stroop-trial-1-congruent-16", "trial_type": "html-keyboard-response", "trial_index": 45, "time_elapsed": 1021187, "internal_node_id": "0.0-4.0-41.0"}}, {"uniqueid": "w54260747:a26670280", "current_trial": 46, "dateTime": 1664464955123, "trialdata": {"rt": 394, "stimulus": "<p id='stroop-text' class='stroop-blue'>BLUE</p>", "response": "b", "stimulus-type": "congruent", "word": "blue", "color": "blue", "correct_response": "b", "trial_id": "stroop-trial-1-congruent-13", "trial_type": "html-keyboard-response", "trial_index": 46, "time_elapsed": 1022088, "internal_node_id": "0.0-4.0-42.0"}}, {"uniqueid": "w54260747:a26670280", "current_trial": 47, "dateTime": 1664464956116, "trialdata": {"rt": 492, "stimulus": "<p id='stroop-text' class='stroop-blue'>RED</p>", "response": "b", "stimulus-type": "incongruent", "word": "red", "color": "blue", "correct_response": "b", "trial_id": "stroop-trial-1-incongruent-22", "trial_type": "html-keyboard-response", "trial_index": 47, "time_elapsed": 1023082, "internal_node_id": "0.0-4.0-43.0"}}, {"uniqueid": "w54260747:a26670280", "current_trial": 48, "dateTime": 1664464957618, "trialdata": {"rt": 1000, "stimulus": "<p id='stroop-text' class='stroop-red'>RED</p>", "response": "r", "stimulus-type": "congruent", "word": "red", "color": "red", "correct_response": "r", "trial_id": "stroop-trial-1-congruent-2", "trial_type": "html-keyboard-response", "trial_index": 48, "time_elapsed": 1024584, "internal_node_id": "0.0-4.0-44.0"}}, {"uniqueid": "w54260747:a26670280", "current_trial": 49, "dateTime": 1664464959036, "trialdata": {"rt": 916, "stimulus": "<p id='stroop-text' class='stroop-green'>BOAT</p>", "response": "g", "stimulus-type": "unrelated", "word": "BOAT", "color": "green", "correct_response": "g", "trial_id": "stroop-trial-1-unrelated-16", "trial_type": "html-keyboard-response", "trial_index": 49, "time_elapsed": 1026001, "internal_node_id": "0.0-4.0-45.0"}}, {"uniqueid": "w54260747:a26670280", "current_trial": 50, "dateTime": 1664464960474, "trialdata": {"rt": 933, "stimulus": "<p id='stroop-text' class='stroop-blue'>WINDOW</p>", "response": "b", "stimulus-type": "unrelated", "word": "WINDOW", "color": "blue", "correct_response": "b", "trial_id": "stroop-trial-1-unrelated-20", "trial_type": "html-keyboard-response", "trial_index": 50, "time_elapsed": 1027440, "internal_node_id": "0.0-4.0-46.0"}}, {"uniqueid": "w54260747:a26670280", "current_trial": 51, "dateTime": 1664464961780, "trialdata": {"rt": 802, "stimulus": "<p id='stroop-text' class='stroop-yellow'>YELLOW</p>", "response": "y", "stimulus-type": "congruent", "word": "yellow", "color": "yellow", "correct_response": "y", "trial_id": "stroop-trial-1-congruent-9", "trial_type": "html-keyboard-response", "trial_index": 51, "time_elapsed": 1028745, "internal_node_id": "0.0-4.0-47.0"}}, {"uniqueid": "w54260747:a26670280", "current_trial": 52, "dateTime": 1664464963170, "trialdata": {"rt": 885, "stimulus": "<p id='stroop-text' class='stroop-blue'>BOAT</p>", "response": "b", "stimulus-type": "unrelated", "word": "BOAT", "color": "blue", "correct_response": "b", "trial_id": "stroop-trial-1-unrelated-13", "trial_type": "html-keyboard-response", "trial_index": 52, "time_elapsed": 1030136, "internal_node_id": "0.0-4.0-48.0"}}, {"uniqueid": "w54260747:a26670280", "current_trial": 53, "dateTime": 1664464964164, "trialdata": {"rt": 490, "stimulus": "<p id='stroop-text' class='stroop-blue'>BLUE</p>", "response": "b", "stimulus-type": "congruent", "word": "blue", "color": "blue", "correct_response": "b", "trial_id": "stroop-trial-1-congruent-22", "trial_type": "html-keyboard-response", "trial_index": 53, "time_elapsed": 1031129, "internal_node_id": "0.0-4.0-49.0"}}, {"uniqueid": "w54260747:a26670280", "current_trial": 54, "dateTime": 1664464965034, "trialdata": {"rt": 366, "stimulus": "<p id='stroop-text' class='stroop-blue'>BLUE</p>", "response": "b", "stimulus-type": "congruent", "word": "blue", "color": "blue", "correct_response": "b", "trial_id": "stroop-trial-1-congruent-6", "trial_type": "html-keyboard-response", "trial_index": 54, "time_elapsed": 1032000, "internal_node_id": "0.0-4.0-50.0"}}, {"uniqueid": "w54260747:a26670280", "current_trial": 55, "dateTime": 1664464966507, "trialdata": {"rt": 971, "stimulus": "<p id='stroop-text' class='stroop-red'>BLUE</p>", "response": "r", "stimulus-type": "incongruent", "word": "blue", "color": "red", "correct_response": "r", "trial_id": "stroop-trial-1-incongruent-21", "trial_type": "html-keyboard-response", "trial_index": 55, "time_elapsed": 1033473, "internal_node_id": "0.0-4.0-51.0"}}, {"uniqueid": "w54260747:a26670280", "current_trial": 56, "dateTime": 1664464967811, "trialdata": {"rt": 798, "stimulus": "<p id='stroop-text' class='stroop-yellow'>YELLOW</p>", "response": "y", "stimulus-type": "congruent", "word": "yellow", "color": "yellow", "correct_response": "y", "trial_id": "stroop-trial-1-congruent-15", "trial_type": "html-keyboard-response", "trial_index": 56, "time_elapsed": 1034777, "internal_node_id": "0.0-4.0-52.0"}}, {"uniqueid": "w54260747:a26670280", "current_trial": 57, "dateTime": 1664464969141, "trialdata": {"rt": 824, "stimulus": "<p id='stroop-text' class='stroop-blue'>FORK</p>", "response": "b", "stimulus-type": "unrelated", "word": "FORK", "color": "blue", "correct_response": "b", "trial_id": "stroop-trial-1-unrelated-11", "trial_type": "html-keyboard-response", "trial_index": 57, "time_elapsed": 1036106, "internal_node_id": "0.0-4.0-53.0"}}, {"uniqueid": "w54260747:a26670280", "current_trial": 58, "dateTime": 1664464970451, "trialdata": {"rt": 804, "stimulus": "<p id='stroop-text' class='stroop-yellow'>CHAIR</p>", "response": "y", "stimulus-type": "unrelated", "word": "CHAIR", "color": "yellow", "correct_response": "y", "trial_id": "stroop-trial-1-unrelated-24", "trial_type": "html-keyboard-response", "trial_index": 58, "time_elapsed": 1037417, "internal_node_id": "0.0-4.0-54.0"}}, {"uniqueid": "w54260747:a26670280", "current_trial": 59, "dateTime": 1664464972794, "trialdata": {"rt": 1838, "stimulus": "<p id='stroop-text' class='stroop-red'>RED</p>", "response": "r", "stimulus-type": "congruent", "word": "red", "color": "red", "correct_response": "r", "trial_id": "stroop-trial-1-congruent-25", "trial_type": "html-keyboard-response", "trial_index": 59, "time_elapsed": 1039760, "internal_node_id": "0.0-4.0-55.0"}}, {"uniqueid": "w54260747:a26670280", "current_trial": 60, "dateTime": 1664464973783, "trialdata": {"rt": 485, "stimulus": "<p id='stroop-text' class='stroop-red'>RED</p>", "response": "r", "stimulus-type": "congruent", "word": "red", "color": "red", "correct_response": "r", "trial_id": "stroop-trial-1-congruent-19", "trial_type": "html-keyboard-response", "trial_index": 60, "time_elapsed": 1040749, "internal_node_id": "0.0-4.0-56.0"}}, {"uniqueid": "w54260747:a26670280", "current_trial": 61, "dateTime": 1664464975324, "trialdata": {"rt": 1032, "stimulus": "<p id='stroop-text' class='stroop-yellow'>BOAT</p>", "response": "y", "stimulus-type": "unrelated", "word": "BOAT", "color": "yellow", "correct_response": "y", "trial_id": "stroop-trial-1-unrelated-23", "trial_type": "html-keyboard-response", "trial_index": 61, "time_elapsed": 1042289, "internal_node_id": "0.0-4.0-57.0"}}, {"uniqueid": "w54260747:a26670280", "current_trial": 62, "dateTime": 1664464976860, "trialdata": {"rt": 1030, "stimulus": "<p id='stroop-text' class='stroop-green'>DOG</p>", "response": "g", "stimulus-type": "unrelated", "word": "DOG", "color": "green", "correct_response": "g", "trial_id": "stroop-trial-1-unrelated-14", "trial_type": "html-keyboard-response", "trial_index": 62, "time_elapsed": 1043825, "internal_node_id": "0.0-4.0-58.0"}}, {"uniqueid": "w54260747:a26670280", "current_trial": 63, "dateTime": 1664464978682, "trialdata": {"rt": 1317, "stimulus": "<p id='stroop-text' class='stroop-red'>RED</p>", "response": "r", "stimulus-type": "congruent", "word": "red", "color": "red", "correct_response": "r", "trial_id": "stroop-trial-1-congruent-7", "trial_type": "html-keyboard-response", "trial_index": 63, "time_elapsed": 1045648, "internal_node_id": "0.0-4.0-59.0"}}, {"uniqueid": "w54260747:a26670280", "current_trial": 64, "dateTime": 1664464980044, "trialdata": {"rt": 859, "stimulus": "<p id='stroop-text' class='stroop-yellow'>BLUE</p>", "response": "y", "stimulus-type": "incongruent", "word": "blue", "color": "yellow", "correct_response": "y", "trial_id": "stroop-trial-1-incongruent-25", "trial_type": "html-keyboard-response", "trial_index": 64, "time_elapsed": 1047009, "internal_node_id": "0.0-4.0-60.0"}}, {"uniqueid": "w54260747:a26670280", "current_trial": 65, "dateTime": 1664464981260, "trialdata": {"rt": 708, "stimulus": "<p id='stroop-text' class='stroop-red'>BOAT</p>", "response": "r", "stimulus-type": "unrelated", "word": "BOAT", "color": "red", "correct_response": "r", "trial_id": "stroop-trial-1-unrelated-28", "trial_type": "html-keyboard-response", "trial_index": 65, "time_elapsed": 1048225, "internal_node_id": "0.0-4.0-61.0"}}, {"uniqueid": "w54260747:a26670280", "current_trial": 66, "dateTime": 1664464982506, "trialdata": {"rt": 742, "stimulus": "<p id='stroop-text' class='stroop-red'>WINDOW</p>", "response": "r", "stimulus-type": "unrelated", "word": "WINDOW", "color": "red", "correct_response": "r", "trial_id": "stroop-trial-1-unrelated-9", "trial_type": "html-keyboard-response", "trial_index": 66, "time_elapsed": 1049472, "internal_node_id": "0.0-4.0-62.0"}}, {"uniqueid": "w54260747:a26670280", "current_trial": 67, "dateTime": 1664464983844, "trialdata": {"rt": 835, "stimulus": "<p id='stroop-text' class='stroop-blue'>FORK</p>", "response": "b", "stimulus-type": "unrelated", "word": "FORK", "color": "blue", "correct_response": "b", "trial_id": "stroop-trial-1-unrelated-4", "trial_type": "html-keyboard-response", "trial_index": 67, "time_elapsed": 1050809, "internal_node_id": "0.0-4.0-63.0"}}, {"uniqueid": "w54260747:a26670280", "current_trial": 68, "dateTime": 1664464985178, "trialdata": {"rt": 828, "stimulus": "<p id='stroop-text' class='stroop-yellow'>RED</p>", "response": "y", "stimulus-type": "incongruent", "word": "red", "color": "yellow", "correct_response": "y", "trial_id": "stroop-trial-1-incongruent-29", "trial_type": "html-keyboard-response", "trial_index": 68, "time_elapsed": 1052144, "internal_node_id": "0.0-4.0-64.0"}}, {"uniqueid": "w54260747:a26670280", "current_trial": 69, "dateTime": 1664464986395, "trialdata": {"rt": 715, "stimulus": "<p id='stroop-text' class='stroop-yellow'>GREEN</p>", "response": "y", "stimulus-type": "incongruent", "word": "green", "color": "yellow", "correct_response": "y", "trial_id": "stroop-trial-1-incongruent-2", "trial_type": "html-keyboard-response", "trial_index": 69, "time_elapsed": 1053360, "internal_node_id": "0.0-4.0-65.0"}}, {"uniqueid": "w54260747:a26670280", "current_trial": 70, "dateTime": 1664464987954, "trialdata": {"rt": 1058, "stimulus": "<p id='stroop-text' class='stroop-red'>BOTTLE</p>", "response": "r", "stimulus-type": "unrelated", "word": "BOTTLE", "color": "red", "correct_response": "r", "trial_id": "stroop-trial-1-unrelated-19", "trial_type": "html-keyboard-response", "trial_index": 70, "time_elapsed": 1054920, "internal_node_id": "0.0-4.0-66.0"}}, {"uniqueid": "w54260747:a26670280", "current_trial": 71, "dateTime": 1664464989058, "trialdata": {"rt": 602, "stimulus": "<p id='stroop-text' class='stroop-red'>GREEN</p>", "response": "r", "stimulus-type": "incongruent", "word": "green", "color": "red", "correct_response": "r", "trial_id": "stroop-trial-1-incongruent-12", "trial_type": "html-keyboard-response", "trial_index": 71, "time_elapsed": 1056024, "internal_node_id": "0.0-4.0-67.0"}}, {"uniqueid": "w54260747:a26670280", "current_trial": 72, "dateTime": 1664464990042, "trialdata": {"rt": 481, "stimulus": "<p id='stroop-text' class='stroop-red'>BOAT</p>", "response": "r", "stimulus-type": "unrelated", "word": "BOAT", "color": "red", "correct_response": "r", "trial_id": "stroop-trial-1-unrelated-1", "trial_type": "html-keyboard-response", "trial_index": 72, "time_elapsed": 1057008, "internal_node_id": "0.0-4.0-68.0"}}, {"uniqueid": "w54260747:a26670280", "current_trial": 73, "dateTime": 1664464991315, "trialdata": {"rt": 769, "stimulus": "<p id='stroop-text' class='stroop-blue'>CHAIR</p>", "response": "b", "stimulus-type": "unrelated", "word": "CHAIR", "color": "blue", "correct_response": "b", "trial_id": "stroop-trial-1-unrelated-5", "trial_type": "html-keyboard-response", "trial_index": 73, "time_elapsed": 1058281, "internal_node_id": "0.0-4.0-69.0"}}, {"uniqueid": "w54260747:a26670280", "current_trial": 74, "dateTime": 1664464992251, "trialdata": {"rt": 432, "stimulus": "<p id='stroop-text' class='stroop-blue'>BRAIN</p>", "response": "b", "stimulus-type": "unrelated", "word": "BRAIN", "color": "blue", "correct_response": "b", "trial_id": "stroop-trial-1-unrelated-22", "trial_type": "html-keyboard-response", "trial_index": 74, "time_elapsed": 1059217, "internal_node_id": "0.0-4.0-70.0"}}, {"uniqueid": "w54260747:a26670280", "current_trial": 75, "dateTime": 1664464993108, "trialdata": {"rt": 354, "stimulus": "<p id='stroop-text' class='stroop-blue'>BRAIN</p>", "response": "b", "stimulus-type": "unrelated", "word": "BRAIN", "color": "blue", "correct_response": "b", "trial_id": "stroop-trial-1-unrelated-29", "trial_type": "html-keyboard-response", "trial_index": 75, "time_elapsed": 1060073, "internal_node_id": "0.0-4.0-71.0"}}, {"uniqueid": "w54260747:a26670280", "current_trial": 76, "dateTime": 1664464994460, "trialdata": {"rt": 847, "stimulus": "<p id='stroop-text' class='stroop-yellow'>BLUE</p>", "response": "y", "stimulus-type": "incongruent", "word": "blue", "color": "yellow", "correct_response": "y", "trial_id": "stroop-trial-1-incongruent-16", "trial_type": "html-keyboard-response", "trial_index": 76, "time_elapsed": 1061426, "internal_node_id": "0.0-4.0-72.0"}}, {"uniqueid": "w54260747:a26670280", "current_trial": 77, "dateTime": 1664464996090, "trialdata": {"rt": 1124, "stimulus": "<p id='stroop-text' class='stroop-green'>STONE</p>", "response": "g", "stimulus-type": "unrelated", "word": "STONE", "color": "green", "correct_response": "g", "trial_id": "stroop-trial-1-unrelated-30", "trial_type": "html-keyboard-response", "trial_index": 77, "time_elapsed": 1063056, "internal_node_id": "0.0-4.0-73.0"}}, {"uniqueid": "w54260747:a26670280", "current_trial": 78, "dateTime": 1664464997418, "trialdata": {"rt": 820, "stimulus": "<p id='stroop-text' class='stroop-yellow'>GREEN</p>", "response": "y", "stimulus-type": "incongruent", "word": "green", "color": "yellow", "correct_response": "y", "trial_id": "stroop-trial-1-incongruent-7", "trial_type": "html-keyboard-response", "trial_index": 78, "time_elapsed": 1064384, "internal_node_id": "0.0-4.0-74.0"}}, {"uniqueid": "w54260747:a26670280", "current_trial": 79, "dateTime": 1664464999252, "trialdata": {"rt": 1332, "stimulus": "<p id='stroop-text' class='stroop-red'>RED</p>", "response": "r", "stimulus-type": "congruent", "word": "red", "color": "red", "correct_response": "r", "trial_id": "stroop-trial-1-congruent-1", "trial_type": "html-keyboard-response", "trial_index": 79, "time_elapsed": 1066217, "internal_node_id": "0.0-4.0-75.0"}}, {"uniqueid": "w54260747:a26670280", "current_trial": 80, "dateTime": 1664465000599, "trialdata": {"rt": 842, "stimulus": "<p id='stroop-text' class='stroop-yellow'>BOTTLE</p>", "response": "y", "stimulus-type": "unrelated", "word": "BOTTLE", "color": "yellow", "correct_response": "y", "trial_id": "stroop-trial-1-unrelated-27", "trial_type": "html-keyboard-response", "trial_index": 80, "time_elapsed": 1067565, "internal_node_id": "0.0-4.0-76.0"}}, {"uniqueid": "w54260747:a26670280", "current_trial": 81, "dateTime": 1664465001698, "trialdata": {"rt": 595, "stimulus": "<p id='stroop-text' class='stroop-yellow'>BLUE</p>", "response": "y", "stimulus-type": "incongruent", "word": "blue", "color": "yellow", "correct_response": "y", "trial_id": "stroop-trial-1-incongruent-20", "trial_type": "html-keyboard-response", "trial_index": 81, "time_elapsed": 1068664, "internal_node_id": "0.0-4.0-77.0"}}, {"uniqueid": "w54260747:a26670280", "current_trial": 82, "dateTime": 1664465003106, "trialdata": {"rt": 906, "stimulus": "<p id='stroop-text' class='stroop-red'>SHIP</p>", "response": "r", "stimulus-type": "unrelated", "word": "SHIP", "color": "red", "correct_response": "r", "trial_id": "stroop-trial-1-unrelated-7", "trial_type": "html-keyboard-response", "trial_index": 82, "time_elapsed": 1070072, "internal_node_id": "0.0-4.0-78.0"}}, {"uniqueid": "w54260747:a26670280", "current_trial": 83, "dateTime": 1664465004550, "trialdata": {"rt": 942, "stimulus": "<p id='stroop-text' class='stroop-yellow'>YELLOW</p>", "response": "y", "stimulus-type": "congruent", "word": "yellow", "color": "yellow", "correct_response": "y", "trial_id": "stroop-trial-1-congruent-17", "trial_type": "html-keyboard-response", "trial_index": 83, "time_elapsed": 1071516, "internal_node_id": "0.0-4.0-79.0"}}, {"uniqueid": "w54260747:a26670280", "current_trial": 84, "dateTime": 1664465005650, "trialdata": {"rt": 597, "stimulus": "<p id='stroop-text' class='stroop-red'>BLUE</p>", "response": "r", "stimulus-type": "incongruent", "word": "blue", "color": "red", "correct_response": "r", "trial_id": "stroop-trial-1-incongruent-9", "trial_type": "html-keyboard-response", "trial_index": 84, "time_elapsed": 1072616, "internal_node_id": "0.0-4.0-80.0"}}, {"uniqueid": "w54260747:a26670280", "current_trial": 85, "dateTime": 1664465007252, "trialdata": {"rt": 1098, "stimulus": "<p id='stroop-text' class='stroop-green'>BLUE</p>", "response": "g", "stimulus-type": "incongruent", "word": "blue", "color": "green", "correct_response": "g", "trial_id": "stroop-trial-1-incongruent-24", "trial_type": "html-keyboard-response", "trial_index": 85, "time_elapsed": 1074217, "internal_node_id": "0.0-4.0-81.0"}}, {"uniqueid": "w54260747:a26670280", "current_trial": 86, "dateTime": 1664465008719, "trialdata": {"rt": 962, "stimulus": "<p id='stroop-text' class='stroop-yellow'>CHAIR</p>", "response": "y", "stimulus-type": "unrelated", "word": "CHAIR", "color": "yellow", "correct_response": "y", "trial_id": "stroop-trial-1-unrelated-26", "trial_type": "html-keyboard-response", "trial_index": 86, "time_elapsed": 1075685, "internal_node_id": "0.0-4.0-82.0"}}, {"uniqueid": "w54260747:a26670280", "current_trial": 87, "dateTime": 1664465010348, "trialdata": {"rt": 1121, "stimulus": "<p id='stroop-text' class='stroop-blue'>YELLOW</p>", "response": "b", "stimulus-type": "incongruent", "word": "yellow", "color": "blue", "correct_response": "b", "trial_id": "stroop-trial-1-incongruent-17", "trial_type": "html-keyboard-response", "trial_index": 87, "time_elapsed": 1077314, "internal_node_id": "0.0-4.0-83.0"}}, {"uniqueid": "w54260747:a26670280", "current_trial": 88, "dateTime": 1664465011844, "trialdata": {"rt": 989, "stimulus": "<p id='stroop-text' class='stroop-yellow'>RED</p>", "response": "y", "stimulus-type": "incongruent", "word": "red", "color": "yellow", "correct_response": "y", "trial_id": "stroop-trial-1-incongruent-11", "trial_type": "html-keyboard-response", "trial_index": 88, "time_elapsed": 1078809, "internal_node_id": "0.0-4.0-84.0"}}, {"uniqueid": "w54260747:a26670280", "current_trial": 89, "dateTime": 1664465013257, "trialdata": {"rt": 908, "stimulus": "<p id='stroop-text' class='stroop-green'>YELLOW</p>", "response": "g", "stimulus-type": "incongruent", "word": "yellow", "color": "green", "correct_response": "g", "trial_id": "stroop-trial-1-incongruent-4", "trial_type": "html-keyboard-response", "trial_index": 89, "time_elapsed": 1080223, "internal_node_id": "0.0-4.0-85.0"}}, {"uniqueid": "w54260747:a26670280", "current_trial": 90, "dateTime": 1664465014353, "trialdata": {"rt": 592, "stimulus": "<p id='stroop-text' class='stroop-red'>RED</p>", "response": "r", "stimulus-type": "congruent", "word": "red", "color": "red", "correct_response": "r", "trial_id": "stroop-trial-1-congruent-27", "trial_type": "html-keyboard-response", "trial_index": 90, "time_elapsed": 1081319, "internal_node_id": "0.0-4.0-86.0"}}, {"uniqueid": "w54260747:a26670280", "current_trial": 91, "dateTime": 1664465016483, "trialdata": {"rt": 1627, "stimulus": "<p id='stroop-text' class='stroop-green'>RED</p>", "response": "g", "stimulus-type": "incongruent", "word": "red", "color": "green", "correct_response": "g", "trial_id": "stroop-trial-1-incongruent-19", "trial_type": "html-keyboard-response", "trial_index": 91, "time_elapsed": 1083449, "internal_node_id": "0.0-4.0-87.0"}}, {"uniqueid": "w54260747:a26670280", "current_trial": 92, "dateTime": 1664465018137, "trialdata": {"rt": 1147, "stimulus": "<p id='stroop-text' class='stroop-blue'>GREEN</p>", "response": "b", "stimulus-type": "incongruent", "word": "green", "color": "blue", "correct_response": "b", "trial_id": "stroop-trial-1-incongruent-13", "trial_type": "html-keyboard-response", "trial_index": 92, "time_elapsed": 1085103, "internal_node_id": "0.0-4.0-88.0"}}, {"uniqueid": "w54260747:a26670280", "current_trial": 93, "dateTime": 1664465019691, "trialdata": {"rt": 1051, "stimulus": "<p id='stroop-text' class='stroop-blue'>YELLOW</p>", "response": "b", "stimulus-type": "incongruent", "word": "yellow", "color": "blue", "correct_response": "b", "trial_id": "stroop-trial-1-incongruent-26", "trial_type": "html-keyboard-response", "trial_index": 93, "time_elapsed": 1086656, "internal_node_id": "0.0-4.0-89.0"}}, {"uniqueid": "w54260747:a26670280", "current_trial": 94, "dateTime": 1664465121691, "trialdata": {"rt": 101494, "stimulus": "  <h1> End of block! </h1>\n\n  You have reached the end of the block 1/5. If you need a short break, feel free to take one now before moving on.\n\n  <br><br>\n  In the next block, you will complete another 90 rounds of this game.\n\n  <br><br>\n  <div style='text-align: center;'>Press <code>space</code> to begin.</div>\n  <br><br>\n<div style='text-align: center;'>(If the experiment doesn't continue, try clicking on the text and then pressing <code>space</code>.)</div>", "response": " ", "trial_id": "stroop_1_ready_2", "trial_type": "html-keyboard-response", "trial_index": 94, "time_elapsed": 1188657, "internal_node_id": "0.0-5.0"}}, {"uniqueid": "w54260747:a26670280", "current_trial": 95, "dateTime": 1664465122798, "trialdata": {"rt": 1102, "stimulus": "<p id='stroop-text' class='stroop-yellow'>YELLOW</p>", "response": "y", "stimulus-type": "congruent", "word": "yellow", "color": "yellow", "correct_response": "y", "trial_id": "stroop-trial-1-congruent-9", "trial_type": "html-keyboard-response", "trial_index": 95, "time_elapsed": 1189764, "internal_node_id": "0.0-6.0-0.0"}}, {"uniqueid": "w54260747:a26670280", "current_trial": 96, "dateTime": 1664465124133, "trialdata": {"rt": 832, "stimulus": "<p id='stroop-text' class='stroop-green'>BOTTLE</p>", "response": "g", "stimulus-type": "unrelated", "word": "BOTTLE", "color": "green", "correct_response": "g", "trial_id": "stroop-trial-1-unrelated-7", "trial_type": "html-keyboard-response", "trial_index": 96, "time_elapsed": 1191099, "internal_node_id": "0.0-6.0-1.0"}}, {"uniqueid": "w54260747:a26670280", "current_trial": 97, "dateTime": 1664465125227, "trialdata": {"rt": 591, "stimulus": "<p id='stroop-text' class='stroop-yellow'>FORK</p>", "response": "y", "stimulus-type": "unrelated", "word": "FORK", "color": "yellow", "correct_response": "y", "trial_id": "stroop-trial-1-unrelated-29", "trial_type": "html-keyboard-response", "trial_index": 97, "time_elapsed": 1192192, "internal_node_id": "0.0-6.0-2.0"}}, {"uniqueid": "w54260747:a26670280", "current_trial": 98, "dateTime": 1664465126299, "trialdata": {"rt": 567, "stimulus": "<p id='stroop-text' class='stroop-yellow'>STONE</p>", "response": "y", "stimulus-type": "unrelated", "word": "STONE", "color": "yellow", "correct_response": "y", "trial_id": "stroop-trial-1-unrelated-21", "trial_type": "html-keyboard-response", "trial_index": 98, "time_elapsed": 1193265, "internal_node_id": "0.0-6.0-3.0"}}, {"uniqueid": "w54260747:a26670280", "current_trial": 99, "dateTime": 1664465127243, "trialdata": {"rt": 436, "stimulus": "<p id='stroop-text' class='stroop-yellow'>YELLOW</p>", "response": "y", "stimulus-type": "congruent", "word": "yellow", "color": "yellow", "correct_response": "y", "trial_id": "stroop-trial-1-congruent-13", "trial_type": "html-keyboard-response", "trial_index": 99, "time_elapsed": 1194208, "internal_node_id": "0.0-6.0-4.0"}}, {"uniqueid": "w54260747:a26670280", "current_trial": 100, "dateTime": 1664465128873, "trialdata": {"rt": 1124, "stimulus": "<p id='stroop-text' class='stroop-blue'>BOAT</p>", "response": "b", "stimulus-type": "unrelated", "word": "BOAT", "color": "blue", "correct_response": "b", "trial_id": "stroop-trial-1-unrelated-13", "trial_type": "html-keyboard-response", "trial_index": 100, "time_elapsed": 1195839, "internal_node_id": "0.0-6.0-5.0"}}, {"uniqueid": "w54260747:a26670280", "current_trial": 101, "dateTime": 1664465130217, "trialdata": {"rt": 842, "stimulus": "<p id='stroop-text' class='stroop-blue'>GREEN</p>", "response": "b", "stimulus-type": "incongruent", "word": "green", "color": "blue", "correct_response": "b", "trial_id": "stroop-trial-1-incongruent-26", "trial_type": "html-keyboard-response", "trial_index": 101, "time_elapsed": 1197183, "internal_node_id": "0.0-6.0-6.0"}}, {"uniqueid": "w54260747:a26670280", "current_trial": 102, "dateTime": 1664465131515, "trialdata": {"rt": 795, "stimulus": "<p id='stroop-text' class='stroop-green'>GREEN</p>", "response": "g", "stimulus-type": "congruent", "word": "green", "color": "green", "correct_response": "g", "trial_id": "stroop-trial-1-congruent-26", "trial_type": "html-keyboard-response", "trial_index": 102, "time_elapsed": 1198480, "internal_node_id": "0.0-6.0-7.0"}}, {"uniqueid": "w54260747:a26670280", "current_trial": 103, "dateTime": 1664465132468, "trialdata": {"rt": 445, "stimulus": "<p id='stroop-text' class='stroop-green'>GREEN</p>", "response": "g", "stimulus-type": "congruent", "word": "green", "color": "green", "correct_response": "g", "trial_id": "stroop-trial-1-congruent-21", "trial_type": "html-keyboard-response", "trial_index": 103, "time_elapsed": 1199433, "internal_node_id": "0.0-6.0-8.0"}}, {"uniqueid": "w54260747:a26670280", "current_trial": 104, "dateTime": 1664465133393, "trialdata": {"rt": 420, "stimulus": "<p id='stroop-text' class='stroop-green'>GREEN</p>", "response": "g", "stimulus-type": "congruent", "word": "green", "color": "green", "correct_response": "g", "trial_id": "stroop-trial-1-congruent-12", "trial_type": "html-keyboard-response", "trial_index": 104, "time_elapsed": 1200359, "internal_node_id": "0.0-6.0-9.0"}}, {"uniqueid": "w54260747:a26670280", "current_trial": 105, "dateTime": 1664465134940, "trialdata": {"rt": 1044, "stimulus": "<p id='stroop-text' class='stroop-blue'>BLUE</p>", "response": "b", "stimulus-type": "congruent", "word": "blue", "color": "blue", "correct_response": "b", "trial_id": "stroop-trial-1-congruent-29", "trial_type": "html-keyboard-response", "trial_index": 105, "time_elapsed": 1201906, "internal_node_id": "0.0-6.0-10.0"}}, {"uniqueid": "w54260747:a26670280", "current_trial": 106, "dateTime": 1664465136782, "trialdata": {"rt": 1335, "stimulus": "<p id='stroop-text' class='stroop-green'>YELLOW</p>", "response": "g", "stimulus-type": "incongruent", "word": "yellow", "color": "green", "correct_response": "g", "trial_id": "stroop-trial-1-incongruent-14", "trial_type": "html-keyboard-response", "trial_index": 106, "time_elapsed": 1203748, "internal_node_id": "0.0-6.0-11.0"}}, {"uniqueid": "w54260747:a26670280", "current_trial": 107, "dateTime": 1664465138332, "trialdata": {"rt": 1047, "stimulus": "<p id='stroop-text' class='stroop-red'>RED</p>", "response": "r", "stimulus-type": "congruent", "word": "red", "color": "red", "correct_response": "r", "trial_id": "stroop-trial-1-congruent-27", "trial_type": "html-keyboard-response", "trial_index": 107, "time_elapsed": 1205298, "internal_node_id": "0.0-6.0-12.0"}}, {"uniqueid": "w54260747:a26670280", "current_trial": 108, "dateTime": 1664465139713, "trialdata": {"rt": 873, "stimulus": "<p id='stroop-text' class='stroop-blue'>BLUE</p>", "response": "b", "stimulus-type": "congruent", "word": "blue", "color": "blue", "correct_response": "b", "trial_id": "stroop-trial-1-congruent-30", "trial_type": "html-keyboard-response", "trial_index": 108, "time_elapsed": 1206679, "internal_node_id": "0.0-6.0-13.0"}}, {"uniqueid": "w54260747:a26670280", "current_trial": 109, "dateTime": 1664465140994, "trialdata": {"rt": 777, "stimulus": "<p id='stroop-text' class='stroop-yellow'>YELLOW</p>", "response": "y", "stimulus-type": "congruent", "word": "yellow", "color": "yellow", "correct_response": "y", "trial_id": "stroop-trial-1-congruent-23", "trial_type": "html-keyboard-response", "trial_index": 109, "time_elapsed": 1207960, "internal_node_id": "0.0-6.0-14.0"}}, {"uniqueid": "w54260747:a26670280", "current_trial": 110, "dateTime": 1664465142033, "trialdata": {"rt": 538, "stimulus": "<p id='stroop-text' class='stroop-yellow'>YELLOW</p>", "response": "y", "stimulus-type": "congruent", "word": "yellow", "color": "yellow", "correct_response": "y", "trial_id": "stroop-trial-1-congruent-16", "trial_type": "html-keyboard-response", "trial_index": 110, "time_elapsed": 1208999, "internal_node_id": "0.0-6.0-15.0"}}, {"uniqueid": "w54260747:a26670280", "current_trial": 111, "dateTime": 1664465142955, "trialdata": {"rt": 418, "stimulus": "<p id='stroop-text' class='stroop-yellow'>CHAIR</p>", "response": "y", "stimulus-type": "unrelated", "word": "CHAIR", "color": "yellow", "correct_response": "y", "trial_id": "stroop-trial-1-unrelated-24", "trial_type": "html-keyboard-response", "trial_index": 111, "time_elapsed": 1209921, "internal_node_id": "0.0-6.0-16.0"}}, {"uniqueid": "w54260747:a26670280", "current_trial": 112, "dateTime": 1664465143833, "trialdata": {"rt": 372, "stimulus": "<p id='stroop-text' class='stroop-yellow'>BLUE</p>", "response": "y", "stimulus-type": "incongruent", "word": "blue", "color": "yellow", "correct_response": "y", "trial_id": "stroop-trial-1-incongruent-7", "trial_type": "html-keyboard-response", "trial_index": 112, "time_elapsed": 1210799, "internal_node_id": "0.0-6.0-17.0"}}, {"uniqueid": "w54260747:a26670280", "current_trial": 113, "dateTime": 1664465145345, "trialdata": {"rt": 1008, "stimulus": "<p id='stroop-text' class='stroop-blue'>GREEN</p>", "response": "b", "stimulus-type": "incongruent", "word": "green", "color": "blue", "correct_response": "b", "trial_id": "stroop-trial-1-incongruent-10", "trial_type": "html-keyboard-response", "trial_index": 113, "time_elapsed": 1212311, "internal_node_id": "0.0-6.0-18.0"}}, {"uniqueid": "w54260747:a26670280", "current_trial": 114, "dateTime": 1664465146739, "trialdata": {"rt": 890, "stimulus": "<p id='stroop-text' class='stroop-yellow'>FORK</p>", "response": "y", "stimulus-type": "unrelated", "word": "FORK", "color": "yellow", "correct_response": "y", "trial_id": "stroop-trial-1-unrelated-16", "trial_type": "html-keyboard-response", "trial_index": 114, "time_elapsed": 1213704, "internal_node_id": "0.0-6.0-19.0"}}, {"uniqueid": "w54260747:a26670280", "current_trial": 115, "dateTime": 1664465148043, "trialdata": {"rt": 798, "stimulus": "<p id='stroop-text' class='stroop-green'>STONE</p>", "response": "g", "stimulus-type": "unrelated", "word": "STONE", "color": "green", "correct_response": "g", "trial_id": "stroop-trial-1-unrelated-20", "trial_type": "html-keyboard-response", "trial_index": 115, "time_elapsed": 1215008, "internal_node_id": "0.0-6.0-20.0"}}, {"uniqueid": "w54260747:a26670280", "current_trial": 116, "dateTime": 1664465149547, "trialdata": {"rt": 999, "stimulus": "<p id='stroop-text' class='stroop-blue'>YELLOW</p>", "response": "b", "stimulus-type": "incongruent", "word": "yellow", "color": "blue", "correct_response": "b", "trial_id": "stroop-trial-1-incongruent-25", "trial_type": "html-keyboard-response", "trial_index": 116, "time_elapsed": 1216513, "internal_node_id": "0.0-6.0-21.0"}}, {"uniqueid": "w54260747:a26670280", "current_trial": 117, "dateTime": 1664465150971, "trialdata": {"rt": 918, "stimulus": "<p id='stroop-text' class='stroop-yellow'>GREEN</p>", "response": "y", "stimulus-type": "incongruent", "word": "green", "color": "yellow", "correct_response": "y", "trial_id": "stroop-trial-1-incongruent-21", "trial_type": "html-keyboard-response", "trial_index": 117, "time_elapsed": 1217936, "internal_node_id": "0.0-6.0-22.0"}}, {"uniqueid": "w54260747:a26670280", "current_trial": 118, "dateTime": 1664465151921, "trialdata": {"rt": 441, "stimulus": "<p id='stroop-text' class='stroop-yellow'>GREEN</p>", "response": "y", "stimulus-type": "incongruent", "word": "green", "color": "yellow", "correct_response": "y", "trial_id": "stroop-trial-1-incongruent-29", "trial_type": "html-keyboard-response", "trial_index": 118, "time_elapsed": 1218887, "internal_node_id": "0.0-6.0-23.0"}}, {"uniqueid": "w54260747:a26670280", "current_trial": 119, "dateTime": 1664465153306, "trialdata": {"rt": 883, "stimulus": "<p id='stroop-text' class='stroop-blue'>RED</p>", "response": "b", "stimulus-type": "incongruent", "word": "red", "color": "blue", "correct_response": "b", "trial_id": "stroop-trial-1-incongruent-23", "trial_type": "html-keyboard-response", "trial_index": 119, "time_elapsed": 1220272, "internal_node_id": "0.0-6.0-24.0"}}, {"uniqueid": "w54260747:a26670280", "current_trial": 120, "dateTime": 1664465154881, "trialdata": {"rt": 1071, "stimulus": "<p id='stroop-text' class='stroop-red'>CHAIR</p>", "response": "r", "stimulus-type": "unrelated", "word": "CHAIR", "color": "red", "correct_response": "r", "trial_id": "stroop-trial-1-unrelated-5", "trial_type": "html-keyboard-response", "trial_index": 120, "time_elapsed": 1221847, "internal_node_id": "0.0-6.0-25.0"}}, {"uniqueid": "w54260747:a26670280", "current_trial": 121, "dateTime": 1664465156345, "trialdata": {"rt": 961, "stimulus": "<p id='stroop-text' class='stroop-blue'>YELLOW</p>", "response": "b", "stimulus-type": "incongruent", "word": "yellow", "color": "blue", "correct_response": "b", "trial_id": "stroop-trial-1-incongruent-9", "trial_type": "html-keyboard-response", "trial_index": 121, "time_elapsed": 1223311, "internal_node_id": "0.0-6.0-26.0"}}, {"uniqueid": "w54260747:a26670280", "current_trial": 122, "dateTime": 1664465157691, "trialdata": {"rt": 841, "stimulus": "<p id='stroop-text' class='stroop-red'>BRAIN</p>", "response": "r", "stimulus-type": "unrelated", "word": "BRAIN", "color": "red", "correct_response": "r", "trial_id": "stroop-trial-1-unrelated-12", "trial_type": "html-keyboard-response", "trial_index": 122, "time_elapsed": 1224656, "internal_node_id": "0.0-6.0-27.0"}}, {"uniqueid": "w54260747:a26670280", "current_trial": 123, "dateTime": 1664465159139, "trialdata": {"rt": 941, "stimulus": "<p id='stroop-text' class='stroop-yellow'>WINDOW</p>", "response": "y", "stimulus-type": "unrelated", "word": "WINDOW", "color": "yellow", "correct_response": "y", "trial_id": "stroop-trial-1-unrelated-15", "trial_type": "html-keyboard-response", "trial_index": 123, "time_elapsed": 1226104, "internal_node_id": "0.0-6.0-28.0"}}, {"uniqueid": "w54260747:a26670280", "current_trial": 124, "dateTime": 1664465161065, "trialdata": {"rt": 1419, "stimulus": "<p id='stroop-text' class='stroop-red'>MONKEY</p>", "response": "r", "stimulus-type": "unrelated", "word": "MONKEY", "color": "red", "correct_response": "r", "trial_id": "stroop-trial-1-unrelated-22", "trial_type": "html-keyboard-response", "trial_index": 124, "time_elapsed": 1228031, "internal_node_id": "0.0-6.0-29.0"}}, {"uniqueid": "w54260747:a26670280", "current_trial": 125, "dateTime": 1664465162747, "trialdata": {"rt": 1179, "stimulus": "<p id='stroop-text' class='stroop-blue'>RED</p>", "response": "b", "stimulus-type": "incongruent", "word": "red", "color": "blue", "correct_response": "b", "trial_id": "stroop-trial-1-incongruent-11", "trial_type": "html-keyboard-response", "trial_index": 125, "time_elapsed": 1229712, "internal_node_id": "0.0-6.0-30.0"}}, {"uniqueid": "w54260747:a26670280", "current_trial": 126, "dateTime": 1664465164404, "trialdata": {"rt": 1150, "stimulus": "<p id='stroop-text' class='stroop-green'>YELLOW</p>", "response": "g", "stimulus-type": "incongruent", "word": "yellow", "color": "green", "correct_response": "g", "trial_id": "stroop-trial-1-incongruent-18", "trial_type": "html-keyboard-response", "trial_index": 126, "time_elapsed": 1231369, "internal_node_id": "0.0-6.0-31.0"}}, {"uniqueid": "w54260747:a26670280", "current_trial": 127, "dateTime": 1664465165628, "trialdata": {"rt": 717, "stimulus": "<p id='stroop-text' class='stroop-yellow'>GREEN</p>", "response": "y", "stimulus-type": "incongruent", "word": "green", "color": "yellow", "correct_response": "y", "trial_id": "stroop-trial-1-incongruent-2", "trial_type": "html-keyboard-response", "trial_index": 127, "time_elapsed": 1232593, "internal_node_id": "0.0-6.0-32.0"}}, {"uniqueid": "w54260747:a26670280", "current_trial": 128, "dateTime": 1664465166843, "trialdata": {"rt": 706, "stimulus": "<p id='stroop-text' class='stroop-green'>GREEN</p>", "response": "g", "stimulus-type": "congruent", "word": "green", "color": "green", "correct_response": "g", "trial_id": "stroop-trial-1-congruent-7", "trial_type": "html-keyboard-response", "trial_index": 128, "time_elapsed": 1233808, "internal_node_id": "0.0-6.0-33.0"}}, {"uniqueid": "w54260747:a26670280", "current_trial": 129, "dateTime": 1664465167873, "trialdata": {"rt": 526, "stimulus": "<p id='stroop-text' class='stroop-green'>BOAT</p>", "response": "g", "stimulus-type": "unrelated", "word": "BOAT", "color": "green", "correct_response": "g", "trial_id": "stroop-trial-1-unrelated-27", "trial_type": "html-keyboard-response", "trial_index": 129, "time_elapsed": 1234839, "internal_node_id": "0.0-6.0-34.0"}}, {"uniqueid": "w54260747:a26670280", "current_trial": 130, "dateTime": 1664465169065, "trialdata": {"rt": 688, "stimulus": "<p id='stroop-text' class='stroop-yellow'>YELLOW</p>", "response": "y", "stimulus-type": "congruent", "word": "yellow", "color": "yellow", "correct_response": "y", "trial_id": "stroop-trial-1-congruent-1", "trial_type": "html-keyboard-response", "trial_index": 130, "time_elapsed": 1236031, "internal_node_id": "0.0-6.0-35.0"}}, {"uniqueid": "w54260747:a26670280", "current_trial": 131, "dateTime": 1664465170513, "trialdata": {"rt": 946, "stimulus": "<p id='stroop-text' class='stroop-red'>BOAT</p>", "response": "r", "stimulus-type": "unrelated", "word": "BOAT", "color": "red", "correct_response": "r", "trial_id": "stroop-trial-1-unrelated-4", "trial_type": "html-keyboard-response", "trial_index": 131, "time_elapsed": 1237479, "internal_node_id": "0.0-6.0-36.0"}}, {"uniqueid": "w54260747:a26670280", "current_trial": 132, "dateTime": 1664465172084, "trialdata": {"rt": 1068, "stimulus": "<p id='stroop-text' class='stroop-green'>STONE</p>", "response": "g", "stimulus-type": "unrelated", "word": "STONE", "color": "green", "correct_response": "g", "trial_id": "stroop-trial-1-unrelated-2", "trial_type": "html-keyboard-response", "trial_index": 132, "time_elapsed": 1239049, "internal_node_id": "0.0-6.0-37.0"}}, {"uniqueid": "w54260747:a26670280", "current_trial": 133, "dateTime": 1664465173084, "trialdata": {"rt": 493, "stimulus": "<p id='stroop-text' class='stroop-green'>BLUE</p>", "response": "g", "stimulus-type": "incongruent", "word": "blue", "color": "green", "correct_response": "g", "trial_id": "stroop-trial-1-incongruent-22", "trial_type": "html-keyboard-response", "trial_index": 133, "time_elapsed": 1240050, "internal_node_id": "0.0-6.0-38.0"}}, {"uniqueid": "w54260747:a26670280", "current_trial": 134, "dateTime": 1664465174292, "trialdata": {"rt": 698, "stimulus": "<p id='stroop-text' class='stroop-yellow'>BLUE</p>", "response": "y", "stimulus-type": "incongruent", "word": "blue", "color": "yellow", "correct_response": "y", "trial_id": "stroop-trial-1-incongruent-16", "trial_type": "html-keyboard-response", "trial_index": 134, "time_elapsed": 1241257, "internal_node_id": "0.0-6.0-39.0"}}, {"uniqueid": "w54260747:a26670280", "current_trial": 135, "dateTime": 1664465175569, "trialdata": {"rt": 770, "stimulus": "<p id='stroop-text' class='stroop-red'>CHAIR</p>", "response": "r", "stimulus-type": "unrelated", "word": "CHAIR", "color": "red", "correct_response": "r", "trial_id": "stroop-trial-1-unrelated-6", "trial_type": "html-keyboard-response", "trial_index": 135, "time_elapsed": 1242535, "internal_node_id": "0.0-6.0-40.0"}}, {"uniqueid": "w54260747:a26670280", "current_trial": 136, "dateTime": 1664465177091, "trialdata": {"rt": 1004, "stimulus": "<p id='stroop-text' class='stroop-green'>YELLOW</p>", "response": "g", "stimulus-type": "incongruent", "word": "yellow", "color": "green", "correct_response": "g", "trial_id": "stroop-trial-1-incongruent-4", "trial_type": "html-keyboard-response", "trial_index": 136, "time_elapsed": 1244056, "internal_node_id": "0.0-6.0-41.0"}}, {"uniqueid": "w54260747:a26670280", "current_trial": 137, "dateTime": 1664465178289, "trialdata": {"rt": 691, "stimulus": "<p id='stroop-text' class='stroop-blue'>BLUE</p>", "response": "b", "stimulus-type": "congruent", "word": "blue", "color": "blue", "correct_response": "b", "trial_id": "stroop-trial-1-congruent-2", "trial_type": "html-keyboard-response", "trial_index": 137, "time_elapsed": 1245255, "internal_node_id": "0.0-6.0-42.0"}}, {"uniqueid": "w54260747:a26670280", "current_trial": 138, "dateTime": 1664465179586, "trialdata": {"rt": 794, "stimulus": "<p id='stroop-text' class='stroop-yellow'>YELLOW</p>", "response": "y", "stimulus-type": "congruent", "word": "yellow", "color": "yellow", "correct_response": "y", "trial_id": "stroop-trial-1-congruent-6", "trial_type": "html-keyboard-response", "trial_index": 138, "time_elapsed": 1246552, "internal_node_id": "0.0-6.0-43.0"}}, {"uniqueid": "w54260747:a26670280", "current_trial": 139, "dateTime": 1664465180602, "trialdata": {"rt": 513, "stimulus": "<p id='stroop-text' class='stroop-yellow'>YELLOW</p>", "response": "y", "stimulus-type": "congruent", "word": "yellow", "color": "yellow", "correct_response": "y", "trial_id": "stroop-trial-1-congruent-4", "trial_type": "html-keyboard-response", "trial_index": 139, "time_elapsed": 1247568, "internal_node_id": "0.0-6.0-44.0"}}, {"uniqueid": "w54260747:a26670280", "current_trial": 140, "dateTime": 1664465182115, "trialdata": {"rt": 1002, "stimulus": "<p id='stroop-text' class='stroop-green'>CHAIR</p>", "response": "g", "stimulus-type": "unrelated", "word": "CHAIR", "color": "green", "correct_response": "g", "trial_id": "stroop-trial-1-unrelated-10", "trial_type": "html-keyboard-response", "trial_index": 140, "time_elapsed": 1249080, "internal_node_id": "0.0-6.0-45.0"}}, {"uniqueid": "w54260747:a26670280", "current_trial": 141, "dateTime": 1664465183425, "trialdata": {"rt": 806, "stimulus": "<p id='stroop-text' class='stroop-blue'>BLUE</p>", "response": "b", "stimulus-type": "congruent", "word": "blue", "color": "blue", "correct_response": "b", "trial_id": "stroop-trial-1-congruent-28", "trial_type": "html-keyboard-response", "trial_index": 141, "time_elapsed": 1250391, "internal_node_id": "0.0-6.0-46.0"}}, {"uniqueid": "w54260747:a26670280", "current_trial": 142, "dateTime": 1664465184777, "trialdata": {"rt": 849, "stimulus": "<p id='stroop-text' class='stroop-yellow'>GREEN</p>", "response": "y", "stimulus-type": "incongruent", "word": "green", "color": "yellow", "correct_response": "y", "trial_id": "stroop-trial-1-incongruent-6", "trial_type": "html-keyboard-response", "trial_index": 142, "time_elapsed": 1251743, "internal_node_id": "0.0-6.0-47.0"}}, {"uniqueid": "w54260747:a26670280", "current_trial": 143, "dateTime": 1664465187297, "trialdata": {"rt": 2017, "stimulus": "<p id='stroop-text' class='stroop-red'>BLUE</p>", "response": "r", "stimulus-type": "incongruent", "word": "blue", "color": "red", "correct_response": "r", "trial_id": "stroop-trial-1-incongruent-5", "trial_type": "html-keyboard-response", "trial_index": 143, "time_elapsed": 1254263, "internal_node_id": "0.0-6.0-48.0"}}, {"uniqueid": "w54260747:a26670280", "current_trial": 144, "dateTime": 1664465188652, "trialdata": {"rt": 853, "stimulus": "<p id='stroop-text' class='stroop-green'>YELLOW</p>", "response": "g", "stimulus-type": "incongruent", "word": "yellow", "color": "green", "correct_response": "g", "trial_id": "stroop-trial-1-incongruent-8", "trial_type": "html-keyboard-response", "trial_index": 144, "time_elapsed": 1255617, "internal_node_id": "0.0-6.0-49.0"}}, {"uniqueid": "w54260747:a26670280", "current_trial": 145, "dateTime": 1664465190068, "trialdata": {"rt": 908, "stimulus": "<p id='stroop-text' class='stroop-red'>WINDOW</p>", "response": "r", "stimulus-type": "unrelated", "word": "WINDOW", "color": "red", "correct_response": "r", "trial_id": "stroop-trial-1-unrelated-19", "trial_type": "html-keyboard-response", "trial_index": 145, "time_elapsed": 1257033, "internal_node_id": "0.0-6.0-50.0"}}, {"uniqueid": "w54260747:a26670280", "current_trial": 146, "dateTime": 1664465191786, "trialdata": {"rt": 1213, "stimulus": "<p id='stroop-text' class='stroop-blue'>MONKEY</p>", "response": "b", "stimulus-type": "unrelated", "word": "MONKEY", "color": "blue", "correct_response": "b", "trial_id": "stroop-trial-1-unrelated-1", "trial_type": "html-keyboard-response", "trial_index": 146, "time_elapsed": 1258752, "internal_node_id": "0.0-6.0-51.0"}}, {"uniqueid": "w54260747:a26670280", "current_trial": 147, "dateTime": 1664465193433, "trialdata": {"rt": 1139, "stimulus": "<p id='stroop-text' class='stroop-yellow'>YELLOW</p>", "response": "y", "stimulus-type": "congruent", "word": "yellow", "color": "yellow", "correct_response": "y", "trial_id": "stroop-trial-1-congruent-25", "trial_type": "html-keyboard-response", "trial_index": 147, "time_elapsed": 1260399, "internal_node_id": "0.0-6.0-52.0"}}, {"uniqueid": "w54260747:a26670280", "current_trial": 148, "dateTime": 1664465194938, "trialdata": {"rt": 1001, "stimulus": "<p id='stroop-text' class='stroop-green'>GREEN</p>", "response": "g", "stimulus-type": "congruent", "word": "green", "color": "green", "correct_response": "g", "trial_id": "stroop-trial-1-congruent-15", "trial_type": "html-keyboard-response", "trial_index": 148, "time_elapsed": 1261904, "internal_node_id": "0.0-6.0-53.0"}}, {"uniqueid": "w54260747:a26670280", "current_trial": 149, "dateTime": 1664465195930, "trialdata": {"rt": 485, "stimulus": "<p id='stroop-text' class='stroop-green'>GREEN</p>", "response": "g", "stimulus-type": "congruent", "word": "green", "color": "green", "correct_response": "g", "trial_id": "stroop-trial-1-congruent-14", "trial_type": "html-keyboard-response", "trial_index": 149, "time_elapsed": 1262896, "internal_node_id": "0.0-6.0-54.0"}}, {"uniqueid": "w54260747:a26670280", "current_trial": 150, "dateTime": 1664465197211, "trialdata": {"rt": 773, "stimulus": "<p id='stroop-text' class='stroop-blue'>GREEN</p>", "response": "b", "stimulus-type": "incongruent", "word": "green", "color": "blue", "correct_response": "b", "trial_id": "stroop-trial-1-incongruent-12", "trial_type": "html-keyboard-response", "trial_index": 150, "time_elapsed": 1264176, "internal_node_id": "0.0-6.0-55.0"}}, {"uniqueid": "w54260747:a26670280", "current_trial": 151, "dateTime": 1664465198785, "trialdata": {"rt": 1067, "stimulus": "<p id='stroop-text' class='stroop-green'>WINDOW</p>", "response": "g", "stimulus-type": "unrelated", "word": "WINDOW", "color": "green", "correct_response": "g", "trial_id": "stroop-trial-1-unrelated-9", "trial_type": "html-keyboard-response", "trial_index": 151, "time_elapsed": 1265751, "internal_node_id": "0.0-6.0-56.0"}}, {"uniqueid": "w54260747:a26670280", "current_trial": 152, "dateTime": 1664465200601, "trialdata": {"rt": 1313, "stimulus": "<p id='stroop-text' class='stroop-blue'>RED</p>", "response": "b", "stimulus-type": "incongruent", "word": "red", "color": "blue", "correct_response": "b", "trial_id": "stroop-trial-1-incongruent-13", "trial_type": "html-keyboard-response", "trial_index": 152, "time_elapsed": 1267567, "internal_node_id": "0.0-6.0-57.0"}}, {"uniqueid": "w54260747:a26670280", "current_trial": 153, "dateTime": 1664465201905, "trialdata": {"rt": 801, "stimulus": "<p id='stroop-text' class='stroop-blue'>BLUE</p>", "response": "b", "stimulus-type": "congruent", "word": "blue", "color": "blue", "correct_response": "b", "trial_id": "stroop-trial-1-congruent-5", "trial_type": "html-keyboard-response", "trial_index": 153, "time_elapsed": 1268871, "internal_node_id": "0.0-6.0-58.0"}}, {"uniqueid": "w54260747:a26670280", "current_trial": 154, "dateTime": 1664465203427, "trialdata": {"rt": 1019, "stimulus": "<p id='stroop-text' class='stroop-yellow'>BLUE</p>", "response": "y", "stimulus-type": "incongruent", "word": "blue", "color": "yellow", "correct_response": "y", "trial_id": "stroop-trial-1-incongruent-17", "trial_type": "html-keyboard-response", "trial_index": 154, "time_elapsed": 1270393, "internal_node_id": "0.0-6.0-59.0"}}, {"uniqueid": "w54260747:a26670280", "current_trial": 155, "dateTime": 1664465204769, "trialdata": {"rt": 837, "stimulus": "<p id='stroop-text' class='stroop-red'>BRIDGE</p>", "response": "r", "stimulus-type": "unrelated", "word": "BRIDGE", "color": "red", "correct_response": "r", "trial_id": "stroop-trial-1-unrelated-17", "trial_type": "html-keyboard-response", "trial_index": 155, "time_elapsed": 1271735, "internal_node_id": "0.0-6.0-60.0"}}, {"uniqueid": "w54260747:a26670280", "current_trial": 156, "dateTime": 1664465205915, "trialdata": {"rt": 642, "stimulus": "<p id='stroop-text' class='stroop-yellow'>RED</p>", "response": "y", "stimulus-type": "incongruent", "word": "red", "color": "yellow", "correct_response": "y", "trial_id": "stroop-trial-1-incongruent-27", "trial_type": "html-keyboard-response", "trial_index": 156, "time_elapsed": 1272880, "internal_node_id": "0.0-6.0-61.0"}}, {"uniqueid": "w54260747:a26670280", "current_trial": 157, "dateTime": 1664465206906, "trialdata": {"rt": 485, "stimulus": "<p id='stroop-text' class='stroop-yellow'>BOAT</p>", "response": "y", "stimulus-type": "unrelated", "word": "BOAT", "color": "yellow", "correct_response": "y", "trial_id": "stroop-trial-1-unrelated-8", "trial_type": "html-keyboard-response", "trial_index": 157, "time_elapsed": 1273872, "internal_node_id": "0.0-6.0-62.0"}}, {"uniqueid": "w54260747:a26670280", "current_trial": 158, "dateTime": 1664465208193, "trialdata": {"rt": 779, "stimulus": "<p id='stroop-text' class='stroop-blue'>BOAT</p>", "response": "b", "stimulus-type": "unrelated", "word": "BOAT", "color": "blue", "correct_response": "b", "trial_id": "stroop-trial-1-unrelated-11", "trial_type": "html-keyboard-response", "trial_index": 158, "time_elapsed": 1275159, "internal_node_id": "0.0-6.0-63.0"}}, {"uniqueid": "w54260747:a26670280", "current_trial": 159, "dateTime": 1664465209724, "trialdata": {"rt": 1027, "stimulus": "<p id='stroop-text' class='stroop-blue'>YELLOW</p>", "response": "b", "stimulus-type": "incongruent", "word": "yellow", "color": "blue", "correct_response": "b", "trial_id": "stroop-trial-1-incongruent-19", "trial_type": "html-keyboard-response", "trial_index": 159, "time_elapsed": 1276689, "internal_node_id": "0.0-6.0-64.0"}}, {"uniqueid": "w54260747:a26670280", "current_trial": 160, "dateTime": 1664465210945, "trialdata": {"rt": 715, "stimulus": "<p id='stroop-text' class='stroop-yellow'>BRAIN</p>", "response": "y", "stimulus-type": "unrelated", "word": "BRAIN", "color": "yellow", "correct_response": "y", "trial_id": "stroop-trial-1-unrelated-18", "trial_type": "html-keyboard-response", "trial_index": 160, "time_elapsed": 1277911, "internal_node_id": "0.0-6.0-65.0"}}, {"uniqueid": "w54260747:a26670280", "current_trial": 161, "dateTime": 1664465212020, "trialdata": {"rt": 572, "stimulus": "<p id='stroop-text' class='stroop-red'>RED</p>", "response": "r", "stimulus-type": "congruent", "word": "red", "color": "red", "correct_response": "r", "trial_id": "stroop-trial-1-congruent-8", "trial_type": "html-keyboard-response", "trial_index": 161, "time_elapsed": 1278985, "internal_node_id": "0.0-6.0-66.0"}}, {"uniqueid": "w54260747:a26670280", "current_trial": 162, "dateTime": 1664465213305, "trialdata": {"rt": 778, "stimulus": "<p id='stroop-text' class='stroop-blue'>STONE</p>", "response": "b", "stimulus-type": "unrelated", "word": "STONE", "color": "blue", "correct_response": "b", "trial_id": "stroop-trial-1-unrelated-30", "trial_type": "html-keyboard-response", "trial_index": 162, "time_elapsed": 1280271, "internal_node_id": "0.0-6.0-67.0"}}, {"uniqueid": "w54260747:a26670280", "current_trial": 163, "dateTime": 1664465214465, "trialdata": {"rt": 658, "stimulus": "<p id='stroop-text' class='stroop-blue'>BLUE</p>", "response": "b", "stimulus-type": "congruent", "word": "blue", "color": "blue", "correct_response": "b", "trial_id": "stroop-trial-1-congruent-17", "trial_type": "html-keyboard-response", "trial_index": 163, "time_elapsed": 1281430, "internal_node_id": "0.0-6.0-68.0"}}, {"uniqueid": "w54260747:a26670280", "current_trial": 164, "dateTime": 1664465215395, "trialdata": {"rt": 427, "stimulus": "<p id='stroop-text' class='stroop-blue'>YELLOW</p>", "response": "b", "stimulus-type": "incongruent", "word": "yellow", "color": "blue", "correct_response": "b", "trial_id": "stroop-trial-1-incongruent-20", "trial_type": "html-keyboard-response", "trial_index": 164, "time_elapsed": 1282360, "internal_node_id": "0.0-6.0-69.0"}}, {"uniqueid": "w54260747:a26670280", "current_trial": 165, "dateTime": 1664465216643, "trialdata": {"rt": 741, "stimulus": "<p id='stroop-text' class='stroop-red'>RED</p>", "response": "r", "stimulus-type": "congruent", "word": "red", "color": "red", "correct_response": "r", "trial_id": "stroop-trial-1-congruent-3", "trial_type": "html-keyboard-response", "trial_index": 165, "time_elapsed": 1283608, "internal_node_id": "0.0-6.0-70.0"}}, {"uniqueid": "w54260747:a26670280", "current_trial": 166, "dateTime": 1664465217906, "trialdata": {"rt": 757, "stimulus": "<p id='stroop-text' class='stroop-yellow'>BOAT</p>", "response": "y", "stimulus-type": "unrelated", "word": "BOAT", "color": "yellow", "correct_response": "y", "trial_id": "stroop-trial-1-unrelated-3", "trial_type": "html-keyboard-response", "trial_index": 166, "time_elapsed": 1284872, "internal_node_id": "0.0-6.0-71.0"}}, {"uniqueid": "w54260747:a26670280", "current_trial": 167, "dateTime": 1664465219308, "trialdata": {"rt": 893, "stimulus": "<p id='stroop-text' class='stroop-red'>GREEN</p>", "response": "r", "stimulus-type": "incongruent", "word": "green", "color": "red", "correct_response": "r", "trial_id": "stroop-trial-1-incongruent-15", "trial_type": "html-keyboard-response", "trial_index": 167, "time_elapsed": 1286273, "internal_node_id": "0.0-6.0-72.0"}}, {"uniqueid": "w54260747:a26670280", "current_trial": 168, "dateTime": 1664465220905, "trialdata": {"rt": 1091, "stimulus": "<p id='stroop-text' class='stroop-blue'>RED</p>", "response": "b", "stimulus-type": "incongruent", "word": "red", "color": "blue", "correct_response": "b", "trial_id": "stroop-trial-1-incongruent-28", "trial_type": "html-keyboard-response", "trial_index": 168, "time_elapsed": 1287871, "internal_node_id": "0.0-6.0-73.0"}}, {"uniqueid": "w54260747:a26670280", "current_trial": 169, "dateTime": 1664465221937, "trialdata": {"rt": 529, "stimulus": "<p id='stroop-text' class='stroop-yellow'>YELLOW</p>", "response": "y", "stimulus-type": "congruent", "word": "yellow", "color": "yellow", "correct_response": "y", "trial_id": "stroop-trial-1-congruent-24", "trial_type": "html-keyboard-response", "trial_index": 169, "time_elapsed": 1288903, "internal_node_id": "0.0-6.0-74.0"}}, {"uniqueid": "w54260747:a26670280", "current_trial": 170, "dateTime": 1664465223004, "trialdata": {"rt": 564, "stimulus": "<p id='stroop-text' class='stroop-red'>RED</p>", "response": "r", "stimulus-type": "congruent", "word": "red", "color": "red", "correct_response": "r", "trial_id": "stroop-trial-1-congruent-19", "trial_type": "html-keyboard-response", "trial_index": 170, "time_elapsed": 1289969, "internal_node_id": "0.0-6.0-75.0"}}, {"uniqueid": "w54260747:a26670280", "current_trial": 171, "dateTime": 1664465224385, "trialdata": {"rt": 874, "stimulus": "<p id='stroop-text' class='stroop-green'>MONKEY</p>", "response": "g", "stimulus-type": "unrelated", "word": "MONKEY", "color": "green", "correct_response": "g", "trial_id": "stroop-trial-1-unrelated-14", "trial_type": "html-keyboard-response", "trial_index": 171, "time_elapsed": 1291351, "internal_node_id": "0.0-6.0-76.0"}}, {"uniqueid": "w54260747:a26670280", "current_trial": 172, "dateTime": 1664465226230, "trialdata": {"rt": 1342, "stimulus": "<p id='stroop-text' class='stroop-blue'>BLUE</p>", "response": "b", "stimulus-type": "congruent", "word": "blue", "color": "blue", "correct_response": "b", "trial_id": "stroop-trial-1-congruent-22", "trial_type": "html-keyboard-response", "trial_index": 172, "time_elapsed": 1293196, "internal_node_id": "0.0-6.0-77.0"}}, {"uniqueid": "w54260747:a26670280", "current_trial": 173, "dateTime": 1664465227370, "trialdata": {"rt": 634, "stimulus": "<p id='stroop-text' class='stroop-red'>RED</p>", "response": "r", "stimulus-type": "congruent", "word": "red", "color": "red", "correct_response": "r", "trial_id": "stroop-trial-1-congruent-11", "trial_type": "html-keyboard-response", "trial_index": 173, "time_elapsed": 1294336, "internal_node_id": "0.0-6.0-78.0"}}, {"uniqueid": "w54260747:a26670280", "current_trial": 174, "dateTime": 1664465228305, "trialdata": {"rt": 431, "stimulus": "<p id='stroop-text' class='stroop-blue'>WINDOW</p>", "response": "b", "stimulus-type": "unrelated", "word": "WINDOW", "color": "blue", "correct_response": "b", "trial_id": "stroop-trial-1-unrelated-26", "trial_type": "html-keyboard-response", "trial_index": 174, "time_elapsed": 1295270, "internal_node_id": "0.0-6.0-79.0"}}, {"uniqueid": "w54260747:a26670280", "current_trial": 175, "dateTime": 1664465229585, "trialdata": {"rt": 778, "stimulus": "<p id='stroop-text' class='stroop-yellow'>YELLOW</p>", "response": "y", "stimulus-type": "congruent", "word": "yellow", "color": "yellow", "correct_response": "y", "trial_id": "stroop-trial-1-congruent-10", "trial_type": "html-keyboard-response", "trial_index": 175, "time_elapsed": 1296551, "internal_node_id": "0.0-6.0-80.0"}}, {"uniqueid": "w54260747:a26670280", "current_trial": 176, "dateTime": 1664465231019, "trialdata": {"rt": 929, "stimulus": "<p id='stroop-text' class='stroop-blue'>GREEN</p>", "response": "b", "stimulus-type": "incongruent", "word": "green", "color": "blue", "correct_response": "b", "trial_id": "stroop-trial-1-incongruent-3", "trial_type": "html-keyboard-response", "trial_index": 176, "time_elapsed": 1297985, "internal_node_id": "0.0-6.0-81.0"}}, {"uniqueid": "w54260747:a26670280", "current_trial": 177, "dateTime": 1664465232379, "trialdata": {"rt": 855, "stimulus": "<p id='stroop-text' class='stroop-yellow'>RED</p>", "response": "y", "stimulus-type": "incongruent", "word": "red", "color": "yellow", "correct_response": "y", "trial_id": "stroop-trial-1-incongruent-1", "trial_type": "html-keyboard-response", "trial_index": 177, "time_elapsed": 1299344, "internal_node_id": "0.0-6.0-82.0"}}, {"uniqueid": "w54260747:a26670280", "current_trial": 178, "dateTime": 1664465233354, "trialdata": {"rt": 467, "stimulus": "<p id='stroop-text' class='stroop-yellow'>YELLOW</p>", "response": "y", "stimulus-type": "congruent", "word": "yellow", "color": "yellow", "correct_response": "y", "trial_id": "stroop-trial-1-congruent-18", "trial_type": "html-keyboard-response", "trial_index": 178, "time_elapsed": 1300320, "internal_node_id": "0.0-6.0-83.0"}}, {"uniqueid": "w54260747:a26670280", "current_trial": 179, "dateTime": 1664465234345, "trialdata": {"rt": 483, "stimulus": "<p id='stroop-text' class='stroop-yellow'>RED</p>", "response": "y", "stimulus-type": "incongruent", "word": "red", "color": "yellow", "correct_response": "y", "trial_id": "stroop-trial-1-incongruent-30", "trial_type": "html-keyboard-response", "trial_index": 179, "time_elapsed": 1301311, "internal_node_id": "0.0-6.0-84.0"}}, {"uniqueid": "w54260747:a26670280", "current_trial": 180, "dateTime": 1664465235411, "trialdata": {"rt": 563, "stimulus": "<p id='stroop-text' class='stroop-yellow'>YELLOW</p>", "response": "y", "stimulus-type": "congruent", "word": "yellow", "color": "yellow", "correct_response": "y", "trial_id": "stroop-trial-1-congruent-20", "trial_type": "html-keyboard-response", "trial_index": 180, "time_elapsed": 1302376, "internal_node_id": "0.0-6.0-85.0"}}, {"uniqueid": "w54260747:a26670280", "current_trial": 181, "dateTime": 1664465236353, "trialdata": {"rt": 436, "stimulus": "<p id='stroop-text' class='stroop-yellow'>STONE</p>", "response": "y", "stimulus-type": "unrelated", "word": "STONE", "color": "yellow", "correct_response": "y", "trial_id": "stroop-trial-1-unrelated-25", "trial_type": "html-keyboard-response", "trial_index": 181, "time_elapsed": 1303318, "internal_node_id": "0.0-6.0-86.0"}}, {"uniqueid": "w54260747:a26670280", "current_trial": 182, "dateTime": 1664465237571, "trialdata": {"rt": 715, "stimulus": "<p id='stroop-text' class='stroop-blue'>STONE</p>", "response": "b", "stimulus-type": "unrelated", "word": "STONE", "color": "blue", "correct_response": "b", "trial_id": "stroop-trial-1-unrelated-28", "trial_type": "html-keyboard-response", "trial_index": 182, "time_elapsed": 1304536, "internal_node_id": "0.0-6.0-87.0"}}, {"uniqueid": "w54260747:a26670280", "current_trial": 183, "dateTime": 1664465239075, "trialdata": {"rt": 997, "stimulus": "<p id='stroop-text' class='stroop-yellow'>RED</p>", "response": "y", "stimulus-type": "incongruent", "word": "red", "color": "yellow", "correct_response": "y", "trial_id": "stroop-trial-1-incongruent-24", "trial_type": "html-keyboard-response", "trial_index": 183, "time_elapsed": 1306041, "internal_node_id": "0.0-6.0-88.0"}}, {"uniqueid": "w54260747:a26670280", "current_trial": 184, "dateTime": 1664465240059, "trialdata": {"rt": 473, "stimulus": "<p id='stroop-text' class='stroop-yellow'>MONKEY</p>", "response": "y", "stimulus-type": "unrelated", "word": "MONKEY", "color": "yellow", "correct_response": "y", "trial_id": "stroop-trial-1-unrelated-23", "trial_type": "html-keyboard-response", "trial_index": 184, "time_elapsed": 1307024, "internal_node_id": "0.0-6.0-89.0"}}, {"uniqueid": "w54260747:a26670280", "current_trial": 185, "dateTime": 1664465305689, "trialdata": {"rt": 65124, "stimulus": "  <h1> End of block! </h1>\n\n  You have reached the end of the block 2/5. If you need a short break, feel free to take one now before moving on.\n\n  <br><br>\n  In the next block, you will complete another 90 rounds of this game.\n\n  <br><br>\n  <div style='text-align: center;'>Press <code>space</code> to begin.</div>\n  <br><br>\n<div style='text-align: center;'>(If the experiment doesn't continue, try clicking on the text and then pressing <code>space</code>.)</div>", "response": " ", "trial_id": "stroop_1_ready_3", "trial_type": "html-keyboard-response", "trial_index": 185, "time_elapsed": 1372655, "internal_node_id": "0.0-7.0"}}, {"uniqueid": "w54260747:a26670280", "current_trial": 186, "dateTime": 1664465306676, "trialdata": {"rt": 983, "stimulus": "<p id='stroop-text' class='stroop-blue'>GREEN</p>", "response": "b", "stimulus-type": "incongruent", "word": "green", "color": "blue", "correct_response": "b", "trial_id": "stroop-trial-1-incongruent-28", "trial_type": "html-keyboard-response", "trial_index": 186, "time_elapsed": 1373641, "internal_node_id": "0.0-8.0-0.0"}}, {"uniqueid": "w54260747:a26670280", "current_trial": 187, "dateTime": 1664465308381, "trialdata": {"rt": 1199, "stimulus": "<p id='stroop-text' class='stroop-blue'>BOTTLE</p>", "response": "b", "stimulus-type": "unrelated", "word": "BOTTLE", "color": "blue", "correct_response": "b", "trial_id": "stroop-trial-1-unrelated-15", "trial_type": "html-keyboard-response", "trial_index": 187, "time_elapsed": 1375347, "internal_node_id": "0.0-8.0-1.0"}}, {"uniqueid": "w54260747:a26670280", "current_trial": 188, "dateTime": 1664465309954, "trialdata": {"rt": 1069, "stimulus": "<p id='stroop-text' class='stroop-red'>YELLOW</p>", "response": "r", "stimulus-type": "incongruent", "word": "yellow", "color": "red", "correct_response": "r", "trial_id": "stroop-trial-1-incongruent-18", "trial_type": "html-keyboard-response", "trial_index": 188, "time_elapsed": 1376919, "internal_node_id": "0.0-8.0-2.0"}}, {"uniqueid": "w54260747:a26670280", "current_trial": 189, "dateTime": 1664465311276, "trialdata": {"rt": 817, "stimulus": "<p id='stroop-text' class='stroop-yellow'>GREEN</p>", "response": "y", "stimulus-type": "incongruent", "word": "green", "color": "yellow", "correct_response": "y", "trial_id": "stroop-trial-1-incongruent-19", "trial_type": "html-keyboard-response", "trial_index": 189, "time_elapsed": 1378241, "internal_node_id": "0.0-8.0-3.0"}}, {"uniqueid": "w54260747:a26670280", "current_trial": 190, "dateTime": 1664465312611, "trialdata": {"rt": 828, "stimulus": "<p id='stroop-text' class='stroop-blue'>BLUE</p>", "response": "b", "stimulus-type": "congruent", "word": "blue", "color": "blue", "correct_response": "b", "trial_id": "stroop-trial-1-congruent-16", "trial_type": "html-keyboard-response", "trial_index": 190, "time_elapsed": 1379576, "internal_node_id": "0.0-8.0-4.0"}}, {"uniqueid": "w54260747:a26670280", "current_trial": 191, "dateTime": 1664465313851, "trialdata": {"rt": 732, "stimulus": "<p id='stroop-text' class='stroop-yellow'>STONE</p>", "response": "y", "stimulus-type": "unrelated", "word": "STONE", "color": "yellow", "correct_response": "y", "trial_id": "stroop-trial-1-unrelated-3", "trial_type": "html-keyboard-response", "trial_index": 191, "time_elapsed": 1380816, "internal_node_id": "0.0-8.0-5.0"}}, {"uniqueid": "w54260747:a26670280", "current_trial": 192, "dateTime": 1664465315177, "trialdata": {"rt": 818, "stimulus": "<p id='stroop-text' class='stroop-red'>RED</p>", "response": "r", "stimulus-type": "congruent", "word": "red", "color": "red", "correct_response": "r", "trial_id": "stroop-trial-1-congruent-1", "trial_type": "html-keyboard-response", "trial_index": 192, "time_elapsed": 1382143, "internal_node_id": "0.0-8.0-6.0"}}, {"uniqueid": "w54260747:a26670280", "current_trial": 193, "dateTime": 1664465316355, "trialdata": {"rt": 675, "stimulus": "<p id='stroop-text' class='stroop-blue'>GREEN</p>", "response": "b", "stimulus-type": "incongruent", "word": "green", "color": "blue", "correct_response": "b", "trial_id": "stroop-trial-1-incongruent-15", "trial_type": "html-keyboard-response", "trial_index": 193, "time_elapsed": 1383321, "internal_node_id": "0.0-8.0-7.0"}}, {"uniqueid": "w54260747:a26670280", "current_trial": 194, "dateTime": 1664465317633, "trialdata": {"rt": 771, "stimulus": "<p id='stroop-text' class='stroop-red'>RED</p>", "response": "r", "stimulus-type": "congruent", "word": "red", "color": "red", "correct_response": "r", "trial_id": "stroop-trial-1-congruent-6", "trial_type": "html-keyboard-response", "trial_index": 194, "time_elapsed": 1384599, "internal_node_id": "0.0-8.0-8.0"}}, {"uniqueid": "w54260747:a26670280", "current_trial": 195, "dateTime": 1664465318729, "trialdata": {"rt": 592, "stimulus": "<p id='stroop-text' class='stroop-blue'>BLUE</p>", "response": "b", "stimulus-type": "congruent", "word": "blue", "color": "blue", "correct_response": "b", "trial_id": "stroop-trial-1-congruent-22", "trial_type": "html-keyboard-response", "trial_index": 195, "time_elapsed": 1385695, "internal_node_id": "0.0-8.0-9.0"}}, {"uniqueid": "w54260747:a26670280", "current_trial": 196, "dateTime": 1664465319861, "trialdata": {"rt": 629, "stimulus": "<p id='stroop-text' class='stroop-blue'>CHAIR</p>", "response": "b", "stimulus-type": "unrelated", "word": "CHAIR", "color": "blue", "correct_response": "b", "trial_id": "stroop-trial-1-unrelated-7", "trial_type": "html-keyboard-response", "trial_index": 196, "time_elapsed": 1386826, "internal_node_id": "0.0-8.0-10.0"}}, {"uniqueid": "w54260747:a26670280", "current_trial": 197, "dateTime": 1664465320811, "trialdata": {"rt": 445, "stimulus": "<p id='stroop-text' class='stroop-blue'>DOG</p>", "response": "b", "stimulus-type": "unrelated", "word": "DOG", "color": "blue", "correct_response": "b", "trial_id": "stroop-trial-1-unrelated-27", "trial_type": "html-keyboard-response", "trial_index": 197, "time_elapsed": 1387776, "internal_node_id": "0.0-8.0-11.0"}}, {"uniqueid": "w54260747:a26670280", "current_trial": 198, "dateTime": 1664465321923, "trialdata": {"rt": 603, "stimulus": "<p id='stroop-text' class='stroop-yellow'>SHIP</p>", "response": "y", "stimulus-type": "unrelated", "word": "SHIP", "color": "yellow", "correct_response": "y", "trial_id": "stroop-trial-1-unrelated-12", "trial_type": "html-keyboard-response", "trial_index": 198, "time_elapsed": 1388888, "internal_node_id": "0.0-8.0-12.0"}}, {"uniqueid": "w54260747:a26670280", "current_trial": 199, "dateTime": 1664465323331, "trialdata": {"rt": 902, "stimulus": "<p id='stroop-text' class='stroop-blue'>YELLOW</p>", "response": "b", "stimulus-type": "incongruent", "word": "yellow", "color": "blue", "correct_response": "b", "trial_id": "stroop-trial-1-incongruent-14", "trial_type": "html-keyboard-response", "trial_index": 199, "time_elapsed": 1390296, "internal_node_id": "0.0-8.0-13.0"}}, {"uniqueid": "w54260747:a26670280", "current_trial": 200, "dateTime": 1664465324367, "trialdata": {"rt": 526, "stimulus": "<p id='stroop-text' class='stroop-blue'>BLUE</p>", "response": "b", "stimulus-type": "congruent", "word": "blue", "color": "blue", "correct_response": "b", "trial_id": "stroop-trial-1-congruent-23", "trial_type": "html-keyboard-response", "trial_index": 200, "time_elapsed": 1391333, "internal_node_id": "0.0-8.0-14.0"}}, {"uniqueid": "w54260747:a26670280", "current_trial": 201, "dateTime": 1664465325707, "trialdata": {"rt": 837, "stimulus": "<p id='stroop-text' class='stroop-red'>YELLOW</p>", "response": "r", "stimulus-type": "incongruent", "word": "yellow", "color": "red", "correct_response": "r", "trial_id": "stroop-trial-1-incongruent-12", "trial_type": "html-keyboard-response", "trial_index": 201, "time_elapsed": 1392672, "internal_node_id": "0.0-8.0-15.0"}}, {"uniqueid": "w54260747:a26670280", "current_trial": 202, "dateTime": 1664465326683, "trialdata": {"rt": 468, "stimulus": "<p id='stroop-text' class='stroop-red'>RED</p>", "response": "r", "stimulus-type": "congruent", "word": "red", "color": "red", "correct_response": "r", "trial_id": "stroop-trial-1-congruent-13", "trial_type": "html-keyboard-response", "trial_index": 202, "time_elapsed": 1393649, "internal_node_id": "0.0-8.0-16.0"}}, {"uniqueid": "w54260747:a26670280", "current_trial": 203, "dateTime": 1664465327731, "trialdata": {"rt": 541, "stimulus": "<p id='stroop-text' class='stroop-blue'>BLUE</p>", "response": "b", "stimulus-type": "congruent", "word": "blue", "color": "blue", "correct_response": "b", "trial_id": "stroop-trial-1-congruent-2", "trial_type": "html-keyboard-response", "trial_index": 203, "time_elapsed": 1394696, "internal_node_id": "0.0-8.0-17.0"}}, {"uniqueid": "w54260747:a26670280", "current_trial": 204, "dateTime": 1664465329163, "trialdata": {"rt": 925, "stimulus": "<p id='stroop-text' class='stroop-green'>GREEN</p>", "response": "g", "stimulus-type": "congruent", "word": "green", "color": "green", "correct_response": "g", "trial_id": "stroop-trial-1-congruent-14", "trial_type": "html-keyboard-response", "trial_index": 204, "time_elapsed": 1396128, "internal_node_id": "0.0-8.0-18.0"}}, {"uniqueid": "w54260747:a26670280", "current_trial": 205, "dateTime": 1664465330785, "trialdata": {"rt": 1115, "stimulus": "<p id='stroop-text' class='stroop-red'>GREEN</p>", "response": "r", "stimulus-type": "incongruent", "word": "green", "color": "red", "correct_response": "r", "trial_id": "stroop-trial-1-incongruent-30", "trial_type": "html-keyboard-response", "trial_index": 205, "time_elapsed": 1397751, "internal_node_id": "0.0-8.0-19.0"}}, {"uniqueid": "w54260747:a26670280", "current_trial": 206, "dateTime": 1664465332011, "trialdata": {"rt": 719, "stimulus": "<p id='stroop-text' class='stroop-red'>RED</p>", "response": "r", "stimulus-type": "congruent", "word": "red", "color": "red", "correct_response": "r", "trial_id": "stroop-trial-1-congruent-27", "trial_type": "html-keyboard-response", "trial_index": 206, "time_elapsed": 1398977, "internal_node_id": "0.0-8.0-20.0"}}, {"uniqueid": "w54260747:a26670280", "current_trial": 207, "dateTime": 1664465333188, "trialdata": {"rt": 670, "stimulus": "<p id='stroop-text' class='stroop-yellow'>SHIP</p>", "response": "y", "stimulus-type": "unrelated", "word": "SHIP", "color": "yellow", "correct_response": "y", "trial_id": "stroop-trial-1-unrelated-23", "trial_type": "html-keyboard-response", "trial_index": 207, "time_elapsed": 1400154, "internal_node_id": "0.0-8.0-21.0"}}, {"uniqueid": "w54260747:a26670280", "current_trial": 208, "dateTime": 1664465334683, "trialdata": {"rt": 986, "stimulus": "<p id='stroop-text' class='stroop-green'>BLUE</p>", "response": "g", "stimulus-type": "incongruent", "word": "blue", "color": "green", "correct_response": "g", "trial_id": "stroop-trial-1-incongruent-22", "trial_type": "html-keyboard-response", "trial_index": 208, "time_elapsed": 1401648, "internal_node_id": "0.0-8.0-22.0"}}, {"uniqueid": "w54260747:a26670280", "current_trial": 209, "dateTime": 1664465335829, "trialdata": {"rt": 638, "stimulus": "<p id='stroop-text' class='stroop-yellow'>YELLOW</p>", "response": "y", "stimulus-type": "congruent", "word": "yellow", "color": "yellow", "correct_response": "y", "trial_id": "stroop-trial-1-congruent-3", "trial_type": "html-keyboard-response", "trial_index": 209, "time_elapsed": 1402795, "internal_node_id": "0.0-8.0-23.0"}}, {"uniqueid": "w54260747:a26670280", "current_trial": 210, "dateTime": 1664465336993, "trialdata": {"rt": 661, "stimulus": "<p id='stroop-text' class='stroop-green'>GREEN</p>", "response": "g", "stimulus-type": "congruent", "word": "green", "color": "green", "correct_response": "g", "trial_id": "stroop-trial-1-congruent-12", "trial_type": "html-keyboard-response", "trial_index": 210, "time_elapsed": 1403959, "internal_node_id": "0.0-8.0-24.0"}}, {"uniqueid": "w54260747:a26670280", "current_trial": 211, "dateTime": 1664465338147, "trialdata": {"rt": 651, "stimulus": "<p id='stroop-text' class='stroop-yellow'>MONKEY</p>", "response": "y", "stimulus-type": "unrelated", "word": "MONKEY", "color": "yellow", "correct_response": "y", "trial_id": "stroop-trial-1-unrelated-1", "trial_type": "html-keyboard-response", "trial_index": 211, "time_elapsed": 1405112, "internal_node_id": "0.0-8.0-25.0"}}, {"uniqueid": "w54260747:a26670280", "current_trial": 212, "dateTime": 1664465339705, "trialdata": {"rt": 1051, "stimulus": "<p id='stroop-text' class='stroop-blue'>RED</p>", "response": "b", "stimulus-type": "incongruent", "word": "red", "color": "blue", "correct_response": "b", "trial_id": "stroop-trial-1-incongruent-29", "trial_type": "html-keyboard-response", "trial_index": 212, "time_elapsed": 1406671, "internal_node_id": "0.0-8.0-26.0"}}, {"uniqueid": "w54260747:a26670280", "current_trial": 213, "dateTime": 1664465340891, "trialdata": {"rt": 681, "stimulus": "<p id='stroop-text' class='stroop-yellow'>CHAIR</p>", "response": "y", "stimulus-type": "unrelated", "word": "CHAIR", "color": "yellow", "correct_response": "y", "trial_id": "stroop-trial-1-unrelated-14", "trial_type": "html-keyboard-response", "trial_index": 213, "time_elapsed": 1407856, "internal_node_id": "0.0-8.0-27.0"}}, {"uniqueid": "w54260747:a26670280", "current_trial": 214, "dateTime": 1664465342221, "trialdata": {"rt": 815, "stimulus": "<p id='stroop-text' class='stroop-red'>GREEN</p>", "response": "r", "stimulus-type": "incongruent", "word": "green", "color": "red", "correct_response": "r", "trial_id": "stroop-trial-1-incongruent-23", "trial_type": "html-keyboard-response", "trial_index": 214, "time_elapsed": 1409186, "internal_node_id": "0.0-8.0-28.0"}}, {"uniqueid": "w54260747:a26670280", "current_trial": 215, "dateTime": 1664465343449, "trialdata": {"rt": 719, "stimulus": "<p id='stroop-text' class='stroop-blue'>BLUE</p>", "response": "b", "stimulus-type": "congruent", "word": "blue", "color": "blue", "correct_response": "b", "trial_id": "stroop-trial-1-congruent-8", "trial_type": "html-keyboard-response", "trial_index": 215, "time_elapsed": 1410415, "internal_node_id": "0.0-8.0-29.0"}}, {"uniqueid": "w54260747:a26670280", "current_trial": 216, "dateTime": 1664465344553, "trialdata": {"rt": 600, "stimulus": "<p id='stroop-text' class='stroop-yellow'>GREEN</p>", "response": "y", "stimulus-type": "incongruent", "word": "green", "color": "yellow", "correct_response": "y", "trial_id": "stroop-trial-1-incongruent-5", "trial_type": "html-keyboard-response", "trial_index": 216, "time_elapsed": 1411519, "internal_node_id": "0.0-8.0-30.0"}}, {"uniqueid": "w54260747:a26670280", "current_trial": 217, "dateTime": 1664465345563, "trialdata": {"rt": 505, "stimulus": "<p id='stroop-text' class='stroop-yellow'>BRAIN</p>", "response": "y", "stimulus-type": "unrelated", "word": "BRAIN", "color": "yellow", "correct_response": "y", "trial_id": "stroop-trial-1-unrelated-8", "trial_type": "html-keyboard-response", "trial_index": 217, "time_elapsed": 1412528, "internal_node_id": "0.0-8.0-31.0"}}, {"uniqueid": "w54260747:a26670280", "current_trial": 218, "dateTime": 1664465346531, "trialdata": {"rt": 459, "stimulus": "<p id='stroop-text' class='stroop-yellow'>BLUE</p>", "response": "y", "stimulus-type": "incongruent", "word": "blue", "color": "yellow", "correct_response": "y", "trial_id": "stroop-trial-1-incongruent-10", "trial_type": "html-keyboard-response", "trial_index": 218, "time_elapsed": 1413496, "internal_node_id": "0.0-8.0-32.0"}}, {"uniqueid": "w54260747:a26670280", "current_trial": 219, "dateTime": 1664465347931, "trialdata": {"rt": 891, "stimulus": "<p id='stroop-text' class='stroop-blue'>WINDOW</p>", "response": "b", "stimulus-type": "unrelated", "word": "WINDOW", "color": "blue", "correct_response": "b", "trial_id": "stroop-trial-1-unrelated-30", "trial_type": "html-keyboard-response", "trial_index": 219, "time_elapsed": 1414897, "internal_node_id": "0.0-8.0-33.0"}}, {"uniqueid": "w54260747:a26670280", "current_trial": 220, "dateTime": 1664465349297, "trialdata": {"rt": 858, "stimulus": "<p id='stroop-text' class='stroop-green'>SHIP</p>", "response": "g", "stimulus-type": "unrelated", "word": "SHIP", "color": "green", "correct_response": "g", "trial_id": "stroop-trial-1-unrelated-22", "trial_type": "html-keyboard-response", "trial_index": 220, "time_elapsed": 1416263, "internal_node_id": "0.0-8.0-34.0"}}, {"uniqueid": "w54260747:a26670280", "current_trial": 221, "dateTime": 1664465350404, "trialdata": {"rt": 601, "stimulus": "<p id='stroop-text' class='stroop-yellow'>BRIDGE</p>", "response": "y", "stimulus-type": "unrelated", "word": "BRIDGE", "color": "yellow", "correct_response": "y", "trial_id": "stroop-trial-1-unrelated-21", "trial_type": "html-keyboard-response", "trial_index": 221, "time_elapsed": 1417369, "internal_node_id": "0.0-8.0-35.0"}}, {"uniqueid": "w54260747:a26670280", "current_tria