{"condition": 0, "counterbalance": 0, "assignmentId": "a40951891", "workerId": "w68254688", "hitId": "h79968172", "currenttrial": 965, "bonus": 0, "data": [{"uniqueid": "w68254688:a40951891", "current_trial": 0, "dateTime": 1664873299032, "trialdata": {"success": true, "trial_type": "fullscreen", "trial_index": 0, "time_elapsed": 5012, "internal_node_id": "0.0-0.0"}}, {"uniqueid": "w68254688:a40951891", "current_trial": 1, "dateTime": 1664873324938, "trialdata": {"view_history": [{"page_index": 0, "viewing_time": 25898}], "rt": 25899, "trial_id": "exp_instructions_distractor", "trial_type": "instructions", "trial_index": 1, "time_elapsed": 30919, "internal_node_id": "0.0-1.0"}}, {"uniqueid": "w68254688:a40951891", "current_trial": 2, "dateTime": 1664873346588, "trialdata": {"view_history": [{"page_index": 0, "viewing_time": 21646}], "rt": 21647, "trial_id": "color_game_instructions", "trial_type": "instructions", "trial_index": 2, "time_elapsed": 52569, "internal_node_id": "0.0-2.0"}}, {"uniqueid": "w68254688:a40951891", "current_trial": 3, "dateTime": 1664873351068, "trialdata": {"rt": 4478, "stimulus": "<h1> Get ready to start the game! </h1>\n\nThank you for reading the instructions. Get ready start with the first of 5 block(s) of this game.\n<br><br>\nIn this first block, you will complete 90 rounds of this game before moving on.\n<br><br>\nRemember, the better you perform, the bigger your bonus will be!\n<br><br>\n<div style='text-align: center;'>Press <code>space</code> to begin.</div>", "response": " ", "trial_id": "stroop_1_ready_1", "trial_type": "html-keyboard-response", "trial_index": 3, "time_elapsed": 57049, "internal_node_id": "0.0-3.0"}}, {"uniqueid": "w68254688:a40951891", "current_trial": 4, "dateTime": 1664873352319, "trialdata": {"rt": 1227, "stimulus": "<p id='stroop-text' class='stroop-red'>GREEN</p>", "response": "g", "stimulus-type": "incongruent", "word": "green", "color": "red", "correct_response": "r", "trial_id": "stroop-trial-1-incongruent-2", "trial_type": "html-keyboard-response", "trial_index": 4, "time_elapsed": 58299, "internal_node_id": "0.0-4.0-0.0"}}, {"uniqueid": "w68254688:a40951891", "current_trial": 5, "dateTime": 1664873354332, "trialdata": {"rt": 1511, "stimulus": "<p id='stroop-text' class='stroop-red'>RED</p>", "response": "r", "stimulus-type": "congruent", "word": "red", "color": "red", "correct_response": "r", "trial_id": "stroop-trial-1-congruent-29", "trial_type": "html-keyboard-response", "trial_index": 5, "time_elapsed": 60313, "internal_node_id": "0.0-4.0-1.0"}}, {"uniqueid": "w68254688:a40951891", "current_trial": 6, "dateTime": 1664873356413, "trialdata": {"rt": 1579, "stimulus": "<p id='stroop-text' class='stroop-blue'>DOG</p>", "response": "b", "stimulus-type": "unrelated", "word": "DOG", "color": "blue", "correct_response": "b", "trial_id": "stroop-trial-1-unrelated-18", "trial_type": "html-keyboard-response", "trial_index": 6, "time_elapsed": 62394, "internal_node_id": "0.0-4.0-2.0"}}, {"uniqueid": "w68254688:a40951891", "current_trial": 7, "dateTime": 1664873358414, "trialdata": {"rt": 1498, "stimulus": "<p id='stroop-text' class='stroop-green'>STONE</p>", "response": "g", "stimulus-type": "unrelated", "word": "STONE", "color": "green", "correct_response": "g", "trial_id": "stroop-trial-1-unrelated-8", "trial_type": "html-keyboard-response", "trial_index": 7, "time_elapsed": 64394, "internal_node_id": "0.0-4.0-3.0"}}, {"uniqueid": "w68254688:a40951891", "current_trial": 8, "dateTime": 1664873360083, "trialdata": {"rt": 1167, "stimulus": "<p id='stroop-text' class='stroop-yellow'>YELLOW</p>", "response": "y", "stimulus-type": "congruent", "word": "yellow", "color": "yellow", "correct_response": "y", "trial_id": "stroop-trial-1-congruent-6", "trial_type": "html-keyboard-response", "trial_index": 8, "time_elapsed": 66064, "internal_node_id": "0.0-4.0-4.0"}}, {"uniqueid": "w68254688:a40951891", "current_trial": 9, "dateTime": 1664873361801, "trialdata": {"rt": 1215, "stimulus": "<p id='stroop-text' class='stroop-green'>BRAIN</p>", "response": "b", "stimulus-type": "unrelated", "word": "BRAIN", "color": "green", "correct_response": "g", "trial_id": "stroop-trial-1-unrelated-27", "trial_type": "html-keyboard-response", "trial_index": 9, "time_elapsed": 67781, "internal_node_id": "0.0-4.0-5.0"}}, {"uniqueid": "w68254688:a40951891", "current_trial": 10, "dateTime": 1664873363750, "trialdata": {"rt": 1447, "stimulus": "<p id='stroop-text' class='stroop-green'>GREEN</p>", "response": "g", "stimulus-type": "congruent", "word": "green", "color": "green", "correct_response": "g", "trial_id": "stroop-trial-1-congruent-9", "trial_type": "html-keyboard-response", "trial_index": 10, "time_elapsed": 69730, "internal_node_id": "0.0-4.0-6.0"}}, {"uniqueid": "w68254688:a40951891", "current_trial": 11, "dateTime": 1664873366480, "trialdata": {"rt": 2226, "stimulus": "<p id='stroop-text' class='stroop-red'>YELLOW</p>", "response": "r", "stimulus-type": "incongruent", "word": "yellow", "color": "red", "correct_response": "r", "trial_id": "stroop-trial-1-incongruent-29", "trial_type": "html-keyboard-response", "trial_index": 11, "time_elapsed": 72460, "internal_node_id": "0.0-4.0-7.0"}}, {"uniqueid": "w68254688:a40951891", "current_trial": 12, "dateTime": 1664873368026, "trialdata": {"rt": 1044, "stimulus": "<p id='stroop-text' class='stroop-green'>GREEN</p>", "response": "g", "stimulus-type": "congruent", "word": "green", "color": "green", "correct_response": "g", "trial_id": "stroop-trial-1-congruent-5", "trial_type": "html-keyboard-response", "trial_index": 12, "time_elapsed": 74007, "internal_node_id": "0.0-4.0-8.0"}}, {"uniqueid": "w68254688:a40951891", "current_trial": 13, "dateTime": 1664873370165, "trialdata": {"rt": 1635, "stimulus": "<p id='stroop-text' class='stroop-yellow'>YELLOW</p>", "response": "y", "stimulus-type": "congruent", "word": "yellow", "color": "yellow", "correct_response": "y", "trial_id": "stroop-trial-1-congruent-17", "trial_type": "html-keyboard-response", "trial_index": 13, "time_elapsed": 76145, "internal_node_id": "0.0-4.0-9.0"}}, {"uniqueid": "w68254688:a40951891", "current_trial": 14, "dateTime": 1664873371881, "trialdata": {"rt": 1214, "stimulus": "<p id='stroop-text' class='stroop-red'>CHAIR</p>", "response": "r", "stimulus-type": "unrelated", "word": "CHAIR", "color": "red", "correct_response": "r", "trial_id": "stroop-trial-1-unrelated-12", "trial_type": "html-keyboard-response", "trial_index": 14, "time_elapsed": 77862, "internal_node_id": "0.0-4.0-10.0"}}, {"uniqueid": "w68254688:a40951891", "current_trial": 15, "dateTime": 1664873374302, "trialdata": {"rt": 1919, "stimulus": "<p id='stroop-text' class='stroop-green'>SHIP</p>", "response": "g", "stimulus-type": "unrelated", "word": "SHIP", "color": "green", "correct_response": "g", "trial_id": "stroop-trial-1-unrelated-11", "trial_type": "html-keyboard-response", "trial_index": 15, "time_elapsed": 80283, "internal_node_id": "0.0-4.0-11.0"}}, {"uniqueid": "w68254688:a40951891", "current_trial": 16, "dateTime": 1664873376100, "trialdata": {"rt": 1295, "stimulus": "<p id='stroop-text' class='stroop-blue'>CHAIR</p>", "response": "b", "stimulus-type": "unrelated", "word": "CHAIR", "color": "blue", "correct_response": "b", "trial_id": "stroop-trial-1-unrelated-23", "trial_type": "html-keyboard-response", "trial_index": 16, "time_elapsed": 82081, "internal_node_id": "0.0-4.0-12.0"}}, {"uniqueid": "w68254688:a40951891", "current_trial": 17, "dateTime": 1664873377941, "trialdata": {"rt": 1338, "stimulus": "<p id='stroop-text' class='stroop-green'>CHAIR</p>", "response": "g", "stimulus-type": "unrelated", "word": "CHAIR", "color": "green", "correct_response": "g", "trial_id": "stroop-trial-1-unrelated-9", "trial_type": "html-keyboard-response", "trial_index": 17, "time_elapsed": 83921, "internal_node_id": "0.0-4.0-13.0"}}, {"uniqueid": "w68254688:a40951891", "current_trial": 18, "dateTime": 1664873380008, "trialdata": {"rt": 1563, "stimulus": "<p id='stroop-text' class='stroop-red'>YELLOW</p>", "response": "r", "stimulus-type": "incongruent", "word": "yellow", "color": "red", "correct_response": "r", "trial_id": "stroop-trial-1-incongruent-3", "trial_type": "html-keyboard-response", "trial_index": 18, "time_elapsed": 85988, "internal_node_id": "0.0-4.0-14.0"}}, {"uniqueid": "w68254688:a40951891", "current_trial": 19, "dateTime": 1664873382060, "trialdata": {"rt": 1550, "stimulus": "<p id='stroop-text' class='stroop-yellow'>BLUE</p>", "response": "y", "stimulus-type": "incongruent", "word": "blue", "color": "yellow", "correct_response": "y", "trial_id": "stroop-trial-1-incongruent-6", "trial_type": "html-keyboard-response", "trial_index": 19, "time_elapsed": 88040, "internal_node_id": "0.0-4.0-15.0"}}, {"uniqueid": "w68254688:a40951891", "current_trial": 20, "dateTime": 1664873384784, "trialdata": {"rt": 2222, "stimulus": "<p id='stroop-text' class='stroop-green'>BLUE</p>", "response": "g", "stimulus-type": "incongruent", "word": "blue", "color": "green", "correct_response": "g", "trial_id": "stroop-trial-1-incongruent-5", "trial_type": "html-keyboard-response", "trial_index": 20, "time_elapsed": 90765, "internal_node_id": "0.0-4.0-16.0"}}, {"uniqueid": "w68254688:a40951891", "current_trial": 21, "dateTime": 1664873386481, "trialdata": {"rt": 1195, "stimulus": "<p id='stroop-text' class='stroop-red'>WINDOW</p>", "response": "r", "stimulus-type": "unrelated", "word": "WINDOW", "color": "red", "correct_response": "r", "trial_id": "stroop-trial-1-unrelated-1", "trial_type": "html-keyboard-response", "trial_index": 21, "time_elapsed": 92462, "internal_node_id": "0.0-4.0-17.0"}}, {"uniqueid": "w68254688:a40951891", "current_trial": 22, "dateTime": 1664873388736, "trialdata": {"rt": 1752, "stimulus": "<p id='stroop-text' class='stroop-green'>YELLOW</p>", "response": "g", "stimulus-type": "incongruent", "word": "yellow", "color": "green", "correct_response": "g", "trial_id": "stroop-trial-1-incongruent-7", "trial_type": "html-keyboard-response", "trial_index": 22, "time_elapsed": 94716, "internal_node_id": "0.0-4.0-18.0"}}, {"uniqueid": "w68254688:a40951891", "current_trial": 23, "dateTime": 1664873390245, "trialdata": {"rt": 1008, "stimulus": "<p id='stroop-text' class='stroop-red'>STONE</p>", "response": "r", "stimulus-type": "unrelated", "word": "STONE", "color": "red", "correct_response": "r", "trial_id": "stroop-trial-1-unrelated-16", "trial_type": "html-keyboard-response", "trial_index": 23, "time_elapsed": 96226, "internal_node_id": "0.0-4.0-19.0"}}, {"uniqueid": "w68254688:a40951891", "current_trial": 24, "dateTime": 1664873391509, "trialdata": {"rt": 763, "stimulus": "<p id='stroop-text' class='stroop-red'>RED</p>", "response": "r", "stimulus-type": "congruent", "word": "red", "color": "red", "correct_response": "r", "trial_id": "stroop-trial-1-congruent-12", "trial_type": "html-keyboard-response", "trial_index": 24, "time_elapsed": 97490, "internal_node_id": "0.0-4.0-20.0"}}, {"uniqueid": "w68254688:a40951891", "current_trial": 25, "dateTime": 1664873393682, "trialdata": {"rt": 1670, "stimulus": "<p id='stroop-text' class='stroop-yellow'>BLUE</p>", "response": "y", "stimulus-type": "incongruent", "word": "blue", "color": "yellow", "correct_response": "y", "trial_id": "stroop-trial-1-incongruent-21", "trial_type": "html-keyboard-response", "trial_index": 25, "time_elapsed": 99663, "internal_node_id": "0.0-4.0-21.0"}}, {"uniqueid": "w68254688:a40951891", "current_trial": 26, "dateTime": 1664873395179, "trialdata": {"rt": 995, "stimulus": "<p id='stroop-text' class='stroop-red'>RED</p>", "response": "r", "stimulus-type": "congruent", "word": "red", "color": "red", "correct_response": "r", "trial_id": "stroop-trial-1-congruent-13", "trial_type": "html-keyboard-response", "trial_index": 26, "time_elapsed": 101160, "internal_node_id": "0.0-4.0-22.0"}}, {"uniqueid": "w68254688:a40951891", "current_trial": 27, "dateTime": 1664873396702, "trialdata": {"rt": 1021, "stimulus": "<p id='stroop-text' class='stroop-red'>RED</p>", "response": "r", "stimulus-type": "congruent", "word": "red", "color": "red", "correct_response": "r", "trial_id": "stroop-trial-1-congruent-28", "trial_type": "html-keyboard-response", "trial_index": 27, "time_elapsed": 102682, "internal_node_id": "0.0-4.0-23.0"}}, {"uniqueid": "w68254688:a40951891", "current_trial": 28, "dateTime": 1664873398407, "trialdata": {"rt": 1203, "stimulus": "<p id='stroop-text' class='stroop-green'>GREEN</p>", "response": "g", "stimulus-type": "congruent", "word": "green", "color": "green", "correct_response": "g", "trial_id": "stroop-trial-1-congruent-30", "trial_type": "html-keyboard-response", "trial_index": 28, "time_elapsed": 104388, "internal_node_id": "0.0-4.0-24.0"}}, {"uniqueid": "w68254688:a40951891", "current_trial": 29, "dateTime": 1664873400044, "trialdata": {"rt": 1134, "stimulus": "<p id='stroop-text' class='stroop-yellow'>DOG</p>", "response": "y", "stimulus-type": "unrelated", "word": "DOG", "color": "yellow", "correct_response": "y", "trial_id": "stroop-trial-1-unrelated-21", "trial_type": "html-keyboard-response", "trial_index": 29, "time_elapsed": 106024, "internal_node_id": "0.0-4.0-25.0"}}, {"uniqueid": "w68254688:a40951891", "current_trial": 30, "dateTime": 1664873401502, "trialdata": {"rt": 955, "stimulus": "<p id='stroop-text' class='stroop-red'>BOTTLE</p>", "response": "r", "stimulus-type": "unrelated", "word": "BOTTLE", "color": "red", "correct_response": "r", "trial_id": "stroop-trial-1-unrelated-2", "trial_type": "html-keyboard-response", "trial_index": 30, "time_elapsed": 107482, "internal_node_id": "0.0-4.0-26.0"}}, {"uniqueid": "w68254688:a40951891", "current_trial": 31, "dateTime": 1664873403562, "trialdata": {"rt": 1559, "stimulus": "<p id='stroop-text' class='stroop-blue'>RED</p>", "response": "b", "stimulus-type": "incongruent", "word": "red", "color": "blue", "correct_response": "b", "trial_id": "stroop-trial-1-incongruent-10", "trial_type": "html-keyboard-response", "trial_index": 31, "time_elapsed": 109543, "internal_node_id": "0.0-4.0-27.0"}}, {"uniqueid": "w68254688:a40951891", "current_trial": 32, "dateTime": 1664873405040, "trialdata": {"rt": 976, "stimulus": "<p id='stroop-text' class='stroop-yellow'>YELLOW</p>", "response": "y", "stimulus-type": "congruent", "word": "yellow", "color": "yellow", "correct_response": "y", "trial_id": "stroop-trial-1-congruent-4", "trial_type": "html-keyboard-response", "trial_index": 32, "time_elapsed": 111021, "internal_node_id": "0.0-4.0-28.0"}}, {"uniqueid": "w68254688:a40951891", "current_trial": 33, "dateTime": 1664873406467, "trialdata": {"rt": 925, "stimulus": "<p id='stroop-text' class='stroop-green'>GREEN</p>", "response": "g", "stimulus-type": "congruent", "word": "green", "color": "green", "correct_response": "g", "trial_id": "stroop-trial-1-congruent-23", "trial_type": "html-keyboard-response", "trial_index": 33, "time_elapsed": 112448, "internal_node_id": "0.0-4.0-29.0"}}, {"uniqueid": "w68254688:a40951891", "current_trial": 34, "dateTime": 1664873408338, "trialdata": {"rt": 1368, "stimulus": "<p id='stroop-text' class='stroop-blue'>BLUE</p>", "response": "b", "stimulus-type": "congruent", "word": "blue", "color": "blue", "correct_response": "b", "trial_id": "stroop-trial-1-congruent-21", "trial_type": "html-keyboard-response", "trial_index": 34, "time_elapsed": 114319, "internal_node_id": "0.0-4.0-30.0"}}, {"uniqueid": "w68254688:a40951891", "current_trial": 35, "dateTime": 1664873410467, "trialdata": {"rt": 1626, "stimulus": "<p id='stroop-text' class='stroop-blue'>BLUE</p>", "response": "b", "stimulus-type": "congruent", "word": "blue", "color": "blue", "correct_response": "b", "trial_id": "stroop-trial-1-congruent-3", "trial_type": "html-keyboard-response", "trial_index": 35, "time_elapsed": 116447, "internal_node_id": "0.0-4.0-31.0"}}, {"uniqueid": "w68254688:a40951891", "current_trial": 36, "dateTime": 1664873412771, "trialdata": {"rt": 1802, "stimulus": "<p id='stroop-text' class='stroop-red'>WINDOW</p>", "response": "r", "stimulus-type": "unrelated", "word": "WINDOW", "color": "red", "correct_response": "r", "trial_id": "stroop-trial-1-unrelated-3", "trial_type": "html-keyboard-response", "trial_index": 36, "time_elapsed": 118752, "internal_node_id": "0.0-4.0-32.0"}}, {"uniqueid": "w68254688:a40951891", "current_trial": 37, "dateTime": 1664873415812, "trialdata": {"rt": 2539, "stimulus": "<p id='stroop-text' class='stroop-red'>GREEN</p>", "response": "r", "stimulus-type": "incongruent", "word": "green", "color": "red", "correct_response": "r", "trial_id": "stroop-trial-1-incongruent-15", "trial_type": "html-keyboard-response", "trial_index": 37, "time_elapsed": 121793, "internal_node_id": "0.0-4.0-33.0"}}, {"uniqueid": "w68254688:a40951891", "current_trial": 38, "dateTime": 1664873417584, "trialdata": {"rt": 1270, "stimulus": "<p id='stroop-text' class='stroop-blue'>WINDOW</p>", "response": "b", "stimulus-type": "unrelated", "word": "WINDOW", "color": "blue", "correct_response": "b", "trial_id": "stroop-trial-1-unrelated-4", "trial_type": "html-keyboard-response", "trial_index": 38, "time_elapsed": 123565, "internal_node_id": "0.0-4.0-34.0"}}, {"uniqueid": "w68254688:a40951891", "current_trial": 39, "dateTime": 1664873419042, "trialdata": {"rt": 957, "stimulus": "<p id='stroop-text' class='stroop-green'>GREEN</p>", "response": "g", "stimulus-type": "congruent", "word": "green", "color": "green", "correct_response": "g", "trial_id": "stroop-trial-1-congruent-25", "trial_type": "html-keyboard-response", "trial_index": 39, "time_elapsed": 125023, "internal_node_id": "0.0-4.0-35.0"}}, {"uniqueid": "w68254688:a40951891", "current_trial": 40, "dateTime": 1664873420431, "trialdata": {"rt": 887, "stimulus": "<p id='stroop-text' class='stroop-green'>BOAT</p>", "response": "g", "stimulus-type": "unrelated", "word": "BOAT", "color": "green", "correct_response": "g", "trial_id": "stroop-trial-1-unrelated-20", "trial_type": "html-keyboard-response", "trial_index": 40, "time_elapsed": 126412, "internal_node_id": "0.0-4.0-36.0"}}, {"uniqueid": "w68254688:a40951891", "current_trial": 41, "dateTime": 1664873421657, "trialdata": {"rt": 723, "stimulus": "<p id='stroop-text' class='stroop-green'>RED</p>", "response": "g", "stimulus-type": "incongruent", "word": "red", "color": "green", "correct_response": "g", "trial_id": "stroop-trial-1-incongruent-17", "trial_type": "html-keyboard-response", "trial_index": 41, "time_elapsed": 127638, "internal_node_id": "0.0-4.0-37.0"}}, {"uniqueid": "w68254688:a40951891", "current_trial": 42, "dateTime": 1664873423260, "trialdata": {"rt": 1100, "stimulus": "<p id='stroop-text' class='stroop-green'>YELLOW</p>", "response": "g", "stimulus-type": "incongruent", "word": "yellow", "color": "green", "correct_response": "g", "trial_id": "stroop-trial-1-incongruent-9", "trial_type": "html-keyboard-response", "trial_index": 42, "time_elapsed": 129241, "internal_node_id": "0.0-4.0-38.0"}}, {"uniqueid": "w68254688:a40951891", "current_trial": 43, "dateTime": 1664873424993, "trialdata": {"rt": 1230, "stimulus": "<p id='stroop-text' class='stroop-yellow'>BLUE</p>", "response": "y", "stimulus-type": "incongruent", "word": "blue", "color": "yellow", "correct_response": "y", "trial_id": "stroop-trial-1-incongruent-4", "trial_type": "html-keyboard-response", "trial_index": 43, "time_elapsed": 130973, "internal_node_id": "0.0-4.0-39.0"}}, {"uniqueid": "w68254688:a40951891", "current_trial": 44, "dateTime": 1664873426347, "trialdata": {"rt": 852, "stimulus": "<p id='stroop-text' class='stroop-yellow'>WINDOW</p>", "response": "y", "stimulus-type": "unrelated", "word": "WINDOW", "color": "yellow", "correct_response": "y", "trial_id": "stroop-trial-1-unrelated-26", "trial_type": "html-keyboard-response", "trial_index": 44, "time_elapsed": 132328, "internal_node_id": "0.0-4.0-40.0"}}, {"uniqueid": "w68254688:a40951891", "current_trial": 45, "dateTime": 1664873428058, "trialdata": {"rt": 1209, "stimulus": "<p id='stroop-text' class='stroop-blue'>YELLOW</p>", "response": "b", "stimulus-type": "incongruent", "word": "yellow", "color": "blue", "correct_response": "b", "trial_id": "stroop-trial-1-incongruent-1", "trial_type": "html-keyboard-response", "trial_index": 45, "time_elapsed": 134039, "internal_node_id": "0.0-4.0-41.0"}}, {"uniqueid": "w68254688:a40951891", "current_trial": 46, "dateTime": 1664873429816, "trialdata": {"rt": 1256, "stimulus": "<p id='stroop-text' class='stroop-red'>BLUE</p>", "response": "r", "stimulus-type": "incongruent", "word": "blue", "color": "red", "correct_response": "r", "trial_id": "stroop-trial-1-incongruent-27", "trial_type": "html-keyboard-response", "trial_index": 46, "time_elapsed": 135797, "internal_node_id": "0.0-4.0-42.0"}}, {"uniqueid": "w68254688:a40951891", "current_trial": 47, "dateTime": 1664873431553, "trialdata": {"rt": 1234, "stimulus": "<p id='stroop-text' class='stroop-yellow'>GREEN</p>", "response": "y", "stimulus-type": "incongruent", "word": "green", "color": "yellow", "correct_response": "y", "trial_id": "stroop-trial-1-incongruent-23", "trial_type": "html-keyboard-response", "trial_index": 47, "time_elapsed": 137534, "internal_node_id": "0.0-4.0-43.0"}}, {"uniqueid": "w68254688:a40951891", "current_trial": 48, "dateTime": 1664873433278, "trialdata": {"rt": 1222, "stimulus": "<p id='stroop-text' class='stroop-green'>GREEN</p>", "response": "g", "stimulus-type": "congruent", "word": "green", "color": "green", "correct_response": "g", "trial_id": "stroop-trial-1-congruent-15", "trial_type": "html-keyboard-response", "trial_index": 48, "time_elapsed": 139259, "internal_node_id": "0.0-4.0-44.0"}}, {"uniqueid": "w68254688:a40951891", "current_trial": 49, "dateTime": 1664873434861, "trialdata": {"rt": 1080, "stimulus": "<p id='stroop-text' class='stroop-blue'>WINDOW</p>", "response": "b", "stimulus-type": "unrelated", "word": "WINDOW", "color": "blue", "correct_response": "b", "trial_id": "stroop-trial-1-unrelated-7", "trial_type": "html-keyboard-response", "trial_index": 49, "time_elapsed": 140842, "internal_node_id": "0.0-4.0-45.0"}}, {"uniqueid": "w68254688:a40951891", "current_trial": 50, "dateTime": 1664873436962, "trialdata": {"rt": 1598, "stimulus": "<p id='stroop-text' class='stroop-green'>BOAT</p>", "response": "g", "stimulus-type": "unrelated", "word": "BOAT", "color": "green", "correct_response": "g", "trial_id": "stroop-trial-1-unrelated-14", "trial_type": "html-keyboard-response", "trial_index": 50, "time_elapsed": 142943, "internal_node_id": "0.0-4.0-46.0"}}, {"uniqueid": "w68254688:a40951891", "current_trial": 51, "dateTime": 1664873438395, "trialdata": {"rt": 931, "stimulus": "<p id='stroop-text' class='stroop-green'>GREEN</p>", "response": "g", "stimulus-type": "congruent", "word": "green", "color": "green", "correct_response": "g", "trial_id": "stroop-trial-1-congruent-8", "trial_type": "html-keyboard-response", "trial_index": 51, "time_elapsed": 144376, "internal_node_id": "0.0-4.0-47.0"}}, {"uniqueid": "w68254688:a40951891", "current_trial": 52, "dateTime": 1664873439796, "trialdata": {"rt": 898, "stimulus": "<p id='stroop-text' class='stroop-red'>RED</p>", "response": "r", "stimulus-type": "congruent", "word": "red", "color": "red", "correct_response": "r", "trial_id": "stroop-trial-1-congruent-7", "trial_type": "html-keyboard-response", "trial_index": 52, "time_elapsed": 145777, "internal_node_id": "0.0-4.0-48.0"}}, {"uniqueid": "w68254688:a40951891", "current_trial": 53, "dateTime": 1664873441322, "trialdata": {"rt": 1023, "stimulus": "<p id='stroop-text' class='stroop-blue'>BOTTLE</p>", "response": "b", "stimulus-type": "unrelated", "word": "BOTTLE", "color": "blue", "correct_response": "b", "trial_id": "stroop-trial-1-unrelated-13", "trial_type": "html-keyboard-response", "trial_index": 53, "time_elapsed": 147302, "internal_node_id": "0.0-4.0-49.0"}}, {"uniqueid": "w68254688:a40951891", "current_trial": 54, "dateTime": 1664873442732, "trialdata": {"rt": 903, "stimulus": "<p id='stroop-text' class='stroop-blue'>GREEN</p>", "response": "b", "stimulus-type": "incongruent", "word": "green", "color": "blue", "correct_response": "b", "trial_id": "stroop-trial-1-incongruent-12", "trial_type": "html-keyboard-response", "trial_index": 54, "time_elapsed": 148713, "internal_node_id": "0.0-4.0-50.0"}}, {"uniqueid": "w68254688:a40951891", "current_trial": 55, "dateTime": 1664873443785, "trialdata": {"rt": 549, "stimulus": "<p id='stroop-text' class='stroop-blue'>YELLOW</p>", "response": "b", "stimulus-type": "incongruent", "word": "yellow", "color": "blue", "correct_response": "b", "trial_id": "stroop-trial-1-incongruent-30", "trial_type": "html-keyboard-response", "trial_index": 55, "time_elapsed": 149766, "internal_node_id": "0.0-4.0-51.0"}}, {"uniqueid": "w68254688:a40951891", "current_trial": 56, "dateTime": 1664873445177, "trialdata": {"rt": 889, "stimulus": "<p id='stroop-text' class='stroop-red'>RED</p>", "response": "r", "stimulus-type": "congruent", "word": "red", "color": "red", "correct_response": "r", "trial_id": "stroop-trial-1-congruent-24", "trial_type": "html-keyboard-response", "trial_index": 56, "time_elapsed": 151158, "internal_node_id": "0.0-4.0-52.0"}}, {"uniqueid": "w68254688:a40951891", "current_trial": 57, "dateTime": 1664873446788, "trialdata": {"rt": 1106, "stimulus": "<p id='stroop-text' class='stroop-green'>BOAT</p>", "response": "g", "stimulus-type": "unrelated", "word": "BOAT", "color": "green", "correct_response": "g", "trial_id": "stroop-trial-1-unrelated-17", "trial_type": "html-keyboard-response", "trial_index": 57, "time_elapsed": 152768, "internal_node_id": "0.0-4.0-53.0"}}, {"uniqueid": "w68254688:a40951891", "current_trial": 58, "dateTime": 1664873447899, "trialdata": {"rt": 608, "stimulus": "<p id='stroop-text' class='stroop-green'>GREEN</p>", "response": "g", "stimulus-type": "congruent", "word": "green", "color": "green", "correct_response": "g", "trial_id": "stroop-trial-1-congruent-2", "trial_type": "html-keyboard-response", "trial_index": 58, "time_elapsed": 153880, "internal_node_id": "0.0-4.0-54.0"}}, {"uniqueid": "w68254688:a40951891", "current_trial": 59, "dateTime": 1664873449100, "trialdata": {"rt": 696, "stimulus": "<p id='stroop-text' class='stroop-green'>YELLOW</p>", "response": "g", "stimulus-type": "incongruent", "word": "yellow", "color": "green", "correct_response": "g", "trial_id": "stroop-trial-1-incongruent-25", "trial_type": "html-keyboard-response", "trial_index": 59, "time_elapsed": 155081, "internal_node_id": "0.0-4.0-55.0"}}, {"uniqueid": "w68254688:a40951891", "current_trial": 60, "dateTime": 1664873450232, "trialdata": {"rt": 630, "stimulus": "<p id='stroop-text' class='stroop-green'>GREEN</p>", "response": "g", "stimulus-type": "congruent", "word": "green", "color": "green", "correct_response": "g", "trial_id": "stroop-trial-1-congruent-1", "trial_type": "html-keyboard-response", "trial_index": 60, "time_elapsed": 156213, "internal_node_id": "0.0-4.0-56.0"}}, {"uniqueid": "w68254688:a40951891", "current_trial": 61, "dateTime": 1664873451929, "trialdata": {"rt": 1190, "stimulus": "<p id='stroop-text' class='stroop-yellow'>DOG</p>", "response": "y", "stimulus-type": "unrelated", "word": "DOG", "color": "yellow", "correct_response": "y", "trial_id": "stroop-trial-1-unrelated-10", "trial_type": "html-keyboard-response", "trial_index": 61, "time_elapsed": 157909, "internal_node_id": "0.0-4.0-57.0"}}, {"uniqueid": "w68254688:a40951891", "current_trial": 62, "dateTime": 1664873453340, "trialdata": {"rt": 907, "stimulus": "<p id='stroop-text' class='stroop-red'>BOAT</p>", "response": "r", "stimulus-type": "unrelated", "word": "BOAT", "color": "red", "correct_response": "r", "trial_id": "stroop-trial-1-unrelated-30", "trial_type": "html-keyboard-response", "trial_index": 62, "time_elapsed": 159321, "internal_node_id": "0.0-4.0-58.0"}}, {"uniqueid": "w68254688:a40951891", "current_trial": 63, "dateTime": 1664873454816, "trialdata": {"rt": 972, "stimulus": "<p id='stroop-text' class='stroop-yellow'>YELLOW</p>", "response": "y", "stimulus-type": "congruent", "word": "yellow", "color": "yellow", "correct_response": "y", "trial_id": "stroop-trial-1-congruent-20", "trial_type": "html-keyboard-response", "trial_index": 63, "time_elapsed": 160797, "internal_node_id": "0.0-4.0-59.0"}}, {"uniqueid": "w68254688:a40951891", "current_trial": 64, "dateTime": 1664873456161, "trialdata": {"rt": 841, "stimulus": "<p id='stroop-text' class='stroop-red'>MONKEY</p>", "response": "r", "stimulus-type": "unrelated", "word": "MONKEY", "color": "red", "correct_response": "r", "trial_id": "stroop-trial-1-unrelated-5", "trial_type": "html-keyboard-response", "trial_index": 64, "time_elapsed": 162142, "internal_node_id": "0.0-4.0-60.0"}}, {"uniqueid": "w68254688:a40951891", "current_trial": 65, "dateTime": 1664873457777, "trialdata": {"rt": 1112, "stimulus": "<p id='stroop-text' class='stroop-red'>GREEN</p>", "response": "r", "stimulus-type": "incongruent", "word": "green", "color": "red", "correct_response": "r", "trial_id": "stroop-trial-1-incongruent-8", "trial_type": "html-keyboard-response", "trial_index": 65, "time_elapsed": 163757, "internal_node_id": "0.0-4.0-61.0"}}, {"uniqueid": "w68254688:a40951891", "current_trial": 66, "dateTime": 1664873459534, "trialdata": {"rt": 1252, "stimulus": "<p id='stroop-text' class='stroop-yellow'>BOAT</p>", "response": "y", "stimulus-type": "unrelated", "word": "BOAT", "color": "yellow", "correct_response": "y", "trial_id": "stroop-trial-1-unrelated-19", "trial_type": "html-keyboard-response", "trial_index": 66, "time_elapsed": 165514, "internal_node_id": "0.0-4.0-62.0"}}, {"uniqueid": "w68254688:a40951891", "current_trial": 67, "dateTime": 1664873461123, "trialdata": {"rt": 1082, "stimulus": "<p id='stroop-text' class='stroop-green'>DOG</p>", "response": "g", "stimulus-type": "unrelated", "word": "DOG", "color": "green", "correct_response": "g", "trial_id": "stroop-trial-1-unrelated-25", "trial_type": "html-keyboard-response", "trial_index": 67, "time_elapsed": 167104, "internal_node_id": "0.0-4.0-63.0"}}, {"uniqueid": "w68254688:a40951891", "current_trial": 68, "dateTime": 1664873462936, "trialdata": {"rt": 1309, "stimulus": "<p id='stroop-text' class='stroop-red'>GREEN</p>", "response": "r", "stimulus-type": "incongruent", "word": "green", "color": "red", "correct_response": "r", "trial_id": "stroop-trial-1-incongruent-19", "trial_type": "html-keyboard-response", "trial_index": 68, "time_elapsed": 168917, "internal_node_id": "0.0-4.0-64.0"}}, {"uniqueid": "w68254688:a40951891", "current_trial": 69, "dateTime": 1664873464262, "trialdata": {"rt": 820, "stimulus": "<p id='stroop-text' class='stroop-red'>RED</p>", "response": "r", "stimulus-type": "congruent", "word": "red", "color": "red", "correct_response": "r", "trial_id": "stroop-trial-1-congruent-11", "trial_type": "html-keyboard-response", "trial_index": 69, "time_elapsed": 170243, "internal_node_id": "0.0-4.0-65.0"}}, {"uniqueid": "w68254688:a40951891", "current_trial": 70, "dateTime": 1664873466068, "trialdata": {"rt": 1301, "stimulus": "<p id='stroop-text' class='stroop-blue'>RED</p>", "response": "b", "stimulus-type": "incongruent", "word": "red", "color": "blue", "correct_response": "b", "trial_id": "stroop-trial-1-incongruent-24", "trial_type": "html-keyboard-response", "trial_index": 70, "time_elapsed": 172049, "internal_node_id": "0.0-4.0-66.0"}}, {"uniqueid": "w68254688:a40951891", "current_trial": 71, "dateTime": 1664873467608, "trialdata": {"rt": 1034, "stimulus": "<p id='stroop-text' class='stroop-yellow'>BLUE</p>", "response": "y", "stimulus-type": "incongruent", "word": "blue", "color": "yellow", "correct_response": "y", "trial_id": "stroop-trial-1-incongruent-11", "trial_type": "html-keyboard-response", "trial_index": 71, "time_elapsed": 173588, "internal_node_id": "0.0-4.0-67.0"}}, {"uniqueid": "w68254688:a40951891", "current_trial": 72, "dateTime": 1664873468862, "trialdata": {"rt": 749, "stimulus": "<p id='stroop-text' class='stroop-yellow'>YELLOW</p>", "response": "y", "stimulus-type": "congruent", "word": "yellow", "color": "yellow", "correct_response": "y", "trial_id": "stroop-trial-1-congruent-27", "trial_type": "html-keyboard-response", "trial_index": 72, "time_elapsed": 174843, "internal_node_id": "0.0-4.0-68.0"}}, {"uniqueid": "w68254688:a40951891", "current_trial": 73, "dateTime": 1664873470921, "trialdata": {"rt": 1551, "stimulus": "<p id='stroop-text' class='stroop-red'>YELLOW</p>", "response": "r", "stimulus-type": "incongruent", "word": "yellow", "color": "red", "correct_response": "r", "trial_id": "stroop-trial-1-incongruent-22", "trial_type": "html-keyboard-response", "trial_index": 73, "time_elapsed": 176902, "internal_node_id": "0.0-4.0-69.0"}}, {"uniqueid": "w68254688:a40951891", "current_trial": 74, "dateTime": 1664873472469, "trialdata": {"rt": 1043, "stimulus": "<p id='stroop-text' class='stroop-yellow'>RED</p>", "response": "y", "stimulus-type": "incongruent", "word": "red", "color": "yellow", "correct_response": "y", "trial_id": "stroop-trial-1-incongruent-26", "trial_type": "html-keyboard-response", "trial_index": 74, "time_elapsed": 178450, "internal_node_id": "0.0-4.0-70.0"}}, {"uniqueid": "w68254688:a40951891", "current_trial": 75, "dateTime": 1664873473995, "trialdata": {"rt": 1022, "stimulus": "<p id='stroop-text' class='stroop-blue'>BLUE</p>", "response": "b", "stimulus-type": "congruent", "word": "blue", "color": "blue", "correct_response": "b", "trial_id": "stroop-trial-1-congruent-19", "trial_type": "html-keyboard-response", "trial_index": 75, "time_elapsed": 179976, "internal_node_id": "0.0-4.0-71.0"}}, {"uniqueid": "w68254688:a40951891", "current_trial": 76, "dateTime": 1664873475347, "trialdata": {"rt": 847, "stimulus": "<p id='stroop-text' class='stroop-yellow'>YELLOW</p>", "response": "y", "stimulus-type": "congruent", "word": "yellow", "color": "yellow", "correct_response": "y", "trial_id": "stroop-trial-1-congruent-22", "trial_type": "html-keyboard-response", "trial_index": 76, "time_elapsed": 181328, "internal_node_id": "0.0-4.0-72.0"}}, {"uniqueid": "w68254688:a40951891", "current_trial": 77, "dateTime": 1664873477026, "trialdata": {"rt": 1174, "stimulus": "<p id='stroop-text' class='stroop-blue'>YELLOW</p>", "response": "b", "stimulus-type": "incongruent", "word": "yellow", "color": "blue", "correct_response": "b", "trial_id": "stroop-trial-1-incongruent-16", "trial_type": "html-keyboard-response", "trial_index": 77, "time_elapsed": 183006, "internal_node_id": "0.0-4.0-73.0"}}, {"uniqueid": "w68254688:a40951891", "current_trial": 78, "dateTime": 1664873479345, "trialdata": {"rt": 1812, "stimulus": "<p id='stroop-text' class='stroop-yellow'>BLUE</p>", "response": "y", "stimulus-type": "incongruent", "word": "blue", "color": "yellow", "correct_response": "y", "trial_id": "stroop-trial-1-incongruent-13", "trial_type": "html-keyboard-response", "trial_index": 78, "time_elapsed": 185326, "internal_node_id": "0.0-4.0-74.0"}}, {"uniqueid": "w68254688:a40951891", "current_trial": 79, "dateTime": 1664873480883, "trialdata": {"rt": 1032, "stimulus": "<p id='stroop-text' class='stroop-red'>GREEN</p>", "response": "r", "stimulus-type": "incongruent", "word": "green", "color": "red", "correct_response": "r", "trial_id": "stroop-trial-1-incongruent-20", "trial_type": "html-keyboard-response", "trial_index": 79, "time_elapsed": 186864, "internal_node_id": "0.0-4.0-75.0"}}, {"uniqueid": "w68254688:a40951891", "current_trial": 80, "dateTime": 1664873482867, "trialdata": {"rt": 1480, "stimulus": "<p id='stroop-text' class='stroop-yellow'>YELLOW</p>", "response": "y", "stimulus-type": "congruent", "word": "yellow", "color": "yellow", "correct_response": "y", "trial_id": "stroop-trial-1-congruent-16", "trial_type": "html-keyboard-response", "trial_index": 80, "time_elapsed": 188848, "internal_node_id": "0.0-4.0-76.0"}}, {"uniqueid": "w68254688:a40951891", "current_trial": 81, "dateTime": 1664873484367, "trialdata": {"rt": 995, "stimulus": "<p id='stroop-text' class='stroop-blue'>YELLOW</p>", "response": "b", "stimulus-type": "incongruent", "word": "yellow", "color": "blue", "correct_response": "b", "trial_id": "stroop-trial-1-incongruent-28", "trial_type": "html-keyboard-response", "trial_index": 81, "time_elapsed": 190348, "internal_node_id": "0.0-4.0-77.0"}}, {"uniqueid": "w68254688:a40951891", "current_trial": 82, "dateTime": 1664873485900, "trialdata": {"rt": 1027, "stimulus": "<p id='stroop-text' class='stroop-blue'>SHIP</p>", "response": "b", "stimulus-type": "unrelated", "word": "SHIP", "color": "blue", "correct_response": "b", "trial_id": "stroop-trial-1-unrelated-29", "trial_type": "html-keyboard-response", "trial_index": 82, "time_elapsed": 191881, "internal_node_id": "0.0-4.0-78.0"}}, {"uniqueid": "w68254688:a40951891", "current_trial": 83, "dateTime": 1664873487692, "trialdata": {"rt": 1287, "stimulus": "<p id='stroop-text' class='stroop-green'>BOAT</p>", "response": "g", "stimulus-type": "unrelated", "word": "BOAT", "color": "green", "correct_response": "g", "trial_id": "stroop-trial-1-unrelated-6", "trial_type": "html-keyboard-response", "trial_index": 83, "time_elapsed": 193672, "internal_node_id": "0.0-4.0-79.0"}}, {"uniqueid": "w68254688:a40951891", "current_trial": 84, "dateTime": 1664873489861, "trialdata": {"rt": 1664, "stimulus": "<p id='stroop-text' class='stroop-yellow'>CHAIR</p>", "response": "y", "stimulus-type": "unrelated", "word": "CHAIR", "color": "yellow", "correct_response": "y", "trial_id": "stroop-trial-1-unrelated-24", "trial_type": "html-keyboard-response", "trial_index": 84, "time_elapsed": 195842, "internal_node_id": "0.0-4.0-80.0"}}, {"uniqueid": "w68254688:a40951891", "current_trial": 85, "dateTime": 1664873491472, "trialdata": {"rt": 1106, "stimulus": "<p id='stroop-text' class='stroop-green'>GREEN</p>", "response": "g", "stimulus-type": "congruent", "word": "green", "color": "green", "correct_response": "g", "trial_id": "stroop-trial-1-congruent-18", "trial_type": "html-keyboard-response", "trial_index": 85, "time_elapsed": 197452, "internal_node_id": "0.0-4.0-81.0"}}, {"uniqueid": "w68254688:a40951891", "current_trial": 86, "dateTime": 1664873492999, "trialdata": {"rt": 1022, "stimulus": "<p id='stroop-text' class='stroop-green'>RED</p>", "response": "g", "stimulus-type": "incongruent", "word": "red", "color": "green", "correct_response": "g", "trial_id": "stroop-trial-1-incongruent-14", "trial_type": "html-keyboard-response", "trial_index": 86, "time_elapsed": 198979, "internal_node_id": "0.0-4.0-82.0"}}, {"uniqueid": "w68254688:a40951891", "current_trial": 87, "dateTime": 1664873494665, "trialdata": {"rt": 1157, "stimulus": "<p id='stroop-text' class='stroop-red'>GREEN</p>", "response": "r", "stimulus-type": "incongruent", "word": "green", "color": "red", "correct_response": "r", "trial_id": "stroop-trial-1-incongruent-18", "trial_type": "html-keyboard-response", "trial_index": 87, "time_elapsed": 200646, "internal_node_id": "0.0-4.0-83.0"}}, {"uniqueid": "w68254688:a40951891", "current_trial": 88, "dateTime": 1664873496307, "trialdata": {"rt": 1137, "stimulus": "<p id='stroop-text' class='stroop-red'>RED</p>", "response": "r", "stimulus-type": "congruent", "word": "red", "color": "red", "correct_response": "r", "trial_id": "stroop-trial-1-congruent-14", "trial_type": "html-keyboard-response", "trial_index": 88, "time_elapsed": 202287, "internal_node_id": "0.0-4.0-84.0"}}, {"uniqueid": "w68254688:a40951891", "current_trial": 89, "dateTime": 1664873500372, "trialdata": {"rt": 3560, "stimulus": "<p id='stroop-text' class='stroop-yellow'>YELLOW</p>", "response": "y", "stimulus-type": "congruent", "word": "yellow", "color": "yellow", "correct_response": "y", "trial_id": "stroop-trial-1-congruent-10", "trial_type": "html-keyboard-response", "trial_index": 89, "time_elapsed": 206353, "internal_node_id": "0.0-4.0-85.0"}}, {"uniqueid": "w68254688:a40951891", "current_trial": 90, "dateTime": 1664873501839, "trialdata": {"rt": 962, "stimulus": "<p id='stroop-text' class='stroop-yellow'>WINDOW</p>", "response": "y", "stimulus-type": "unrelated", "word": "WINDOW", "color": "yellow", "correct_response": "y", "trial_id": "stroop-trial-1-unrelated-22", "trial_type": "html-keyboard-response", "trial_index": 90, "time_elapsed": 207820, "internal_node_id": "0.0-4.0-86.0"}}, {"uniqueid": "w68254688:a40951891", "current_trial": 91, "dateTime": 1664873503150, "trialdata": {"rt": 807, "stimulus": "<p id='stroop-text' class='stroop-yellow'>FORK</p>", "response": "y", "stimulus-type": "unrelated", "word": "FORK", "color": "yellow", "correct_response": "y", "trial_id": "stroop-trial-1-unrelated-28", "trial_type": "html-keyboard-response", "trial_index": 91, "time_elapsed": 209131, "internal_node_id": "0.0-4.0-87.0"}}, {"uniqueid": "w68254688:a40951891", "current_trial": 92, "dateTime": 1664873504968, "trialdata": {"rt": 1310, "stimulus": "<p id='stroop-text' class='stroop-blue'>MONKEY</p>", "response": "b", "stimulus-type": "unrelated", "word": "MONKEY", "color": "blue", "correct_response": "b", "trial_id": "stroop-trial-1-unrelated-15", "trial_type": "html-keyboard-response", "trial_index": 92, "time_elapsed": 210949, "internal_node_id": "0.0-4.0-88.0"}}, {"uniqueid": "w68254688:a40951891", "current_trial": 93, "dateTime": 1664873506014, "trialdata": {"rt": 541, "stimulus": "<p id='stroop-text' class='stroop-blue'>BLUE</p>", "response": "b", "stimulus-type": "congruent", "word": "blue", "color": "blue", "correct_response": "b", "trial_id": "stroop-trial-1-congruent-26", "trial_type": "html-keyboard-response", "trial_index": 93, "time_elapsed": 211994, "internal_node_id": "0.0-4.0-89.0"}}, {"uniqueid": "w68254688:a40951891", "current_trial": 94, "dateTime": 1664873512512, "trialdata": {"rt": 5990, "stimulus": "  <h1> End of block! </h1>\n\n  You have reached the end of the block 1/5. If you need a short break, feel free to take one now before moving on.\n\n  <br><br>\n  In the next block, you will complete another 90 rounds of this game.\n\n  <br><br>\n  <div style='text-align: center;'>Press <code>space</code> to begin.</div>\n  <br><br>\n<div style='text-align: center;'>(If the experiment doesn't continue, try clicking on the text and then pressing <code>space</code>.)</div>", "response": " ", "trial_id": "stroop_1_ready_2", "trial_type": "html-keyboard-response", "trial_index": 94, "time_elapsed": 218493, "internal_node_id": "0.0-5.0"}}, {"uniqueid": "w68254688:a40951891", "current_trial": 95, "dateTime": 1664873513655, "trialdata": {"rt": 1137, "stimulus": "<p id='stroop-text' class='stroop-blue'>YELLOW</p>", "response": "b", "stimulus-type": "incongruent", "word": "yellow", "color": "blue", "correct_response": "b", "trial_id": "stroop-trial-1-incongruent-4", "trial_type": "html-keyboard-response", "trial_index": 95, "time_elapsed": 219636, "internal_node_id": "0.0-6.0-0.0"}}, {"uniqueid": "w68254688:a40951891", "current_trial": 96, "dateTime": 1664873514904, "trialdata": {"rt": 741, "stimulus": "<p id='stroop-text' class='stroop-blue'>BLUE</p>", "response": "b", "stimulus-type": "congruent", "word": "blue", "color": "blue", "correct_response": "b", "trial_id": "stroop-trial-1-congruent-21", "trial_type": "html-keyboard-response", "trial_index": 96, "time_elapsed": 220885, "internal_node_id": "0.0-6.0-1.0"}}, {"uniqueid": "w68254688:a40951891", "current_trial": 97, "dateTime": 1664873516738, "trialdata": {"rt": 1329, "stimulus": "<p id='stroop-text' class='stroop-yellow'>GREEN</p>", "response": "y", "stimulus-type": "incongruent", "word": "green", "color": "yellow", "correct_response": "y", "trial_id": "stroop-trial-1-incongruent-5", "trial_type": "html-keyboard-response", "trial_index": 97, "time_elapsed": 222719, "internal_node_id": "0.0-6.0-2.0"}}, {"uniqueid": "w68254688:a40951891", "current_trial": 98, "dateTime": 1664873518189, "trialdata": {"rt": 947, "stimulus": "<p id='stroop-text' class='stroop-yellow'>BOAT</p>", "response": "y", "stimulus-type": "unrelated", "word": "BOAT", "color": "yellow", "correct_response": "y", "trial_id": "stroop-trial-1-unrelated-21", "trial_type": "html-keyboard-response", "trial_index": 98, "time_elapsed": 224170, "internal_node_id": "0.0-6.0-3.0"}}, {"uniqueid": "w68254688:a40951891", "current_trial": 99, "dateTime": 1664873519270, "trialdata": {"rt": 576, "stimulus": "<p id='stroop-text' class='stroop-yellow'>YELLOW</p>", "response": "y", "stimulus-type": "congruent", "word": "yellow", "color": "yellow", "correct_response": "y", "trial_id": "stroop-trial-1-congruent-4", "trial_type": "html-keyboard-response", "trial_index": 99, "time_elapsed": 225250, "internal_node_id": "0.0-6.0-4.0"}}, {"uniqueid": "w68254688:a40951891", "current_trial": 100, "dateTime": 1664873520813, "trialdata": {"rt": 1037, "stimulus": "<p id='stroop-text' class='stroop-blue'>BRIDGE</p>", "response": "b", "stimulus-type": "unrelated", "word": "BRIDGE", "color": "blue", "correct_response": "b", "trial_id": "stroop-trial-1-unrelated-10", "trial_type": "html-keyboard-response", "trial_index": 100, "time_elapsed": 226793, "internal_node_id": "0.0-6.0-5.0"}}, {"uniqueid": "w68254688:a40951891", "current_trial": 101, "dateTime": 1664873522318, "trialdata": {"rt": 998, "stimulus": "<p id='stroop-text' class='stroop-red'>RED</p>", "response": "r", "stimulus-type": "congruent", "word": "red", "color": "red", "correct_response": "r", "trial_id": "stroop-trial-1-congruent-17", "trial_type": "html-keyboard-response", "trial_index": 101, "time_elapsed": 228299, "internal_node_id": "0.0-6.0-6.0"}}, {"uniqueid": "w68254688:a40951891", "current_trial": 102, "dateTime": 1664873524191, "trialdata": {"rt": 1369, "stimulus": "<p id='stroop-text' class='stroop-green'>BLUE</p>", "response": "g", "stimulus-type": "incongruent", "word": "blue", "color": "green", "correct_response": "g", "trial_id": "stroop-trial-1-incongruent-21", "trial_type": "html-keyboard-response", "trial_index": 102, "time_elapsed": 230172, "internal_node_id": "0.0-6.0-7.0"}}, {"uniqueid": "w68254688:a40951891", "current_trial": 103, "dateTime": 1664873525707, "trialdata": {"rt": 1010, "stimulus": "<p id='stroop-text' class='stroop-red'>FORK</p>", "response": "r", "stimulus-type": "unrelated", "word": "FORK", "color": "red", "correct_response": "r", "trial_id": "stroop-trial-1-unrelated-17", "trial_type": "html-keyboard-response", "trial_index": 103, "time_elapsed": 231688, "internal_node_id": "0.0-6.0-8.0"}}, {"uniqueid": "w68254688:a40951891", "current_trial": 104, "dateTime": 1664873527470, "trialdata": {"rt": 1257, "stimulus": "<p id='stroop-text' class='stroop-green'>YELLOW</p>", "response": "g", "stimulus-type": "incongruent", "word": "yellow", "color": "green", "correct_response": "g", "trial_id": "stroop-trial-1-incongruent-2", "trial_type": "html-keyboard-response", "trial_index": 104, "time_elapsed": 233451, "internal_node_id": "0.0-6.0-9.0"}}, {"uniqueid": "w68254688:a40951891", "current_trial": 105, "dateTime": 1664873529004, "trialdata": {"rt": 1028, "stimulus": "<p id='stroop-text' class='stroop-red'>GREEN</p>", "response": "r", "stimulus-type": "incongruent", "word": "green", "color": "red", "correct_response": "r", "trial_id": "stroop-trial-1-incongruent-30", "trial_type": "html-keyboard-response", "trial_index": 105, "time_elapsed": 234985, "internal_node_id": "0.0-6.0-10.0"}}, {"uniqueid": "w68254688:a40951891", "current_trial": 106, "dateTime": 1664873530248, "trialdata": {"rt": 739, "stimulus": "<p id='stroop-text' class='stroop-red'>SHIP</p>", "response": "r", "stimulus-type": "unrelated", "word": "SHIP", "color": "red", "correct_response": "r", "trial_id": "stroop-trial-1-unrelated-15", "trial_type": "html-keyboard-response", "trial_index": 106, "time_elapsed": 236229, "internal_node_id": "0.0-6.0-11.0"}}, {"uniqueid": "w68254688:a40951891", "current_trial": 107, "dateTime": 1664873531705, "trialdata": {"rt": 951, "stimulus": "<p id='stroop-text' class='stroop-green'>CHAIR</p>", "response": "g", "stimulus-type": "unrelated", "word": "CHAIR", "color": "green", "correct_response": "g", "trial_id": "stroop-trial-1-unrelated-24", "trial_type": "html-keyboard-response", "trial_index": 107, "time_elapsed": 237685, "internal_node_id": "0.0-6.0-12.0"}}, {"uniqueid": "w68254688:a40951891", "current_trial": 108, "dateTime": 1664873532979, "trialdata": {"rt": 768, "stimulus": "<p id='stroop-text' class='stroop-red'>RED</p>", "response": "r", "stimulus-type": "congruent", "word": "red", "color": "red", "correct_response": "r", "trial_id": "stroop-trial-1-congruent-11", "trial_type": "html-keyboard-response", "trial_index": 108, "time_elapsed": 238960, "internal_node_id": "0.0-6.0-13.0"}}, {"uniqueid": "w68254688:a40951891", "current_trial": 109, "dateTime": 1664873534519, "trialdata": {"rt": 1032, "stimulus": "<p id='stroop-text' class='stroop-red'>GREEN</p>", "response": "r", "stimulus-type": "incongruent", "word": "green", "color": "red", "correct_response": "r", "trial_id": "stroop-trial-1-incongruent-7", "trial_type": "html-keyboard-response", "trial_index": 109, "time_elapsed": 240500, "internal_node_id": "0.0-6.0-14.0"}}, {"uniqueid": "w68254688:a40951891", "current_trial": 110, "dateTime": 1664873536281, "trialdata": {"rt": 1254, "stimulus": "<p id='stroop-text' class='stroop-yellow'>GREEN</p>", "response": "y", "stimulus-type": "incongruent", "word": "green", "color": "yellow", "correct_response": "y", "trial_id": "stroop-trial-1-incongruent-6", "trial_type": "html-keyboard-response", "trial_index": 110, "time_elapsed": 242261, "internal_node_id": "0.0-6.0-15.0"}}, {"uniqueid": "w68254688:a40951891", "current_trial": 111, "dateTime": 1664873538145, "trialdata": {"rt": 1359, "stimulus": "<p id='stroop-text' class='stroop-yellow'>RED</p>", "response": "y", "stimulus-type": "incongruent", "word": "red", "color": "yellow", "correct_response": "y", "trial_id": "stroop-trial-1-incongruent-29", "trial_type": "html-keyboard-response", "trial_index": 111, "time_elapsed": 244126, "internal_node_id": "0.0-6.0-16.0"}}, {"uniqueid": "w68254688:a40951891", "current_trial": 112, "dateTime": 1664873539728, "trialdata": {"rt": 1078, "stimulus": "<p id='stroop-text' class='stroop-red'>RED</p>", "response": "r", "stimulus-type": "congruent", "word": "red", "color": "red", "correct_response": "r", "trial_id": "stroop-trial-1-congruent-2", "trial_type": "html-keyboard-response", "trial_index": 112, "time_elapsed": 245708, "internal_node_id": "0.0-6.0-17.0"}}, {"uniqueid": "w68254688:a40951891", "current_trial": 113, "dateTime": 1664873541428, "trialdata": {"rt": 1193, "stimulus": "<p id='stroop-text' class='stroop-green'>SHIP</p>", "response": "g", "stimulus-type": "unrelated", "word": "SHIP", "color": "green", "correct_response": "g", "trial_id": "stroop-trial-1-unrelated-8", "trial_type": "html-keyboard-response", "trial_index": 113, "time_elapsed": 247408, "internal_node_id": "0.0-6.0-18.0"}}, {"uniqueid": "w68254688:a40951891", "current_trial": 114, "dateTime": 1664873542900, "trialdata": {"rt": 967, "stimulus": "<p id='stroop-text' class='stroop-red'>WINDOW</p>", "response": "r", "stimulus-type": "unrelated", "word": "WINDOW", "color": "red", "correct_response": "r", "trial_id": "stroop-trial-1-unrelated-26", "trial_type": "html-keyboard-response", "trial_index": 114, "time_elapsed": 248880, "internal_node_id": "0.0-6.0-19.0"}}, {"uniqueid": "w68254688:a40951891", "current_trial": 115, "dateTime": 1664873544634, "trialdata": {"rt": 1230, "stimulus": "<p id='stroop-text' class='stroop-green'>GREEN</p>", "response": "g", "stimulus-type": "congruent", "word": "green", "color": "green", "correct_response": "g", "trial_id": "stroop-trial-1-congruent-30", "trial_type": "html-keyboard-response", "trial_index": 115, "time_elapsed": 250614, "internal_node_id": "0.0-6.0-20.0"}}, {"uniqueid": "w68254688:a40951891", "current_trial": 116, "dateTime": 1664873545969, "trialdata": {"rt": 830, "stimulus": "<p id='stroop-text' class='stroop-red'>RED</p>", "response": "r", "stimulus-type": "congruent", "word": "red", "color": "red", "correct_response": "r", "trial_id": "stroop-trial-1-congruent-3", "trial_type": "html-keyboard-response", "trial_index": 116, "time_elapsed": 251949, "internal_node_id": "0.0-6.0-21.0"}}, {"uniqueid": "w68254688:a40951891", "current_trial": 117, "dateTime": 1664873547142, "trialdata": {"rt": 668, "stimulus": "<p id='stroop-text' class='stroop-red'>RED</p>", "response": "r", "stimulus-type": "congruent", "word": "red", "color": "red", "correct_response": "r", "trial_id": "stroop-trial-1-congruent-19", "trial_type": "html-keyboard-response", "trial_index": 117, "time_elapsed": 253123, "internal_node_id": "0.0-6.0-22.0"}}, {"uniqueid": "w68254688:a40951891", "current_trial": 118, "dateTime": 1664873549527, "trialdata": {"rt": 1879, "stimulus": "<p id='stroop-text' class='stroop-blue'>RED</p>", "response": "b", "stimulus-type": "incongruent", "word": "red", "color": "blue", "correct_response": "b", "trial_id": "stroop-trial-1-incongruent-20", "trial_type": "html-keyboard-response", "trial_index": 118, "time_elapsed": 255508, "internal_node_id": "0.0-6.0-23.0"}}, {"uniqueid": "w68254688:a40951891", "current_trial": 119, "dateTime": 1664873550994, "trialdata": {"rt": 962, "stimulus": "<p id='stroop-text' class='stroop-red'>RED</p>", "response": "r", "stimulus-type": "congruent", "word": "red", "color": "red", "correct_response": "r", "trial_id": "stroop-trial-1-congruent-29", "trial_type": "html-keyboard-response", "trial_index": 119, "time_elapsed": 256974, "internal_node_id": "0.0-6.0-24.0"}}, {"uniqueid": "w68254688:a40951891", "current_trial": 120, "dateTime": 1664873552120, "trialdata": {"rt": 619, "stimulus": "<p id='stroop-text' class='stroop-red'>RED</p>", "response": "r", "stimulus-type": "congruent", "word": "red", "color": "red", "correct_response": "r", "trial_id": "stroop-trial-1-congruent-15", "trial_type": "html-keyboard-response", "trial_index": 120, "time_elapsed": 258101, "internal_node_id": "0.0-6.0-25.0"}}, {"uniqueid": "w68254688:a40951891", "current_trial": 121, "dateTime": 1664873553582, "trialdata": {"rt": 956, "stimulus": "<p id='stroop-text' class='stroop-green'>GREEN</p>", "response": "g", "stimulus-type": "congruent", "word": "green", "color": "green", "correct_response": "g", "trial_id": "stroop-trial-1-congruent-12", "trial_type": "html-keyboard-response", "trial_index": 121, "time_elapsed": 259563, "internal_node_id": "0.0-6.0-26.0"}}, {"uniqueid": "w68254688:a40951891", "current_trial": 122, "dateTime": 1664873555395, "trialdata": {"rt": 1306, "stimulus": "<p id='stroop-text' class='stroop-blue'>BLUE</p>", "response": "b", "stimulus-type": "congruent", "word": "blue", "color": "blue", "correct_response": "b", "trial_id": "stroop-trial-1-congruent-16", "trial_type": "html-keyboard-response", "trial_index": 122, "time_elapsed": 261376, "internal_node_id": "0.0-6.0-27.0"}}, {"uniqueid": "w68254688:a40951891", "current_trial": 123, "dateTime": 1664873556832, "trialdata": {"rt": 931, "stimulus": "<p id='stroop-text' class='stroop-green'>GREEN</p>", "response": "g", "stimulus-type": "congruent", "word": "green", "color": "green", "correct_response": "g", "trial_id": "stroop-trial-1-congruent-27", "trial_type": "html-keyboard-response", "trial_index": 123, "time_elapsed": 262812, "internal_node_id": "0.0-6.0-28.0"}}, {"uniqueid": "w68254688:a40951891", "current_trial": 124, "dateTime": 1664873558453, "trialdata": {"rt": 1116, "stimulus": "<p id='stroop-text' class='stroop-blue'>MONKEY</p>", "response": "b", "stimulus-type": "unrelated", "word": "MONKEY", "color": "blue", "correct_response": "b", "trial_id": "stroop-trial-1-unrelated-14", "trial_type": "html-keyboard-response", "trial_index": 124, "time_elapsed": 264433, "internal_node_id": "0.0-6.0-29.0"}}, {"uniqueid": "w68254688:a40951891", "current_trial": 125, "dateTime": 1664873559884, "trialdata": {"rt": 925, "stimulus": "<p id='stroop-text' class='stroop-yellow'>YELLOW</p>", "response": "y", "stimulus-type": "congruent", "word": "yellow", "color": "yellow", "correct_response": "y", "trial_id": "stroop-trial-1-congruent-5", "trial_type": "html-keyboard-response", "trial_index": 125, "time_elapsed": 265865, "internal_node_id": "0.0-6.0-30.0"}}, {"uniqueid": "w68254688:a40951891", "current_trial": 126, "dateTime": 1664873561640, "trialdata": {"rt": 1250, "stimulus": "<p id='stroop-text' class='stroop-green'>STONE</p>", "response": "g", "stimulus-type": "unrelated", "word": "STONE", "color": "green", "correct_response": "g", "trial_id": "stroop-trial-1-unrelated-1", "trial_type": "html-keyboard-response", "trial_index": 126, "time_elapsed": 267621, "internal_node_id": "0.0-6.0-31.0"}}, {"uniqueid": "w68254688:a40951891", "current_trial": 127, "dateTime": 1664873563092, "trialdata": {"rt": 946, "stimulus": "<p id='stroop-text' class='stroop-blue'>BRIDGE</p>", "response": "b", "stimulus-type": "unrelated", "word": "BRIDGE", "color": "blue", "correct_response": "b", "trial_id": "stroop-trial-1-unrelated-5", "trial_type": "html-keyboard-response", "trial_index": 127, "time_elapsed": 269072, "internal_node_id": "0.0-6.0-32.0"}}, {"uniqueid": "w68254688:a40951891", "current_trial": 128, "dateTime": 1664873564687, "trialdata": {"rt": 1091, "stimulus": "<p id='stroop-text' class='stroop-green'>BRAIN</p>", "response": "g", "stimulus-type": "unrelated", "word": "BRAIN", "color": "green", "correct_response": "g", "trial_id": "stroop-trial-1-unrelated-29", "trial_type": "html-keyboard-response", "trial_index": 128, "time_elapsed": 270667, "internal_node_id": "0.0-6.0-33.0"}}, {"uniqueid": "w68254688:a40951891", "current_trial": 129, "dateTime": 1664873566581, "trialdata": {"rt": 1385, "stimulus": "<p id='stroop-text' class='stroop-yellow'>BLUE</p>", "response": "y", "stimulus-type": "incongruent", "word": "blue", "color": "yellow", "correct_response": "y", "trial_id": "stroop-trial-1-incongruent-10", "trial_type": "html-keyboard-response", "trial_index": 129, "time_elapsed": 272561, "internal_node_id": "0.0-6.0-34.0"}}, {"uniqueid": "w68254688:a40951891", "current_trial": 130, "dateTime": 1664873568276, "trialdata": {"rt": 1190, "stimulus": "<p id='stroop-text' class='stroop-red'>BLUE</p>", "response": "r", "stimulus-type": "incongruent", "word": "blue", "color": "red", "correct_response": "r", "trial_id": "stroop-trial-1-incongruent-28", "trial_type": "html-keyboard-response", "trial_index": 130, "time_elapsed": 274256, "internal_node_id": "0.0-6.0-35.0"}}, {"uniqueid": "w68254688:a40951891", "current_trial": 131, "dateTime": 1664873569959, "trialdata": {"rt": 1179, "stimulus": "<p id='stroop-text' class='stroop-green'>BLUE</p>", "response": "g", "stimulus-type": "incongruent", "word": "blue", "color": "green", "correct_response": "g", "trial_id": "stroop-trial-1-incongruent-12", "trial_type": "html-keyboard-response", "trial_index": 131, "time_elapsed": 275940, "internal_node_id": "0.0-6.0-36.0"}}, {"uniqueid": "w68254688:a40951891", "current_trial": 132, "dateTime": 1664873571358, "trialdata": {"rt": 891, "stimulus": "<p id='stroop-text' class='stroop-red'>RED</p>", "response": "r", "stimulus-type": "congruent", "word": "red", "color": "red", "correct_response": "r", "trial_id": "stroop-trial-1-congruent-20", "trial_type": "html-keyboard-response", "trial_index": 132, "time_elapsed": 277339, "internal_node_id": "0.0-6.0-37.0"}}, {"uniqueid": "w68254688:a40951891", "current_trial": 133, "dateTime": 1664873573109, "trialdata": {"rt": 1246, "stimulus": "<p id='stroop-text' class='stroop-red'>YELLOW</p>", "response": "r", "stimulus-type": "incongruent", "word": "yellow", "color": "red", "correct_response": "r", "trial_id": "stroop-trial-1-incongruent-16", "trial_type": "html-keyboard-response", "trial_index": 133, "time_elapsed": 279089, "internal_node_id": "0.0-6.0-38.0"}}, {"uniqueid": "w68254688:a40951891", "current_trial": 134, "dateTime": 1664873574963, "trialdata": {"rt": 1350, "stimulus": "<p id='stroop-text' class='stroop-green'>BOAT</p>", "response": "g", "stimulus-type": "unrelated", "word": "BOAT", "color": "green", "correct_response": "g", "trial_id": "stroop-trial-1-unrelated-16", "trial_type": "html-keyboard-response", "trial_index": 134, "time_elapsed": 280943, "internal_node_id": "0.0-6.0-39.0"}}, {"uniqueid": "w68254688:a40951891", "current_trial": 135, "dateTime": 1664873576464, "trialdata": {"rt": 995, "stimulus": "<p id='stroop-text' class='stroop-yellow'>YELLOW</p>", "response": "y", "stimulus-type": "congruent", "word": "yellow", "color": "yellow", "correct_response": "y", "trial_id": "stroop-trial-1-congruent-25", "trial_type": "html-keyboard-response", "trial_index": 135, "time_elapsed": 282444, "internal_node_id": "0.0-6.0-40.0"}}, {"uniqueid": "w68254688:a40951891", "current_trial": 136, "dateTime": 1664873577977, "trialdata": {"rt": 1005, "stimulus": "<p id='stroop-text' class='stroop-red'>BOTTLE</p>", "response": "r", "stimulus-type": "unrelated", "word": "BOTTLE", "color": "red", "correct_response": "r", "trial_id": "stroop-trial-1-unrelated-2", "trial_type": "html-keyboard-response", "trial_index": 136, "time_elapsed": 283957, "internal_node_id": "0.0-6.0-41.0"}}, {"uniqueid": "w68254688:a40951891", "current_trial": 137, "dateTime": 1664873579623, "trialdata": {"rt": 1141, "stimulus": "<p id='stroop-text' class='stroop-blue'>SHIP</p>", "response": "b", "stimulus-type": "unrelated", "word": "SHIP", "color": "blue", "correct_response": "b", "trial_id": "stroop-trial-1-unrelated-9", "trial_type": "html-keyboard-response", "trial_index": 137, "time_elapsed": 285604, "internal_node_id": "0.0-6.0-42.0"}}, {"uniqueid": "w68254688:a40951891", "current_trial": 138, "dateTime": 1664873581081, "trialdata": {"rt": 952, "stimulus": "<p id='stroop-text' class='stroop-blue'>BRIDGE</p>", "response": "b", "stimulus-type": "unrelated", "word": "BRIDGE", "color": "blue", "correct_response": "b", "trial_id": "stroop-trial-1-unrelated-7", "trial_type": "html-keyboard-response", "trial_index": 138, "time_elapsed": 287062, "internal_node_id": "0.0-6.0-43.0"}}, {"uniqueid": "w68254688:a40951891", "current_trial": 139, "dateTime": 1664873582253, "trialdata": {"rt": 667, "stimulus": "<p id='stroop-text' class='stroop-blue'>RED</p>", "response": "b", "stimulus-type": "incongruent", "word": "red", "color": "blue", "correct_response": "b", "trial_id": "stroop-trial-1-incongruent-22", "trial_type": "html-keyboard-response", "trial_index": 139, "time_elapsed": 288234, "internal_node_id": "0.0-6.0-44.0"}}, {"uniqueid": "w68254688:a40951891", "current_trial": 140, "dateTime": 1664873583798, "trialdata": {"rt": 1042, "stimulus": "<p id='stroop-text' class='stroop-yellow'>YELLOW</p>", "response": "y", "stimulus-type": "congruent", "word": "yellow", "color": "yellow", "correct_response": "y", "trial_id": "stroop-trial-1-congruent-24", "trial_type": "html-keyboard-response", "trial_index": 140, "time_elapsed": 289778, "internal_node_id": "0.0-6.0-45.0"}}, {"uniqueid": "w68254688:a40951891", "current_trial": 141, "dateTime": 1664873585159, "trialdata": {"rt": 857, "stimulus": "<p id='stroop-text' class='stroop-yellow'>BLUE</p>", "response": "y", "stimulus-type": "incongruent", "word": "blue", "color": "yellow", "correct_response": "y", "trial_id": "stroop-trial-1-incongruent-8", "trial_type": "html-keyboard-response", "trial_index": 141, "time_elapsed": 291139, "internal_node_id": "0.0-6.0-46.0"}}, {"uniqueid": "w68254688:a40951891", "current_trial": 142, "dateTime": 1664873586955, "trialdata": {"rt": 1291, "stimulus": "<p id='stroop-text' class='stroop-blue'>RED</p>", "response": "b", "stimulus-type": "incongruent", "word": "red", "color": "blue", "correct_response": "b", "trial_id": "stroop-trial-1-incongruent-19", "trial_type": "html-keyboard-response", "trial_index": 142, "time_elapsed": 292935, "internal_node_id": "0.0-6.0-47.0"}}, {"uniqueid": "w68254688:a40951891", "current_trial": 143, "dateTime": 1664873588712, "trialdata": {"rt": 1251, "stimulus": "<p id='stroop-text' class='stroop-yellow'>STONE</p>", "response": "y", "stimulus-type": "unrelated", "word": "STONE", "color": "yellow", "correct_response": "y", "trial_id": "stroop-trial-1-unrelated-30", "trial_type": "html-keyboard-response", "trial_index": 143, "time_elapsed": 294693, "internal_node_id": "0.0-6.0-48.0"}}, {"uniqueid": "w68254688:a40951891", "current_trial": 144, "dateTime": 1664873590085, "trialdata": {"rt": 867, "stimulus": "<p id='stroop-text' class='stroop-yellow'>YELLOW</p>", "response": "y", "stimulus-type": "congruent", "word": "yellow", "color": "yellow", "correct_response": "y", "trial_id": "stroop-trial-1-congruent-22", "trial_type": "html-keyboard-response", "trial_index": 144, "time_elapsed": 296065, "internal_node_id": "0.0-6.0-49.0"}}, {"uniqueid": "w68254688:a40951891", "current_trial": 145, "dateTime": 1664873591416, "trialdata": {"rt": 825, "stimulus": "<p id='stroop-text' class='stroop-yellow'>RED</p>", "response": "y", "stimulus-type": "incongruent", "word": "red", "color": "yellow", "correct_response": "y", "trial_id": "stroop-trial-1-incongruent-9", "trial_type": "html-keyboard-response", "trial_index": 145, "time_elapsed": 297396, "internal_node_id": "0.0-6.0-50.0"}}, {"uniqueid": "w68254688:a40951891", "current_trial": 146, "dateTime": 1664873592834, "trialdata": {"rt": 910, "stimulus": "<p id='stroop-text' class='stroop-red'>RED</p>", "response": "r", "stimulus-type": "congruent", "word": "red", "color": "red", "correct_response": "r", "trial_id": "stroop-trial-1-congruent-13", "trial_type": "html-keyboard-response", "trial_index": 146, "time_elapsed": 298814, "internal_node_id": "0.0-6.0-51.0"}}, {"uniqueid": "w68254688:a40951891", "current_trial": 147, "dateTime": 1664873594334, "trialdata": {"rt": 994, "stimulus": "<p id='stroop-text' class='stroop-yellow'>YELLOW</p>", "response": "y", "stimulus-type": "congruent", "word": "yellow", "color": "yellow", "correct_response": "y", "trial_id": "stroop-trial-1-congruent-18", "trial_type": "html-keyboard-response", "trial_index": 147, "time_elapsed": 300314, "internal_node_id": "0.0-6.0-52.0"}}, {"uniqueid": "w68254688:a40951891", "current_trial": 148, "dateTime": 1664873595781, "trialdata": {"rt": 941, "stimulus": "<p id='stroop-text' class='stroop-yellow'>RED</p>", "response": "y", "stimulus-type": "incongruent", "word": "red", "color": "yellow", "correct_response": "y", "trial_id": "stroop-trial-1-incongruent-11", "trial_type": "html-keyboard-response", "trial_index": 148, "time_elapsed": 301761, "internal_node_id": "0.0-6.0-53.0"}}, {"uniqueid": "w68254688:a40951891", "current_trial": 149, "dateTime": 1664873597051, "trialdata": {"rt": 762, "stimulus": "<p id='stroop-text' class='stroop-red'>RED</p>", "response": "r", "stimulus-type": "congruent", "word": "red", "color": "red", "correct_response": "r", "trial_id": "stroop-trial-1-congruent-28", "trial_type": "html-keyboard-response", "trial_index": 149, "time_elapsed": 303032, "internal_node_id": "0.0-6.0-54.0"}}, {"uniqueid": "w68254688:a40951891", "current_trial": 150, "dateTime": 1664873598851, "trialdata": {"rt": 1294, "stimulus": "<p id='stroop-text' class='stroop-green'>STONE</p>", "response": "g", "stimulus-type": "unrelated", "word": "STONE", "color": "green", "correct_response": "g", "trial_id": "stroop-trial-1-unrelated-20", "trial_type": "html-keyboard-response", "trial_index": 150, "time_elapsed": 304832, "internal_node_id": "0.0-6.0-55.0"}}, {"uniqueid": "w68254688:a40951891", "current_trial": 151, "dateTime": 1664873600355, "trialdata": {"rt": 998, "stimulus": "<p id='stroop-text' class='stroop-yellow'>YELLOW</p>", "response": "y", "stimulus-type": "congruent", "word": "yellow", "color": "yellow", "correct_response": "y", "trial_id": "stroop-trial-1-congruent-23", "trial_type": "html-keyboard-response", "trial_index": 151, "time_elapsed": 306335, "internal_node_id": "0.0-6.0-56.0"}}, {"uniqueid": "w68254688:a40951891", "current_trial": 152, "dateTime": 1664873601871, "trialdata": {"rt": 1008, "stimulus": "<p id='stroop-text' class='stroop-blue'>BRAIN</p>", "response": "b", "stimulus-type": "unrelated", "word": "BRAIN", "color": "blue", "correct_response": "b", "trial_id": "stroop-trial-1-unrelated-27", "trial_type": "html-keyboard-response", "trial_index": 152, "time_elapsed": 307851, "internal_node_id": "0.0-6.0-57.0"}}, {"uniqueid": "w68254688:a40951891", "current_trial": 153, "dateTime": 1664873603863, "trialdata": {"rt": 1487, "stimulus": "<p id='stroop-text' class='stroop-yellow'>RED</p>", "response": "y", "stimulus-type": "incongruent", "word": "red", "color": "yellow", "correct_response": "y", "trial_id": "stroop-trial-1-incongruent-17", "trial_type": "html-keyboard-response", "trial_index": 153, "time_elapsed": 309844, "internal_node_id": "0.0-6.0-58.0"}}, {"uniqueid": "w68254688:a40951891", "current_trial": 154, "dateTime": 1664873605636, "trialdata": {"rt": 1267, "stimulus": "<p id='stroop-text' class='stroop-green'>YELLOW</p>", "response": "g", "stimulus-type": "incongruent", "word": "yellow", "color": "green", "correct_response": "g", "trial_id": "stroop-trial-1-incongruent-23", "trial_type": "html-keyboard-response", "trial_index": 154, "time_elapsed": 311617, "internal_node_id": "0.0-6.0-59.0"}}, {"uniqueid": "w68254688:a40951891", "current_trial": 155, "dateTime": 1664873607159, "trialdata": {"rt": 1014, "stimulus": "<p id='stroop-text' class='stroop-yellow'>YELLOW</p>", "response": "y", "stimulus-type": "congruent", "word": "yellow", "color": "yellow", "correct_response": "y", "trial_id": "stroop-trial-1-congruent-9", "trial_type": "html-keyboard-response", "trial_index": 155, "time_elapsed": 313140, "internal_node_id": "0.0-6.0-60.0"}}, {"uniqueid": "w68254688:a40951891", "current_trial": 156, "dateTime": 1664873608566, "trialdata": {"rt": 901, "stimulus": "<p id='stroop-text' class='stroop-red'>MONKEY</p>", "response": "r", "stimulus-type": "unrelated", "word": "MONKEY", "color": "red", "correct_response": "r", "trial_id": "stroop-trial-1-unrelated-25", "trial_type": "html-keyboard-response", "trial_index": 156, "time_elapsed": 314547, "internal_node_id": "0.0-6.0-61.0"}}, {"uniqueid": "w68254688:a40951891", "current_trial": 157, "dateTime": 1664873610366, "trialdata": {"rt": 1294, "stimulus": "<p id='stroop-text' class='stroop-yellow'>RED</p>", "response": "y", "stimulus-type": "incongruent", "word": "red", "color": "yellow", "correct_response": "y", "trial_id": "stroop-trial-1-incongruent-25", "trial_type": "html-keyboard-response", "trial_index": 157, "time_elapsed": 316346, "internal_node_id": "0.0-6.0-62.0"}}, {"uniqueid": "w68254688:a40951891", "current_trial": 158, "dateTime": 1664873611629, "trialdata": {"rt": 757, "stimulus": "<p id='stroop-text' class='stroop-yellow'>CHAIR</p>", "response": "y", "stimulus-type": "unrelated", "word": "CHAIR", "color": "yellow", "correct_response": "y", "trial_id": "stroop-trial-1-unrelated-11", "trial_type": "html-keyboard-response", "trial_index": 158, "time_elapsed": 317610, "internal_node_id": "0.0-6.0-63.0"}}, {"uniqueid": "w68254688:a40951891", "current_trial": 159, "dateTime": 1664873613182, "trialdata": {"rt": 1048, "stimulus": "<p id='stroop-text' class='stroop-green'>YELLOW</p>", "response": "g", "stimulus-type": "incongruent", "word": "yellow", "color": "green", "correct_response": "g", "trial_id": "stroop-trial-1-incongruent-27", "trial_type": "html-keyboard-response", "trial_index": 159, "time_elapsed": 319163, "internal_node_id": "0.0-6.0-64.0"}}, {"uniqueid": "w68254688:a40951891", "current_trial": 160, "dateTime": 1664873614283, "trialdata": {"rt": 593, "stimulus": "<p id='stroop-text' class='stroop-green'>GREEN</p>", "response": "g", "stimulus-type": "congruent", "word": "green", "color": "green", "correct_response": "g", "trial_id": "stroop-trial-1-congruent-6", "trial_type": "html-keyboard-response", "trial_index": 160, "time_elapsed": 320263, "internal_node_id": "0.0-6.0-65.0"}}, {"uniqueid": "w68254688:a40951891", "current_trial": 161, "dateTime": 1664873615675, "trialdata": {"rt": 886, "stimulus": "<p id='stroop-text' class='stroop-red'>RED</p>", "response": "r", "stimulus-type": "congruent", "word": "red", "color": "red", "correct_response": "r", "trial_id": "stroop-trial-1-congruent-7", "trial_type": "html-keyboard-response", "trial_index": 161, "time_elapsed": 321656, "internal_node_id": "0.0-6.0-66.0"}}, {"uniqueid": "w68254688:a40951891", "current_trial": 162, "dateTime": 1664873616943, "trialdata": {"rt": 763, "stimulus": "<p id='stroop-text' class='stroop-red'>YELLOW</p>", "response": "r", "stimulus-type": "incongruent", "word": "yellow", "color": "red", "correct_response": "r", "trial_id": "stroop-trial-1-incongruent-18", "trial_type": "html-keyboard-response", "trial_index": 162, "time_elapsed": 322924, "internal_node_id": "0.0-6.0-67.0"}}, {"uniqueid": "w68254688:a40951891", "current_trial": 163, "dateTime": 1664873618639, "trialdata": {"rt": 1187, "stimulus": "<p id='stroop-text' class='stroop-yellow'>GREEN</p>", "response": "y", "stimulus-type": "incongruent", "word": "green", "color": "yellow", "correct_response": "y", "trial_id": "stroop-trial-1-incongruent-24", "trial_type": "html-keyboard-response", "trial_index": 163, "time_elapsed": 324619, "internal_node_id": "0.0-6.0-68.0"}}, {"uniqueid": "w68254688:a40951891", "current_trial": 164, "dateTime": 1664873620064, "trialdata": {"rt": 920, "stimulus": "<p id='stroop-text' class='stroop-blue'>BLUE</p>", "response": "b", "stimulus-type": "congruent", "word": "blue", "color": "blue", "correct_response": "b", "trial_id": "stroop-trial-1-congruent-8", "trial_type": "html-keyboard-response", "trial_index": 164, "time_elapsed": 326045, "internal_node_id": "0.0-6.0-69.0"}}, {"uniqueid": "w68254688:a40951891", "current_trial": 165, "dateTime": 1664873621591, "trialdata": {"rt": 1021, "stimulus": "<p id='stroop-text' class='stroop-red'>WINDOW</p>", "response": "r", "stimulus-type": "unrelated", "word": "WINDOW", "color": "red", "correct_response": "r", "trial_id": "stroop-trial-1-unrelated-12", "trial_type": "html-keyboard-response", "trial_index": 165, "time_elapsed": 327572, "internal_node_id": "0.0-6.0-70.0"}}, {"uniqueid": "w68254688:a40951891", "current_trial": 166, "dateTime": 1664873623351, "trialdata": {"rt": 1251, "stimulus": "<p id='stroop-text' class='stroop-green'>BLUE</p>", "response": "g", "stimulus-type": "incongruent", "word": "blue", "color": "green", "correct_response": "g", "trial_id": "stroop-trial-1-incongruent-14", "trial_type": "html-keyboard-response", "trial_index": 166, "time_elapsed": 329332, "internal_node_id": "0.0-6.0-71.0"}}, {"uniqueid": "w68254688:a40951891", "current_trial": 167, "dateTime": 1664873624804, "trialdata": {"rt": 948, "stimulus": "<p id='stroop-text' class='stroop-green'>YELLOW</p>", "response": "g", "stimulus-type": "incongruent", "word": "yellow", "color": "green", "correct_response": "g", "trial_id": "stroop-trial-1-incongruent-26", "trial_type": "html-keyboard-response", "trial_index": 167, "time_elapsed": 330785, "internal_node_id": "0.0-6.0-72.0"}}, {"uniqueid": "w68254688:a40951891", "current_trial": 168, "dateTime": 1664873626815, "trialdata": {"rt": 1504, "stimulus": "<p id='stroop-text' class='stroop-blue'>FORK</p>", "response": "b", "stimulus-type": "unrelated", "word": "FORK", "color": "blue", "correct_response": "b", "trial_id": "stroop-trial-1-unrelated-22", "trial_type": "html-keyboard-response", "trial_index": 168, "time_elapsed": 332796, "internal_node_id": "0.0-6.0-73.0"}}, {"uniqueid": "w68254688:a40951891", "current_trial": 169, "dateTime": 1664873628211, "trialdata": {"rt": 892, "stimulus": "<p id='stroop-text' class='stroop-yellow'>MONKEY</p>", "response": "y", "stimulus-type": "unrelated", "word": "MONKEY", "color": "yellow", "correct_response": "y", "trial_id": "stroop-trial-1-unrelated-4", "trial_type": "html-keyboard-response", "trial_index": 169, "time_elapsed": 334191, "internal_node_id": "0.0-6.0-74.0"}}, {"uniqueid": "w68254688:a40951891", "current_trial": 170, "dateTime": 1664873629737, "trialdata": {"rt": 1023, "stimulus": "<p id='stroop-text' class='stroop-green'>CHAIR</p>", "response": "g", "stimulus-type": "unrelated", "word": "CHAIR", "color": "green", "correct_response": "g", "trial_id": "stroop-trial-1-unrelated-6", "trial_type": "html-keyboard-response", "trial_index": 170, "time_elapsed": 335718, "internal_node_id": "0.0-6.0-75.0"}}, {"uniqueid": "w68254688:a40951891", "current_trial": 171, "dateTime": 1664873630993, "trialdata": {"rt": 750, "stimulus": "<p id='stroop-text' class='stroop-green'>STONE</p>", "response": "g", "stimulus-type": "unrelated", "word": "STONE", "color": "green", "correct_response": "g", "trial_id": "stroop-trial-1-unrelated-19", "trial_type": "html-keyboard-response", "trial_index": 171, "time_elapsed": 336973, "internal_node_id": "0.0-6.0-76.0"}}, {"uniqueid": "w68254688:a40951891", "current_trial": 172, "dateTime": 1664873632634, "trialdata": {"rt": 1135, "stimulus": "<p id='stroop-text' class='stroop-yellow'>BOTTLE</p>", "response": "y", "stimulus-type": "unrelated", "word": "BOTTLE", "color": "yellow", "correct_response": "y", "trial_id": "stroop-trial-1-unrelated-28", "trial_type": "html-keyboard-response", "trial_index": 172, "time_elapsed": 338614, "internal_node_id": "0.0-6.0-77.0"}}, {"uniqueid": "w68254688:a40951891", "current_trial": 173, "dateTime": 1664873634004, "trialdata": {"rt": 861, "stimulus": "<p id='stroop-text' class='stroop-red'>RED</p>", "response": "r", "stimulus-type": "congruent", "word": "red", "color": "red", "correct_response": "r", "trial_id": "stroop-trial-1-congruent-10", "trial_type": "html-keyboard-response", "trial_index": 173, "time_elapsed": 339984, "internal_node_id": "0.0-6.0-78.0"}}, {"uniqueid": "w68254688:a40951891", "current_trial": 174, "dateTime": 1664873635822, "trialdata": {"rt": 1313, "stimulus": "<p id='stroop-text' class='stroop-yellow'>YELLOW</p>", "response": "y", "stimulus-type": "congruent", "word": "yellow", "color": "yellow", "correct_response": "y", "trial_id": "stroop-trial-1-congruent-1", "trial_type": "html-keyboard-response", "trial_index": 174, "time_elapsed": 341803, "internal_node_id": "0.0-6.0-79.0"}}, {"uniqueid": "w68254688:a40951891", "current_trial": 175, "dateTime": 1664873636981, "trialdata": {"rt": 653, "stimulus": "<p id='stroop-text' class='stroop-yellow'>MONKEY</p>", "response": "y", "stimulus-type": "unrelated", "word": "MONKEY", "color": "yellow", "correct_response": "y", "trial_id": "stroop-trial-1-unrelated-23", "trial_type": "html-keyboard-response", "trial_index": 175, "time_elapsed": 342961, "internal_node_id": "0.0-6.0-80.0"}}, {"uniqueid": "w68254688:a40951891", "current_trial": 176, "dateTime": 1664873638278, "trialdata": {"rt": 789, "stimulus": "<p id='stroop-text' class='stroop-yellow'>BLUE</p>", "response": "y", "stimulus-type": "incongruent", "word": "blue", "color": "yellow", "correct_response": "y", "trial_id": "stroop-trial-1-incongruent-15", "trial_type": "html-keyboard-response", "trial_index": 176, "time_elapsed": 344259, "internal_node_id": "0.0-6.0-81.0"}}, {"uniqueid": "w68254688:a40951891", "current_trial": 177, "dateTime": 1664873639659, "trialdata": {"rt": 876, "stimulus": "<p id='stroop-text' class='stroop-yellow'>RED</p>", "response": "y", "stimulus-type": "incongruent", "word": "red", "color": "yellow", "correct_response": "y", "trial_id": "stroop-trial-1-incongruent-13", "trial_type": "html-keyboard-response", "trial_index": 177, "time_elapsed": 345639, "internal_node_id": "0.0-6.0-82.0"}}, {"uniqueid": "w68254688:a40951891", "current_trial": 178, "dateTime": 1664873641253, "trialdata": {"rt": 1089, "stimulus": "<p id='stroop-text' class='stroop-green'>YELLOW</p>", "response": "g", "stimulus-type": "incongruent", "word": "yellow", "color": "green", "correct_response": "g", "trial_id": "stroop-trial-1-incongruent-3", "trial_type": "html-keyboard-response", "trial_index": 178, "time_elapsed": 347233, "internal_node_id": "0.0-6.0-83.0"}}, {"uniqueid": "w68254688:a40951891", "current_trial": 179, "dateTime": 1664873642376, "trialdata": {"rt": 616, "stimulus": "<p id='stroop-text' class='stroop-green'>YELLOW</p>", "response": "g", "stimulus-type": "incongruent", "word": "yellow", "color": "green", "correct_response": "g", "trial_id": "stroop-trial-1-incongruent-1", "trial_type": "html-keyboard-response", "trial_index": 179, "time_elapsed": 348356, "internal_node_id": "0.0-6.0-84.0"}}, {"uniqueid": "w68254688:a40951891", "current_trial": 180, "dateTime": 1664873643852, "trialdata": {"rt": 971, "stimulus": "<p id='stroop-text' class='stroop-blue'>BOTTLE</p>", "response": "b", "stimulus-type": "unrelated", "word": "BOTTLE", "color": "blue", "correct_response": "b", "trial_id": "stroop-trial-1-unrelated-3", "trial_type": "html-keyboard-response", "trial_index": 180, "time_elapsed": 349833, "internal_node_id": "0.0-6.0-85.0"}}, {"uniqueid": "w68254688:a40951891", "current_trial": 181, "dateTime": 1664873645375, "trialdata": {"rt": 1017, "stimulus": "<p id='stroop-text' class='stroop-red'>STONE</p>", "response": "r", "stimulus-type": "unrelated", "word": "STONE", "color": "red", "correct_response": "r", "trial_id": "stroop-trial-1-unrelated-18", "trial_type": "html-keyboard-response", "trial_index": 181, "time_elapsed": 351356, "internal_node_id": "0.0-6.0-86.0"}}, {"uniqueid": "w68254688:a40951891", "current_trial": 182, "dateTime": 1664873646751, "trialdata": {"rt": 870, "stimulus": "<p id='stroop-text' class='stroop-green'>GREEN</p>", "response": "g", "stimulus-type": "congruent", "word": "green", "color": "green", "correct_response": "g", "trial_id": "stroop-trial-1-congruent-14", "trial_type": "html-keyboard-response", "trial_index": 182, "time_elapsed": 352732, "internal_node_id": "0.0-6.0-87.0"}}, {"uniqueid": "w68254688:a40951891", "current_trial": 183, "dateTime": 1664873648438, "trialdata": {"rt": 1180, "stimulus": "<p id='stroop-text' class='stroop-red'>BOTTLE</p>", "response": "r", "stimulus-type": "unrelated", "word": "BOTTLE", "color": "red", "correct_response": "r", "trial_id": "stroop-trial-1-unrelated-13", "trial_type": "html-keyboard-response", "trial_index": 183, "time_elapsed": 354419, "internal_node_id": "0.0-6.0-88.0"}}, {"uniqueid": "w68254688:a40951891", "current_trial": 184, "dateTime": 1664873649565, "trialdata": {"rt": 621, "stimulus": "<p id='stroop-text' class='stroop-red'>RED</p>", "response": "r", "stimulus-type": "congruent", "word": "red", "color": "red", "correct_response": "r", "trial_id": "stroop-trial-1-congruent-26", "trial_type": "html-keyboard-response", "trial_index": 184, "time_elapsed": 355546, "internal_node_id": "0.0-6.0-89.0"}}, {"uniqueid": "w68254688:a40951891", "current_trial": 185, "dateTime": 1664873654855, "trialdata": {"rt": 4781, "stimulus": "  <h1> End of block! </h1>\n\n  You have reached the end of the block 2/5. If you need a short break, feel free to take one now before moving on.\n\n  <br><br>\n  In the next block, you will complete another 90 rounds of this game.\n\n  <br><br>\n  <div style='text-align: center;'>Press <code>space</code> to begin.</div>\n  <br><br>\n<div style='text-align: center;'>(If the experiment doesn't continue, try clicking on the text and then pressing <code>space</code>.)</div>", "response": " ", "trial_id": "stroop_1_ready_3", "trial_type": "html-keyboard-response", "trial_index": 185, "time_elapsed": 360835, "internal_node_id": "0.0-7.0"}}, {"uniqueid": "w68254688:a40951891", "current_trial": 186, "dateTime": 1664873656173, "trialdata": {"rt": 1311, "stimulus": "<p id='stroop-text' class='stroop-yellow'>BLUE</p>", "response": "y", "stimulus-type": "incongruent", "word": "blue", "color": "yellow", "correct_response": "y", "trial_id": "stroop-trial-1-incongruent-5", "trial_type": "html-keyboard-response", "trial_index": 186, "time_elapsed": 362153, "internal_node_id": "0.0-8.0-0.0"}}, {"uniqueid": "w68254688:a40951891", "current_trial": 187, "dateTime": 1664873657443, "trialdata": {"rt": 764, "stimulus": "<p id='stroop-text' class='stroop-yellow'>CHAIR</p>", "response": "y", "stimulus-type": "unrelated", "word": "CHAIR", "color": "yellow", "correct_response": "y", "trial_id": "stroop-trial-1-unrelated-6", "trial_type": "html-keyboard-response", "trial_index": 187, "time_elapsed": 363424, "internal_node_id": "0.0-8.0-1.0"}}, {"uniqueid": "w68254688:a40951891", "current_trial": 188, "dateTime": 1664873658635, "trialdata": {"rt": 682, "stimulus": "<p id='stroop-text' class='stroop-yellow'>RED</p>", "response": "y", "stimulus-type": "incongruent", "word": "red", "color": "yellow", "correct_response": "y", "trial_id": "stroop-trial-1-incongruent-17", "trial_type": "html-keyboard-response", "trial_index": 188, "time_elapsed": 364616, "internal_node_id": "0.0-8.0-2.0"}}, {"uniqueid": "w68254688:a40951891", "current_trial": 189, "dateTime": 1664873660038, "trialdata": {"rt": 896, "stimulus": "<p id='stroop-text' class='stroop-green'>GREEN</p>", "response": "g", "stimulus-type": "congruent", "word": "green", "color": "green", "correct_response": "g", "trial_id": "stroop-trial-1-congruent-3", "trial_type": "html-keyboard-response", "trial_index": 189, "time_elapsed": 366019, "internal_node_id": "0.0-8.0-3.0"}}, {"uniqueid": "w68254688:a40951891", "current_trial": 190, "dateTime": 1664873661551, "trialdata": {"rt": 1002, "stimulus": "<p id='stroop-text' class='stroop-yellow'>BLUE</p>", "response": "y", "stimulus-type": "incongruent", "word": "blue", "color": "yellow", "correct_response": "y", "trial_id": "stroop-trial-1-incongruent-9", "trial_type": "html-keyboard-response", "trial_index": 190, "time_elapsed": 367531, "internal_node_id": "0.0-8.0-4.0"}}, {"uniqueid": "w68254688:a40951891", "current_trial": 191, "dateTime": 1664873662911, "trialdata": {"rt": 853, "stimulus": "<p id='stroop-text' class='stroop-red'>RED</p>", "response": "r", "stimulus-type": "congruent", "word": "red", "color": "red", "correct_response": "r", "trial_id": "stroop-trial-1-congruent-2", "trial_type": "html-keyboard-response", "trial_index": 191, "time_elapsed": 368891, "internal_node_id": "0.0-8.0-5.0"}}, {"uniqueid": "w68254688:a40951891", "current_trial": 192, "dateTime": 1664873664404, "trialdata": {"rt": 988, "stimulus": "<p id='stroop-text' class='stroop-green'>MONKEY</p>", "response": "g", "stimulus-type": "unrelated", "word": "MONKEY", "color": "green", "correct_response": "g", "trial_id": "stroop-trial-1-unrelated-28", "trial_type": "html-keyboard-response", "trial_index": 192, "time_elapsed": 370385, "internal_node_id": "0.0-8.0-6.0"}}, {"uniqueid": "w68254688:a40951891", "current_trial": 193, "dateTime": 1664873665931, "trialdata": {"rt": 1021, "stimulus": "<p id='stroop-text' class='stroop-green'>BLUE</p>", "response": "g", "stimulus-type": "incongruent", "word": "blue", "color": "green", "correct_response": "g", "trial_id": "stroop-trial-1-incongruent-28", "trial_type": "html-keyboard-response", "trial_index": 193, "time_elapsed": 371912, "internal_node_id": "0.0-8.0-7.0"}}, {"uniqueid": "w68254688:a40951891", "current_trial": 194, "dateTime": 1664873667545, "trialdata": {"rt": 1107, "stimulus": "<p id='stroop-text' class='stroop-blue'>BLUE</p>", "response": "b", "stimulus-type": "congruent", "word": "blue", "color": "blue", "correct_response": "b", "trial_id": "stroop-trial-1-congruent-27", "trial_type": "html-keyboard-response", "trial_index": 194, "time_elapsed": 373525, "internal_node_id": "0.0-8.0-8.0"}}, {"uniqueid": "w68254688:a40951891", "current_trial": 195, "dateTime": 1664873669512, "trialdata": {"rt": 1458, "stimulus": "<p id='stroop-text' class='stroop-green'>YELLOW</p>", "response": "g", "stimulus-type": "incongruent", "word": "yellow", "color": "green", "correct_response": "g", "trial_id": "stroop-trial-1-incongruent-16", "trial_type": "html-keyboard-response", "trial_index": 195, "time_elapsed": 375493, "internal_node_id": "0.0-8.0-9.0"}}, {"uniqueid": "w68254688:a40951891", "current_trial": 196, "dateTime": 1664873671337, "trialdata": {"rt": 1318, "stimulus": "<p id='stroop-text' class='stroop-red'>BLUE</p>", "response": "r", "stimulus-type": "incongruent", "word": "blue", "color": "red", "correct_response": "r", "trial_id": "stroop-trial-1-incongruent-1", "trial_type": "html-keyboard-response", "trial_index": 196, "time_elapsed": 377318, "internal_node_id": "0.0-8.0-10.0"}}, {"uniqueid": "w68254688:a40951891", "current_trial": 197, "dateTime": 1664873672916, "trialdata": {"rt": 1072, "stimulus": "<p id='stroop-text' class='stroop-green'>GREEN</p>", "response": "g", "stimulus-type": "congruent", "word": "green", "color": "green", "correct_response": "g", "trial_id": "stroop-trial-1-congruent-6", "trial_type": "html-keyboard-response", "trial_index": 197, "time_elapsed": 378897, "internal_node_id": "0.0-8.0-11.0"}}, {"uniqueid": "w68254688:a40951891", "current_trial": 198, "dateTime": 1664873674683, "trialdata": {"rt": 1258, "stimulus": "<p id='stroop-text' class='stroop-yellow'>RED</p>", "response": "y", "stimulus-type": "incongruent", "word": "red", "color": "yellow", "correct_response": "y", "trial_id": "stroop-trial-1-incongruent-10", "trial_type": "html-keyboard-response", "trial_index": 198, "time_elapsed": 380664, "internal_node_id": "0.0-8.0-12.0"}}, {"uniqueid": "w68254688:a40951891", "current_trial": 199, "dateTime": 1664873676407, "trialdata": {"rt": 1217, "stimulus": "<p id='stroop-text' class='stroop-green'>BLUE</p>", "response": "g", "stimulus-type": "incongruent", "word": "blue", "color": "green", "correct_response": "g", "trial_id": "stroop-trial-1-incongruent-18", "trial_type": "html-keyboard-response", "trial_index": 199, "time_elapsed": 382387, "internal_node_id": "0.0-8.0-13.0"}}, {"uniqueid": "w68254688:a40951891", "current_trial": 200, "dateTime": 1664873677530, "trialdata": {"rt": 617, "stimulus": "<p id='stroop-text' class='stroop-green'>FORK</p>", "response": "g", "stimulus-type": "unrelated", "word": "FORK", "color": "green", "correct_response": "g", "trial_id": "stroop-trial-1-unrelated-16", "trial_type": "html-keyboard-response", "trial_index": 200, "time_elapsed": 383511, "internal_node_id": "0.0-8.0-14.0"}}, {"uniqueid": "w68254688:a40951891", "current_trial": 201, "dateTime": 1664873678609, "trialdata": {"rt": 570, "stimulus": "<p id='stroop-text' class='stroop-green'>GREEN</p>", "response": "g", "stimulus-type": "congruent", "word": "green", "color": "green", "correct_response": "g", "trial_id": "stroop-trial-1-congruent-12", "trial_type": "html-keyboard-response", "trial_index": 201, "time_elapsed": 384589, "internal_node_id": "0.0-8.0-15.0"}}, {"uniqueid": "w68254688:a40951891", "current_trial": 202, "dateTime": 1664873680368, "trialdata": {"rt": 1253, "stimulus": "<p id='stroop-text' class='stroop-yellow'>CHAIR</p>", "response": "y", "stimulus-type": "unrelated", "word": "CHAIR", "color": "yellow", "correct_response": "y", "trial_id": "stroop-trial-1-unrelated-18", "trial_type": "html-keyboard-response", "trial_index": 202, "time_elapsed": 386349, "internal_node_id": "0.0-8.0-16.0"}}, {"uniqueid": "w68254688:a40951891", "current_trial": 203, "dateTime": 1664873681524, "trialdata": {"rt": 646, "stimulus": "<p id='stroop-text' class='stroop-blue'>BOTTLE</p>", "response": "g", "stimulus-type": "unrelated", "word": "BOTTLE", "color": "blue", "correct_response": "b", "trial_id": "stroop-trial-1-unrelated-23", "trial_type": "html-keyboard-response", "trial_index": 203, "time_elapsed": 387504, "internal_node_id": "0.0-8.0-17.0"}}, {"uniqueid": "w68254688:a40951891", "current_trial": 204, "dateTime": 1664873683159, "trialdata": {"rt": 1129, "stimulus": "<p id='stroop-text' class='stroop-red'>BOTTLE</p>", "response": "r", "stimulus-type": "unrelated", "word": "BOTTLE", "color": "red", "correct_response": "r", "trial_id": "stroop-trial-1-unrelated-29", "trial_type": "html-keyboard-response", "trial_index": 204, "time_elapsed": 389140, "internal_node_id": "0.0-8.0-18.0"}}, {"uniqueid": "w68254688:a40951891", "current_trial": 205, "dateTime": 1664873684940, "trialdata": {"rt": 1272, "stimulus": "<p id='stroop-text' class='stroop-blue'>BLUE</p>", "response": "b", "stimulus-type": "congruent", "word": "blue", "color": "blue", "correct_response": "b", "trial_id": "stroop-trial-1-congruent-13", "trial_type": "html-keyboard-response", "trial_index": 205, "time_elapsed": 390921, "internal_node_id": "0.0-8.0-19.0"}}, {"uniqueid": "w68254688:a40951891", "current_trial": 206, "dateTime": 1664873687015, "trialdata": {"rt": 1568, "stimulus": "<p id='stroop-text' class='stroop-blue'>RED</p>", "response": "b", "stimulus-type": "incongruent", "word": "red", "color": "blue", "correct_response": "b", "trial_id": "stroop-trial-1-incongruent-13", "trial_type": "html-keyboard-response", "trial_index": 206, "time_elapsed": 392996, "internal_node_id": "0.0-8.0-20.0"}}, {"uniqueid": "w68254688:a40951891", "current_trial": 207, "dateTime": 1664873689025, "trialdata": {"rt": 1498, "stimulus": "<p id='stroop-text' class='stroop-green'>STONE</p>", "response": "g", "stimulus-type": "unrelated", "word": "STONE", "color": "green", "correct_response": "g", "trial_id": "stroop-trial-1-unrelated-2", "trial_type": "html-keyboard-response", "trial_index": 207, "time_elapsed": 395002, "internal_node_id": "0.0-8.0-21.0"}}, {"uniqueid": "w68254688:a40951891", "current_trial": 208, "dateTime": 1664873690928, "trialdata": {"rt": 1397, "stimulus": "<p id='stroop-text' class='stroop-yellow'>BLUE</p>", "response": "y", "stimulus-type": "incongruent", "word": "blue", "color": "yellow", "correct_response": "y", "trial_id": "stroop-trial-1-incongruent-24", "trial_type": "html-keyboard-response", "trial_index": 208, "time_elapsed": 396909, "internal_node_id": "0.0-8.0-22.0"}}, {"uniqueid": "w68254688:a40951891", "current_trial": 209, "dateTime": 1664873692575, "trialdata": {"rt": 1140, "stimulus": "<p id='stroop-text' class='stroop-blue'>BLUE</p>", "response": "b", "stimulus-type": "congruent", "word": "blue", "color": "blue", "correct_response": "b", "trial_id": "stroop-trial-1-congruent-7", "trial_type": "html-keyboard-response", "trial_index": 209, "time_elapsed": 398556, "internal_node_id": "0.0-8.0-23.0"}}, {"uniqueid": "w68254688:a40951891", "current_trial": 210, "dateTime": 1664873694821, "trialdata": {"rt": 1737, "stimulus": "<p id='stroop-text' class='stroop-red'>BRIDGE</p>", "response": "r", "stimulus-type": "unrelated", "word": "BRIDGE", "color": "red", "correct_response": "r", "trial_id": "stroop-trial-1-unrelated-3", "trial_type": "html-keyboard-response", "trial_index": 210, "time_elapsed": 400801, "internal_node_id": "0.0-8.0-24.0"}}, {"uniqueid": "w68254688:a40951891", "current_trial": 211, "dateTime": 1664873697186, "trialdata": {"rt": 1858, "stimulus": "<p id='stroop-text' class='stroop-blue'>RED</p>", "response": "b", "stimulus-type": "incongruent", "word": "red", "color": "blue", "correct_response": "b", "trial_id": "stroop-trial-1-incongruent-2", "trial_type": "html-keyboard-response", "trial_index": 211, "time_elapsed": 403166, "internal_node_id": "0.0-8.0-25.0"}}, {"uniqueid": "w68254688:a40951891", "current_trial": 212, "dateTime": 1664873698969, "trialdata": {"rt": 1275, "stimulus": "<p id='stroop-text' class='stroop-green'>BLUE</p>", "response": "g", "stimulus-type": "incongruent", "word": "blue", "color": "green", "correct_response": "g", "trial_id": "stroop-trial-1-incongruent-30", "trial_type": "html-keyboard-response", "trial_index": 212, "time_elapsed": 404950, "internal_node_id": "0.0-8.0-26.0"}}, {"uniqueid": "w68254688:a40951891", "current_trial": 213, "dateTime": 1664873700964, "trialdata": {"rt": 1488, "stimulus": "<p id='stroop-text' class='stroop-red'>GREEN</p>", "response": "r", "stimulus-type": "incongruent", "word": "green", "color": "red", "correct_response": "r", "trial_id": "stroop-trial-1-incongruent-23", "trial_type": "html-keyboard-response", "trial_index": 213, "time_elapsed": 406944, "internal_node_id": "0.0-8.0-27.0"}}, {"uniqueid": "w68254688:a40951891", "current_trial": 214, "dateTime": 1664873702655, "trialdata": {"rt": 1184, "stimulus": "<p id='stroop-text' class='stroop-yellow'>GREEN</p>", "response": "y", "stimulus-type": "incongruent", "word": "green", "color": "yellow", "correct_response": "y", "trial_id": "stroop-trial-1-incongruent-25", "trial_type": "html-keyboard-response", "trial_index": 214, "time_elapsed": 408636, "internal_node_id": "0.0-8.0-28.0"}}, {"uniqueid": "w68254688:a40951891", "current_trial": 215, "dateTime": 1664873704623, "trialdata": {"rt": 1458, "stimulus": "<p id='stroop-text' class='stroop-red'>MONKEY</p>", "response": "r", "stimulus-type": "unrelated", "word": "MONKEY", "color": "red", "correct_response": "r", "trial_id": "stroop-trial-1-unrelated-20", "trial_type": "html-keyboard-response", "trial_index": 215, "time_elapsed": 410603, "internal_node_id": "0.0-8.0-29.0"}}, {"uniqueid": "w68254688:a40951891", "current_trial": 216, "dateTime": 1664873706649, "trialdata": {"rt": 1519, "stimulus": "<p id='stroop-text' class='stroop-blue'>BRAIN</p>", "response": "b", "stimulus-type": "unrelated", "word": "BRAIN", "color": "blue", "correct_response": "b", "trial_id": "stroop-trial-1-unrelated-30", "trial_type": "html-keyboard-response", "trial_index": 216, "time_elapsed": 412629, "internal_node_id": "0.0-8.0-30.0"}}, {"uniqueid": "w68254688:a40951891", "current_trial": 217, "dateTime": 1664873707911, "trialdata": {"rt": 752, "stimulus": "<p id='stroop-text' class='stroop-blue'>BLUE</p>", "response": "b", "stimulus-type": "congruent", "word": "blue", "color": "blue", "correct_response": "b", "trial_id": "stroop-trial-1-congruent-23", "trial_type": "html-keyboard-response", "trial_index": 217, "time_elapsed": 413891, "internal_node_id": "0.0-8.0-31.0"}}, {"uniqueid": "w68254688:a40951891", "current_trial": 218, "dateTime": 1664873709889, "trialdata": {"rt": 1471, "stimulus": "<p id='stroop-text' class='stroop-blue'>YELLOW</p>", "response": "b", "stimulus-type": "incongruent", "word": "yellow", "color": "blue", "correct_response": "b", "trial_id": "stroop-trial-1-incongruent-29", "trial_type": "html-keyboard-response", "trial_index": 218, "time_elapsed": 415869, "internal_node_id": "0.0-8.0-32.0"}}, {"uniqueid": "w68254688:a40951891", "current_trial": 219, "dateTime": 1664873711184, "trialdata": {"rt": 785, "stimulus": "<p id='stroop-text' class='stroop-blue'>BRAIN</p>", "response": "b", "stimulus-type": "unrelated", "word": "BRAIN", "color": "blue", "correct_response": "b", "trial_id": "stroop-trial-1-unrelated-12", "trial_type": "html-keyboard-response", "trial_index": 219, "time_elapsed": 417164, "internal_node_id": "0.0-8.0-33.0"}}, {"uniqueid": "w68254688:a40951891", "current_trial": 220, "dateTime": 1664873712528, "trialdata": {"rt": 839, "stimulus": "<p id='stroop-text' class='stroop-blue'>BLUE</p>", "response": "b", "stimulus-type": "congruent", "word": "blue", "color": "blue", "correct_response": "b", "trial_id": "stroop-trial-1-congruent-24", "trial_type": "html-keyboard-response", "trial_index": 220, "time_elapsed": 418509, "internal_node_id": "0.0-8.0-34.0"}}, {"uniqueid": "w68254688:a40951891", "current_trial": 221, "dateTime": 1664873713911, "trialdata": {"rt": 876, "stimulus": "<p id='stroop-text' class='stroop-red'>RED</p>", "response": "r", "stimulus-type": "congruent", "word": "red", "color": "red", "correct_response": "r", "trial_id": "stroop-trial-1-congruent-4", "trial_type": "html-keyboard-response", "trial_index": 221, "time_elapsed": 419892, "internal_node_id": "0.0-8.0-35.0"}}, {"uniqueid": "w68254688:a40951891", "current_trial": 222, "dateTime": 1664873714967, "trialdata": {"rt": 548, "stimulus": "<p id='stroop-text' class='stroop-red'>RED</p>", "response": "r", "stimulus-type": "congruent", "word": "red", "color": "red", "correct