{"condition": 0, "counterbalance": 0, "assignmentId": "a27920959", "workerId": "w40203538", "hitId": "h76222013", "currenttrial": 467, "bonus": 0, "data": [{"uniqueid": "w40203538:a27920959", "current_trial": 0, "dateTime": 1664554949799, "trialdata": {"success": true, "trial_type": "fullscreen", "trial_index": 0, "time_elapsed": 11308, "internal_node_id": "0.0-0.0"}}, {"uniqueid": "w40203538:a27920959", "current_trial": 1, "dateTime": 1664555013106, "trialdata": {"view_history": [{"page_index": 0, "viewing_time": 63256}], "rt": 63266, "trial_id": "exp_instructions_distractor", "trial_type": "instructions", "trial_index": 1, "time_elapsed": 74618, "internal_node_id": "0.0-1.0"}}, {"uniqueid": "w40203538:a27920959", "current_trial": 2, "dateTime": 1664555081378, "trialdata": {"view_history": [{"page_index": 0, "viewing_time": 68247}], "rt": 68252, "trial_id": "color_game_instructions", "trial_type": "instructions", "trial_index": 2, "time_elapsed": 142890, "internal_node_id": "0.0-2.0"}}, {"uniqueid": "w40203538:a27920959", "current_trial": 3, "dateTime": 1664555100288, "trialdata": {"rt": 18889, "stimulus": "<h1> Get ready to start the game! </h1>\n\nThank you for reading the instructions. Get ready start with the first of 5 block(s) of this game.\n<br><br>\nIn this first block, you will complete 90 rounds of this game before moving on.\n<br><br>\nRemember, the better you perform, the bigger your bonus will be!\n<br><br>\n<div style='text-align: center;'>Press <code>space</code> to begin.</div>", "response": " ", "trial_id": "stroop_1_ready_1", "trial_type": "html-keyboard-response", "trial_index": 3, "time_elapsed": 161802, "internal_node_id": "0.0-3.0"}}, {"uniqueid": "w40203538:a27920959", "current_trial": 4, "dateTime": 1664555101992, "trialdata": {"rt": 1644, "stimulus": "<p id='stroop-text' class='stroop-yellow'>BOAT</p>", "response": "y", "stimulus-type": "unrelated", "word": "BOAT", "color": "yellow", "correct_response": "y", "trial_id": "stroop-trial-1-unrelated-30", "trial_type": "html-keyboard-response", "trial_index": 4, "time_elapsed": 163502, "internal_node_id": "0.0-4.0-0.0"}}, {"uniqueid": "w40203538:a27920959", "current_trial": 5, "dateTime": 1664555103588, "trialdata": {"rt": 1078, "stimulus": "<p id='stroop-text' class='stroop-red'>DOG</p>", "response": "g", "stimulus-type": "unrelated", "word": "DOG", "color": "red", "correct_response": "r", "trial_id": "stroop-trial-1-unrelated-5", "trial_type": "html-keyboard-response", "trial_index": 5, "time_elapsed": 165100, "internal_node_id": "0.0-4.0-1.0"}}, {"uniqueid": "w40203538:a27920959", "current_trial": 6, "dateTime": 1664555105687, "trialdata": {"rt": 1582, "stimulus": "<p id='stroop-text' class='stroop-yellow'>STONE</p>", "response": "y", "stimulus-type": "unrelated", "word": "STONE", "color": "yellow", "correct_response": "y", "trial_id": "stroop-trial-1-unrelated-12", "trial_type": "html-keyboard-response", "trial_index": 6, "time_elapsed": 167198, "internal_node_id": "0.0-4.0-2.0"}}, {"uniqueid": "w40203538:a27920959", "current_trial": 7, "dateTime": 1664555107723, "trialdata": {"rt": 1517, "stimulus": "<p id='stroop-text' class='stroop-blue'>BLUE</p>", "response": "b", "stimulus-type": "congruent", "word": "blue", "color": "blue", "correct_response": "b", "trial_id": "stroop-trial-1-congruent-23", "trial_type": "html-keyboard-response", "trial_index": 7, "time_elapsed": 169236, "internal_node_id": "0.0-4.0-3.0"}}, {"uniqueid": "w40203538:a27920959", "current_trial": 8, "dateTime": 1664555109269, "trialdata": {"rt": 1035, "stimulus": "<p id='stroop-text' class='stroop-yellow'>YELLOW</p>", "response": "y", "stimulus-type": "congruent", "word": "yellow", "color": "yellow", "correct_response": "y", "trial_id": "stroop-trial-1-congruent-2", "trial_type": "html-keyboard-response", "trial_index": 8, "time_elapsed": 170781, "internal_node_id": "0.0-4.0-4.0"}}, {"uniqueid": "w40203538:a27920959", "current_trial": 9, "dateTime": 1664555111496, "trialdata": {"rt": 1708, "stimulus": "<p id='stroop-text' class='stroop-yellow'>GREEN</p>", "response": "y", "stimulus-type": "incongruent", "word": "green", "color": "yellow", "correct_response": "y", "trial_id": "stroop-trial-1-incongruent-18", "trial_type": "html-keyboard-response", "trial_index": 9, "time_elapsed": 173007, "internal_node_id": "0.0-4.0-5.0"}}, {"uniqueid": "w40203538:a27920959", "current_trial": 10, "dateTime": 1664555113266, "trialdata": {"rt": 1257, "stimulus": "<p id='stroop-text' class='stroop-green'>SHIP</p>", "response": "g", "stimulus-type": "unrelated", "word": "SHIP", "color": "green", "correct_response": "g", "trial_id": "stroop-trial-1-unrelated-1", "trial_type": "html-keyboard-response", "trial_index": 10, "time_elapsed": 174779, "internal_node_id": "0.0-4.0-6.0"}}, {"uniqueid": "w40203538:a27920959", "current_trial": 11, "dateTime": 1664555114749, "trialdata": {"rt": 971, "stimulus": "<p id='stroop-text' class='stroop-green'>GREEN</p>", "response": "g", "stimulus-type": "congruent", "word": "green", "color": "green", "correct_response": "g", "trial_id": "stroop-trial-1-congruent-11", "trial_type": "html-keyboard-response", "trial_index": 11, "time_elapsed": 176262, "internal_node_id": "0.0-4.0-7.0"}}, {"uniqueid": "w40203538:a27920959", "current_trial": 12, "dateTime": 1664555116803, "trialdata": {"rt": 1537, "stimulus": "<p id='stroop-text' class='stroop-blue'>STONE</p>", "response": "b", "stimulus-type": "unrelated", "word": "STONE", "color": "blue", "correct_response": "b", "trial_id": "stroop-trial-1-unrelated-8", "trial_type": "html-keyboard-response", "trial_index": 12, "time_elapsed": 178315, "internal_node_id": "0.0-4.0-8.0"}}, {"uniqueid": "w40203538:a27920959", "current_trial": 13, "dateTime": 1664555118410, "trialdata": {"rt": 1097, "stimulus": "<p id='stroop-text' class='stroop-green'>GREEN</p>", "response": "g", "stimulus-type": "congruent", "word": "green", "color": "green", "correct_response": "g", "trial_id": "stroop-trial-1-congruent-3", "trial_type": "html-keyboard-response", "trial_index": 13, "time_elapsed": 179923, "internal_node_id": "0.0-4.0-9.0"}}, {"uniqueid": "w40203538:a27920959", "current_trial": 14, "dateTime": 1664555120183, "trialdata": {"rt": 1254, "stimulus": "<p id='stroop-text' class='stroop-blue'>GREEN</p>", "response": "b", "stimulus-type": "incongruent", "word": "green", "color": "blue", "correct_response": "b", "trial_id": "stroop-trial-1-incongruent-26", "trial_type": "html-keyboard-response", "trial_index": 14, "time_elapsed": 181695, "internal_node_id": "0.0-4.0-10.0"}}, {"uniqueid": "w40203538:a27920959", "current_trial": 15, "dateTime": 1664555121681, "trialdata": {"rt": 981, "stimulus": "<p id='stroop-text' class='stroop-yellow'>WINDOW</p>", "response": "y", "stimulus-type": "unrelated", "word": "WINDOW", "color": "yellow", "correct_response": "y", "trial_id": "stroop-trial-1-unrelated-10", "trial_type": "html-keyboard-response", "trial_index": 15, "time_elapsed": 183191, "internal_node_id": "0.0-4.0-11.0"}}, {"uniqueid": "w40203538:a27920959", "current_trial": 16, "dateTime": 1664555123566, "trialdata": {"rt": 1371, "stimulus": "<p id='stroop-text' class='stroop-red'>BRIDGE</p>", "response": "r", "stimulus-type": "unrelated", "word": "BRIDGE", "color": "red", "correct_response": "r", "trial_id": "stroop-trial-1-unrelated-2", "trial_type": "html-keyboard-response", "trial_index": 16, "time_elapsed": 185078, "internal_node_id": "0.0-4.0-12.0"}}, {"uniqueid": "w40203538:a27920959", "current_trial": 17, "dateTime": 1664555125039, "trialdata": {"rt": 959, "stimulus": "<p id='stroop-text' class='stroop-green'>GREEN</p>", "response": "g", "stimulus-type": "congruent", "word": "green", "color": "green", "correct_response": "g", "trial_id": "stroop-trial-1-congruent-9", "trial_type": "html-keyboard-response", "trial_index": 17, "time_elapsed": 186550, "internal_node_id": "0.0-4.0-13.0"}}, {"uniqueid": "w40203538:a27920959", "current_trial": 18, "dateTime": 1664555126454, "trialdata": {"rt": 898, "stimulus": "<p id='stroop-text' class='stroop-yellow'>YELLOW</p>", "response": "y", "stimulus-type": "congruent", "word": "yellow", "color": "yellow", "correct_response": "y", "trial_id": "stroop-trial-1-congruent-28", "trial_type": "html-keyboard-response", "trial_index": 18, "time_elapsed": 187966, "internal_node_id": "0.0-4.0-14.0"}}, {"uniqueid": "w40203538:a27920959", "current_trial": 19, "dateTime": 1664555129662, "trialdata": {"rt": 2692, "stimulus": "<p id='stroop-text' class='stroop-blue'>RED</p>", "response": "b", "stimulus-type": "incongruent", "word": "red", "color": "blue", "correct_response": "b", "trial_id": "stroop-trial-1-incongruent-8", "trial_type": "html-keyboard-response", "trial_index": 19, "time_elapsed": 191172, "internal_node_id": "0.0-4.0-15.0"}}, {"uniqueid": "w40203538:a27920959", "current_trial": 20, "dateTime": 1664555131740, "trialdata": {"rt": 1571, "stimulus": "<p id='stroop-text' class='stroop-blue'>GREEN</p>", "response": "b", "stimulus-type": "incongruent", "word": "green", "color": "blue", "correct_response": "b", "trial_id": "stroop-trial-1-incongruent-7", "trial_type": "html-keyboard-response", "trial_index": 20, "time_elapsed": 193252, "internal_node_id": "0.0-4.0-16.0"}}, {"uniqueid": "w40203538:a27920959", "current_trial": 21, "dateTime": 1664555134217, "trialdata": {"rt": 1960, "stimulus": "<p id='stroop-text' class='stroop-green'>BOTTLE</p>", "response": "g", "stimulus-type": "unrelated", "word": "BOTTLE", "color": "green", "correct_response": "g", "trial_id": "stroop-trial-1-unrelated-15", "trial_type": "html-keyboard-response", "trial_index": 21, "time_elapsed": 195729, "internal_node_id": "0.0-4.0-17.0"}}, {"uniqueid": "w40203538:a27920959", "current_trial": 22, "dateTime": 1664555135711, "trialdata": {"rt": 979, "stimulus": "<p id='stroop-text' class='stroop-yellow'>STONE</p>", "response": "y", "stimulus-type": "unrelated", "word": "STONE", "color": "yellow", "correct_response": "y", "trial_id": "stroop-trial-1-unrelated-21", "trial_type": "html-keyboard-response", "trial_index": 22, "time_elapsed": 197222, "internal_node_id": "0.0-4.0-18.0"}}, {"uniqueid": "w40203538:a27920959", "current_trial": 23, "dateTime": 1664555137120, "trialdata": {"rt": 892, "stimulus": "<p id='stroop-text' class='stroop-blue'>BLUE</p>", "response": "b", "stimulus-type": "congruent", "word": "blue", "color": "blue", "correct_response": "b", "trial_id": "stroop-trial-1-congruent-24", "trial_type": "html-keyboard-response", "trial_index": 23, "time_elapsed": 198632, "internal_node_id": "0.0-4.0-19.0"}}, {"uniqueid": "w40203538:a27920959", "current_trial": 24, "dateTime": 1664555138966, "trialdata": {"rt": 1331, "stimulus": "<p id='stroop-text' class='stroop-blue'>RED</p>", "response": "b", "stimulus-type": "incongruent", "word": "red", "color": "blue", "correct_response": "b", "trial_id": "stroop-trial-1-incongruent-5", "trial_type": "html-keyboard-response", "trial_index": 24, "time_elapsed": 200478, "internal_node_id": "0.0-4.0-20.0"}}, {"uniqueid": "w40203538:a27920959", "current_trial": 25, "dateTime": 1664555141532, "trialdata": {"rt": 2047, "stimulus": "<p id='stroop-text' class='stroop-green'>RED</p>", "response": "g", "stimulus-type": "incongruent", "word": "red", "color": "green", "correct_response": "g", "trial_id": "stroop-trial-1-incongruent-13", "trial_type": "html-keyboard-response", "trial_index": 25, "time_elapsed": 203045, "internal_node_id": "0.0-4.0-21.0"}}, {"uniqueid": "w40203538:a27920959", "current_trial": 26, "dateTime": 1664555143209, "trialdata": {"rt": 1162, "stimulus": "<p id='stroop-text' class='stroop-red'>BOTTLE</p>", "response": "b", "stimulus-type": "unrelated", "word": "BOTTLE", "color": "red", "correct_response": "r", "trial_id": "stroop-trial-1-unrelated-14", "trial_type": "html-keyboard-response", "trial_index": 26, "time_elapsed": 204721, "internal_node_id": "0.0-4.0-22.0"}}, {"uniqueid": "w40203538:a27920959", "current_trial": 27, "dateTime": 1664555145197, "trialdata": {"rt": 1472, "stimulus": "<p id='stroop-text' class='stroop-red'>RED</p>", "response": "r", "stimulus-type": "congruent", "word": "red", "color": "red", "correct_response": "r", "trial_id": "stroop-trial-1-congruent-21", "trial_type": "html-keyboard-response", "trial_index": 27, "time_elapsed": 206710, "internal_node_id": "0.0-4.0-23.0"}}, {"uniqueid": "w40203538:a27920959", "current_trial": 28, "dateTime": 1664555146828, "trialdata": {"rt": 1117, "stimulus": "<p id='stroop-text' class='stroop-yellow'>YELLOW</p>", "response": "y", "stimulus-type": "congruent", "word": "yellow", "color": "yellow", "correct_response": "y", "trial_id": "stroop-trial-1-congruent-7", "trial_type": "html-keyboard-response", "trial_index": 28, "time_elapsed": 208340, "internal_node_id": "0.0-4.0-24.0"}}, {"uniqueid": "w40203538:a27920959", "current_trial": 29, "dateTime": 1664555148852, "trialdata": {"rt": 1508, "stimulus": "<p id='stroop-text' class='stroop-green'>YELLOW</p>", "response": "g", "stimulus-type": "incongruent", "word": "yellow", "color": "green", "correct_response": "g", "trial_id": "stroop-trial-1-incongruent-16", "trial_type": "html-keyboard-response", "trial_index": 29, "time_elapsed": 210361, "internal_node_id": "0.0-4.0-25.0"}}, {"uniqueid": "w40203538:a27920959", "current_trial": 30, "dateTime": 1664555151276, "trialdata": {"rt": 1903, "stimulus": "<p id='stroop-text' class='stroop-red'>RED</p>", "response": "r", "stimulus-type": "congruent", "word": "red", "color": "red", "correct_response": "r", "trial_id": "stroop-trial-1-congruent-8", "trial_type": "html-keyboard-response", "trial_index": 30, "time_elapsed": 212789, "internal_node_id": "0.0-4.0-26.0"}}, {"uniqueid": "w40203538:a27920959", "current_trial": 31, "dateTime": 1664555152837, "trialdata": {"rt": 1052, "stimulus": "<p id='stroop-text' class='stroop-green'>GREEN</p>", "response": "g", "stimulus-type": "congruent", "word": "green", "color": "green", "correct_response": "g", "trial_id": "stroop-trial-1-congruent-12", "trial_type": "html-keyboard-response", "trial_index": 31, "time_elapsed": 214350, "internal_node_id": "0.0-4.0-27.0"}}, {"uniqueid": "w40203538:a27920959", "current_trial": 32, "dateTime": 1664555155542, "trialdata": {"rt": 2191, "stimulus": "<p id='stroop-text' class='stroop-red'>YELLOW</p>", "response": "r", "stimulus-type": "incongruent", "word": "yellow", "color": "red", "correct_response": "r", "trial_id": "stroop-trial-1-incongruent-21", "trial_type": "html-keyboard-response", "trial_index": 32, "time_elapsed": 217054, "internal_node_id": "0.0-4.0-28.0"}}, {"uniqueid": "w40203538:a27920959", "current_trial": 33, "dateTime": 1664555157620, "trialdata": {"rt": 1568, "stimulus": "<p id='stroop-text' class='stroop-red'>BLUE</p>", "response": "r", "stimulus-type": "incongruent", "word": "blue", "color": "red", "correct_response": "r", "trial_id": "stroop-trial-1-incongruent-20", "trial_type": "html-keyboard-response", "trial_index": 33, "time_elapsed": 219133, "internal_node_id": "0.0-4.0-29.0"}}, {"uniqueid": "w40203538:a27920959", "current_trial": 34, "dateTime": 1664555159354, "trialdata": {"rt": 1222, "stimulus": "<p id='stroop-text' class='stroop-blue'>BRIDGE</p>", "response": "b", "stimulus-type": "unrelated", "word": "BRIDGE", "color": "blue", "correct_response": "b", "trial_id": "stroop-trial-1-unrelated-13", "trial_type": "html-keyboard-response", "trial_index": 34, "time_elapsed": 220865, "internal_node_id": "0.0-4.0-30.0"}}, {"uniqueid": "w40203538:a27920959", "current_trial": 35, "dateTime": 1664555160998, "trialdata": {"rt": 1127, "stimulus": "<p id='stroop-text' class='stroop-green'>RED</p>", "response": "g", "stimulus-type": "incongruent", "word": "red", "color": "green", "correct_response": "g", "trial_id": "stroop-trial-1-incongruent-17", "trial_type": "html-keyboard-response", "trial_index": 35, "time_elapsed": 222510, "internal_node_id": "0.0-4.0-31.0"}}, {"uniqueid": "w40203538:a27920959", "current_trial": 36, "dateTime": 1664555163021, "trialdata": {"rt": 1512, "stimulus": "<p id='stroop-text' class='stroop-red'>RED</p>", "response": "r", "stimulus-type": "congruent", "word": "red", "color": "red", "correct_response": "r", "trial_id": "stroop-trial-1-congruent-18", "trial_type": "html-keyboard-response", "trial_index": 36, "time_elapsed": 224533, "internal_node_id": "0.0-4.0-32.0"}}, {"uniqueid": "w40203538:a27920959", "current_trial": 37, "dateTime": 1664555164979, "trialdata": {"rt": 1439, "stimulus": "<p id='stroop-text' class='stroop-green'>BLUE</p>", "response": "g", "stimulus-type": "incongruent", "word": "blue", "color": "green", "correct_response": "g", "trial_id": "stroop-trial-1-incongruent-6", "trial_type": "html-keyboard-response", "trial_index": 37, "time_elapsed": 226489, "internal_node_id": "0.0-4.0-33.0"}}, {"uniqueid": "w40203538:a27920959", "current_trial": 38, "dateTime": 1664555167014, "trialdata": {"rt": 1521, "stimulus": "<p id='stroop-text' class='stroop-red'>BLUE</p>", "response": "r", "stimulus-type": "incongruent", "word": "blue", "color": "red", "correct_response": "r", "trial_id": "stroop-trial-1-incongruent-23", "trial_type": "html-keyboard-response", "trial_index": 38, "time_elapsed": 228527, "internal_node_id": "0.0-4.0-34.0"}}, {"uniqueid": "w40203538:a27920959", "current_trial": 39, "dateTime": 1664555168749, "trialdata": {"rt": 1226, "stimulus": "<p id='stroop-text' class='stroop-green'>YELLOW</p>", "response": "y", "stimulus-type": "incongruent", "word": "yellow", "color": "green", "correct_response": "g", "trial_id": "stroop-trial-1-incongruent-14", "trial_type": "html-keyboard-response", "trial_index": 39, "time_elapsed": 230261, "internal_node_id": "0.0-4.0-35.0"}}, {"uniqueid": "w40203538:a27920959", "current_trial": 40, "dateTime": 1664555170372, "trialdata": {"rt": 1115, "stimulus": "<p id='stroop-text' class='stroop-red'>BOTTLE</p>", "response": "r", "stimulus-type": "unrelated", "word": "BOTTLE", "color": "red", "correct_response": "r", "trial_id": "stroop-trial-1-unrelated-24", "trial_type": "html-keyboard-response", "trial_index": 40, "time_elapsed": 231885, "internal_node_id": "0.0-4.0-36.0"}}, {"uniqueid": "w40203538:a27920959", "current_trial": 41, "dateTime": 1664555171851, "trialdata": {"rt": 968, "stimulus": "<p id='stroop-text' class='stroop-green'>GREEN</p>", "response": "g", "stimulus-type": "congruent", "word": "green", "color": "green", "correct_response": "g", "trial_id": "stroop-trial-1-congruent-5", "trial_type": "html-keyboard-response", "trial_index": 41, "time_elapsed": 233364, "internal_node_id": "0.0-4.0-37.0"}}, {"uniqueid": "w40203538:a27920959", "current_trial": 42, "dateTime": 1664555173365, "trialdata": {"rt": 1005, "stimulus": "<p id='stroop-text' class='stroop-blue'>RED</p>", "response": "r", "stimulus-type": "incongruent", "word": "red", "color": "blue", "correct_response": "b", "trial_id": "stroop-trial-1-incongruent-30", "trial_type": "html-keyboard-response", "trial_index": 42, "time_elapsed": 234878, "internal_node_id": "0.0-4.0-38.0"}}, {"uniqueid": "w40203538:a27920959", "current_trial": 43, "dateTime": 1664555174781, "trialdata": {"rt": 908, "stimulus": "<p id='stroop-text' class='stroop-yellow'>CHAIR</p>", "response": "y", "stimulus-type": "unrelated", "word": "CHAIR", "color": "yellow", "correct_response": "y", "trial_id": "stroop-trial-1-unrelated-9", "trial_type": "html-keyboard-response", "trial_index": 43, "time_elapsed": 236294, "internal_node_id": "0.0-4.0-39.0"}}, {"uniqueid": "w40203538:a27920959", "current_trial": 44, "dateTime": 1664555176412, "trialdata": {"rt": 1122, "stimulus": "<p id='stroop-text' class='stroop-blue'>BLUE</p>", "response": "b", "stimulus-type": "congruent", "word": "blue", "color": "blue", "correct_response": "b", "trial_id": "stroop-trial-1-congruent-14", "trial_type": "html-keyboard-response", "trial_index": 44, "time_elapsed": 237925, "internal_node_id": "0.0-4.0-40.0"}}, {"uniqueid": "w40203538:a27920959", "current_trial": 45, "dateTime": 1664555177967, "trialdata": {"rt": 1042, "stimulus": "<p id='stroop-text' class='stroop-red'>BOTTLE</p>", "response": "r", "stimulus-type": "unrelated", "word": "BOTTLE", "color": "red", "correct_response": "r", "trial_id": "stroop-trial-1-unrelated-23", "trial_type": "html-keyboard-response", "trial_index": 45, "time_elapsed": 239479, "internal_node_id": "0.0-4.0-41.0"}}, {"uniqueid": "w40203538:a27920959", "current_trial": 46, "dateTime": 1664555179150, "trialdata": {"rt": 672, "stimulus": "<p id='stroop-text' class='stroop-yellow'>FORK</p>", "response": "y", "stimulus-type": "unrelated", "word": "FORK", "color": "yellow", "correct_response": "y", "trial_id": "stroop-trial-1-unrelated-6", "trial_type": "html-keyboard-response", "trial_index": 46, "time_elapsed": 240662, "internal_node_id": "0.0-4.0-42.0"}}, {"uniqueid": "w40203538:a27920959", "current_trial": 47, "dateTime": 1664555180836, "trialdata": {"rt": 1177, "stimulus": "<p id='stroop-text' class='stroop-red'>GREEN</p>", "response": "r", "stimulus-type": "incongruent", "word": "green", "color": "red", "correct_response": "r", "trial_id": "stroop-trial-1-incongruent-4", "trial_type": "html-keyboard-response", "trial_index": 47, "time_elapsed": 242349, "internal_node_id": "0.0-4.0-43.0"}}, {"uniqueid": "w40203538:a27920959", "current_trial": 48, "dateTime": 1664555183413, "trialdata": {"rt": 2068, "stimulus": "<p id='stroop-text' class='stroop-green'>GREEN</p>", "response": "g", "stimulus-type": "congruent", "word": "green", "color": "green", "correct_response": "g", "trial_id": "stroop-trial-1-congruent-29", "trial_type": "html-keyboard-response", "trial_index": 48, "time_elapsed": 244926, "internal_node_id": "0.0-4.0-44.0"}}, {"uniqueid": "w40203538:a27920959", "current_trial": 49, "dateTime": 1664555184710, "trialdata": {"rt": 789, "stimulus": "<p id='stroop-text' class='stroop-yellow'>YELLOW</p>", "response": "y", "stimulus-type": "congruent", "word": "yellow", "color": "yellow", "correct_response": "y", "trial_id": "stroop-trial-1-congruent-6", "trial_type": "html-keyboard-response", "trial_index": 49, "time_elapsed": 246222, "internal_node_id": "0.0-4.0-45.0"}}, {"uniqueid": "w40203538:a27920959", "current_trial": 50, "dateTime": 1664555186165, "trialdata": {"rt": 947, "stimulus": "<p id='stroop-text' class='stroop-blue'>GREEN</p>", "response": "b", "stimulus-type": "incongruent", "word": "green", "color": "blue", "correct_response": "b", "trial_id": "stroop-trial-1-incongruent-2", "trial_type": "html-keyboard-response", "trial_index": 50, "time_elapsed": 247678, "internal_node_id": "0.0-4.0-46.0"}}, {"uniqueid": "w40203538:a27920959", "current_trial": 51, "dateTime": 1664555187889, "trialdata": {"rt": 1210, "stimulus": "<p id='stroop-text' class='stroop-yellow'>RED</p>", "response": "r", "stimulus-type": "incongruent", "word": "red", "color": "yellow", "correct_response": "y", "trial_id": "stroop-trial-1-incongruent-15", "trial_type": "html-keyboard-response", "trial_index": 51, "time_elapsed": 249401, "internal_node_id": "0.0-4.0-47.0"}}, {"uniqueid": "w40203538:a27920959", "current_trial": 52, "dateTime": 1664555189371, "trialdata": {"rt": 963, "stimulus": "<p id='stroop-text' class='stroop-green'>RED</p>", "response": "g", "stimulus-type": "incongruent", "word": "red", "color": "green", "correct_response": "g", "trial_id": "stroop-trial-1-incongruent-27", "trial_type": "html-keyboard-response", "trial_index": 52, "time_elapsed": 250877, "internal_node_id": "0.0-4.0-48.0"}}, {"uniqueid": "w40203538:a27920959", "current_trial": 53, "dateTime": 1664555191494, "trialdata": {"rt": 1615, "stimulus": "<p id='stroop-text' class='stroop-blue'>GREEN</p>", "response": "b", "stimulus-type": "incongruent", "word": "green", "color": "blue", "correct_response": "b", "trial_id": "stroop-trial-1-incongruent-28", "trial_type": "html-keyboard-response", "trial_index": 53, "time_elapsed": 253007, "internal_node_id": "0.0-4.0-49.0"}}, {"uniqueid": "w40203538:a27920959", "current_trial": 54, "dateTime": 1664555192845, "trialdata": {"rt": 841, "stimulus": "<p id='stroop-text' class='stroop-green'>GREEN</p>", "response": "g", "stimulus-type": "congruent", "word": "green", "color": "green", "correct_response": "g", "trial_id": "stroop-trial-1-congruent-25", "trial_type": "html-keyboard-response", "trial_index": 54, "time_elapsed": 254358, "internal_node_id": "0.0-4.0-50.0"}}, {"uniqueid": "w40203538:a27920959", "current_trial": 55, "dateTime": 1664555194494, "trialdata": {"rt": 1133, "stimulus": "<p id='stroop-text' class='stroop-blue'>MONKEY</p>", "response": "b", "stimulus-type": "unrelated", "word": "MONKEY", "color": "blue", "correct_response": "b", "trial_id": "stroop-trial-1-unrelated-25", "trial_type": "html-keyboard-response", "trial_index": 55, "time_elapsed": 256007, "internal_node_id": "0.0-4.0-51.0"}}, {"uniqueid": "w40203538:a27920959", "current_trial": 56, "dateTime": 1664555195877, "trialdata": {"rt": 869, "stimulus": "<p id='stroop-text' class='stroop-blue'>BLUE</p>", "response": "b", "stimulus-type": "congruent", "word": "blue", "color": "blue", "correct_response": "b", "trial_id": "stroop-trial-1-congruent-1", "trial_type": "html-keyboard-response", "trial_index": 56, "time_elapsed": 257390, "internal_node_id": "0.0-4.0-52.0"}}, {"uniqueid": "w40203538:a27920959", "current_trial": 57, "dateTime": 1664555197158, "trialdata": {"rt": 769, "stimulus": "<p id='stroop-text' class='stroop-yellow'>YELLOW</p>", "response": "y", "stimulus-type": "congruent", "word": "yellow", "color": "yellow", "correct_response": "y", "trial_id": "stroop-trial-1-congruent-22", "trial_type": "html-keyboard-response", "trial_index": 57, "time_elapsed": 258671, "internal_node_id": "0.0-4.0-53.0"}}, {"uniqueid": "w40203538:a27920959", "current_trial": 58, "dateTime": 1664555198358, "trialdata": {"rt": 687, "stimulus": "<p id='stroop-text' class='stroop-red'>FORK</p>", "response": "r", "stimulus-type": "unrelated", "word": "FORK", "color": "red", "correct_response": "r", "trial_id": "stroop-trial-1-unrelated-7", "trial_type": "html-keyboard-response", "trial_index": 58, "time_elapsed": 259871, "internal_node_id": "0.0-4.0-54.0"}}, {"uniqueid": "w40203538:a27920959", "current_trial": 59, "dateTime": 1664555199524, "trialdata": {"rt": 654, "stimulus": "<p id='stroop-text' class='stroop-red'>STONE</p>", "response": "r", "stimulus-type": "unrelated", "word": "STONE", "color": "red", "correct_response": "r", "trial_id": "stroop-trial-1-unrelated-22", "trial_type": "html-keyboard-response", "trial_index": 59, "time_elapsed": 261036, "internal_node_id": "0.0-4.0-55.0"}}, {"uniqueid": "w40203538:a27920959", "current_trial": 60, "dateTime": 1664555200774, "trialdata": {"rt": 724, "stimulus": "<p id='stroop-text' class='stroop-yellow'>YELLOW</p>", "response": "y", "stimulus-type": "congruent", "word": "yellow", "color": "yellow", "correct_response": "y", "trial_id": "stroop-trial-1-congruent-13", "trial_type": "html-keyboard-response", "trial_index": 60, "time_elapsed": 262287, "internal_node_id": "0.0-4.0-56.0"}}, {"uniqueid": "w40203538:a27920959", "current_trial": 61, "dateTime": 1664555202176, "trialdata": {"rt": 891, "stimulus": "<p id='stroop-text' class='stroop-red'>WINDOW</p>", "response": "r", "stimulus-type": "unrelated", "word": "WINDOW", "color": "red", "correct_response": "r", "trial_id": "stroop-trial-1-unrelated-4", "trial_type": "html-keyboard-response", "trial_index": 61, "time_elapsed": 263688, "internal_node_id": "0.0-4.0-57.0"}}, {"uniqueid": "w40203538:a27920959", "current_trial": 62, "dateTime": 1664555203350, "trialdata": {"rt": 663, "stimulus": "<p id='stroop-text' class='stroop-blue'>BOTTLE</p>", "response": "b", "stimulus-type": "unrelated", "word": "BOTTLE", "color": "blue", "correct_response": "b", "trial_id": "stroop-trial-1-unrelated-11", "trial_type": "html-keyboard-response", "trial_index": 62, "time_elapsed": 264863, "internal_node_id": "0.0-4.0-58.0"}}, {"uniqueid": "w40203538:a27920959", "current_trial": 63, "dateTime": 1664555204913, "trialdata": {"rt": 1051, "stimulus": "<p id='stroop-text' class='stroop-blue'>SHIP</p>", "response": "b", "stimulus-type": "unrelated", "word": "SHIP", "color": "blue", "correct_response": "b", "trial_id": "stroop-trial-1-unrelated-16", "trial_type": "html-keyboard-response", "trial_index": 63, "time_elapsed": 266425, "internal_node_id": "0.0-4.0-59.0"}}, {"uniqueid": "w40203538:a27920959", "current_trial": 64, "dateTime": 1664555206079, "trialdata": {"rt": 650, "stimulus": "<p id='stroop-text' class='stroop-blue'>STONE</p>", "response": "b", "stimulus-type": "unrelated", "word": "STONE", "color": "blue", "correct_response": "b", "trial_id": "stroop-trial-1-unrelated-17", "trial_type": "html-keyboard-response", "trial_index": 64, "time_elapsed": 267592, "internal_node_id": "0.0-4.0-60.0"}}, {"uniqueid": "w40203538:a27920959", "current_trial": 65, "dateTime": 1664555208738, "trialdata": {"rt": 2144, "stimulus": "<p id='stroop-text' class='stroop-red'>YELLOW</p>", "response": "r", "stimulus-type": "incongruent", "word": "yellow", "color": "red", "correct_response": "r", "trial_id": "stroop-trial-1-incongruent-9", "trial_type": "html-keyboard-response", "trial_index": 65, "time_elapsed": 270248, "internal_node_id": "0.0-4.0-61.0"}}, {"uniqueid": "w40203538:a27920959", "current_trial": 66, "dateTime": 1664555209970, "trialdata": {"rt": 721, "stimulus": "<p id='stroop-text' class='stroop-yellow'>YELLOW</p>", "response": "y", "stimulus-type": "congruent", "word": "yellow", "color": "yellow", "correct_response": "y", "trial_id": "stroop-trial-1-congruent-16", "trial_type": "html-keyboard-response", "trial_index": 66, "time_elapsed": 271482, "internal_node_id": "0.0-4.0-62.0"}}, {"uniqueid": "w40203538:a27920959", "current_trial": 67, "dateTime": 1664555211080, "trialdata": {"rt": 595, "stimulus": "<p id='stroop-text' class='stroop-yellow'>YELLOW</p>", "response": "y", "stimulus-type": "congruent", "word": "yellow", "color": "yellow", "correct_response": "y", "trial_id": "stroop-trial-1-congruent-26", "trial_type": "html-keyboard-response", "trial_index": 67, "time_elapsed": 272592, "internal_node_id": "0.0-4.0-63.0"}}, {"uniqueid": "w40203538:a27920959", "current_trial": 68, "dateTime": 1664555212226, "trialdata": {"rt": 630, "stimulus": "<p id='stroop-text' class='stroop-green'>RED</p>", "response": "r", "stimulus-type": "incongruent", "word": "red", "color": "green", "correct_response": "g", "trial_id": "stroop-trial-1-incongruent-10", "trial_type": "html-keyboard-response", "trial_index": 68, "time_elapsed": 273738, "internal_node_id": "0.0-4.0-64.0"}}, {"uniqueid": "w40203538:a27920959", "current_trial": 69, "dateTime": 1664555213622, "trialdata": {"rt": 876, "stimulus": "<p id='stroop-text' class='stroop-red'>CHAIR</p>", "response": "r", "stimulus-type": "unrelated", "word": "CHAIR", "color": "red", "correct_response": "r", "trial_id": "stroop-trial-1-unrelated-26", "trial_type": "html-keyboard-response", "trial_index": 69, "time_elapsed": 275135, "internal_node_id": "0.0-4.0-65.0"}}, {"uniqueid": "w40203538:a27920959", "current_trial": 70, "dateTime": 1664555216926, "trialdata": {"rt": 2796, "stimulus": "<p id='stroop-text' class='stroop-green'>GREEN</p>", "response": "g", "stimulus-type": "congruent", "word": "green", "color": "green", "correct_response": "g", "trial_id": "stroop-trial-1-congruent-17", "trial_type": "html-keyboard-response", "trial_index": 70, "time_elapsed": 278439, "internal_node_id": "0.0-4.0-66.0"}}, {"uniqueid": "w40203538:a27920959", "current_trial": 71, "dateTime": 1664555219031, "trialdata": {"rt": 1597, "stimulus": "<p id='stroop-text' class='stroop-blue'>RED</p>", "response": "b", "stimulus-type": "incongruent", "word": "red", "color": "blue", "correct_response": "b", "trial_id": "stroop-trial-1-incongruent-19", "trial_type": "html-keyboard-response", "trial_index": 71, "time_elapsed": 280544, "internal_node_id": "0.0-4.0-67.0"}}, {"uniqueid": "w40203538:a27920959", "current_trial": 72, "dateTime": 1664555221483, "trialdata": {"rt": 1936, "stimulus": "<p id='stroop-text' class='stroop-yellow'>YELLOW</p>", "response": "y", "stimulus-type": "congruent", "word": "yellow", "color": "yellow", "correct_response": "y", "trial_id": "stroop-trial-1-congruent-19", "trial_type": "html-keyboard-response", "trial_index": 72, "time_elapsed": 282995, "internal_node_id": "0.0-4.0-68.0"}}, {"uniqueid": "w40203538:a27920959", "current_trial": 73, "dateTime": 1664555222919, "trialdata": {"rt": 919, "stimulus": "<p id='stroop-text' class='stroop-red'>RED</p>", "response": "g", "stimulus-type": "congruent", "word": "red", "color": "red", "correct_response": "r", "trial_id": "stroop-trial-1-congruent-20", "trial_type": "html-keyboard-response", "trial_index": 73, "time_elapsed": 284432, "internal_node_id": "0.0-4.0-69.0"}}, {"uniqueid": "w40203538:a27920959", "current_trial": 74, "dateTime": 1664555224133, "trialdata": {"rt": 697, "stimulus": "<p id='stroop-text' class='stroop-yellow'>WINDOW</p>", "response": "y", "stimulus-type": "unrelated", "word": "WINDOW", "color": "yellow", "correct_response": "y", "trial_id": "stroop-trial-1-unrelated-29", "trial_type": "html-keyboard-response", "trial_index": 74, "time_elapsed": 285644, "internal_node_id": "0.0-4.0-70.0"}}, {"uniqueid": "w40203538:a27920959", "current_trial": 75, "dateTime": 1664555225363, "trialdata": {"rt": 710, "stimulus": "<p id='stroop-text' class='stroop-blue'>STONE</p>", "response": "b", "stimulus-type": "unrelated", "word": "STONE", "color": "blue", "correct_response": "b", "trial_id": "stroop-trial-1-unrelated-18", "trial_type": "html-keyboard-response", "trial_index": 75, "time_elapsed": 286874, "internal_node_id": "0.0-4.0-71.0"}}, {"uniqueid": "w40203538:a27920959", "current_trial": 76, "dateTime": 1664555226967, "trialdata": {"rt": 1088, "stimulus": "<p id='stroop-text' class='stroop-blue'>CHAIR</p>", "response": "b", "stimulus-type": "unrelated", "word": "CHAIR", "color": "blue", "correct_response": "b", "trial_id": "stroop-trial-1-unrelated-20", "trial_type": "html-keyboard-response", "trial_index": 76, "time_elapsed": 288479, "internal_node_id": "0.0-4.0-72.0"}}, {"uniqueid": "w40203538:a27920959", "current_trial": 77, "dateTime": 1664555228345, "trialdata": {"rt": 861, "stimulus": "<p id='stroop-text' class='stroop-green'>FORK</p>", "response": "g", "stimulus-type": "unrelated", "word": "FORK", "color": "green", "correct_response": "g", "trial_id": "stroop-trial-1-unrelated-19", "trial_type": "html-keyboard-response", "trial_index": 77, "time_elapsed": 289858, "internal_node_id": "0.0-4.0-73.0"}}, {"uniqueid": "w40203538:a27920959", "current_trial": 78, "dateTime": 1664555229608, "trialdata": {"rt": 752, "stimulus": "<p id='stroop-text' class='stroop-yellow'>YELLOW</p>", "response": "y", "stimulus-type": "congruent", "word": "yellow", "color": "yellow", "correct_response": "y", "trial_id": "stroop-trial-1-congruent-27", "trial_type": "html-keyboard-response", "trial_index": 78, "time_elapsed": 291120, "internal_node_id": "0.0-4.0-74.0"}}, {"uniqueid": "w40203538:a27920959", "current_trial": 79, "dateTime": 1664555231217, "trialdata": {"rt": 1086, "stimulus": "<p id='stroop-text' class='stroop-blue'>STONE</p>", "response": "b", "stimulus-type": "unrelated", "word": "STONE", "color": "blue", "correct_response": "b", "trial_id": "stroop-trial-1-unrelated-27", "trial_type": "html-keyboard-response", "trial_index": 79, "time_elapsed": 292730, "internal_node_id": "0.0-4.0-75.0"}}, {"uniqueid": "w40203538:a27920959", "current_trial": 80, "dateTime": 1664555232479, "trialdata": {"rt": 744, "stimulus": "<p id='stroop-text' class='stroop-green'>BRIDGE</p>", "response": "g", "stimulus-type": "unrelated", "word": "BRIDGE", "color": "green", "correct_response": "g", "trial_id": "stroop-trial-1-unrelated-28", "trial_type": "html-keyboard-response", "trial_index": 80, "time_elapsed": 293992, "internal_node_id": "0.0-4.0-76.0"}}, {"uniqueid": "w40203538:a27920959", "current_trial": 81, "dateTime": 1664555233632, "trialdata": {"rt": 644, "stimulus": "<p id='stroop-text' class='stroop-green'>GREEN</p>", "response": "g", "stimulus-type": "congruent", "word": "green", "color": "green", "correct_response": "g", "trial_id": "stroop-trial-1-congruent-4", "trial_type": "html-keyboard-response", "trial_index": 81, "time_elapsed": 295145, "internal_node_id": "0.0-4.0-77.0"}}, {"uniqueid": "w40203538:a27920959", "current_trial": 82, "dateTime": 1664555234935, "trialdata": {"rt": 786, "stimulus": "<p id='stroop-text' class='stroop-blue'>GREEN</p>", "response": "b", "stimulus-type": "incongruent", "word": "green", "color": "blue", "correct_response": "b", "trial_id": "stroop-trial-1-incongruent-11", "trial_type": "html-keyboard-response", "trial_index": 82, "time_elapsed": 296448, "internal_node_id": "0.0-4.0-78.0"}}, {"uniqueid": "w40203538:a27920959", "current_trial": 83, "dateTime": 1664555236031, "trialdata": {"rt": 586, "stimulus": "<p id='stroop-text' class='stroop-blue'>YELLOW</p>", "response": "b", "stimulus-type": "incongruent", "word": "yellow", "color": "blue", "correct_response": "b", "trial_id": "stroop-trial-1-incongruent-25", "trial_type": "html-keyboard-response", "trial_index": 83, "time_elapsed": 297544, "internal_node_id": "0.0-4.0-79.0"}}, {"uniqueid": "w40203538:a27920959", "current_trial": 84, "dateTime": 1664555237158, "trialdata": {"rt": 618, "stimulus": "<p id='stroop-text' class='stroop-red'>RED</p>", "response": "r", "stimulus-type": "congruent", "word": "red", "color": "red", "correct_response": "r", "trial_id": "stroop-trial-1-congruent-30", "trial_type": "html-keyboard-response", "trial_index": 84, "time_elapsed": 298671, "internal_node_id": "0.0-4.0-80.0"}}, {"uniqueid": "w40203538:a27920959", "current_trial": 85, "dateTime": 1664555238151, "trialdata": {"rt": 484, "stimulus": "<p id='stroop-text' class='stroop-yellow'>RED</p>", "response": "y", "stimulus-type": "incongruent", "word": "red", "color": "yellow", "correct_response": "y", "trial_id": "stroop-trial-1-incongruent-24", "trial_type": "html-keyboard-response", "trial_index": 85, "time_elapsed": 299664, "internal_node_id": "0.0-4.0-81.0"}}, {"uniqueid": "w40203538:a27920959", "current_trial": 86, "dateTime": 1664555239408, "trialdata": {"rt": 750, "stimulus": "<p id='stroop-text' class='stroop-green'>BRIDGE</p>", "response": "b", "stimulus-type": "unrelated", "word": "BRIDGE", "color": "green", "correct_response": "g", "trial_id": "stroop-trial-1-unrelated-3", "trial_type": "html-keyboard-response", "trial_index": 86, "time_elapsed": 300921, "internal_node_id": "0.0-4.0-82.0"}}, {"uniqueid": "w40203538:a27920959", "current_trial": 87, "dateTime": 1664555240729, "trialdata": {"rt": 804, "stimulus": "<p id='stroop-text' class='stroop-green'>BLUE</p>", "response": "g", "stimulus-type": "incongruent", "word": "blue", "color": "green", "correct_response": "g", "trial_id": "stroop-trial-1-incongruent-12", "trial_type": "html-keyboard-response", "trial_index": 87, "time_elapsed": 302241, "internal_node_id": "0.0-4.0-83.0"}}, {"uniqueid": "w40203538:a27920959", "current_trial": 88, "dateTime": 1664555241919, "trialdata": {"rt": 681, "stimulus": "<p id='stroop-text' class='stroop-yellow'>GREEN</p>", "response": "y", "stimulus-type": "incongruent", "word": "green", "color": "yellow", "correct_response": "y", "trial_id": "stroop-trial-1-incongruent-1", "trial_type": "html-keyboard-response", "trial_index": 88, "time_elapsed": 303432, "internal_node_id": "0.0-4.0-84.0"}}, {"uniqueid": "w40203538:a27920959", "current_trial": 89, "dateTime": 1664555243961, "trialdata": {"rt": 1534, "stimulus": "<p id='stroop-text' class='stroop-green'>BLUE</p>", "response": "b", "stimulus-type": "incongruent", "word": "blue", "color": "green", "correct_response": "g", "trial_id": "stroop-trial-1-incongruent-29", "trial_type": "html-keyboard-response", "trial_index": 89, "time_elapsed": 305474, "internal_node_id": "0.0-4.0-85.0"}}, {"uniqueid": "w40203538:a27920959", "current_trial": 90, "dateTime": 1664555245430, "trialdata": {"rt": 955, "stimulus": "<p id='stroop-text' class='stroop-yellow'>GREEN</p>", "response": "g", "stimulus-type": "incongruent", "word": "green", "color": "yellow", "correct_response": "y", "trial_id": "stroop-trial-1-incongruent-3", "trial_type": "html-keyboard-response", "trial_index": 90, "time_elapsed": 306944, "internal_node_id": "0.0-4.0-86.0"}}, {"uniqueid": "w40203538:a27920959", "current_trial": 91, "dateTime": 1664555247609, "trialdata": {"rt": 1669, "stimulus": "<p id='stroop-text' class='stroop-green'>GREEN</p>", "response": "g", "stimulus-type": "congruent", "word": "green", "color": "green", "correct_response": "g", "trial_id": "stroop-trial-1-congruent-15", "trial_type": "html-keyboard-response", "trial_index": 91, "time_elapsed": 309122, "internal_node_id": "0.0-4.0-87.0"}}, {"uniqueid": "w40203538:a27920959", "current_trial": 92, "dateTime": 1664555248773, "trialdata": {"rt": 644, "stimulus": "<p id='stroop-text' class='stroop-yellow'>YELLOW</p>", "response": "y", "stimulus-type": "congruent", "word": "yellow", "color": "yellow", "correct_response": "y", "trial_id": "stroop-trial-1-congruent-10", "trial_type": "html-keyboard-response", "trial_index": 92, "time_elapsed": 310283, "internal_node_id": "0.0-4.0-88.0"}}, {"uniqueid": "w40203538:a27920959", "current_trial": 93, "dateTime": 1664555250863, "trialdata": {"rt": 1581, "stimulus": "<p id='stroop-text' class='stroop-yellow'>BLUE</p>", "response": "y", "stimulus-type": "incongruent", "word": "blue", "color": "yellow", "correct_response": "y", "trial_id": "stroop-trial-1-incongruent-22", "trial_type": "html-keyboard-response", "trial_index": 93, "time_elapsed": 312376, "internal_node_id": "0.0-4.0-89.0"}}, {"uniqueid": "w40203538:a27920959", "current_trial": 94, "dateTime": 1664555277113, "trialdata": {"rt": 25734, "stimulus": "  <h1> End of block! </h1>\n\n  You have reached the end of the block 1/5. If you need a short break, feel free to take one now before moving on.\n\n  <br><br>\n  In the next block, you will complete another 90 rounds of this game.\n\n  <br><br>\n  <div style='text-align: center;'>Press <code>space</code> to begin.</div>\n  <br><br>\n<div style='text-align: center;'>(If the experiment doesn't continue, try clicking on the text and then pressing <code>space</code>.)</div>", "response": " ", "trial_id": "stroop_1_ready_2", "trial_type": "html-keyboard-response", "trial_index": 94, "time_elapsed": 338627, "internal_node_id": "0.0-5.0"}}, {"uniqueid": "w40203538:a27920959", "current_trial": 95, "dateTime": 1664555278728, "trialdata": {"rt": 1599, "stimulus": "<p id='stroop-text' class='stroop-red'>BOAT</p>", "response": "r", "stimulus-type": "unrelated", "word": "BOAT", "color": "red", "correct_response": "r", "trial_id": "stroop-trial-1-unrelated-8", "trial_type": "html-keyboard-response", "trial_index": 95, "time_elapsed": 340241, "internal_node_id": "0.0-6.0-0.0"}}, {"uniqueid": "w40203538:a27920959", "current_trial": 96, "dateTime": 1664555280248, "trialdata": {"rt": 1008, "stimulus": "<p id='stroop-text' class='stroop-blue'>GREEN</p>", "response": "g", "stimulus-type": "incongruent", "word": "green", "color": "blue", "correct_response": "b", "trial_id": "stroop-trial-1-incongruent-14", "trial_type": "html-keyboard-response", "trial_index": 96, "time_elapsed": 341761, "internal_node_id": "0.0-6.0-1.0"}}, {"uniqueid": "w40203538:a27920959", "current_trial": 97, "dateTime": 1664555281616, "trialdata": {"rt": 858, "stimulus": "<p id='stroop-text' class='stroop-red'>RED</p>", "response": "r", "stimulus-type": "congruent", "word": "red", "color": "red", "correct_response": "r", "trial_id": "stroop-trial-1-congruent-7", "trial_type": "html-keyboard-response", "trial_index": 97, "time_elapsed": 343129, "internal_node_id": "0.0-6.0-2.0"}}, {"uniqueid": "w40203538:a27920959", "current_trial": 98, "dateTime": 1664555284558, "trialdata": {"rt": 2425, "stimulus": "<p id='stroop-text' class='stroop-yellow'>GREEN</p>", "response": "y", "stimulus-type": "incongruent", "word": "green", "color": "yellow", "correct_response": "y", "trial_id": "stroop-trial-1-incongruent-5", "trial_type": "html-keyboard-response", "trial_index": 98, "time_elapsed": 346069, "internal_node_id": "0.0-6.0-3.0"}}, {"uniqueid": "w40203538:a27920959", "current_trial": 99, "dateTime": 1664555286289, "trialdata": {"rt": 1216, "stimulus": "<p id='stroop-text' class='stroop-blue'>YELLOW</p>", "response": "b", "stimulus-type": "incongruent", "word": "yellow", "color": "blue", "correct_response": "b", "trial_id": "stroop-trial-1-incongruent-22", "trial_type": "html-keyboard-response", "trial_index": 99, "time_elapsed": 347802, "internal_node_id": "0.0-6.0-4.0"}}, {"uniqueid": "w40203538:a27920959", "current_trial": 100, "dateTime": 1664555287689, "trialdata": {"rt": 879, "stimulus": "<p id='stroop-text' class='stroop-green'>YELLOW</p>", "response": "g", "stimulus-type": "incongruent", "word": "yellow", "color": "green", "correct_response": "g", "trial_id": "stroop-trial-1-incongruent-26", "trial_type": "html-keyboard-response", "trial_index": 100, "time_elapsed": 349202, "internal_node_id": "0.0-6.0-5.0"}}, {"uniqueid": "w40203538:a27920959", "current_trial": 101, "dateTime": 1664555289344, "trialdata": {"rt": 1145, "stimulus": "<p id='stroop-text' class='stroop-yellow'>RED</p>", "response": "y", "stimulus-type": "incongruent", "word": "red", "color": "yellow", "correct_response": "y", "trial_id": "stroop-trial-1-incongruent-27", "trial_type": "html-keyboard-response", "trial_index": 101, "time_elapsed": 350857, "internal_node_id": "0.0-6.0-6.0"}}, {"uniqueid": "w40203538:a27920959", "current_trial": 102, "dateTime": 1664555290609, "trialdata": {"rt": 752, "stimulus": "<p id='stroop-text' class='stroop-blue'>FORK</p>", "response": "b", "stimulus-type": "unrelated", "word": "FORK", "color": "blue", "correct_response": "b", "trial_id": "stroop-trial-1-unrelated-29", "trial_type": "html-keyboard-response", "trial_index": 102, "time_elapsed": 352122, "internal_node_id": "0.0-6.0-7.0"}}, {"uniqueid": "w40203538:a27920959", "current_trial": 103, "dateTime": 1664555292010, "trialdata": {"rt": 891, "stimulus": "<p id='stroop-text' class='stroop-blue'>BLUE</p>", "response": "b", "stimulus-type": "congruent", "word": "blue", "color": "blue", "correct_response": "b", "trial_id": "stroop-trial-1-congruent-8", "trial_type": "html-keyboard-response", "trial_index": 103, "time_elapsed": 353522, "internal_node_id": "0.0-6.0-8.0"}}, {"uniqueid": "w40203538:a27920959", "current_trial": 104, "dateTime": 1664555293096, "trialdata": {"rt": 577, "stimulus": "<p id='stroop-text' class='stroop-yellow'>YELLOW</p>", "response": "y", "stimulus-type": "congruent", "word": "yellow", "color": "yellow", "correct_response": "y", "trial_id": "stroop-trial-1-congruent-17", "trial_type": "html-keyboard-response", "trial_index": 104, "time_elapsed": 354609, "internal_node_id": "0.0-6.0-9.0"}}, {"uniqueid": "w40203538:a27920959", "current_trial": 105, "dateTime": 1664555294296, "trialdata": {"rt": 689, "stimulus": "<p id='stroop-text' class='stroop-blue'>BLUE</p>", "response": "b", "stimulus-type": "congruent", "word": "blue", "color": "blue", "correct_response": "b", "trial_id": "stroop-trial-1-congruent-13", "trial_type": "html-keyboard-response", "trial_index": 105, "time_elapsed": 355809, "internal_node_id": "0.0-6.0-10.0"}}, {"uniqueid": "w40203538:a27920959", "current_trial": 106, "dateTime": 1664555296250, "trialdata": {"rt": 1443, "stimulus": "<p id='stroop-text' class='stroop-yellow'>RED</p>", "response": "y", "stimulus-type": "incongruent", "word": "red", "color": "yellow", "correct_response": "y", "trial_id": "stroop-trial-1-incongruent-11", "trial_type": "html-keyboard-response", "trial_index": 106, "time_elapsed": 357762, "internal_node_id": "0.0-6.0-11.0"}}, {"uniqueid": "w40203538:a27920959", "current_trial": 107, "dateTime": 1664555297818, "trialdata": {"rt": 1049, "stimulus": "<p id='stroop-text' class='stroop-yellow'>DOG</p>", "response": "y", "stimulus-type": "unrelated", "word": "DOG", "color": "yellow", "correct_response": "y", "trial_id": "stroop-trial-1-unrelated-19", "trial_type": "html-keyboard-response", "trial_index": 107, "time_elapsed": 359330, "internal_node_id": "0.0-6.0-12.0"}}, {"uniqueid": "w40203538:a27920959", "current_trial": 108, "dateTime": 1664555299089, "trialdata": {"rt": 758, "stimulus": "<p id='stroop-text' class='stroop-yellow'>YELLOW</p>", "response": "y", "stimulus-type": "congruent", "word": "yellow", "color": "yellow", "correct_response": "y", "trial_id": "stroop-trial-1-congruent-2", "trial_type": "html-keyboard-response", "trial_index": 108, "time_elapsed": 360602, "internal_node_id": "0.0-6.0-13.0"}}, {"uniqueid": "w40203538:a27920959", "current_trial": 109, "dateTime": 1664555300608, "trialdata": {"rt": 1004, "stimulus": "<p id='stroop-text' class='stroop-blue'>WINDOW</p>", "response": "b", "stimulus-type": "unrelated", "word": "WINDOW", "color": "blue", "correct_response": "b", "trial_id": "stroop-trial-1-unrelated-17", "trial_type": "html-keyboard-response", "trial_index": 109, "time_elapsed": 362121, "internal_node_id": "0.0-6.0-14.0"}}, {"uniqueid": "w40203538:a27920959", "current_trial": 110, "dateTime": 1664555301768, "trialdata": {"rt": 648, "stimulus": "<p id='stroop-text' class='stroop-green'>GREEN</p>", "response": "g", "stimulus-type": "congruent", "word": "green", "color": "green", "correct_response": "g", "trial_id": "stroop-trial-1-congruent-14", "trial_type": "html-keyboard-response", "trial_index": 110, "time_elapsed": 363281, "internal_node_id": "0.0-6.0-15.0"}}, {"uniqueid": "w40203538:a27920959", "current_trial": 111, "dateTime": 1664555303256, "trialdata": {"rt": 973, "stimulus": "<p id='stroop-text' class='stroop-yellow'>SHIP</p>", "response": "y", "stimulus-type": "unrelated", "word": "SHIP", "color": "yellow", "correct_response": "y", "trial_id": "stroop-trial-1-unrelated-14", "trial_type": "html-keyboard-response", "trial_index": 111, "time_elapsed": 364769, "internal_node_id": "0.0-6.0-16.0"}}, {"uniqueid": "w40203538:a27920959", "current_trial": 112, "dateTime": 1664555304544, "trialdata": {"rt": 778, "stimulus": "<p id='stroop-text' class='stroop-red'>RED</p>", "response": "r", "stimulus-type": "congruent", "word": "red", "color": "red", "correct_response": "r", "trial_id": "stroop-trial-1-congruent-23", "trial_type": "html-keyboard-response", "trial_index": 112, "time_elapsed": 366057, "internal_node_id": "0.0-6.0-17.0"}}, {"uniqueid": "w40203538:a27920959", "current_trial": 113, "dateTime": 1664555306057, "trialdata": {"rt": 1001, "stimulus": "<p id='stroop-text' class='stroop-yellow'>BOAT</p>", "response": "y", "stimulus-type": "unrelated", "word": "BOAT", "color": "yellow", "correct_response": "y", "trial_id": "stroop-trial-1-unrelated-2", "trial_type": "html-keyboard-response", "trial_index": 113, "time_elapsed": 367570, "internal_node_id": "0.0-6.0-18.0"}}, {"uniqueid": "w40203538:a27920959", "current_trial": 114, "dateTime": 1664555307586, "trialdata": {"rt": 1019, "stimulus": "<p id='stroop-text' class='stroop-red'>GREEN</p>", "response": "r", "stimulus-type": "incongruent", "word": "green", "color": "red", "correct_response": "r", "trial_id": "stroop-trial-1-incongruent-17", "trial_type": "html-keyboard-response", "trial_index": 114, "time_elapsed": 369097, "internal_node_id": "0.0-6.0-19.0"}}, {"uniqueid": "w40203538:a27920959", "current_trial": 115, "dateTime": 1664555309538, "trialdata": {"rt": 1442, "stimulus": "<p id='stroop-text' class='stroop-green'>SHIP</p>", "response": "g", "stimulus-type": "unrelated", "word": "SHIP", "color": "green", "correct_response": "g", "trial_id": "stroop-trial-1-unrelated-11", "trial_type": "html-keyboard-response", "trial_index": 115, "time_elapsed": 371051, "internal_node_id": "0.0-6.0-20.0"}}, {"uniqueid": "w40203538:a27920959", "current_trial": 116, "dateTime": 1664555310704, "trialdata": {"rt": 653, "stimulus": "<p id='stroop-text' class='stroop-green'>GREEN</p>", "response": "g", "stimulus-type": "congruent", "word": "green", "color": "green", "correct_response": "g", "trial_id": "stroop-trial-1-congruent-4", "trial_type": "html-keyboard-response", "trial_index": 116, "time_elapsed": 372217, "internal_node_id": "0.0-6.0-21.0"}}, {"uniqueid": "w40203538:a27920959", "current_trial": 117, "dateTime": 1664555312280, "trialdata": {"rt": 1067, "stimulus": "<p id='stroop-text' class='stroop-blue'>YELLOW</p>", "response": "y", "stimulus-type": "incongruent", "word": "yellow", "color": "blue", "correct_response": "b", "trial_id": "stroop-trial-1-incongruent-23", "trial_type": "html-keyboard-response", "trial_index": 117, "time_elapsed": 373793, "internal_node_id": "0.0-6.0-22.0"}}, {"uniqueid": "w40203538:a27920959", "current_trial": 118, "dateTime": 1664555313648, "trialdata": {"rt": 859, "stimulus": "<p id='stroop-text' class='stroop-blue'>FORK</p>", "response": "b", "stimulus-type": "unrelated", "word": "FORK", "color": "blue", "correct_response": "b", "trial_id": "stroop-trial-1-unrelated-4", "trial_type": "html-keyboard-response", "trial_index": 118, "time_elapsed": 375161, "internal_node_id": "0.0-6.0-23.0"}}, {"uniqueid": "w40203538:a27920959", "current_trial": 119, "dateTime": 1664555314800, "trialdata": {"rt": 644, "stimulus": "<p id='stroop-text' class='stroop-red'>RED</p>", "response": "r", "stimulus-type": "congruent", "word": "red", "color": "red", "correct_response": "r", "trial_id": "stroop-trial-1-congruent-28", "trial_type": "html-keyboard-response", "trial_index": 119, "time_elapsed": 376314, "internal_node_id": "0.0-6.0-24.0"}}, {"uniqueid": "w40203538:a27920959", "current_trial": 120, "dateTime": 1664555316472, "trialdata": {"rt": 1163, "stimulus": "<p id='stroop-text' class='stroop-yellow'>SHIP</p>", "response": "y", "stimulus-type": "unrelated", "word": "SHIP", "color": "yellow", "correct_response": "y", "trial_id": "stroop-trial-1-unrelated-12", "trial_type": "html-keyboard-response", "trial_index": 120, "time_elapsed": 377985, "internal_node_id": "0.0-6.0-25.0"}}, {"uniqueid": "w40203538:a27920959", "current_trial": 121, "dateTime": 1664555317657, "trialdata": {"rt": 671, "stimulus": "<p id='stroop-text' class='stroop-blue'>YELLOW</p>", "response": "b", "stimulus-type": "incongruent", "word": "yellow", "color": "blue", "correct_response": "b", "trial_id": "stroop-trial-1-incongruent-1", "trial_type": "html-keyboard-response", "trial_index": 121, "time_elapsed": 379170, "internal_node_id": "0.0-6.0-26.0"}}, {"uniqueid": "w40203538:a27920959", "current_trial": 122, "dateTime": 1664555319146, "trialdata": {"rt": 977, "stimulus": "<p id='stroop-text' class='stroop-blue'>BLUE</p>", "response": "b", "stimulus-type": "congruent", "word": "blue", "color": "blue", "correct_response": "b", "trial_id": "stroop-trial-1-congruent-26", "trial_type": "html-keyboard-response", "trial_index": 122, "time_elapsed": 380658, "internal_node_id": "0.0-6.0-27.0"}}, {"uniqueid": "w40203538:a27920959", "current_trial": 123, "dateTime": 1664555320353, "trialdata": {"rt": 689, "stimulus": "<p id='stroop-text' class='stroop-red'>BOTTLE</p>", "response": "r", "stimulus-type": "unrelated", "word": "BOTTLE", "color": "red", "correct_response": "r", "trial_id": "stroop-trial-1-unrelated-21", "trial_type": "html-keyboard-response", "trial_index": 123, "time_elapsed": 381866, "internal_node_id": "0.0-6.0-28.0"}}, {"uniqueid": "w40203538:a27920959", "current_trial": 124, "dateTime": 1664555321818, "trialdata": {"rt": 953, "stimulus": "<p id='stroop-text' class='stroop-green'>BLUE</p>", "response": "g", "stimulus-type": "incongruent", "word": "blue", "color": "green", "correct_response": "g", "trial_id": "stroop-trial-1-incongruent-25", "trial_type": "html-keyboard-response", "trial_index": 124, "time_elapsed": 383330, "internal_node_id": "0.0-6.0-29.0"}}, {"uniqueid": "w40203538:a27920959", "current_trial": 125, "dateTime": 1664555323226, "trialdata": {"rt": 893, "stimulus": "<p id='stroop-text' class='stroop-blue'>CHAIR</p>", "response": "b", "stimulus-type": "unrelated", "word": "CHAIR", "color": "blue", "correct_response": "b", "trial_id": "stroop-trial-1-unrelated-24", "trial_type": "html-keyboard-response", "trial_index": 125, "time_elapsed": 384738, "internal_node_id": "0.0-6.0-30.0"}}, {"uniqueid": "w40203538:a27920959", "current_trial": 126, "dateTime": 1664555324337, "trialdata": {"rt": 597, "stimulus": "<p id='stroop-text' class='stroop-yellow'>SHIP</p>", "response": "y", "stimulus-type": "unrelated", "word": "SHIP", "color": "yellow", "correct_response": "y", "trial_id": "stroop-trial-1-unrelated-23", "trial_type": "html-keyboard-response", "trial_index": 126, "time_elapsed": 385849, "internal_node_id": "0.0-6.0-31.0"}}, {"uniqueid": "w40203538:a27920959", "current_trial": 127, "dateTime": 1664555325825, "trialdata": {"rt": 978, "stimulus": "<p id='stroop-text' class='stroop-blue'>YELLOW</p>", "response": "b", "stimulus-type": "incongruent", "word": "yellow", "color": "blue", "correct_response": "b", "trial_id": "stroop-trial-1-incongruent-18", "trial_type": "html-keyboard-response", "trial_index": 127, "time_elapsed": 387338, "internal_node_id": "0.0-6.0-32.0"}}, {"uniqueid": "w40203538:a27920959", "current_trial": 128, "dateTime": 1664555326953, "trialdata": {"rt": 619, "stimulus": "<p id='stroop-text' class='stroop-red'>RED</p>", "response": "r", "stimulus-type": "congruent", "word": "red", "color": "red", "correct_response": "r", "trial_id": "stroop-trial-1-congruent-27", "trial_type": "html-keyboard-response", "trial_index": 128, "time_elapsed": 388466, "internal_node_id": "0.0-6.0-33.0"}}, {"uniqueid": "w40203538:a27920959", "current_trial": 129, "dateTime": 1664555328786, "trialdata": {"rt": 1320, "stimulus": "<p id='stroop-text' class='stroop-yellow'>GREEN</p>", "response": "b", "stimulus-type": "incongruent", "word": "green", "color": "yellow", "correct_response": "y", "trial_id": "stroop-trial-1-incongruent-13", "trial_type": "html-keyboard-response", "trial_index": 129, "time_elapsed": 390298, "internal_node_id": "0.0-6.0-34.0"}}, {"uniqueid": "w40203538:a27920959", "current_trial": 130, "dateTime": 1664555330345, "trialdata": {"rt": 1044, "stimulus": "<p id='stroop-text' class='stroop-yellow'>SHIP</p>", "response": "g", "stimulus-type": "unrelated", "word": "SHIP", "color": "yellow", "correct_response": "y", "trial_id": "stroop-trial-1-unrelated-22", "trial_type": "html-keyboard-response", "trial_index": 130, "time_elapsed": 391858, "internal_node_id": "0.0-6.0-35.0"}}, {"uniqueid": "w40203538:a27920959", "current_trial": 131, "dateTime": 1664555331595, "trialdata": {"rt": 734, "stimulus": "<p id='stroop-text' class='stroop-red'>RED</p>", "response": "r", "stimulus-type": "congruent", "word": "red", "color": "red", "correct_response": "r", "trial_id": "stroop-trial-1-congruent-25", "trial_type": "html-keyboard-response", "trial_index": 131, "time_elapsed": 393107, "internal_node_id": "0.0-6.0-36.0"}}, {"uniqueid": "w40203538:a27920959", "current_trial": 132, "dateTime": 1664555333562, "trialdata": {"rt": 1450, "stimulus": "<p id='stroop-text' class='stroop-yellow'>YELLOW</p>", "response": "y", "stimulus-type": "congruent", "word": "yellow", "color": "yellow", "correct_response": "y", "trial_id": "stroop-trial-1-congruent-21", "trial_type": "html-keyboard-response", "trial_index": 132, "time_elapsed": 395075, "internal_node_id": "0.0-6.0-37.0"}}, {"uniqueid": "w40203538:a27920959", "current_trial": 133, "dateTime": 1664555334738, "trialdata": {"rt": 664, "stimulus": "<p id='stroop-text' class='stroop-red'>RED</p>", "response": "r", "stimulus-type": "congruent", "word": "red", "color": "red", "correct_response": "r", "trial_id": "stroop-trial-1-congruent-3", "trial_type": "html-keyboard-response", "trial_index": 133, "time_elapsed": 396250, "internal_node_id": "0.0-6.0-38.0"}}, {"uniqueid": "w40203538:a27920959", "current_trial": 134, "dateTime": 1664555335905, "trialdata": {"rt": 652, "stimulus": "<p id='stroop-text' class='stroop-green'>YELLOW</p>", "response": "g", "stimulus-type": "incongruent", "word": "yellow", "color": "green", "correct_response": "g", "trial_id": "stroop-trial-1-incongruent-24", "trial_type": "html-keyboard-response", "trial_index": 134, "time_elapsed": 397418, "internal_node_id": "0.0-6.0-39.0"}}, {"uniqueid": "w40203538:a27920959", "current_trial": 135, "dateTime": 1664555337337, "trialdata": {"rt": 923, "stimulus": "<p id='stroop-text' class='stroop-red'>GREEN</p>", "response": "r", "stimulus-type": "incongruent", "word": "green", "color": "red", "correct_response": "r", "trial_id": "stroop-trial-1-incongruent-30", "trial_type": "html-keyboard-response", "trial_index": 135, "time_elapsed": 398850, "internal_node_id": "0.0-6.0-40.0"}}, {"uniqueid": "w40203538:a27920959", "current_trial": 136, "dateTime": 1664555338563, "trialdata": {"rt": 713, "stimulus": "<p id='stroop-text' class='stroop-red'>YELLOW</p>", "response": "r", "stimulus-type": "incongruent", "word": "yellow", "color": "red", "correct_response": "r", "trial_id": "stroop-trial-1-incongruent-3", "trial_type": "html-keyboard-response", "trial_index": 136, "time_elapsed": 400075, "internal_node_id": "0.0-6.0-41.0"}}, {"uniqueid": "w40203538:a27920959", "current_trial": 137, "dateTime": 1664555339706, "trialdata": {"rt": 627, "stimulus": "<p id='stroop-text' class='stroop-blue'>FORK</p>", "response": "b", "stimulus-type": "unrelated", "word": "FORK", "color": "blue", "correct_response": "b", "trial_id": "stroop-trial-1-unrelated-7", "trial_type": "html-keyboard-response", "trial_index": 137, "time_elapsed": 401219, "internal_node_id": "0.0-6.0-42.0"}}, {"uniqueid": "w40203538:a27920959", "current_trial": 138, "dateTime": 1664555341786, "trialdata": {"rt": 1569, "stimulus": "<p id='stroop-text' class='stroop-blue'>SHIP</p>", "response": "b", "stimulus-type": "unrelated", "word": "SHIP", "color": "blue", "correct_response": "b", "trial_id": "stroop-trial-1-unrelated-3", "trial_type": "html-keyboard-response", "trial_index": 138, "time_elapsed": 403300, "internal_node_id": "0.0-6.0-43.0"}}, {"uniqueid": "w40203538:a27920959", "current_trial": 139, "dateTime": 1664555342921, "trialdata": {"rt": 623, "stimulus": "<p id='stroop-text' class='stroop-red'>BOTTLE</p>", "response": "r", "stimulus-type": "unrelated", "word": "BOTTLE", "color": "red", "correct_response": "r", "trial_id": "stroop-trial-1-unrelated-20", "trial_type": "html-keyboard-response", "trial_index": 139, "time_elapsed": 404434, "internal_node_id": "0.0-6.0-44.0"}}, {"uniqueid": "w40203538:a27920959", "current_trial": 140, "dateTime": 1664555344203, "trialdata": {"rt": 771, "stimulus": "<p id='stroop-text' class='stroop-blue'>BLUE</p>", "response": "b", "stimulus-type": "congruent", "word": "blue", "color": "blue", "correct_response": "b", "trial_id": "stroop-trial-1-congruent-1", "trial_type": "html-keyboard-response", "trial_index": 140, "time_elapsed": 405715, "internal_node_id": "0.0-6.0-45.0"}}, {"uniqueid": "w40203538:a27920959", "current_trial": 141, "dateTime": 1664555345721, "trialdata": {"rt": 1005, "stimulus": "<p id='stroop-text' class='stroop-yellow'>GREEN</p>", "response": "y", "stimulus-type": "incongruent", "word": "green", "color": "yellow", "correct_response": "y", "trial_id": "stroop-trial-1-incongruent-21", "trial_type": "html-keyboard-response", "trial_index": 141, "time_elapsed": 407234, "internal_node_id": "0.0-6.0-46.0"}}, {"uniqueid": "w40203538:a27920959", "current_trial": 142, "dateTime": 1664555347121, "trialdata": {"rt": 892, "stimulus": "<p id='stroop-text' class='stroop-yellow'>MONKEY</p>", "response": "y", "stimulus-type": "unrelated", "word": "MONKEY", "color": "yellow", "correct_response": "y", "trial_id": "stroop-trial-1-unrelated-28", "trial_type": "html-keyboard-response", "trial_index": 142, "time_elapsed": 408634, "internal_node_id": "0.0-6.0-47.0"}}, {"uniqueid": "w40203538:a27920959", "current_trial": 143, "dateTime": 1664555348762, "trialdata": {"rt": 1131, "stimulus": "<p id='stroop-text' class='stroop-blue'>BLUE</p>", "response": "b", "stimulus-type": "congruent", "word": "blue", "color": "blue", "correct_response": "b", "trial_id": "stroop-trial-1-congruent-29", "trial_type": "html-keyboard-response", "trial_index": 143, "time_elapsed": 410275, "internal_node_id": "0.0-6.0-48.0"}}, {"uniqueid": "w40203538:a27920959", "current_trial": 144, "dateTime": 1664555350202, "trialdata": {"rt": 928, "stimulus": "<p id='stroop-text' class='stroop-red'>YELLOW</p>", "response": "r", "stimulus-type": "incongruent", "word": "yellow", "color": "red", "correct_response": "r", "trial_id": "stroop-trial-1-incongruent-29", "trial_type": "html-keyboard-response", "trial_index": 144, "time_elapsed": 411715, "internal_node_id": "0.0-6.0-49.0"}}, {"uniqueid": "w40203538:a27920959", "current_trial": 145, "dateTime": 1664555351330, "trialdata": {"rt": 617, "stimulus": "<p id='stroop-text' class='stroop-red'>RED</p>", "response": "r", "stimulus-type": "congruent", "word": "red", "color": "red", "correct_response": "r", "trial_id": "stroop-trial-1-congruent-24", "trial_type": "html-keyboard-response", "trial_index": 145, "time_elapsed": 412843, "internal_node_id": "0.0-6.0-50.0"}}, {"uniqueid": "w40203538:a27920959", "current_trial": 146, "dateTime": 1664555352442, "trialdata": {"rt": 600, "stimulus": "<p id='stroop-text' class='stroop-blue'>BLUE</p>", "response": "b", "stimulus-type": "congruent", "word": "blue", "color": "blue", "correct_response": "b", "trial_id": "stroop-trial-1-congruent-20", "trial_type": "html-keyboard-response", "trial_index": 146, "time_elapsed": 413955, "internal_node_id": "0.0-6.0-51.0"}}, {"uniqueid": "w40203538:a27920959", "current_trial": 147, "dateTime": 1664555353530, "trialdata": {"rt": 577, "stimulus": "<p id='stroop-text' class='stroop-yellow'>YELLOW</p>", "response": "y", "stimulus-type": "congruent", "word": "yellow", "color": "yellow", "correct_response": "y", "trial_id": "stroop-trial-1-congruent-18", "trial_type": "html-keyboard-response", "trial_index": 147, "time_elapsed": 415043, "internal_node_id": "0.0-6.0-52.0"}}, {"uniqueid": "w40203538:a27920959", "current_trial": 148, "dateTime": 1664555354762, "trialdata": {"rt": 722, "stimulus": "<p id='stroop-text' class='stroop-green'>BRAIN</p>", "response": "g", "stimulus-type": "unrelated", "word": "BRAIN", "color": "green", "correct_response": "g", "trial_id": "stroop-trial-1-unrelated-18", "trial_type": "html-keyboard-response", "trial_index": 148, "time_elapsed": 416275, "internal_node_id": "0.0-6.0-53.0"}}, {"uniqueid": "w40203538:a27920959", "current_trial": 149, "dateTime": 1664555356626, "trialdata": {"rt": 1349, "stimulus": "<p id='stroop-text' class='stroop-blue'>RED</p>", "response": "b", "stimulus-type": "incongruent", "word": "red", "color": "blue", "correct_response": "b", "trial_id": "stroop-trial-1-incongruent-12", "trial_type": "html-keyboard-response", "trial_index": 149, "time_elapsed": 418139, "internal_node_id": "0.0-6.0-54.0"}}, {"uniqueid": "w40203538:a27920959", "current_trial": 150, "dateTime": 1664555358060, "trialdata": {"rt": 922, "stimulus": "<p id='stroop-text' class='stroop-green'>GREEN</p>", "response": "g", "stimulus-type": "congruent", "word": "green", "color": "green", "correct_response": "g", "trial_id": "stroop-trial-1-congruent-22", "trial_type": "html-keyboard-response", "trial_index": 150, "time_elapsed": 419572, "internal_node_id": "0.0-6.0-55.0"}}, {"uniqueid": "w40203538:a27920959", "current_trial": 151, "dateTime": 1664555359283, "trialdata": {"rt": 708, "stimulus": "<p id='stroop-text' class='stroop-red'>GREEN</p>", "response": "g", "stimulus-type": "incongruent", "word": "green", "color": "red", "correct_response": "r", "trial_id": "stroop-trial-1-incongruent-7", "trial_type": "html-keyboard-response", "trial_index": 151, "time_elapsed": 420795, "internal_node_id": "0.0-6.0-56.0"}}, {"uniqueid": "w40203538:a27920959", "current_trial": 152, "dateTime": 1664555362066, "trialdata": {"rt": 2264, "stimulus": "<p id='stroop-text' class='stroop-green'>BLUE</p>", "response": "g", "stimulus-type": "incongruent", "word": "blue", "color": "green", "correct_response": "g", "trial_id": "stroop-trial-1-incongruent-2", "trial_type": "html-keyboard-response", "trial_index": 152, "time_elapsed": 423579, "internal_node_id": "0.0-6.0-57.0"}}, {"uniqueid": "w40203538:a27920959", "current_trial": 153, "dateTime": 1664555363452, "trialdata": {"rt": 875, "stimulus": "<p id='stroop-text' class='stroop-blue'>BLUE</p>", "response": "y", "stimulus-type": "congruent", "word": "blue", "color": "blue", "correct_response": "b", "trial_id": "stroop-trial-1-congruent-6", "trial_type": "html-keyboard-response", "trial_index": 153, "time_elapsed": 424965, "internal_node_id": "0.0-6.0-58.0"}}, {"uniqueid": "w40203538:a27920959", "current_trial": 154, "dateTime": 1664555365387, "trialdata": {"rt": 1421, "stimulus": "<p id='stroop-text' class='stroop-green'>BOAT</p>", "response": "g", "stimulus-type": "unrelated", "word": "BOAT", "color": "green", "correct_response": "g", "trial_id": "stroop-trial-1-unrelated-5", "trial_type": "html-keyboard-response", "trial_index": 154, "time_elapsed": 426899, "internal_node_id": "0.0-6.0-59.0"}}, {"uniqueid": "w40203538:a27920959", "current_trial": 155, "dateTime": 1664555366651, "trialdata": {"rt": 751, "stimulus": "<p id='stroop-text' class='stroop-green'>GREEN</p>", "response": "g", "stimulus-type": "congruent", "word": "green", "color": "green", "correct_response": "g", "trial_id": "stroop-trial-1-congruent-10", "trial_type": "html-keyboard-response", "trial_index": 155, "time_elapsed": 428164, "internal_node_id": "0.0-6.0-60.0"}}, {"uniqueid": "w40203538:a27920959", "current_trial": 156, "dateTime": 1664555367979, "trialdata": {"rt": 817, "stimulus": "<p id='stroop-text' class='stroop-blue'>SHIP</p>", "response": "b", "stimulus-type": "unrelated", "word": "SHIP", "color": "blue", "correct_response": "b", "trial_id": "stroop-trial-1-unrelated-27", "trial_type": "html-keyboard-response", "trial_index": 156, "time_elapsed": 429492, "internal_node_id": "0.0-6.0-61.0"}}, {"uniqueid": "w40203538:a27920959", "current_trial": 157, "dateTime": 1664555369146, "trialdata": {"rt": 655, "stimulus": "<p id='stroop-text' class='stroop-blue'>BOAT</p>", "response": "b", "stimulus-type": "unrelated", "word": "BOAT", "color": "blue", "correct_response": "b", "trial_id": "stroop-trial-1-unrelated-26", "trial_type": "html-keyboard-response", "trial_index": 157, "time_elapsed": 430659, "internal_node_id": "0.0-6.0-62.0"}}, {"uniqueid": "w40203538:a27920959", "current_trial": 158, "dateTime": 1664555370770, "trialdata": {"rt": 1112, "stimulus": "<p id='stroop-text' class='stroop-yellow'>RED</p>", "response": "y", "stimulus-type": "incongruent", "word": "red", "color": "yellow", "correct_response": "y", "trial_id": "stroop-trial-1-incongruent-19", "trial_type": "html-keyboard-response", "trial_index": 158, "time_elapsed": 432283, "internal_node_id": "0.0-6.0-63.0"}}, {"uniqueid": "w40203538:a27920959", "current_trial": 159, "dateTime": 1664555372219, "trialdata": {"rt": 936, "stimulus": "<p id='stroop-text' class='stroop-yellow'>YELLOW</p>", "response": "y", "stimulus-type": "congruent", "word": "yellow", "color": "yellow", "correct_response": "y", "trial_id": "stroop-trial-1-congruent-9", "trial_type": "html-keyboard-response", "trial_index": 159, "time_elapsed": 433732, "internal_node_id": "0.0-6.0-64.0"}}, {"uniqueid": "w40203538:a27920959", "current_trial": 160, "dateTime": 1664555373524, "trialdata": {"rt": 795, "stimulus": "<p id='stroop-text' class='stroop-blue'>BRAIN</p>", "response": "b", "stimulus-type": "unrelated", "word": "BRAIN", "color": "blue", "correct_response": "b", "trial_id": "stroop-trial-1-unrelated-9", "trial_type": "html-keyboard-response", "trial_index": 160, "time_elapsed": 435037, "internal_node_id": "0.0-6.0-65.0"}}, {"uniqueid": "w40203538:a27920959", "current_trial": 161, "dateTime": 1664555375899, "trialdata": {"rt": 1859, "stimulus": "<p id='stroop-text' class='stroop-red'>BRAIN</p>", "response": "r", "stimulus-type": "unrelated", "word": "BRAIN", "color": "red", "correct_response": "r", "trial_id": "stroop-trial-1-unrelated-10", "trial_type": "html-keyboard-response", "trial_index": 161, "time_elapsed": 437412, "internal_node_id": "0.0-6.0-66.0"}}, {"uniqueid": "w40203538:a27920959", "current_trial": 162, "dateTime": 1664555377979, "trialdata": {"rt": 1568, "stimulus": "<p id='stroop-text' class='stroop-blue'>BLUE</p>", "response": "b", "stimulus-type": "congruent", "word": "blue", "color": "blue", "correct_response": "b", "trial_id": "stroop-trial-1-congruent-16", "trial_type": "html-keyboard-response", "trial_index": 162, "time_elapsed": 439492, "internal_node_id": "0.0-6.0-67.0"}}, {"uniqueid": "w40203538:a27920959", "current_trial": 163, "dateTime": 1664555379278, "trialdata": {"rt": 785, "stimulus": "<p id='stroop-text' class='stroop-green'>BLUE</p>", "response": "g", "stimulus-type": "incongruent", "word": "blue", "color": "green", "correct_response": "g", "trial_id": "stroop-trial-1-incongruent-20", "trial_type": "html-keyboard-response", "trial_index": 163, "time_elapsed": 440791, "internal_node_id": "0.0-6.0-68.0"}}, {"uniqueid": "w40203538:a27920959", "current_trial": 164, "dateTime": 1664555381212, "trialdata": {"rt": 1404, "stimulus": "<p id='stroop-text' class='stroop-red'>BOAT</p>", "response": "r", "stimulus-type": "unrelated", "word": "BOAT", "color": "red", "correct_response": "r", "trial_id": "stroop-trial-1-unrelated-16", "trial_type": "html-keyboard-response", "trial_index": 164, "time_elapsed": 442724, "internal_node_id": "0.0-6.0-69.0"}}, {"uniqueid": "w40203538:a27920959", "current_trial": 165, "dateTime": 1664555382453, "trialdata": {"rt": 722, "stimulus": "<p id='stroop-text' class='stroop-green'>GREEN</p>", "response": "g", "stimulus-type": "congruent", "word": "green", "color": "green", "correct_response": "g", "trial_id": "stroop-trial-1-congruent-12", "trial_type": "html-keyboard-response", "trial_index": 165, "time_elapsed": 443965, "internal_node_id": "0.0-6.0-70.0"}}, {"uniqueid": "w40203538:a27920959", "current_trial": 166, "dateTime": 1664555383893, "trialdata": {"rt": 926, "stimulus": "<p id='stroop-text' class='stroop-green'>CHAIR</p>", "response": "g", "stimulus-type": "unrelated", "word": "CHAIR", "color": "green", "correct_response": "g", "trial_id": "stroop-trial-1-unrelated-1", "trial_type": "html-keyboard-response", "trial_index": 166, "time_elapsed": 445405, "internal_node_id": "0.0-6.0-71.0"}}, {"uniqueid": "w40203538:a27920959", "current_trial": 167, "dateTime": 1664555385172, "trialdata": {"rt": 759, "stimulus": "<p id='stroop-text' class='stroop-blue'>BLUE</p>", "response": "b", "stimulus-type": "congruent", "word": "blue", "color": "blue", "correct_response": "b", "trial_id": "stroop-trial-1-congruent-30", "trial_type": "html-keyboard-response", "trial_index": 167, "time_elapsed": 446684, "internal_node_id": "0.0-6.0-72.0"}}, {"uniqueid": "w40203538:a27920959", "current_trial": 168, "dateTime": 1664555386620, "trialdata": {"rt": 931, "stimulus": "<p id='stroop-text' class='stroop-yellow'>BLUE</p>", "response": "y", "stimulus-type": "incongruent", "word": "blue", "color": "yellow", "correct_response": "y", "trial_id": "stroop-trial-1-incongruent-10", "trial_type": "html-keyboard-response", "trial_index": 168, "time_elapsed": 448132, "internal_node_id": "0.0-6.0-73.0"}}, {"uniqueid": "w40203538:a27920959", "current_trial": 169, "dateTime": 1664555388172, "trialdata": {"rt": 1040, "stimulus": "<p id='stroop-text' class='stroop-yellow'>YELLOW</p>", "response": "y", "stimulus-type": "congruent", "word": "yellow", "color": "yellow", "correct_response": "y", "trial_id": "stroop-trial-1-congruent-15", "trial_type": "html-keyboard-response", "trial_index": 169, "time_elapsed": 449685, "internal_node_id": "0.0-6.0-74.0"}}, {"uniqueid": "w40203538:a27920959", "current_trial": 170, "dateTime": 1664555390620, "trialdata": {"rt": 1938, "stimulus": "<p id='stroop-text' class='stroop-blue'>GREEN</p>", "response": "b", "stimulus-type": "incongruent", "word": "green", "color": "blue", "correct_response": "b", "trial_id": "stroop-trial-1-incongruent-6", "trial_type": "html-keyboard-response", "trial_index": 170, "time_elapsed": 452133, "internal_node_id": "0.0-6.0-75.0"}}, {"uniqueid": "w40203538:a27920959", "current_trial": 171, "dateTime": 1664555392237, "trialdata": {"rt": 1103, "stimulus": "<p id='stroop-text' class='stroop-yellow'>GREEN</p>", "response": "y", "stimulus-type": "incongruent", "word": "green", "color": "yellow", "correct_response": "y", "trial_id": "stroop-trial-1-incongruent-4", "trial_type": "html-keyboard-response", "trial_index": 171, "time_elapsed": 453749, "internal_node_id": "0.0-6.0-76.0"}}, {"uniqueid": "w40203538:a27920959", "current_trial": 172, "dateTime": 1664555394451, "trialdata": {"rt": 1697, "stimulus": "<p id='stroop-text' class='stroop-blue'>RED</p>", "response": "b", "stimulus-type": "incongruent", "word": "red", "color": "blue", "correct_response": "b", "trial_id": "stroop-trial-1-incongruent-28", "trial_type": "html-keyboard-response", "trial_index": 172, "time_elapsed": 455964, "internal_node_id": "0.0-6.0-77.0"}}, {"uniqueid": "w40203538:a27920959", "current_trial": 173, "dateTime": 1664555395676, "trialdata": {"rt": 712, "stimulus": "<p id='stroop-text' class='stroop-red'>DOG</p>", "response": "r", "stimulus-type": "unrelated", "word": "DOG", "color": "red", "correct_response": "r", "trial_id": "stroop-trial-1-unrelated-15", "trial_type": "html-keyboard-response", "trial_index": 173, "time_elapsed": 457189, "internal_node_id": "0.0-6.0-78.0"}}, {"uniqueid": "w40203538:a27920959", "current_trial": 174, "dateTime": 1664555397140, "trialdata": {"rt": 951, "stimulus": "<p id='stroop-text' class='stroop-yellow'>MONKEY</p>", "response": "y", "stimulus-type": "unrelated", "word": "MONKEY", "color": "yellow", "correct_response": "y", "trial_id": "stroop-trial-1-unrelated-30", "trial_type": "html-keyboard-response", "trial_index": 174, "time_elapsed": 458653, "internal_node_id": "0.0-6.0-79.0"}}, {"uniqueid": "w40203538:a27920959", "current_trial": 175, "dateTime": 1664555400014, "trialdata": {"rt": 2360, "stimulus": "<p id='stroop-text' class='stroop-yellow'>BLUE</p>", "response": "y", "stimulus-type": "incongruent", "word": "blue", "color": "yellow", "correct_response": "y", "trial_id": "stroop-trial-1-incongruent-15", "trial_type": "html-keyboard-response", "trial_index": 175, "time_elapsed": 461526, "internal_node_id": "0.0-6.0-80.0"}}, {"uniqueid": "w40203538:a27920959", "current_trial": 176, "dateTime": 1664555401763, "trialdata": {"rt": 1231, "stimulus": "<p id='stroop-text' class='stroop-green'>MONKEY</p>", "response": "g", "stimulus-type": "unrelated", "word": "MONKEY", "color": "green", "correct_response": "g", "trial_id": "stroop-trial-1-unrelated-6", "trial_type": "html-keyboard-response", "trial_index": 176, "time_elapsed": 463276, "internal_node_id": "0.0-6.0-81.0"}}, {"uniqueid": "w40203538:a27920959", "current_trial": 177, "dateTime": 1664555403174, "trialdata": {"rt": 895, "stimulus": "<p id='stroop-text' class='stroop-red'>BRAIN</p>", "response": "r", "stimulus-type": "unrelated", "word": "BRAIN", "color": "red", "correct_response": "r", "trial_id": "stroop-trial-1-unrelated-13", "trial_type": "html-keyboard-response", "trial_index": 177, "time_elapsed": 464687, "internal_node_id": "0.0-6.0-82.0"}}, {"uniqueid": "w40203538:a27920959", "current_trial": 178, "dateTime": 1664555404419, "trialdata": {"rt": 732, "stimulus": "<p id='stroop-text' class='stroop-red'>RED</p>", "response": "r", "stimulus-type": "congruent", "word": "red", "color": "red", "correct_response": "r", "trial_id": "stroop-trial-1-congruent-19", "trial_type": "html-keyboard-response", "trial_index": 178, "time_elapsed": 465933, "internal_node_id": "0.0-6.0-83.0"}}, {"uniqueid": "w40203538:a27920959", "current_trial": 179, "dateTime": 1664555405536, "trialdata": {"rt": 603, "stimulus": "<p id='stroop-text' class='stroop-red'>RED</p>", "response": "r", "stimulus-type": "congruent", "word": "red", "color": "red", "correct_response": "r", "trial_id": "stroop-trial-1-congruent-5", "trial_type": "html-keyboard-response", "trial_index": 179, "time_elapsed": 467047, "internal_node_id": "0.0-6.0-84.0"}}, {"uniqueid": "w40203538:a27920959", "current_trial": 180, "dateTime": 1664555406844, "trialdata": {"rt": 786, "stimulus": "<p id='stroop-text' class='stroop-blue'>BLUE</p>", "response": "b", "stimulus-type": "congruent", "word": "blue", "color": "blue", "correct_response": "b", "trial_id": "stroop-trial-1-congruent-11", "trial_type": "html-keyboard-response", "trial_index": 180, "time_elapsed": 468357, "internal_node_id": "0.0-6.0-85.0"}}, {"uniqueid": "w40203538:a27920959", "current_trial": 181, "dateTime": 1664555407996, "trialdata": {"rt": 640, "stimulus": "<p id='stroop-text' class='stroop-blue'>WINDOW</p>", "response": "b", "stimulus-type": "unrelated", "word": "WINDOW", "color": "blue", "correct_response": "b", "trial_id": "stroop-trial-1-unrelated-25", "trial_type": "html-keyboard-response", "trial_index": 181, "time_elapsed": 469509, "internal_node_id": "0.0-6.0-86.0"}}, {"uniqueid": "w40203538:a27920959", "current_trial": 182, "dateTime": 1664555409638, "trialdata": {"rt": 1129, "stimulus": "<p id='stroop-text' class='stroop-red'>YELLOW</p>", "response": "y", "stimulus-type": "incongruent", "word": "yellow", "color": "red", "correct_response": "r", "trial_id": "stroop-trial-1-incongruent-8", "trial_type": "html-keyboard-response", "trial_index": 182, "time_elapsed": 471150, "internal_node_id": "0.0-6.0-87.0"}}, {"uniqueid": "w40203538:a27920959", "current_trial": 183, "dateTime": 1664555411159, "trialdata": {"rt": 990, "stimulus": "<p id='stroop-text' class='stroop-yellow'>RED</p>", "response": "g", "stimulus-type": "incongruent", "word": "red", "color": "yellow", "correct_response": "y", "trial_id": "stroop-trial-1-incongruent-9", "trial_type": "html-keyboard-response", "trial_index": 183, "time_elapsed": 472671, "internal_node_id": "0.0-6.0-88.0"}}, {"uniqueid": "w40203538:a27920959", "current_trial": 184, "dateTime": 1664555413139, "trialdata": {"rt": 1462, "stimulus": "<p id='stroop-text' class='stroop-blue'>RED</p>", "response": "b", "stimulus-type": "incongruent", "word": "red", "color": "blue", "correct_response": "b", "trial_id": "stroop-trial-1-incongruent-16", "trial_type": "html-keyboard-response", "trial_index": 184, "time_elapsed": 474653, "internal_node_id": "0.0-6.0-89.0"}}, {"uniqueid": "w40203538:a27920959", "current_trial": 185, "dateTime": 1664555449256, "trialdata": {"rt": 35590, "stimulus": "  <h1> End of block! </h1>\n\n  You have reached the end of the block 2/5. If you need a short break, feel free to take one now before moving on.\n\n  <br><br>\n  In the next block, you will complete another 90 rounds of this game.\n\n  <br><br>\n  <div style='text-align: center;'>Press <code>space</code> to begin.</div>\n  <br><br>\n<div style='text-align: center;'>(If the experiment doesn't continue, try clicking on the text and then pressing <code>space</code>.)</div>", "response": " ", "trial_id": "stroop_1_ready_3", "trial_type": "html-keyboard-response", "trial_index": 185, "time_elapsed": 510770, "internal_node_id": "0.0-7.0"}}, {"uniqueid": "w40203538:a27920959", "current_trial": 186, "dateTime": 1664555451135, "trialdata": {"rt": 1861, "stimulus": "<p id='stroop-text' class='stroop-green'>GREEN</p>", "response": "g", "stimulus-type": "congruent", "word": "green", "color": "green", "correct_response": "g", "trial_id": "stroop-trial-1-congruent-14", "trial_type": "html-keyboard-response", "trial_index": 186, "time_elapsed": 512647, "internal_node_id": "0.0-8.0-0.0"}}, {"uniqueid": "w40203538:a27920959", "current_trial": 187, "dateTime": 1664555453374, "trialdata": {"rt": 1713, "stimulus": "<p id='stroop-text' class='stroop-yellow'>YELLOW</p>", "response": "y", "stimulus-type": "congruent", "word": "yellow", "color": "yellow", "correct_response": "y", "trial_id": "stroop-trial-1-congruent-3", "trial_type": "html-keyboard-response", "trial_index": 187, "time_elapsed": 514887, "internal_node_id": "0.0-8.0-1.0"}}, {"uniqueid": "w40203538:a27920959", "current_trial": 188, "dateTime": 1664555454900, "trialdata": {"rt": 996, "stimulus": "<p id='stroop-text' class='stroop-blue'>RED</p>", "response": "b", "stimulus-type": "incongruent", "word": "red", "color": "blue", "correct_response": "b", "trial_id": "stroop-trial-1-incongruent-29", "trial_type": "html-keyboard-response", "trial_index": 188, "time_elapsed": 516412, "internal_node_id": "0.0-8.0-2.0"}}, {"uniqueid": "w40203538:a27920959", "current_trial": 189, "dateTime": 1664555456949, "trialdata": {"rt": 1512, "stimulus": "<p id='stroop-text' class='stroop-red'>GREEN</p>", "response": "r", "stimulus-type": "incongruent", "word": "green", "color": "red", "correct_response": "r", "trial_id": "stroop-trial-1-incongruent-19", "trial_type": "html-keyboard-response", "trial_index": 189, "time_elapsed": 518462, "internal_node_id": "0.0-8.0-3.0"}}, {"uniqueid": "w40203538:a27920959", "current_trial": 190, "dateTime": 1664555458977, "trialdata": {"rt": 1511, "stimulus": "<p id='stroop-text' class='stroop-green'>YELLOW</p>", "response": "y", "stimulus-type": "incongruent", "word": "yellow", "color": "green", "correct_response": "g", "trial_id": "stroop-trial-1-incongruent-12", "trial_type": "html-keyboard-response", "trial_index": 190, "time_elapsed": 520488, "internal_node_id": "0.0-8.0-4.0"}}, {"uniqueid": "w40203538:a27920959", "current_trial": 191, "dateTime": 1664555460479, "trialdata": {"rt": 985, "stimulus": "<p id='stroop-text' class='stroop-green'>FORK</p>", "response": "g", "stimulus-type": "unrelated", "word": "FORK", "color": "green", "correct_response": "g", "trial_id": "stroop-trial-1-unrelated-8", "trial_type": "html-keyboard-response", "trial_index": 191, "time_elapsed": 521991, "internal_node_id": "0.0-8.0-5.0"}}, {"uniqueid": "w40203538:a27920959", "current_trial": 192, "dateTime": 1664555461782, "trialdata": {"rt": 789, "stimulus": "<p id='stroop-text' class='stroop-red'>BLUE</p>", "response": "r", "stimulus-type": "incongruent", "word": "blue", "color": "red", "correct_response": "r", "trial_id": "stroop-trial-1-incongruent-28", "trial_type": "html-keyboard-response", "trial_index": 192, "time_elapsed": 523295, "internal_node_id": "0.0-8.0-6.0"}}, {"uniqueid": "w40203538:a27920959", "current_trial": 193, "dateTime": 1664555467886, "trialdata": {"rt": 5588, "stimulus": "<p id='stroop-text' class='stroop-green'>RED</p>", "response": "g", "stimulus-type": "incongruent", "word": "red", "color": "green", "correct_response": "g", "trial_id": "stroop-trial-1-incongruent-20", "trial_type": "html-keyboard-response", "trial_index": 193, "time_elapsed": 529399, "internal_node_id": "0.0-8.0-7.0"}}, {"uniqueid": "w40203538:a27920959", "current_trial": 194, "dateTime": 1664555471054, "trialdata": {"rt": 2657, "stimulus": "<p id='stroop-text' class='stroop-green'>WINDOW</p>", "response": "g", "stimulus-type": "unrelated", "word": "WINDOW", "color": "green", "correct_response": "g", "trial_id": "stroop-trial-1-unrelated-20", "trial_type": "html-keyboard-response", "trial_index": 194, "time_elapsed": 532567, "internal_node_id": "0.0-8.0-8.0"}}, {"uniqueid": "w40203538:a27920959", "current_trial": 195, "dateTime": 1664555473759, "trialdata": {"rt": 2189, "stimulus": "<p id='stroop-text' class='stroop-blue'>DOG</p>", "response": "b", "stimulus-type": "unrelated", "word": "DOG", "color": "blue", "correct_response": "b", "trial_id": "stroop-trial-1-unrelated-24", "trial_type": "html-keyboard-response", "trial_index": 195, "time_elapsed": 535272, "internal_node_id": "0.0-8.0-9.0"}}, {"uniqueid": "w40203538:a27920959", "current_trial": 196, "dateTime": 1664555474854, "trialdata": {"rt": 580, "stimulus": "<p id='stroop-text' class='stroop-blue'>BLUE</p>", "response": "b", "stimulus-type": "congruent", "word": "blue", "color": "blue", "correct_response": "b", "trial_id": "stroop-trial-1-congruent-22", "trial_type": "html-keyboard-response", "trial_index": 196, "time_elapsed": 536367, "internal_node_id": "0.0-8.0-10.0"}}, {"uniqueid": "w40203538:a27920959", "current_trial": 197, "dateTime": 1664555476663, "trialdata": {"rt": 1296, "stimulus": "<p id='stroop-text' class='stroop-blue'>GREEN</p>", "response": "g", "stimulus-type": "incongruent", "word": "green", "color": "blue", "correct_response": "b", "trial_id": "stroop-trial-1-incongruent-14", "trial_type": "html-keyboard-response", "trial_index": 197, "time_elapsed": 538176, "internal_node_id": "0.0-8.0-11.0"}}, {"uniqueid": "w40203538:a27920959", "current_trial": 198, "dateTime": 1664555478166, "trialdata": {"rt": 987, "stimulus": "<p id='stroop-text' class='stroop-red'>YELLOW</p>", "response": "b", "stimulus-type": "incongruent", "word": "yellow", "color": "red", "correct_response": "r", "trial_id": "stroop-trial-1-incongruent-27", "trial_type": "html-keyboard-response", "trial_index": 198, "time_elapsed": 539679, "internal_node_id": "0.0-8.0-12.0"}}, {"uniqueid": "w40203538:a27920959", "current_trial": 199, "dateTime": 1664555480958, "trialdata": {"rt": 2277, "stimulus": "<p id='stroop-text' class='stroop-red'>YELLOW</p>", "response": "r", "stimulus-type": "incongruent", "word": "yellow", "color": "red", "correct_response": "r", "trial_id": "stroop-trial-1-incongruent-21", "trial_type": "html-keyboard-response", "trial_index": 199, "time_elapsed": 542471, "internal_node_id": "0.0-8.0-13.0"}}, {"uniqueid": "w40203538:a27920959", "current_trial": 200, "dateTime": 1664555482475, "trialdata": {"rt": 1002, "stimulus": "<p id='stroop-text' class='stroop-blue'>YELLOW</p>", "response": "b", "stimulus-type": "incongruent", "word": "yellow", "color": "blue", "correct_response": "b", "trial_id": "stroop-trial-1-incongruent-30", "trial_type": "html-keyboard-response", "trial_index": 200, "time_elapsed": 543987, "internal_node_id": "0.0-8.0-14.0"}}, {"uniqueid": "w40203538:a27920959", "current_trial": 201, "dateTime": 1664555483661, "trialdata": {"rt": 644, "stimulus": "<p id='stroop-text' class='stroop-yellow'>YELLOW</p>", "response": "y", "stimulus-type": "congruent", "word": "yellow", "color": "yellow", "correct_response": "y", "trial_id": "stroop-trial-1-congruent-10", "trial_type": "html-keyboard-response", "trial_index": 201, "time_elapsed": 545172, "internal_node_id": "0.0-8.0-15.0"}}, {"uniqueid": "w40203538:a27920959", "current_trial": 202, "dateTime": 1664555485830, "trialdata": {"rt": 1635, "stimulus": "<p id='stroop-text' class='stroop-red'>GREEN</p>", "response": "r", "stimulus-type": "incongruent", "word": "green", "color": "red", "correct_response": "r", "trial_id": "stroop-trial-1-incongruent-24", "trial_type": "html-keyboard-response", "trial_index": 202, "time_elapsed": 547343, "internal_node_id": "0.0-8.0-16.0"}}, {"uniqueid": "w40203538:a27920959", "current_trial": 203, "dateTime": 1664555486991, "trialdata": {"rt": 646, "stimulus": "<p id='stroop-text' class='stroop-blue'>BLUE</p>", "response": "b", "stimulus-type": "congruent", "word": "blue", "color": "blue", "correct_response": "b", "trial_id": "stroop-trial-1-congruent-30", "trial_type": "html-keyboard-response", "trial_index": 203, "time_elapsed": 548504, "internal_node_id": "0.0-8.0-17.0"}}, {"uniqueid": "w40203538:a27920959", "current_trial": 204, "dateTime": 1664555488262, "trialdata": {"rt": 758, "stimulus": "<p id='stroop-text' class='stroop-blue'>DOG</p>", "response": "b", "stimulus-type": "unrelated", "word": "DOG", "color": "blue", "correct_response": "b", "trial_id": "stroop-trial-1-unrelated-12", "trial_type": "html-keyboard-response", "trial_index": 204, "time_elapsed": 549775, "internal_node_id": "0.0-8.0-18.0"}}, {"uniqueid": "w40203538:a27920959", "current_trial": 205, "dateTime": 1664555489856, "trialdata": {"rt": 1079, "stimulus": "<p id='stroop-text' class='stroop-yellow'>GREEN</p>", "response": "y", "stimulus-type": "incongruent", "word": "green", "color": "yellow", "correct_response": "y", "trial_id": "stroop-trial-1-incongruent-11", "trial_type": "html-keyboard-response", "trial_index": 205, "time_elapsed": 551368, "internal_node_id": "0.0-8.0-19.0"}}, {"uniqueid": "w40203538:a27920959", "current_trial": 206, "dateTime": 1664555490991, "trialdata": {"rt": 614, "stimulus": "<p id='stroop-text' class='stroop-yellow'>YELLOW</p>", "response": "y", "stimulus-type": "congruent", "word": "yellow", "color": "yellow", "correct_response": "y", "trial_id": "stroop-trial-1-congruent-16", "trial_type": "html-keyboard-response", "trial_index": 206, "time_elapsed": 552504, "internal_node_id": "0.0-8.0-20.0"}}, {"uniqueid": "w40203538:a27920959", "current_trial": 207, "dateTime": 1664555492241, "trialdata": {"rt": 728, "stimulus": "<p id='stroop-text' class='stroop-green'>BOAT</p>", "response": "g", "stimulus-type": "unrelated", "word": "BOAT", "color": "green", "correct_response": "g", "trial_id": "stroop-trial-1-unrelated-13", "trial_type": "html-keyboard-response", "trial_index": 207, "time_elapsed": 553752, "internal_node_id": "0.0-8.0-21.0"}}, {"uniqueid": "w40203538:a27920959", "current_trial": 208, "dateTime": 1664555494928, "trialdata": {"rt": 2154, "stimulus": "<p id='stroop-text' class='stroop-blue'>RED</p>", "response": "r", "stimulus-type": "incongruent", "word": "red", "color": "blue", "correct_response": "b", "trial_id": "stroop-trial-1-incongruent-1", "trial_type": "html-keyboard-response", "trial_index": 208, "time_elapsed": 556435, "internal_node_id": "0.0-8.0-22.0"}}, {"uniqueid": "w40203538:a27920959", "current_trial": 209, "dateTime": 1664555496879, "trialdata": {"rt": 1421, "stimulus": "<p id='stroop-text' class='stroop-red'>BOTTLE</p>", "response": "r", "stimulus-type": "unrelated", "word": "BOTTLE", "color": "red", "correct_response": "r", "trial_id": "stroop-trial-1-unrelated-28", "trial_type": "html-keyboard-response", "trial_index": 209, "time_elapsed": 558391, "internal_node_id": "0.0-8.0-23.0"}}, {"uniqueid": "w40203538:a27920959", "current_trial": 210, "dateTime": 1664555498216, "trialdata": {"rt": 821, "stimulus": "<p id='stroop-text' class='stroop-red'>BOTTLE</p>", "response": "r", "stimulus-type": "unrelated", "word": "BOTTLE", "color": "red", "correct_response": "r", "trial_id": "stroop-trial-1-unrelated-10", "trial_type": "html-keyboard-response", "trial_index": 210, "time_elapsed": 559728, "internal_node_id": "0.0-8.0-24.0"}}, {"uniqueid": "w40203538:a27920959", "current_trial": 211, "dateTime": 1664555499791, "trialdata": {"rt": 1045, "stimulus": "<p id='stroop-text' class='stroop-red'>RED</p>", "response": "r", "stimulus-type": "congruent", "word": "red", "color": "red", "correct_response": "r", "trial_id": "stroop-trial-1-congruent-21", "trial_type": "html-keyboard-response", "trial_index": 211, "time_elapsed": 561304, "internal_node_id": "0.0-8.0-25.0"}}, {"uniqueid": "w40203538:a27920959", "current_trial": 212, "dateTime": 1664555500912, "trialdata": {"rt": 603, "stimulus": "<p id='stroop-text' class='stroop-red'>RED</p>", "response": "r", "stimulus-type": "congruent", "word": "red", "color": "red", "correct_response": "r", "trial_id": "stroop-trial-1-congruent-27", "trial_type": "html-keyboard-response", "trial_index": 212, "time_elapsed": 562424, "internal_node_id": "0.0-8.0-26.0"}}, {"uniqueid": "w40203538:a27920959", "current_trial": 213, "dateTime": 1664555502120, "trialdata": {"rt": 690, "stimulus": "<p id='stroop-text' class='stroop-yellow'>YELLOW</p>", "response": "y", "stimulus-type": "congruent", "word": "yellow", "color": "yellow", "correct_response": "y", "trial_id": "stroop-trial-1-congruent-19", "trial_type": "html-keyboard-response", "trial_index": 213, "time_elapsed": 563633, "internal_node_id": "0.0-8.0-27.0"}}, {"uniqueid": "w40203538:a27920959", "current_trial": 214, "dateTime": 1664555503816, "trialdata": {"rt": 1183, "stimulus": "<p id='stroop-text' class='stroop-yellow'>YELLOW</p>", "response": "y", "stimulus-type": "congruent", "word": "yellow", "color": "yellow", "correct_response": "y", "trial_id": "stroop-trial-1-congruent-13", "trial_type": "html-keyboard-response", "trial_index": 214, "time_elapsed": 565328, "internal_node_id": "0.0-8.0-28.0"}}, {"uniqueid": "w40203538:a27920959", "current_trial": 215, "dateTime": 1664555505249, "trialdata": {"rt": 913, "stimulus": "<p id='stroop-text' class='stroop-green'>MONKEY</p>", "response": "g", "stimulus-type": "unrelated", "word": "MONKEY", "color": "green", "correct_response": "g", "trial_id": "stroop-trial-1-unrelated-9", "trial_type": "html-keyboard-response", "trial_index": 215, "time_elapsed": 566761, "internal_node_id": "0.0-8.0-29.0"}}, {"uniqueid": "w40203538:a27920959", "current_trial": 216, "dateTime": 1664555506480, "trialdata": {"rt": 708, "stimulus": "<p id='stroop-text' class='stroop-red'>RED</p>", "response": "r", "stimulus-type": "congruent", "word": "red", "color": "red", "correct_response": "r", "trial_id": "stroop-trial-1-congruent-4", "trial_type": "html-keyboard-response", "trial_index": 216, "time_elapsed": 567992, "internal_node_id": "0.0-8.0-30.0"}}, {"uniqueid": "w40203538:a27920959", "current_trial": 217, "dateTime": 1664555510311, "trialdata": {"rt": 3315, "stimulus": "<p id='stroop-text' class='stroop-green'>MONKEY</p>", "response": "g", "stimulus-type": "unrelated", "word": "MONKEY", "color": "green", "correct_response": "g", "trial_id": "stroop-trial-1-unrelated-4", "trial_type": "html-keyboard-response", "trial_index": 217, "time_elapsed": 571824, "internal_node_id": "0.0-8.0-31.0"}}, {"uniqueid": "w40203538:a27920959", "current_trial": 218, "dateTime": 1664555511439, "trialdata": {"rt": 612, "stimulus": "<p id='stroop-text' class='stroop-green'>MONKEY</p>", "response": "g", "stimulus-type": "unrelated", "word": "MONKEY", "color": "green", "correct_response": "g", "trial_id": "stroop-trial-1-unrelated-7", "trial_type": "html-keyboard-response", "trial_index": 218, "time_elapsed": 572952, "internal_node_id": "0.0-8.0-32.0"}}, {"uniqueid": "w40203538:a27920959", "current_trial": 219, "dateTime": 1664555512625, "trialdata": {"rt": 667, "stimulus": "<p id='stroop-text' class='stroop-yellow'>DOG</p>", "response": "y", "stimulus-type": "unrelated", "word": "DOG", "color": "yellow", "correct_response": "y", "trial_id": "stroop-trial-1-unrelated-29", "trial_type": "html-keyboard-response", "trial_index": 219, "time_elapsed": 574137, "internal_node_id": "0.0-8.0-33.0"}}, {"uniqueid": "w40203538:a27920959", "current_trial": 220, "dateTime": 1664555513847, "trialdata": {"rt": 707, "stimulus": "<p id='stroop-text' class='stroop-green'>GREEN</p>", "response": "g", "stimulus-type": "congruent", "word": "green", "color": "green", "correct_response": "g", "trial_id": "stroop-trial-1-congruent-24", "trial_type": "html-keyboard-response", "trial_index": 220, "time_elapsed": 575360, "internal_node_id": "0.0-8.0-34.0"}}, {"uniqueid": "w40203538:a27920959", "current_trial": 221, "dateTime": 1664555514911, "trialdata": {"rt": 549, "stimulus": "<p id='stroop-text' class='stroop-yellow'>YELLOW</p>", "response": "y", "stimulus-type": "congruent", "word": "yellow", "color": "yellow", "correct_response": "y", "trial_id": "stroop-trial-1-congruent-29", "trial_type": "html-keyboard-response", "trial_index": 221, "time_elapsed": 576424, "internal_node_id": "0.0-8.0-35.0"}}, {"uniqueid": "w40203538:a27920959", "current_trial": 222, "dateTime": 1664555516111, "trialdata": {"rt": 688, "stimulus": "<p id='stroop-text' class='stroop-yellow'>SHIP</p>", "response": "y", "stimulus-type": "unrelated", "word": "SHIP", "color": "yellow", "correct_