{"condition": 1, "counterbalance": 0, "assignmentId": "a12336123", "workerId": "w85137951", "hitId": "h32971458", "currenttrial": 137, "bonus": 0, "data": [{"uniqueid": "w85137951:a12336123", "current_trial": 0, "dateTime": 1664555078085, "trialdata": {"success": true, "trial_type": "fullscreen", "trial_index": 0, "time_elapsed": 17369, "internal_node_id": "0.0-0.0"}}, {"uniqueid": "w85137951:a12336123", "current_trial": 1, "dateTime": 1664555094195, "trialdata": {"view_history": [{"page_index": 0, "viewing_time": 16108}], "rt": 16108, "trial_id": "exp_instructions_no_distractor", "trial_type": "instructions", "trial_index": 1, "time_elapsed": 33480, "internal_node_id": "0.0-1.0"}}, {"uniqueid": "w85137951:a12336123", "current_trial": 2, "dateTime": 1664555097901, "trialdata": {"success": true, "trial_type": "fullscreen", "trial_index": 2, "time_elapsed": 37185, "internal_node_id": "0.0-2.0-0.0"}}, {"uniqueid": "w85137951:a12336123", "current_trial": 3, "dateTime": 1664555184587, "trialdata": {"view_history": [{"page_index": 0, "viewing_time": 38038}, {"page_index": 1, "viewing_time": 31743}, {"page_index": 2, "viewing_time": 10208}, {"page_index": 3, "viewing_time": 3768}, {"page_index": 4, "viewing_time": 2928}], "rt": 86686, "trial_id": "mouselab_instructions_1", "trial_type": "instructions", "trial_index": 3, "time_elapsed": 123872, "internal_node_id": "0.0-2.0-1.0"}}, {"uniqueid": "w85137951:a12336123", "current_trial": 4, "dateTime": 1664555196403, "trialdata": {"revealed_states": [], "num_clicks_accrued": [0, 0, 0, 0, 0, 0, 0, 0, 0, 0, 0, 0, 0], "stateRewards": ["", 10, -10, 10, 10, 10, 10, -10, 10, 10, -10, -10, 10], "withholdReward": false, "trial_id": "practice_1", "block": "test", "trialIndex": 0, "score": 31.75, "costs": -0.25, "simulationMode": [null, null, null], "rewards": [10, 10, 10], "path": ["0", "0", "5", "6", "8"], "rt": [3853, 612, 373], "actions": ["right", "right", "down"], "actionTimes": [6025, 7148, 8009], "queries": {"click": {"state": {"target": ["5"], "time": [4173]}, "edge": {"target": [], "time": []}}, "mouseover": {"state": {"target": ["5", "0", "0"], "time": [4003, 5353, 5553]}, "edge": {"target": [], "time": []}}, "mouseout": {"state": {"target": ["5", "0", "5", "0", "0"], "time": [652, 2603, 4520, 5420, 5586]}, "edge": {"target": [], "time": []}}}, "displayed_time": "8.50", "trialTime": 11700, "trial_type": "mouselab-mdp", "trial_index": 4, "time_elapsed": 135688, "internal_node_id": "0.0-2.0-2.0-0.0"}}, {"uniqueid": "w85137951:a12336123", "current_trial": 5, "dateTime": 1664555204578, "trialdata": {"revealed_states": [], "num_clicks_accrued": [0, 0, 0, 0, 0, 0, 0, 0, 0, 0, 0, 0, 0], "stateRewards": ["", 10, 10, -10, 10, 10, -10, -10, 10, -10, -10, 10, 10], "withholdReward": false, "trial_id": "practice_2", "block": "test", "trialIndex": 1, "score": 11.75, "costs": -0.25, "simulationMode": [null, null, null], "rewards": [10, -10, 10], "path": ["0", "0", "5", "6", "8"], "rt": [1881, 428, 227], "actions": ["right", "right", "down"], "actionTimes": [2982, 3901, 4633], "queries": {"click": {"state": {"target": ["9"], "time": [1978]}, "edge": {"target": [], "time": []}}, "mouseover": {"state": {"target": ["9"], "time": [1839]}, "edge": {"target": [], "time": []}}, "mouseout": {"state": {"target": ["0", "9"], "time": [1672, 6022]}, "edge": {"target": [], "time": []}}}, "displayed_time": "5.12", "trialTime": 8145, "trial_type": "mouselab-mdp", "trial_index": 5, "time_elapsed": 143863, "internal_node_id": "0.0-2.0-2.0-1.0"}}, {"uniqueid": "w85137951:a12336123", "current_trial": 6, "dateTime": 1664555370659, "trialdata": {"view_history": [{"page_index": 0, "viewing_time": 151949}, {"page_index": 1, "viewing_time": 6977}, {"page_index": 2, "viewing_time": 7151}], "rt": 166078, "trial_id": "mouselab_instructions_2_scarce", "trial_type": "instructions", "trial_index": 6, "time_elapsed": 309944, "internal_node_id": "0.0-2.0-3.0"}}, {"uniqueid": "w85137951:a12336123", "current_trial": 7, "dateTime": 1664555414995, "trialdata": {"rt": 44334, "response": {"Q0": "$-48 to $48", "Q1": "The cost is always $0.25.", "Q2": "The better I perform the higher my bonus will be.", "Q3": "No, the amount of cash at each node of the web may be different each time.", "Q4": "The values of the nodes walked through from start to finish.", "Q5": "No, the spider might forget to count the money on some rounds."}, "question_order": [0, 1, 2, 3, 4, 5], "correct": {"Q0": "$-48 to $48", "Q1": "The cost is always $0.25.", "Q2": "The better I perform the higher my bonus will be.", "Q3": "No, the amount of cash at each node of the web may be different each time.", "Q4": "The values of the nodes walked through from start to finish.", "Q5": "No, the spider might forget to count the money on some rounds."}, "trial_id": "mouselab_quiz_scarce", "trial_type": "survey-multi-choice", "trial_index": 7, "time_elapsed": 354280, "internal_node_id": "0.0-2.0-4.0"}}, {"uniqueid": "w85137951:a12336123", "current_trial": 8, "dateTime": 1664555416717, "trialdata": {"rt": 1716, "stimulus": "\n<h1> Get ready to start the game! </h1>\n\nThank you for reading the instructions. Get ready start with the first of 4 block(s) of this game.\n<br><br>\nIn this first block, you will complete 30 rounds of this game before moving on.\n<br><br>\nRemember, the more money the spider gets, the bigger your bonus will be!\n<br><br>\n<div style='text-align: center;'>Press <code>space</code> to begin.</div>\n\n<br><br>\n(If, at any point, the <code>space</code> key does not take you to the next page, click once on the text and try again.)", "response": " ", "trial_id": "mdp_ready_1", "trial_type": "html-keyboard-response", "trial_index": 8, "time_elapsed": 356002, "internal_node_id": "0.0-4.0-0.0"}}, {"uniqueid": "w85137951:a12336123", "current_trial": 9, "dateTime": 1664555428013, "trialdata": {"revealed_states": [], "num_clicks_accrued": [0, 0, 0, 0, 0, 0, 0, 0, 0, 0, 0, 0, 0], "stateRewards": ["", 4, 4, -24, -48, -4, 4, -48, 24, 4, -8, -48, 48], "withholdReward": true, "trial_id": "mdp_566768794366", "block": "test1", "trialIndex": 2, "score": 48.75, "costs": -0.25, "simulationMode": [null, null, null], "rewards": [4, -8, 48], "path": ["0", "0", "9", "10", "12"], "rt": [3271, 241, 56], "actions": ["left", "left", "down"], "actionTimes": [4858, 5615, 6181], "queries": {"click": {"state": {"target": ["5"], "time": [3951]}, "edge": {"target": [], "time": []}}, "mouseover": {"state": {"target": ["0", "5"], "time": [3491, 3724]}, "edge": {"target": [], "time": []}}, "mouseout": {"state": {"target": ["12", "0", "0", "5"], "time": [1091, 3457, 3591, 4124]}, "edge": {"target": [], "time": []}}}, "displayed_time": "9.59", "trialTime": 11265, "trial_type": "mouselab-mdp", "trial_index": 9, "time_elapsed": 367298, "internal_node_id": "0.0-4.0-1.0-0.0"}}, {"uniqueid": "w85137951:a12336123", "current_trial": 10, "dateTime": 1664555438064, "trialdata": {"revealed_states": [], "num_clicks_accrued": [0, 0, 0, 0, 0, 0, 0, 0, 0, 0, 0, 0, 0], "stateRewards": ["", 2, 4, 24, 48, -2, 8, 24, -24, -4, -4, 48, 48], "withholdReward": true, "trial_id": "mdp_753439303214", "block": "test1", "trialIndex": 3, "score": 34.75, "costs": -0.25, "simulationMode": [null, null, null], "rewards": [2, 4, 24], "path": ["0", "0", "1", "2", "3"], "rt": [1470, 107, 117], "actions": ["up", "up", "right"], "actionTimes": [2996, 3607, 4216], "queries": {"click": {"state": {"target": ["1"], "time": [2235]}, "edge": {"target": [], "time": []}}, "mouseover": {"state": {"target": ["1", "6"], "time": [2065, 2499]}, "edge": {"target": [], "time": []}}, "mouseout": {"state": {"target": ["8", "0", "1", "6"], "time": [998, 1916, 2449, 2515]}, "edge": {"target": [], "time": []}}}, "displayed_time": "9.53", "trialTime": 10024, "trial_type": "mouselab-mdp", "trial_index": 10, "time_elapsed": 377349, "internal_node_id": "0.0-4.0-1.0-1.0"}}, {"uniqueid": "w85137951:a12336123", "current_trial": 11, "dateTime": 1664555448841, "trialdata": {"revealed_states": [], "num_clicks_accrued": [0, 0, 0, 0, 0, 0, 0, 0, 0, 0, 0, 0, 0], "stateRewards": ["", 2, 8, 48, -48, -2, -4, -24, 24, 4, -4, 48, -48], "withholdReward": false, "trial_id": "mdp_105734044587", "block": "test1", "trialIndex": 4, "score": 62.75, "costs": -0.25, "simulationMode": [null, null, null], "rewards": [2, 8, 48], "path": ["0", "0", "1", "2", "3"], "rt": [2069, 83, 172], "actions": ["up", "up", "right"], "actionTimes": [3916, 4515, 5188], "queries": {"click": {"state": {"target": ["1"], "time": [2338]}, "edge": {"target": [], "time": []}}, "mouseover": {"state": {"target": ["1", "6"], "time": [2232, 2649]}, "edge": {"target": [], "time": []}}, "mouseout": {"state": {"target": ["5", "0", "1", "6"], "time": [1132, 2116, 2582, 2682]}, "edge": {"target": [], "time": []}}}, "displayed_time": "9.85", "trialTime": 10751, "trial_type": "mouselab-mdp", "trial_index": 11, "time_elapsed": 388126, "internal_node_id": "0.0-4.0-1.0-2.0"}}, {"uniqueid": "w85137951:a12336123", "current_trial": 12, "dateTime": 1664555459961, "trialdata": {"revealed_states": [], "num_clicks_accrued": [0, 0, 0, 0, 0, 0, 0, 0, 0, 0, 0, 0, 0], "stateRewards": ["", -2, -8, -24, 24, -2, -8, -48, 24, -2, -8, 24, 24], "withholdReward": true, "trial_id": "mdp_336617436097", "block": "test1", "trialIndex": 5, "score": 18.5, "costs": -0.5, "simulationMode": [null, null, null], "rewards": [-2, -8, 24], "path": ["0", "0", "1", "2", "4"], "rt": [3058, 58, 473], "actions": ["up", "up", "left"], "actionTimes": [4525, 5078, 6059], "queries": {"click": {"state": {"target": ["5", "9"], "time": [2175, 3599]}, "edge": {"target": [], "time": []}}, "mouseover": {"state": {"target": ["5", "0", "9", "8"], "time": [1953, 3170, 3486, 3886]}, "edge": {"target": [], "time": []}}, "mouseout": {"state": {"target": ["8", "0", "5", "5", "5", "0", "9", "8"], "time": [970, 1903, 2586, 2970, 3153, 3203, 3836, 3903]}, "edge": {"target": [], "time": []}}}, "displayed_time": "10.47", "trialTime": 11092, "trial_type": "mouselab-mdp", "trial_index": 12, "time_elapsed": 399246, "internal_node_id": "0.0-4.0-1.0-3.0"}}, {"uniqueid": "w85137951:a12336123", "current_trial": 13, "dateTime": 1664555471611, "trialdata": {"revealed_states": [], "num_clicks_accrued": [0, 0, 0, 0, 0, 0, 0, 0, 0, 0, 0, 0, 0], "stateRewards": ["", -4, 8, -24, -24, 2, 4, 48, 48, -2, 4, 24, -48], "withholdReward": true, "trial_id": "mdp_397308196941", "block": "test1", "trialIndex": 6, "score": 58.75, "costs": -0.25, "simulationMode": [null, null, null], "rewards": [2, 4, 48], "path": ["0", "0", "5", "6", "7"], "rt": [2528, 147, 84], "actions": ["right", "right", "up"], "actionTimes": [3474, 4113, 4685], "queries": {"click": {"state": {"target": ["1"], "time": [1383]}, "edge": {"target": [], "time": []}}, "mouseover": {"state": {"target": ["1", "5", "5"], "time": [1250, 2066, 2450]}, "edge": {"target": [], "time": []}}, "mouseout": {"state": {"target": ["9", "0", "1", "5"], "time": [683, 1083, 1866, 2183]}, "edge": {"target": [], "time": []}}}, "displayed_time": "9.95", "trialTime": 11622, "trial_type": "mouselab-mdp", "trial_index": 13, "time_elapsed": 410896, "internal_node_id": "0.0-4.0-1.0-4.0"}}, {"uniqueid": "w85137951:a12336123", "current_trial": 14, "dateTime": 1664555483842, "trialdata": {"revealed_states": [], "num_clicks_accrued": [0, 0, 0, 0, 0, 0, 0, 0, 0, 0, 0, 0, 0], "stateRewards": ["", -2, 8, -24, 48, -4, 4, -48, 24, 4, -8, 48, -24], "withholdReward": true, "trial_id": "mdp_425320427962", "block": "test1", "trialIndex": 7, "score": 28.75, "costs": -0.25, "simulationMode": [null, null, null], "rewards": [-4, 4, 24], "path": ["0", "0", "5", "6", "8"], "rt": [1276, 36, 41], "actions": ["right", "right", "down"], "actionTimes": [2378, 2904, 3457], "queries": {"click": {"state": {"target": ["1"], "time": [1628]}, "edge": {"target": [], "time": []}}, "mouseover": {"state": {"target": ["1"], "time": [1466]}, "edge": {"target": [], "time": []}}, "mouseout": {"state": {"target": ["5", "1"], "time": [783, 1816]}, "edge": {"target": [], "time": []}}}, "displayed_time": "9.10", "trialTime": 12203, "trial_type": "mouselab-mdp", "trial_index": 14, "time_elapsed": 423127, "internal_node_id": "0.0-4.0-1.0-5.0"}}, {"uniqueid": "w85137951:a12336123", "current_trial": 15, "dateTime": 1664555499841, "trialdata": {"revealed_states": [], "num_clicks_accrued": [0, 0, 0, 0, 0, 0, 0, 0, 0, 0, 0, 0, 0], "stateRewards": ["", 2, -8, 24, -24, -2, 8, -48, -48, 2, -8, -24, -48], "withholdReward": true, "trial_id": "mdp_744278669205", "block": "test1", "trialIndex": 8, "score": 22.5, "costs": -0.5, "simulationMode": [null, null, null], "rewards": [2, -8, 24], "path": ["0", "0", "1", "2", "3"], "rt": [2507, 24, 1340], "actions": ["up", "up", "right"], "actionTimes": [3433, 3962, 5795], "queries": {"click": {"state": {"target": ["1", "3"], "time": [1320, 2823]}, "edge": {"target": [], "time": []}}, "mouseover": {"state": {"target": ["1", "3", "7"], "time": [1204, 2704, 3004]}, "edge": {"target": [], "time": []}}, "mouseout": {"state": {"target": ["5", "1", "3", "7"], "time": [537, 1537, 2988, 3021]}, "edge": {"target": [], "time": []}}}, "displayed_time": "9.93", "trialTime": 15972, "trial_type": "mouselab-mdp", "trial_index": 15, "time_elapsed": 439126, "internal_node_id": "0.0-4.0-1.0-6.0"}}, {"uniqueid": "w85137951:a12336123", "current_trial": 16, "dateTime": 1664555511371, "trialdata": {"revealed_states": [], "num_clicks_accrued": [0, 0, 0, 0, 0, 0, 0, 0, 0, 0, 0, 0, 0], "stateRewards": ["", 4, -8, 48, -24, 4, -4, -48, -48, 4, -4, 24, 24], "withholdReward": false, "trial_id": "mdp_221562928904", "block": "test1", "trialIndex": 9, "score": -43.5, "costs": -0.5, "simulationMode": [null, null, null], "rewards": [4, -4, -48], "path": ["0", "0", "5", "6", "8"], "rt": [1902, 26, 1], "actions": ["right", "right", "down"], "actionTimes": [3359, 3878, 4370], "queries": {"click": {"state": {"target": ["5", "7"], "time": [1918, 2789]}, "edge": {"target": [], "time": []}}, "mouseover": {"state": {"target": ["5", "6", "7"], "time": [1635, 2135, 2669]}, "edge": {"target": [], "time": []}}, "mouseout": {"state": {"target": ["6", "1", "0", "5", "6", "7"], "time": [1036, 1169, 1619, 2102, 2585, 2952]}, "edge": {"target": [], "time": []}}}, "displayed_time": "10.46", "trialTime": 11500, "trial_type": "mouselab-mdp", "trial_index": 16, "time_elapsed": 450655, "internal_node_id": "0.0-4.0-1.0-7.0"}}, {"uniqueid": "w85137951:a12336123", "current_trial": 17, "dateTime": 1664555522240, "trialdata": {"revealed_states": [], "num_clicks_accrued": [0, 0, 0, 0, 0, 0, 0, 0, 0, 0, 0, 0, 0], "stateRewards": ["", -2, -8, -48, 24, 2, -4, -48, 48, 2, 4, 24, -24], "withholdReward": true, "trial_id": "mdp_849341543762", "block": "test1", "trialIndex": 10, "score": -45.5, "costs": -0.5, "simulationMode": [null, null, null], "rewards": [2, -4, -48], "path": ["0", "0", "5", "6", "7"], "rt": [2564, 16, 8], "actions": ["right", "right", "up"], "actionTimes": [3907, 4439, 4963], "queries": {"click": {"state": {"target": ["1", "5"], "time": [1909, 3260]}, "edge": {"target": [], "time": []}}, "mouseover": {"state": {"target": ["1", "8", "5"], "time": [1672, 2905, 3189]}, "edge": {"target": [], "time": []}}, "mouseout": {"state": {"target": ["6", "5", "1", "8"], "time": [888, 1072, 2338, 2922]}, "edge": {"target": [], "time": []}}}, "displayed_time": "10.34", "trialTime": 10840, "trial_type": "mouselab-mdp", "trial_index": 17, "time_elapsed": 461525, "internal_node_id": "0.0-4.0-1.0-8.0"}}, {"uniqueid": "w85137951:a12336123", "current_trial": 18, "dateTime": 1664555533912, "trialdata": {"revealed_states": [], "num_clicks_accrued": [0, 0, 0, 0, 0, 0, 0, 0, 0, 0, 0, 0, 0], "stateRewards": ["", 4, 4, -48, -48, 4, 4, -24, -24, -4, 8, -48, 24], "withholdReward": true, "trial_id": "mdp_669785455541", "block": "test1", "trialIndex": 11, "score": -35.5, "costs": -0.5, "simulationMode": [null, null, null], "rewards": [4, 4, -48], "path": ["0", "0", "1", "2", "4"], "rt": [1846, 19, 33], "actions": ["up", "up", "left"], "actionTimes": [3357, 3886, 4417], "queries": {"click": {"state": {"target": ["1", "3"], "time": [1916, 2491]}, "edge": {"target": [], "time": []}}, "mouseover": {"state": {"target": ["1", "3"], "time": [1767, 2316]}, "edge": {"target": [], "time": []}}, "mouseout": {"state": {"target": ["5", "1", "3"], "time": [1200, 2150, 2667]}, "edge": {"target": [], "time": []}}}, "displayed_time": "10.51", "trialTime": 11639, "trial_type": "mouselab-mdp", "trial_index": 18, "time_elapsed": 473196, "internal_node_id": "0.0-4.0-1.0-9.0"}}, {"uniqueid": "w85137951:a12336123", "current_trial": 19, "dateTime": 1664555546389, "trialdata": {"revealed_states": [], "num_clicks_accrued": [0, 0, 0, 0, 0, 0, 0, 0, 0, 0, 0, 0, 0], "stateRewards": ["", 2, 4, -48, -24, 2, 8, 24, 48, -2, 4, 48, -48], "withholdReward": true, "trial_id": "mdp_551894842204", "block": "test1", "trialIndex": 12, "score": 62.75, "costs": -0.25, "simulationMode": [null, null, null], "rewards": [2, 8, 48], "path": ["0", "0", "5", "6", "8"], "rt": [1547, 44, 2171], "actions": ["right", "right", "down"], "actionTimes": [2790, 3342, 6036], "queries": {"click": {"state": {"target": ["5"], "time": [1734]}, "edge": {"target": [], "time": []}}, "mouseover": {"state": {"target": ["5", "5"], "time": [1397, 1631]}, "edge": {"target": [], "time": []}}, "mouseout": {"state": {"target": ["0", "5", "5"], "time": [1381, 1431, 1914]}, "edge": {"target": [], "time": []}}}, "displayed_time": "10.24", "trialTime": 12447, "trial_type": "mouselab-mdp", "trial_index": 19, "time_elapsed": 485674, "internal_node_id": "0.0-4.0-1.0-10.0"}}, {"uniqueid": "w85137951:a12336123", "current_trial": 20, "dateTime": 1664555557298, "trialdata": {"revealed_states": [], "num_clicks_accrued": [0, 0, 0, 0, 0, 0, 0, 0, 0, 0, 0, 0, 0], "stateRewards": ["", 2, 4, 48, 48, 4, -8, 24, -48, -4, -8, -24, -48], "withholdReward": true, "trial_id": "mdp_343818007251", "block": "test1", "trialIndex": 13, "score": -47.25, "costs": -0.25, "simulationMode": [null, null, null], "rewards": [4, -8, -48], "path": ["0", "0", "5", "6", "8"], "rt": [1086, 225, 153], "actions": ["right", "right", "down"], "actionTimes": [2338, 3063, 3724], "queries": {"click": {"state": {"target": ["5"], "time": [1673]}, "edge": {"target": [], "time": []}}, "mouseover": {"state": {"target": ["5"], "time": [1470]}, "edge": {"target": [], "time": []}}, "mouseout": {"state": {"target": ["6", "5", "0", "5"], "time": [937, 1104, 1421, 1887]}, "edge": {"target": [], "time": []}}}, "displayed_time": "9.25", "trialTime": 10879, "trial_type": "mouselab-mdp", "trial_index": 20, "time_elapsed": 496582, "internal_node_id": "0.0-4.0-1.0-11.0"}}, {"uniqueid": "w85137951:a12336123", "current_trial": 21, "dateTime": 1664555568423, "trialdata": {"revealed_states": [], "num_clicks_accrued": [0, 0, 0, 0, 0, 0, 0, 0, 0, 0, 0, 0, 0], "stateRewards": ["", 2, -8, 24, 24, 4, -4, -24, -48, 4, 8, 24, 24], "withholdReward": true, "trial_id": "mdp_249803813713", "block": "test1", "trialIndex": 14, "score": 22.75, "costs": -0.25, "simulationMode": [null, null, null], "rewards": [2, -8, 24], "path": ["0", "0", "1", "2", "3"], "rt": [950, 16, 526], "actions": ["up", "up", "right"], "actionTimes": [2721, 3227, 4254], "queries": {"click": {"state": {"target": ["1"], "time": [2101]}, "edge": {"target": [], "time": []}}, "mouseover": {"state": {"target": ["1", "5", "8"], "time": [1995, 2278, 2311]}, "edge": {"target": [], "time": []}}, "mouseout": {"state": {"target": ["0", "1", "5", "8"], "time": [1862, 2245, 2295, 2328]}, "edge": {"target": [], "time": []}}}, "displayed_time": "9.77", "trialTime": 11095, "trial_type": "mouselab-mdp", "trial_index": 21, "time_elapsed": 507708, "internal_node_id": "0.0-4.0-1.0-12.0"}}, {"uniqueid": "w85137951:a12336123", "current_trial": 22, "dateTime": 1664555580884, "trialdata": {"revealed_states": [], "num_clicks_accrued": [0, 0, 0, 0, 0, 0, 0, 0, 0, 0, 0, 0, 0], "stateRewards": ["", -4, 8, -24, 48, 2, -8, 24, 48, 2, -8, -24, -48], "withholdReward": false, "trial_id": "mdp_493778446445", "block": "test1", "trialIndex": 15, "score": -15.25, "costs": -0.25, "simulationMode": [null, null, null], "rewards": [-4, 8, -24], "path": ["0", "0", "1", "2", "3"], "rt": [1183, 557, 370], "actions": ["up", "up", "right"], "actionTimes": [2600, 3661, 4540], "queries": {"click": {"state": {"target": ["1"], "time": [1727]}, "edge": {"target": [], "time": []}}, "mouseover": {"state": {"target": ["1", "7"], "time": [1587, 2170]}, "edge": {"target": [], "time": []}}, "mouseout": {"state": {"target": ["9", "0", "1", "7"], "time": [1153, 1503, 2037, 2186]}, "edge": {"target": [], "time": []}}}, "displayed_time": "8.42", "trialTime": 12432, "trial_type": "mouselab-mdp", "trial_index": 22, "time_elapsed": 520169, "internal_node_id": "0.0-4.0-1.0-13.0"}}, {"uniqueid": "w85137951:a12336123", "current_trial": 23, "dateTime": 1664555590719, "trialdata": {"revealed_states": [], "num_clicks_accrued": [0, 0, 0, 0, 0, 0, 0, 0, 0, 0, 0, 0, 0], "stateRewards": ["", -2, 8, -48, 48, -4, -8, 24, 24, -2, -4, 48, -48], "withholdReward": true, "trial_id": "mdp_867247318592", "block": "test1", "trialIndex": 16, "score": -37.25, "costs": -0.25, "simulationMode": [null, null, null], "rewards": [-2, 8, -48], "path": ["0", "0", "1", "2", "3"], "rt": [964, 28, 42], "actions": ["up", "up", "right"], "actionTimes": [2450, 2970, 3500], "queries": {"click": {"state": {"target": ["5"], "time": [1809]}, "edge": {"target": [], "time": []}}, "mouseover": {"state": {"target": ["5", "8"], "time": [1625, 1974]}, "edge": {"target": [], "time": []}}, "mouseout": {"state": {"target": ["0", "5", "8"], "time": [1591, 1941, 1991]}, "edge": {"target": [], "time": []}}}, "displayed_time": "9.49", "trialTime": 9805, "trial_type": "mouselab-mdp", "trial_index": 23, "time_elapsed": 530004, "internal_node_id": "0.0-4.0-1.0-14.0"}}, {"uniqueid": "w85137951:a12336123", "current_trial": 24, "dateTime": 1664555602192, "trialdata": {"revealed_states": [], "num_clicks_accrued": [0, 0, 0, 0, 0, 0, 0, 0, 0, 0, 0, 0, 0], "stateRewards": ["", -2, -8, 24, -48, 4, 4, -24, -48, -2, -8, -48, 24], "withholdReward": true, "trial_id": "mdp_556006673466", "block": "test1", "trialIndex": 17, "score": -35.25, "costs": -0.25, "simulationMode": [null, null, null], "rewards": [4, 4, -48], "path": ["0", "0", "5", "6", "8"], "rt": [889, 10, 42], "actions": ["right", "right", "down"], "actionTimes": [2503, 3004, 3569], "queries": {"click": {"state": {"target": ["1"], "time": [1962]}, "edge": {"target": [], "time": []}}, "mouseover": {"state": {"target": ["1"], "time": [1827]}, "edge": {"target": [], "time": []}}, "mouseout": {"state": {"target": ["0", "1"], "time": [1077, 2094]}, "edge": {"target": [], "time": []}}}, "displayed_time": "10.62", "trialTime": 11431, "trial_type": "mouselab-mdp", "trial_index": 24, "time_elapsed": 541477, "internal_node_id": "0.0-4.0-1.0-15.0"}}, {"uniqueid": "w85137951:a12336123", "current_trial": 25, "dateTime": 1664555615856, "trialdata": {"revealed_states": [], "num_clicks_accrued": [0, 0, 0, 0, 0, 0, 0, 0, 0, 0, 0, 0, 0], "stateRewards": ["", 2, 4, 48, -48, 2, 4, 24, -24, 2, -4, -24, -48], "withholdReward": true, "trial_id": "mdp_706591889062", "block": "test1", "trialIndex": 18, "score": 58.75, "costs": -0.25, "simulationMode": [null, null, null], "rewards": [2, 4, 48], "path": ["0", "0", "1", "2", "3"], "rt": [937, 84, 82], "actions": ["up", "up", "right"], "actionTimes": [2018, 2617, 3199], "queries": {"click": {"state": {"target": ["1"], "time": [1421]}, "edge": {"target": [], "time": []}}, "mouseover": {"state": {"target": ["1"], "time": [1282]}, "edge": {"target": [], "time": []}}, "mouseout": {"state": {"target": ["0", "1"], "time": [900, 1616]}, "edge": {"target": [], "time": []}}}, "displayed_time": "10.08", "trialTime": 13634, "trial_type": "mouselab-mdp", "trial_index": 25, "time_elapsed": 555141, "internal_node_id": "0.0-4.0-1.0-16.0"}}, {"uniqueid": "w85137951:a12336123", "current_trial": 26, "dateTime": 1664555630615, "trialdata": {"revealed_states": [], "num_clicks_accrued": [0, 0, 0, 0, 0, 0, 0, 0, 0, 0, 0, 0, 0], "stateRewards": ["", 4, 4, 24, -24, -4, -8, 48, -24, 4, 4, 48, 24], "withholdReward": true, "trial_id": "mdp_822446942217", "block": "test1", "trialIndex": 19, "score": -11.25, "costs": -0.25, "simulationMode": [null, null, null], "rewards": [4, 4, -24], "path": ["0", "0", "1", "2", "4"], "rt": [1137, 15, 896], "actions": ["up", "up", "left"], "actionTimes": [2120, 2633, 4030], "queries": {"click": {"state": {"target": ["1"], "time": [1459]}, "edge": {"target": [], "time": []}}, "mouseover": {"state": {"target": ["1", "5", "8"], "time": [1368, 1668, 1685]}, "edge": {"target": [], "time": []}}, "mouseout": {"state": {"target": ["1", "5", "8"], "time": [1635, 1684, 1701]}, "edge": {"target": [], "time": []}}}, "displayed_time": "8.98", "trialTime": 14728, "trial_type": "mouselab-mdp", "trial_index": 26, "time_elapsed": 569900, "internal_node_id": "0.0-4.0-1.0-17.0"}}, {"uniqueid": "w85137951:a12336123", "current_trial": 27, "dateTime": 1664555640171, "trialdata": {"revealed_states": [], "num_clicks_accrued": [0, 0, 0, 0, 0, 0, 0, 0, 0, 0, 0, 0, 0], "stateRewards": ["", -2, 8, 24, -48, -4, -8, -24, -48, -4, 8, -24, 48], "withholdReward": true, "trial_id": "mdp_464339499860", "block": "test1", "trialIndex": 20, "score": 34.75, "costs": -0.25, "simulationMode": [null, null, null], "rewards": [-2, 8, 24], "path": ["0", "0", "1", "2", "3"], "rt": [1229, 78, 82], "actions": ["up", "up", "right"], "actionTimes": [2205, 2786, 3357], "queries": {"click": {"state": {"target": ["5"], "time": [1340]}, "edge": {"target": [], "time": []}}, "mouseover": {"state": {"target": ["5", "6"], "time": [1208, 1624]}, "edge": {"target": [], "time": []}}, "mouseout": {"state": {"target": ["8", "5", "1", "1", "0", "5", "6"], "time": [591, 624, 724, 858, 1174, 1596, 1841]}, "edge": {"target": [], "time": []}}}, "displayed_time": "8.98", "trialTime": 9524, "trial_type": "mouselab-mdp", "trial_index": 27, "time_elapsed": 579456, "internal_node_id": "0.0-4.0-1.0-18.0"}}, {"uniqueid": "w85137951:a12336123", "current_trial": 28, "dateTime": 1664555651228, "trialdata": {"revealed_states": [], "num_clicks_accrued": [0, 0, 0, 0, 0, 0, 0, 0, 0, 0, 0, 0, 0], "stateRewards": ["", 2, 8, -48, -24, 2, -4, -48, 24, 2, -4, -24, -24], "withholdReward": true, "trial_id": "mdp_954659099093", "block": "test1", "trialIndex": 21, "score": -33.25, "costs": -0.25, "simulationMode": [null, null, null], "rewards": [2, 8, -48], "path": ["0", "0", "1", "2", "3"], "rt": [946, 79, 191], "actions": ["up", "up", "right"], "actionTimes": [2635, 3216, 3913], "queries": {"click": {"state": {"target": ["1"], "time": [1977]}, "edge": {"target": [], "time": []}}, "mouseover": {"state": {"target": ["1", "5"], "time": [1870, 2187]}, "edge": {"target": [], "time": []}}, "mouseout": {"state": {"target": ["0", "1", "1"], "time": [1287, 1603, 2137]}, "edge": {"target": [], "time": []}}}, "displayed_time": "10.69", "trialTime": 11027, "trial_type": "mouselab-mdp", "trial_index": 28, "time_elapsed": 590513, "internal_node_id": "0.0-4.0-1.0-19.0"}}, {"uniqueid": "w85137951:a12336123", "current_trial": 29, "dateTime": 1664555662119, "trialdata": {"revealed_states": [], "num_clicks_accrued": [0, 0, 0, 0, 0, 0, 0, 0, 0, 0, 0, 0, 0], "stateRewards": ["", -4, 4, -24, 48, -2, 8, -48, 24, 2, 4, 48, -48], "withholdReward": false, "trial_id": "mdp_366632183904", "block": "test1", "trialIndex": 22, "score": -37.5, "costs": -0.5, "simulationMode": [null, null, null], "rewards": [2, 4, -48], "path": ["0", "0", "9", "10", "12"], "rt": [1623, 68, 53], "actions": ["left", "left", "down"], "actionTimes": [2733, 3310, 3862], "queries": {"click": {"state": {"target": ["5", "1"], "time": [1476, 2237]}, "edge": {"target": [], "time": []}}, "mouseover": {"state": {"target": ["5", "1", "1"], "time": [1326, 1892, 2143]}, "edge": {"target": [], "time": []}}, "mouseout": {"state": {"target": ["5", "0", "5", "1"], "time": [876, 1276, 1859, 1926]}, "edge": {"target": [], "time": []}}}, "displayed_time": "10.12", "trialTime": 10857, "trial_type": "mouselab-mdp", "trial_index": 29, "time_elapsed": 601404, "internal_node_id": "0.0-4.0-1.0-20.0"}}, {"uniqueid": "w85137951:a12336123", "current_trial": 30, "dateTime": 1664555677637, "trialdata": {"revealed_states": [], "num_clicks_accrued": [0, 0, 0, 0, 0, 0, 0, 0, 0, 0, 0, 0, 0], "stateRewards": ["", -4, 8, 48, -48, 2, -4, 24, -24, -2, 4, -24, -24], "withholdReward": false, "trial_id": "mdp_804988042722", "block": "test1", "trialIndex": 23, "score": 27, "costs": 0, "simulationMode": [null, null, null], "rewards": [2, -4, 24], "path": ["0", "0", "5", "6", "7"], "rt": [501, 147, 61], "actions": ["right", "right", "up"], "actionTimes": [1663, 2302, 2867], "queries": {"click": {"state": {"target": [], "time": []}, "edge": {"target": [], "time": []}}, "mouseover": {"state": {"target": [], "time": []}, "edge": {"target": [], "time": []}}, "mouseout": {"state": {"target": ["1", "0"], "time": [788, 1271]}, "edge": {"target": [], "time": []}}}, "displayed_time": "9.16", "trialTime": 15487, "trial_type": "mouselab-mdp", "trial_index": 30, "time_elapsed": 616922, "internal_node_id": "0.0-4.0-1.0-21.0"}}, {"uniqueid": "w85137951:a12336123", "current_trial": 31, "dateTime": 1664555689322, "trialdata": {"revealed_states": [], "num_clicks_accrued": [0, 0, 0, 0, 0, 0, 0, 0, 0, 0, 0, 0, 0], "stateRewards": ["", 4, -8, -24, 24, 2, -4, 24, 24, 2, -4, 48, 48], "withholdReward": false, "trial_id": "mdp_457607480918", "block": "test1", "trialIndex": 24, "score": 26.5, "costs": -0.5, "simulationMode": [null, null, null], "rewards": [2, -4, 24], "path": ["0", "0", "5", "6", "7"], "rt": [1726, 64, 16], "actions": ["right", "right", "up"], "actionTimes": [3791, 4367, 4869], "queries": {"click": {"state": {"target": ["5", "7"], "time": [2502, 3287]}, "edge": {"target": [], "time": []}}, "mouseover": {"state": {"target": ["0", "5", "7"], "time": [2236, 2369, 3136]}, "edge": {"target": [], "time": []}}, "mouseout": {"state": {"target": ["0", "0", "5", "7"], "time": [1986, 2303, 2952, 3403]}, "edge": {"target": [], "time": []}}}, "displayed_time": "11.07", "trialTime": 11653, "trial_type": "mouselab-mdp", "trial_index": 31, "time_elapsed": 628607, "internal_node_id": "0.0-4.0-1.0-22.0"}}, {"uniqueid": "w85137951:a12336123", "current_trial": 32, "dateTime": 1664555700208, "trialdata": {"revealed_states": [], "num_clicks_accrued": [0, 0, 0, 0, 0, 0, 0, 0, 0, 0, 0, 0, 0], "stateRewards": ["", 4, -8, -48, 48, -2, 8, -48, 48, -2, -4, 24, -48], "withholdReward": false, "trial_id": "mdp_400558136089", "block": "test1", "trialIndex": 25, "score": 48.25, "costs": -0.75, "simulationMode": [null, null, null], "rewards": [4, -8, 48], "path": ["0", "0", "1", "2", "4"], "rt": [2429, 36, 386], "actions": ["up", "up", "left"], "actionTimes": [3722, 4270, 5171], "queries": {"click": {"state": {"target": ["5", "1", "3"], "time": [1762, 2393, 3169]}, "edge": {"target": [], "time": []}}, "mouseover": {"state": {"target": ["0", "5", "1", "2", "3"], "time": [1434, 1634, 2268, 2817, 3017]}, "edge": {"target": [], "time": []}}, "mouseout": {"state": {"target": ["5", "0", "0", "5", "1", "2"], "time": [1017, 1184, 1484, 2001, 2801, 2984]}, "edge": {"target": [], "time": []}}}, "displayed_time": "10.29", "trialTime": 10854, "trial_type": "mouselab-mdp", "trial_index": 32, "time_elapsed": 639493, "internal_node_id": "0.0-4.0-1.0-23.0"}}, {"uniqueid": "w85137951:a12336123", "current_trial": 33, "dateTime": 1664555710187, "trialdata": {"revealed_states": [], "num_clicks_accrued": [0, 0, 0, 0, 0, 0, 0, 0, 0, 0, 0, 0, 0], "stateRewards": ["", -4, -8, 48, -48, 2, -4, 48, -24, 2, -8, -48, -48], "withholdReward": true, "trial_id": "mdp_624553692913", "block": "test1", "trialIndex": 26, "score": 50.5, "costs": -0.5, "simulationMode": [null, null, null], "rewards": [2, -4, 48], "path": ["0", "0", "5", "6", "7"], "rt": [1596, 56, 9], "actions": ["right", "right", "up"], "actionTimes": [2263, 2834, 3353], "queries": {"click": {"state": {"target": ["5", "7"], "time": [1054, 1735]}, "edge": {"target": [], "time": []}}, "mouseover": {"state": {"target": ["5", "7"], "time": [811, 1527]}, "edge": {"target": [], "time": []}}, "mouseout": {"state": {"target": ["3", "5", "7"], "time": [327, 1278, 1895]}, "edge": {"target": [], "time": []}}}, "displayed_time": "9.67", "trialTime": 9943, "trial_type": "mouselab-mdp", "trial_index": 33, "time_elapsed": 649472, "internal_node_id": "0.0-4.0-1.0-24.0"}}, {"uniqueid": "w85137951:a12336123", "current_trial": 34, "dateTime": 1664555721083, "trialdata": {"revealed_states": [], "num_clicks_accrued": [0, 0, 0, 0, 0, 0, 0, 0, 0, 0, 0, 0, 0], "stateRewards": ["", 4, -4, 48, -48, 4, -4, 24, -24, 4, 8, -24, -48], "withholdReward": true, "trial_id": "mdp_433630527224", "block": "test1", "trialIndex": 27, "score": 52.5, "costs": -0.5, "simulationMode": [null, null, null], "rewards": [4, -4, 48], "path": ["0", "0", "1", "2", "3"], "rt": [1577, 559, 211], "actions": ["up", "up", "right"], "actionTimes": [2076, 3143, 3862], "queries": {"click": {"state": {"target": ["1", "3"], "time": [894, 1646]}, "edge": {"target": [], "time": []}}, "mouseover": {"state": {"target": ["1", "5", "3"], "time": [734, 1150, 1517]}, "edge": {"target": [], "time": []}}, "mouseout": {"state": {"target": ["5", "0", "1", "5"], "time": [302, 601, 1101, 1417]}, "edge": {"target": [], "time": []}}}, "displayed_time": "9.50", "trialTime": 10862, "trial_type": "mouselab-mdp", "trial_index": 34, "time_elapsed": 660368, "internal_node_id": "0.0-4.0-1.0-25.0"}}, {"uniqueid": "w85137951:a12336123", "current_trial": 35, "dateTime": 1664555731296, "trialdata": {"revealed_states": [], "num_clicks_accrued": [0, 0, 0, 0, 0, 0, 0, 0, 0, 0, 0, 0, 0], "stateRewards": ["", -2, -8, 48, 24, 2, 4, 24, -24, -2, -4, 48, -48], "withholdReward": true, "trial_id": "mdp_411152402386", "block": "test1", "trialIndex": 28, "score": 34.5, "costs": -0.5, "simulationMode": [null, null, null], "rewards": [2, 4, 24], "path": ["0", "0", "5", "6", "7"], "rt": [1543, 45, 52], "actions": ["right", "right", "up"], "actionTimes": [2365, 2903, 3460], "queries": {"click": {"state": {"target": ["5", "7"], "time": [1145, 1889]}, "edge": {"target": [], "time": []}}, "mouseover": {"state": {"target": ["5", "1", "7", "7"], "time": [974, 1424, 1591, 1824]}, "edge": {"target": [], "time": []}}, "mouseout": {"state": {"target": ["3", "0", "5", "1", "7", "7", "6"], "time": [574, 957, 1324, 1541, 1641, 2007, 10142]}, "edge": {"target": [], "time": []}}}, "displayed_time": "9.82", "trialTime": 10181, "trial_type": "mouselab-mdp", "trial_index": 35, "time_elapsed": 670581, "internal_node_id": "0.0-4.0-1.0-26.0"}}, {"uniqueid": "w85137951:a12336123", "current_trial": 36, "dateTime": 1664555744544, "trialdata": {"revealed_states": [], "num_clicks_accrued": [0, 0, 0, 0, 0, 0, 0, 0, 0, 0, 0, 0, 0], "stateRewards": ["", -4, -4, -24, -24, -2, 4, 48, -24, -2, -4, -24, 48], "withholdReward": false, "trial_id": "mdp_855903341564", "block": "test1", "trialIndex": 29, "score": 46, "costs": -1, "simulationMode": [null, null, null], "rewards": [-2, -4, 48], "path": ["0", "0", "9", "10", "12"], "rt": [3270, 159, 81], "actions": ["left", "left", "down"], "actionTimes": [3648, 4321, 4909], "queries": {"click": {"state": {"target": ["1", "5", "9", "12"], "time": [763, 1276, 1957, 2956]}, "edge": {"target": [], "time": []}}, "mouseover": {"state": {"target": ["1", "5", "0", "9", "10", "9", "12"], "time": [611, 1178, 1578, 1611, 1644, 1861, 2844]}, "edge": {"target": [], "time": []}}, "mouseout": {"state": {"target": ["0", "1", "5", "0", "9", "10", "9", "12", "9"], "time": [461, 1061, 1528, 1595, 1627, 1828, 2278, 3128, 3311]}, "edge": {"target": [], "time": []}}}, "displayed_time": "9.38", "trialTime": 13216, "trial_type": "mouselab-mdp", "trial_index": 36, "time_elapsed": 683829, "internal_node_id": "0.0-4.0-1.0-27.0"}}, {"uniqueid": "w85137951:a12336123", "current_trial": 37, "dateTime": 1664555753854, "trialdata": {"revealed_states": [], "num_clicks_accrued": [0, 0, 0, 0, 0, 0, 0, 0, 0, 0, 0, 0, 0], "stateRewards": ["", 4, -4, 48, -48, 2, 8, -48, 24, -2, -4, -24, 48], "withholdReward": true, "trial_id": "mdp_937564992306", "block": "test1", "trialIndex": 30, "score": 52.5, "costs": -0.5, "simulationMode": [null, null, null], "rewards": [4, -4, 48], "path": ["0", "0", "1", "2", "3"], "rt": [1482, 91, 10], "actions": ["up", "up", "right"], "actionTimes": [2243, 2837, 3339], "queries": {"click": {"state": {"target": ["1", "3"], "time": [1107, 1819]}, "edge": {"target": [], "time": []}}, "mouseover": {"state": {"target": ["1", "5", "3"], "time": [995, 1379, 1662]}, "edge": {"target": [], "time": []}}, "mouseout": {"state": {"target": ["1", "5", "3"], "time": [1346, 1579, 1962]}, "edge": {"target": [], "time": []}}}, "displayed_time": "8.76", "trialTime": 9278, "trial_type": "mouselab-mdp", "trial_index": 37, "time_elapsed": 693139, "internal_node_id": "0.0-4.0-1.0-28.0"}}, {"uniqueid": "w85137951:a12336123", "current_trial": 38, "dateTime": 1664555763434, "trialdata": {"revealed_states": [], "num_clicks_accrued": [0, 0, 0, 0, 0, 0, 0, 0, 0, 0, 0, 0, 0], "stateRewards": ["", -2, 8, -48, -24, -2, 8, 48, -48, -4, 8, 24, 48], "withholdReward": true, "trial_id": "mdp_160707003673", "block": "test1", "trialIndex": 31, "score": 55.5, "costs": -1.5, "simulationMode": [null, null, null], "rewards": [-4, 8, 48], "path": ["0", "0", "9", "10", "12"], "rt": [5380, 13, 40], "actions": ["left", "left", "down"], "actionTimes": [6559, 7084, 7626], "queries": {"click": {"state": {"target": ["1", "5", "9", "3", "4", "12"], "time": [1509, 1958, 2878, 3966, 5166, 5846]}, "edge": {"target": [], "time": []}}, "mouseover": {"state": {"target": ["1", "5", "0", "9", "9", "12", "2", "2", "3", "2", "4", "10", "12"], "time": [1437, 1870, 2253, 2287, 2653, 3320, 3586, 3748, 3837, 4386, 4620, 5520, 5686]}, "edge": {"target": [], "time": []}}, "mouseout": {"state": {"target": ["5", "0", "1", "5", "0", "9", "9", "12", "2", "2", "3", "2", "4", "10", "12"], "time": [1003, 1253, 1670, 2203, 2286, 2320, 3120, 3503, 3653, 3770, 4136, 4486, 5303, 5637, 6120]}, "edge": {"target": [], "time": []}}}, "displayed_time": "9.18", "trialTime": 9549, "trial_type": "mouselab-mdp", "trial_index": 38, "time_elapsed": 702719, "internal_node_id": "0.0-4.0-1.0-29.0"}}, {"uniqueid": "w85137951:a12336123", "current_trial": 39, "dateTime": 1664555768096, "trialdata": {"rt": 4659, "stimulus": "<h1> End of block! </h1>\n\nYou have reached the end of the block 1/4. If you need a short break, feel free to take one now before moving on.\n\n<br><br>\nIn the next block, you will complete another 30 rounds of this game.\n\n<br><br>\n<div style='text-align: center;'>Press <code>space</code> to begin.</div>\n<br><br>\n<div style='text-align: center;'>(If the experiment doesn't continue, try clicking on the text and then pressing <code>space</code>.)</div>", "response": " ", "trial_id": "mdp_ready_2", "trial_type": "html-keyboard-response", "trial_index": 39, "time_elapsed": 707381, "internal_node_id": "0.0-4.0-2.0"}}, {"uniqueid": "w85137951:a12336123", "current_trial": 40, "dateTime": 1664555782340, "trialdata": {"revealed_states": [], "num_clicks_accrued": [0, 0, 0, 0, 0, 0, 0, 0, 0, 0, 0, 0, 0], "stateRewards": ["", -2, -4, 48, -24, -4, -4, -24, -24, -2, 4, -48, -24], "withholdReward": true, "trial_id": "mdp_410467837196", "block": "test2", "trialIndex": 32, "score": 46, "costs": -1, "simulationMode": [null, null, null], "rewards": [-2, -4, 48], "path": ["0", "0", "1", "2", "3"], "rt": [2935, 26, 35], "actions": ["up", "up", "right"], "actionTimes": [4224, 4738, 5280], "queries": {"click": {"state": {"target": ["5", "1", "9", "3"], "time": [1651, 2221, 2699, 3404]}, "edge": {"target": [], "time": []}}, "mouseover": {"state": {"target": ["0", "5", "1", "9", "3", "2"], "time": [1341, 1511, 2061, 2644, 3244, 3694]}, "edge": {"target": [], "time": []}}, "mouseout": {"state": {"target": ["9", "0", "5", "0", "5", "1", "9", "1", "3", "2"], "time": [361, 944, 1178, 1461, 1945, 2428, 3078, 3144, 3644, 3794]}, "edge": {"target": [], "time": []}}}, "displayed_time": "10.29", "trialTime": 14213, "trial_type": "mouselab-mdp", "trial_index": 40, "time_elapsed": 721625, "internal_node_id": "0.0-4.0-3.0-0.0"}}, {"uniqueid": "w85137951:a12336123", "current_trial": 41, "dateTime": 1664555792872, "trialdata": {"revealed_states": [], "num_clicks_accrued": [0, 0, 0, 0, 0, 0, 0, 0, 0, 0, 0, 0, 0], "stateRewards": ["", 4, -8, -48, -24, 2, -8, -48, 48, -4, 8, 48, -48], "withholdReward": true, "trial_id": "mdp_605757196263", "block": "test2", "trialIndex": 33, "score": 45.75, "costs": -1.25, "simulationMode": [null, null, null], "rewards": [2, -8, 48], "path": ["0", "0", "5", "6", "8"], "rt": [4557, 50, 27], "actions": ["right", "right", "down"], "actionTimes": [5271, 5813, 6356], "queries": {"click": {"state": {"target": ["1", "3", "4", "12", "8"], "time": [1163, 1787, 2603, 3699, 4587]}, "edge": {"target": [], "time": []}}, "mouseover": {"state": {"target": ["1", "3", "2", "4", "9", "10", "12", "9", "5", "6", "8", "6"], "time": [895, 1629, 2162, 2363, 2962, 3162, 3496, 4179, 4245, 4396, 4562, 4879]}, "edge": {"target": [], "time": []}}, "mouseout": {"state": {"target": ["1", "0", "1", "3", "2", "4", "9", "10", "12", "9", "5", "6", "8", "6"], "time": [546, 796, 1512, 2129, 2246, 2795, 3129, 3446, 3929, 4196, 4262, 4462, 4829, 4979]}, "edge": {"target": [], "time": []}}}, "displayed_time": "9.71", "trialTime": 10497, "trial_type": "mouselab-mdp", "trial_index": 41, "time_elapsed": 732157, "internal_node_id": "0.0-4.0-3.0-1.0"}}, {"uniqueid": "w85137951:a12336123", "current_trial": 42, "dateTime": 1664555805682, "trialdata": {"revealed_states": [], "num_clicks_accrued": [0, 0, 0, 0, 0, 0, 0, 0, 0, 0, 0, 0, 0], "stateRewards": ["", -2, 8, 48, -24, 2, 4, -48, -24, -4, 8, -48, -48], "withholdReward": true, "trial_id": "mdp_539167561933", "block": "test2", "trialIndex": 34, "score": 58.5, "costs": -0.5, "simulationMode": [null, null, null], "rewards": [-2, 8, 48], "path": ["0", "0", "1", "2", "3"], "rt": [2339, 76, 29], "actions": ["up", "up", "right"], "actionTimes": [4334, 4903, 5440], "queries": {"click": {"state": {"target": ["8", "3"], "time": [2468, 3524]}, "edge": {"target": [], "time": []}}, "mouseover": {"state": {"target": ["0", "8", "6", "3", "3", "1", "9", "12", "9"], "time": [2077, 2277, 2728, 3077, 3348, 3694, 3727, 3794, 3977]}, "edge": {"target": [], "time": []}}, "mouseout": {"state": {"target": ["6", "7", "5", "0", "9", "0", "8", "6", "3", "3", "1", "9", "12"], "time": [1194, 1577, 1611, 1627, 1827, 2144, 2694, 2761, 3144, 3661, 3711, 3744, 3861]}, "edge": {"target": [], "time": []}}}, "displayed_time": "9.99", "trialTime": 12771, "trial_type": "mouselab-mdp", "trial_index": 42, "time_elapsed": 744967, "internal_node_id": "0.0-4.0-3.0-2.0"}}, {"uniqueid": "w85137951:a12336123", "current_trial": 43, "dateTime": 1664555815933, "trialdata": {"revealed_states": [], "num_clicks_accrued": [0, 0, 0, 0, 0, 0, 0, 0, 0, 0, 0, 0, 0], "stateRewards": ["", 2, -8, 24, -24, -2, 8, -48, -48, 2, -8, -24, -48], "withholdReward": true, "trial_id": "mdp_744278669205", "block": "test2", "trialIndex": 35, "score": 22.75, "costs": -0.25, "simulationMode": [null, null, null], "rewards": [2, -8, 24], "path": ["0", "0", "1", "2", "3"], "rt": [1153, 87, 58], "actions": ["up", "up", "right"], "actionTimes": [1905, 2492, 3046], "queries": {"click": {"state": {"target": ["3"], "time": [1206]}, "edge": {"target": [], "time": []}}, "mouseover": {"state": {"target": ["1", "3"], "time": [905, 955]}, "edge": {"target": [], "time": []}}, "mouseout": {"state": {"target": ["9", "0", "1", "3"], "time": [518, 862, 921, 1405]}, "edge": {"target": [], "time": []}}}, "displayed_time": "8.76", "trialTime": 10217, "trial_type": "mouselab-mdp", "trial_index": 43, "time_elapsed": 755218, "internal_node_id": "0.0-4.0-3.0-3.0"}}, {"uniqueid": "w85137951:a12336123", "current_trial": 44, "dateTime": 1664555826900, "trialdata": {"revealed_states": [], "num_clicks_accrued": [0, 0, 0, 0, 0, 0, 0, 0, 0, 0, 0, 0, 0], "stateRewards": ["", 2, -4, 48, -48, -4, -8, -48, 24, -4, 4, 48, 48], "withholdReward": true, "trial_id": "mdp_544803968425", "block": "test2", "trialIndex": 36, "score": 52.75, "costs": -0.25, "simulationMode": [null, null, null], "rewards": [-4, 4, 48], "path": ["0", "0", "9", "10", "12"], "rt": [1031, 12, 4], "actions": ["left", "left", "down"], "actionTimes": [1554, 2067, 2593], "queries": {"click": {"state": {"target": ["12"], "time": [931]}, "edge": {"target": [], "time": []}}, "mouseover": {"state": {"target": ["9", "12", "1", "3"], "time": [655, 788, 1088, 1155]}, "edge": {"target": [], "time": []}}, "mouseout": {"state": {"target": ["1", "0", "9", "12", "1", "3"], "time": [338, 638, 671, 1038, 1105, 1238]}, "edge": {"target": [], "time": []}}}, "displayed_time": "8.52", "trialTime": 10933, "trial_type": "mouselab-mdp", "trial_index": 44, "time_elapsed": 766184, "internal_node_id": "0.0-4.0-3.0-4.0"}}, {"uniqueid": "w85137951:a12336123", "current_trial": 45, "dateTime": 1664555836404, "trialdata": {"revealed_states": [], "num_clicks_accrued": [0, 0, 0, 0, 0, 0, 0, 0, 0, 0, 0, 0, 0], "stateRewards": ["", 4, 4, 48, -48, -2, 4, 48, -48, -4, 4, -24, -24], "withholdReward": true, "trial_id": "mdp_753324812898", "block": "test2", "trialIndex": 37, "score": 60.75, "costs": -0.25, "simulationMode": [null, null, null], "rewards": [4, 4, 48], "path": ["0", "0", "1", "2", "3"], "rt": [1185, 32, 41], "actions": ["up", "up", "right"], "actionTimes": [1916, 2436, 2995], "queries": {"click": {"state": {"target": ["3"], "time": [1284]}, "edge": {"target": [], "time": []}}, "mouseover": {"state": {"target": ["3"], "time": [1086]}, "edge": {"target": [], "time": []}}, "mouseout": {"state": {"target": ["0", "3"], "time": [920, 1436]}, "edge": {"target": [], "time": []}}}, "displayed_time": "8.73", "trialTime": 9470, "trial_type": "mouselab-mdp", "trial_index": 45, "time_elapsed": 775689, "internal_node_id": "0.0-4.0-3.0-5.0"}}, {"uniqueid": "w85137951:a12336123", "current_trial": 46, "dateTime": 1664555846132, "trialdata": {"revealed_states": [], "num_clicks_accrued": [0, 0, 0, 0, 0, 0, 0, 0, 0, 0, 0, 0, 0], "stateRewards": ["", 4, 4, 24, -48, 2, -8, -24, -48, 4, 8, 48, 48], "withholdReward": false, "trial_id": "mdp_592471239511", "block": "test2", "trialIndex": 38, "score": 36.25, "costs": -0.75, "simulationMode": [null, null, null], "rewards": [4, 4, 24], "path": ["0", "0", "1", "2", "3"], "rt": [2723, 4, 361], "actions": ["up", "up", "right"], "actionTimes": [3203, 3717, 4607], "queries": {"click": {"state": {"target": ["5", "7", "3"], "time": [969, 1977, 2489]}, "edge": {"target": [], "time": []}}, "mouseover": {"state": {"target": ["5", "6", "7", "3", "7", "7", "3", "2"], "time": [647, 1263, 1396, 1496, 1696, 1830, 2313, 2680]}, "edge": {"target": [], "time": []}}, "mouseout": {"state": {"target": ["5", "0", "5", "6", "7", "3", "7", "7", "3", "2"], "time": [213, 563, 1213, 1280, 1463, 1646, 1713, 2180, 2646, 2796]}, "edge": {"target": [], "time": []}}}, "displayed_time": "8.48", "trialTime": 9690, "trial_type": "mouselab-mdp", "trial_index": 46, "time_elapsed": 785416, "internal_node_id": "0.0-4.0-3.0-6.0"}}, {"uniqueid": "w85137951:a12336123", "current_trial": 47, "dateTime": 1664555856121, "trialdata": {"revealed_states": [], "num_clicks_accrued": [0, 0, 0, 0, 0, 0, 0, 0, 0, 0, 0, 0, 0], "stateRewards": ["", 4, -8, -48, 48, -2, 8, -48, 48, -2, -4, 24, -48], "withholdReward": true, "trial_id": "mdp_400558136089", "block": "test2", "trialIndex": 39, "score": 58, "costs": -1, "simulationMode": [null, null, null], "rewards": [-2, 8, 48], "path": ["0", "0", "5", "6", "8"], "rt": [2972, 83, 53], "actions": ["right", "right", "down"], "actionTimes": [3615, 4197, 4766], "queries": {"click": {"state": {"target": ["12", "3", "7", "8"], "time": [1053, 1629, 2164, 3061]}, "edge": {"target": [], "time": []}}, "mouseover": {"state": {"target": ["9", "12", "9", "1", "3", "6", "7", "6", "8", "8", "0", "1"], "time": [780, 930, 1280, 1330, 1447, 1947, 2097, 2447, 2531, 2908, 3264, 3380]}, "edge": {"target": [], "time": []}}, "mouseout": {"state": {"target": ["1", "0", "9", "12", "9", "1", "3", "6", "7", "6", "8", "8", "0", "1", "0"], "time": [330, 764, 797, 1247, 1297, 1347, 1797, 2064, 2397, 2497, 2647, 3197, 3281, 8830, 9497]}, "edge": {"target": [], "time": []}}}, "displayed_time": "9.64", "trialTime": 9947, "trial_type": "mouselab-mdp", "trial_index": 47, "time_elapsed": 795406, "internal_node_id": "0.0-4.0-3.0-7.0"}}, {"uniqueid": "w85137951:a12336123", "current_trial": 48, "dateTime": 1664555865197, "trialdata": {"revealed_states": [], "num_clicks_accrued": [0, 0, 0, 0, 0, 0, 0, 0, 0, 0, 0, 0, 0], "stateRewards": ["", 2, -8, 24, 24, 2, 4, -48, -48, 4, 4, -24, 48], "withholdReward": true, "trial_id": "mdp_985707010949", "block": "test2", "trialIndex": 40, "score": 22.75, "costs": -0.25, "simulationMode": [null, null, null], "rewards": [2, -8, 24], "path": ["0", "0", "1", "2", "3"], "rt": [1471, 50, 15], "actions": ["up", "up", "right"], "actionTimes": [2232, 2784, 3332], "queries": {"click": {"state": {"target": ["3"], "time": [1240]}, "edge": {"target": [], "time": []}}, "mouseover": {"state": {"target": ["3", "6"], "time": [1050, 1701]}, "edge": {"target": [], "time": []}}, "mouseout": {"state": {"target": ["5", "0", "3", "6", "5"], "time": [433, 650, 1450, 6435, 8017]}, "edge": {"target": [], "time": []}}}, "displayed_time": "8.76", "trialTime": 9043, "trial_type": "mouselab-mdp", "trial_index": 48, "time_elapsed": 804482, "internal_node_id": "0.0-4.0-3.0-8.0"}}, {"uniqueid": "w85137951:a12336123", "current_trial": 49, "dateTime": 1664555874113, "trialdata": {"revealed_states": [], "num_clicks_accrued": [0, 0, 0, 0, 0, 0, 0, 0, 0, 0, 0, 0, 0], "stateRewards": ["", -2, -8, 48, 24, -2, 8, -48, -24, -2, 4, -48, 48], "withholdReward": false, "trial_id": "mdp_295220852217", "block": "test2", "trialIndex": 41, "score": 18.5, "costs": -0.5, "simulationMode": [null, null, null], "rewards": [-2, -8, 24], "path": ["0", "0", "1", "2", "4"], "rt": [2282, 81, 27], "actions": ["up", "up", "left"], "actionTimes": [2783, 3354, 3884], "queries": {"click": {"state": {"target": ["7", "4"], "time": [955, 1562]}, "edge": {"target": [], "time": []}}, "mouseover": {"state": {"target": ["5", "7", "3", "2", "4", "10", "12", "12"], "time": [673, 772, 1189, 1307, 1406, 1872, 1956, 2189]}, "edge": {"target": [], "time": []}}, "mouseout": {"state": {"target": ["5", "5", "7", "3", "2", "4", "10", "12", "12", "0"], "time": [339, 706, 1139, 1223, 1356, 1739, 1939, 1989, 8539, 8606]}, "edge": {"target": [], "time": []}}}, "displayed_time": "8.50", "trialTime": 8881, "trial_type": "mouselab-mdp", "trial_index": 49, "time_elapsed": 813398, "internal_node_id": "0.0-4.0-3.0-9.0"}}, {"uniqueid": "w85137951:a12336123", "current_trial": 50, "dateTime": 1664555883765, "trialdata": {"revealed_states": [], "num_clicks_accrued": [0, 0, 0, 0, 0, 0, 0, 0, 0, 0, 0, 0, 0], "stateRewards": ["", -2, -4, -48, 48, -2, -4, 24, 48, -4, -8, -24, 24], "withholdReward": false, "trial_id": "mdp_917590390609", "block": "test2", "trialIndex": 42, "score": 16.5, "costs": -0.5, "simulationMode": [null, null, null], "rewards": [-4, -8, 24], "path": ["0", "0", "9", "10", "12"], "rt": [2532, 96, 60], "actions": ["left", "left", "down"], "actionTimes": [2748, 3335, 3899], "queries": {"click": {"state": {"target": ["3", "12"], "time": [814, 1605]}, "edge": {"target": [], "time": []}}, "mouseover": {"state": {"target": ["3", "11", "10", "12", "10"], "time": [751, 1205, 1272, 1522, 2022]}, "edge": {"target": [], "time": []}}, "mouseout": {"state": {"target": ["3", "11", "10", "12", "10", "9", "0"], "time": [1089, 1222, 1322, 1905, 2105, 9390, 9423]}, "edge": {"target": [], "time": []}}}, "displayed_time": "9.22", "trialTime": 9616, "trial_type": "mouselab-mdp", "trial_index": 50, "time_elapsed": 823050, "internal_node_id": "0.0-4.0-3.0-10.0"}}, {"uniqueid": "w85137951:a12336123", "current_trial": 51, "dateTime": 1664555892675, "trialdata": {"revealed_states": [], "num_clicks_accrued": [0, 0, 0, 0, 0, 0, 0, 0, 0, 0, 0, 0, 0], "stateRewards": ["", -4, -8, 24, -48, 2, 4, -48, -48, 2, -8, 24, 48], "withholdReward": false, "trial_id": "mdp_111262146724", "block": "test2", "trialIndex": 43, "score": 16.5, "costs": -0.5, "simulationMode": [null, null, null], "rewards": [-4, -8, 24], "path": ["0", "0", "1", "2", "3"], "rt": [2074, 41, 27], "actions": ["up", "up", "right"], "actionTimes": [2538, 3081, 3617], "queries": {"click": {"state": {"target": ["7", "3"], "time": [988, 1619]}, "edge": {"target": [], "time": []}}, "mouseover": {"state": {"target": ["5", "7", "3"], "time": [674, 823, 1507]}, "edge": {"target": [], "time": []}}, "mouseout": {"state": {"target": ["0", "5", "7", "3", "1"], "time": [612, 706, 1228, 1873, 8573]}, "edge": {"target": [], "time": []}}}, "displayed_time": "8.47", "trialTime": 8875, "trial_type": "mouselab-mdp", "trial_index": 51, "time_elapsed": 831959, "internal_node_id": "0.0-4.0-3.0-11.0"}}, {"uniqueid": "w85137951:a12336123", "current_trial": 52, "dateTime": 1664555901780, "trialdata": {"revealed_states": [], "num_clicks_accrued": [0, 0, 0, 0, 0, 0, 0, 0, 0, 0, 0, 0, 0], "stateRewards": ["", 2, -8, 48, -24, -4, -8, -24, 48, -2, 4, 24, -48], "withholdReward": true, "trial_id": "mdp_186932504904", "block": "test2", "trialIndex": 44, "score": 46.75, "costs": -0.25, "simulationMode": [null, null, null], "rewards": [2, -8, 48], "path": ["0", "0", "1", "2", "3"], "rt": [1259, 25, 49], "actions": ["up", "up", "right"], "actionTimes": [1513, 2038, 2579], "queries": {"click": {"state": {"target": ["3"], "time": [830]}, "edge": {"target": [], "time": []}}, "mouseover": {"state": {"target": ["1", "3"], "time": [531, 714]}, "edge": {"target": [], "time": []}}, "mouseout": {"state": {"target": ["0", "1"], "time": [13, 564]}, "edge": {"target": [], "time": []}}}, "displayed_time": "8.25", "trialTime": 9071, "trial_type": "mouselab-mdp", "trial_index": 52, "time_elapsed": 841064, "internal_node_id": "0.0-4.0-3.0-12.0"}}, {"uniqueid": "w85137951:a12336123", "current_trial": 53, "dateTime": 1664555916532, "trialdata": {"revealed_states": [], "num_clicks_accrued": [0, 0, 0, 0, 0, 0, 0, 0, 0, 0, 0, 0, 0], "stateRewards": ["", 2, -8, 48, -24, 2, 8, 24, -24, 4, -4, -48, -48], "withholdReward": true, "trial_id": "mdp_130946197263", "block": "test2", "trialIndex": 45, "score": 46.75, "costs": -0.25, "simulationMode": [null, null, null], "rewards": [2, -8, 48], "path": ["0", "0", "1", "2", "3"], "rt": [1173, 44, 6], "actions": ["up", "up", "right"], "actionTimes": [1634, 2168, 2681], "queries": {"click": {"state": {"target": ["3"], "time": [909]}, "edge": {"target": [], "time": []}}, "mouseover": {"state": {"target": ["3"], "time": [792]}, "edge": {"target": [], "time": []}}, "mouseout": {"state": {"target": ["3"], "time": [141]}, "edge": {"target": [], "time": []}}}, "displayed_time": "8.46", "trialTime": 14718, "trial_type": "mouselab-mdp", "trial_index": 53, "time_elapsed": 855817, "internal_node_id": "0.0-4.0-3.0-13.0"}}, {"uniqueid": "w85137951:a12336123", "current_trial": 54, "dateTime": 1664555936064, "trialdata": {"revealed_states": [], "num_clicks_accrued": [0, 0, 0, 0, 0, 0, 0, 0, 0, 0, 0, 0, 0], "stateRewards": ["", -4, 8, -24, -24, 4, -8, 48, -24, -4, -8, -24, -48], "withholdReward": true, "trial_id": "mdp_391766721791", "block": "test2", "trialIndex": 46, "score": 47.75, "costs": -1.25, "simulationMode": [null, null, null], "rewards": [4, -8, 48], "path": ["0", "0", "5", "6", "7"], "rt": [4032, 18, 364], "actions": ["right", "right", "up"], "actionTimes": [4443, 4956, 5835], "queries": {"click": {"state": {"target": ["3", "8", "12", "11", "7"], "time": [827, 1436, 2187, 2827, 3795]}, "edge": {"target": [], "time": []}}, "mouseover": {"state": {"target": ["3", "6", "8", "12", "12", "10", "11", "1", "7"], "time": [739, 1155, 1255, 1805, 2105, 2471, 2721, 3056, 3523]}, "edge": {"target": [], "time": []}}, "mouseout": {"state": {"target": ["3", "3", "6", "8", "12", "12", "10", "11", "1"], "time": [107, 972, 1223, 1722, 1839, 2422, 2554, 2988, 3089]}, "edge": {"target": [], "time": []}}}, "displayed_time": "8.41", "trialTime": 19497, "trial_type": "mouselab-mdp", "trial_index": 54, "time_elapsed": 875349, "internal_node_id": "0.0-4.0-3.0-14.0"}}, {"uniqueid": "w85137951:a12336123", "current_trial": 55, "dateTime": 1664555946983, "trialdata": {"revealed_states": [], "num_clicks_accrued": [0, 0, 0, 0, 0, 0, 0, 0, 0, 0, 0, 0, 0], "stateRewards": ["", -4, -8, 48, 24, 4, -8, 24, -48, -2, -8, 24, -48], "withholdReward": true, "trial_id": "mdp_952038635544", "block": "test2", "trialIndex": 47, "score": 40.75, "costs": -0.25, "simulationMode": [null, null, null], "rewards": [-4, -8, 48], "path": ["0", "0", "1", "2", "3"], "rt": [1178, 151, 106], "actions": ["up", "up", "right"], "actionTimes": [1795, 2451, 3056], "queries": {"click": {"state": {"target": ["3"], "time": [1010]}, "edge": {"target": [], "time": []}}, "mouseover": {"state": {"target": ["3"], "time": [900]}, "edge": {"target": [], "time": []}}, "mouseout": {"state": {"target": ["7", "5", "3"], "time": [282, 383, 1168]}, "edge": {"target": [], "time": []}}}, "displayed_time": "8.62", "trialTime": 10878, "trial_type": "mouselab-mdp", "trial_index": 55, "time_elapsed": 886268, "internal_node_id": "0.0-4.0-3.0-15.0"}}, {"uniqueid": "w85137951:a12336123", "current_trial": 56, "dateTime": 1664555955752, "trialdata": {"revealed_states": [], "num_clicks_accrued": [0, 0, 0, 0, 0, 0, 0, 0, 0, 0, 0, 0, 0], "stateRewards": ["", 4, 4, -48, -48, 4, 4, -24, -24, -4, 8, -48, 24], "withholdReward": true, "trial_id": "mdp_669785455541", "block": "test2", "trialIndex": 48, "score": 31.5, "costs": -1.5, "simulationMode": [null, null, null], "rewards": [-4, 8, 24], "path": ["0", "0", "9", "10", "12"], "rt": [4300, 33, 32], "actions": ["left", "left", "down"], "actionTimes": [4745, 5287, 5836], "queries": {"click": {"state": {"target": ["7", "3", "4", "11", "12", "8"], "time": [912, 1377, 2169, 2840, 3280, 4264]}, "edge": {"target": [], "time": []}}, "mouseover": {"state": {"target": ["5", "6", "7", "3", "2", "4", "11", "11", "10", "12", "8", "8"], "time": [603, 670, 803, 1170, 1553, 2009, 2437, 2712, 3003, 3086, 3686, 4153]}, "edge": {"target": [], "time": []}}, "mouseout": {"state": {"target": ["5", "6", "7", "3", "2", "4", "11", "11", "10", "12", "8", "8", "5"], "time": [636, 736, 1103, 1520, 1671, 2336, 2453, 2953, 3053, 3420, 3736, 8370, 8403]}, "edge": {"target": [], "time": []}}}, "displayed_time": "8.45", "trialTime": 8733, "trial_type": "mouselab-mdp", "trial_index": 56, "time_elapsed": 895037, "internal_node_id": "0.0-4.0-3.0-16.0"}}, {"uniqueid": "w85137951:a12336123", "current_trial": 57, "dateTime": 1664555969814, "trialdata": {"revealed_states": [], "num_clicks_accrued": [0, 0, 0, 0, 0, 0, 0, 0, 0, 0, 0, 0, 0], "stateRewards": ["", 2, 4, 48, 48, 4, -8, 24, -48, -4, -8, -24, -48], "withholdReward": true, "trial_id": "mdp_343818007251", "block": "test2", "trialIndex": 49, "score": 58.75, "costs": -0.25, "simulationMode": [null, null, null], "rewards": [2, 4, 48], "path": ["0", "0", "1", "2", "3"], "rt": [1076, 71, 361], "actions": ["up", "up", "right"], "actionTimes": [1389, 1954, 2810], "queries": {"click": {"state": {"target": ["3"], "time": [701]}, "edge": {"target": [], "time": []}}, "mouseover": {"state": {"target": ["1", "3"], "time": [482, 565]}, "edge": {"target": [], "time": []}}, "mouseout": {"state": {"target": ["1", "3"], "time": [498, 915]}, "edge": {"target": [], "time": []}}}, "displayed_time": "9.31", "trialTime": 14025, "trial_type": "mouselab-mdp", "trial_index": 57, "time_elapsed": 909099, "internal_node_id": "0.0-4.0-3.0-17.0"}}, {"uniqueid": "w85137951:a12336123", "current_trial": 58, "dateTime": 1664555984157, "trialdata": {"revealed_states": [], "num_clicks_accrued": [0, 0, 0, 0, 0, 0, 0, 0, 0, 0, 0, 0, 0], "stateRewards": ["", -2, -8, -24, 48, -2, -8, -48, -48, 2, -8, -48, 24], "withholdReward": true, "trial_id": "mdp_288324580942", "block": "test2", "trialIndex": 50, "score": 22.25, "costs": -0.75, "simulationMode": [null, null, null], "rewards": [2, -8, 24], "path": ["0", "0", "9", "10", "12"], "rt": [2399, 146, 117], "actions": ["left", "left", "down"], "actionTimes": [2793, 3449, 4070], "queries": {"click": {"state": {"target": ["3", "8", "12"], "time": [814, 1438, 2030]}, "edge": {"target": [], "time": []}}, "mouseover": {"state": {"target": ["3", "6", "8", "12", "10", "11"], "time": [702, 1119, 1319, 1836, 2302, 2419]}, "edge": {"target": [], "time": []}}, "mouseout": {"state": {"target": ["3", "6", "8", "12", "10", "11"], "time": [1019, 1219, 1602, 2269, 2369, 2469]}, "edge": {"target": [], "time": []}}}, "displayed_time": "8.39", "trialTime": 14305, "trial_type": "mouselab-mdp", "trial_index": 58, "time_elapsed": 923442, "internal_node_id": "0.0-4.0-3.0-18.0"}}, {"uniqueid": "w85137951:a12336123", "current_trial": 59, "dateTime": 1664555995623, "trialdata": {"revealed_states": [], "num_clicks_accrued": [0, 0, 0, 0, 0, 0, 0, 0, 0, 0, 0, 0, 0], "stateRewards": ["", 4, 8, 48, 48, 4, 4, -24, -48, 4, 8, -48, -48], "withholdReward": false, "trial_id": "mdp_984548726931", "block": "test2", "trialIndex": 51, "score": 64.75, "costs": -0.25, "simulationMode": [null, null, null], "rewards": [4, 8, 48], "path": ["0", "0", "1", "2", "3"], "rt": [1040, 86, 91], "actions": ["up", "up", "right"], "actionTimes": [1537, 2130, 2719], "queries": {"click": {"state": {"target": ["3"], "time": [872]}, "edge": {"target": [], "time": []}}, "mouseover": {"state": {"target": ["1", "3", "7"], "time": [660, 760, 1110]}, "edge": {"target": [], "time": []}}, "mouseout": {"state": {"target": ["1", "3"], "time": [677, 1010]}, "edge": {"target": [], "time": []}}}, "displayed_time": "8.50", "trialTime": 11429, "trial_type": "mouselab-mdp", "trial_index": 59, "time_elapsed": 934908, "internal_node_id": "0.0-4.0-3.0-19.0"}}, {"uniqueid": "w85137951:a12336123", "current_trial": 60, "dateTime": 1664556004484, "trialdata": {"revealed_states": [], "num_clicks_accrued": [0, 0, 0, 0, 0, 0, 0, 0, 0, 0, 0, 0, 0], "stateRewards": ["", -2, 8, -24, 24, -4, -8, -24, 48, -2, -8, -48, 48], "withholdReward": true, "trial_id": "mdp_238332601315", "block": "test2", "trialIndex": 52, "score": 40.25, "costs": -0.75, "simulationMode": [null, null, null], "rewards": [-4, -8, 48], "path": ["0", "0", "5", "6", "8"], "rt": [2029, 124, 107], "actions": ["right", "right", "down"], "actionTimes": [2494, 3109, 3726], "queries": {"click": {"state": {"target": ["3", "7", "8"], "time": [877, 1358, 1837]}, "edge": {"target": [], "time": []}}, "mouseover": {"state": {"target": ["1", "3", "7", "7", "6", "8"], "time": [618, 735, 1135, 1268, 1569, 1702]}, "edge": {"target": [], "time": []}}, "mouseout": {"state": {"target": ["7", "1", "3", "7", "7", "6", "8"], "time": [118, 635, 1035, 1168, 1502, 1652, 2002]}, "edge": {"target": [], "time": []}}}, "displayed_time": "8.47", "trialTime": 8814, "trial_type": "mouselab-mdp", "trial_index": 60, "time_elapsed": 943769, "internal_node_id": "0.0-4.0-3.0-20.0"}}, {"uniqueid": "w85137951:a12336123", "current_trial": 61, "dateTime": 1664556013007, "trialdata": {"revealed_states": [], "num_clicks_accrued": [0, 0, 0, 0, 0, 0, 0, 0, 0, 0, 0, 0, 0], "stateRewards": ["", -2, 8, -48, -24, -2, 8, 48, -48, -4, 8, 24, 48], "withholdReward": true, "trial_id": "mdp_160707003673", "block": "test2", "trialIndex": 53, "score": 58.75, "costs": -0.25, "simulationMode": [null, null, null], "rewards": [-2, 8, 48], "path": ["0", "0", "5", "6", "7"], "rt": [1338, 76, 52], "actions": ["right", "right", "up"], "actionTimes": [1611, 2193, 2753], "queries": {"click": {"state": {"target": ["7"], "time": [723]}, "edge": {"target": [], "time": []}}, "mouseover": {"state": {"target": ["5", "7", "6", "8"], "time": [450, 551, 917, 985]}, "edge": {"target": [], "time": []}}, "mouseout": {"state": {"target": ["0", "5", "7", "6", "8"], "time": [417, 501, 884, 951, 7317]}, "edge": {"target": [], "time": []}}}, "displayed_time": "8.27", "trialTime": 8486, "trial_type": "mouselab-mdp", "trial_index": 61, "time_elapsed": 952292, "internal_node_id": "0.0-4.0-3.0-21.0"}}, {"uniqueid": "w85137951:a12336123", "current_trial": 62, "dateTime": 1664556023904, "trialdata": {"revealed_states": [], "num_clicks_accrued": [0, 0, 0, 0, 0, 0, 0, 0, 0, 0, 0, 0, 0], "stateRewards": ["", 2, 4, -48, -24, 2, 8, 24, 48, -2, 4, 48, -48], "withholdReward": false, "trial_id": "mdp_551894842204", "block": "test2", "trialIndex": 54, "score": 38.5, "costs": -0.5, "simulationMode": [null, null, null], "rewards": [2, 8, 24], "path": ["0", "0", "5", "6", "7"], "rt": [1717, 29, 25], "actions": ["right", "right", "up"], "actionTimes": [2131, 2655, 3169], "queries": {"click": {"state": {"target": ["3", "7"], "time": [957, 1397]}, "edge": {"target": [], "time": []}}, "mouseover": {"state": {"target": ["3", "7", "6"], "time": [776, 1228, 1609]}, "edge": {"target": [], "time": []}}, "mouseout": {"state": {"target": ["0", "3", "7", "6"], "time": [626, 1126, 1542, 1692]}, "edge": {"target": [], "time": []}}}, "displayed_time": "9.41", "trialTime": 10859, "trial_type": "mouselab-mdp", "trial_index": 62, "time_elapsed": 963189, "internal_node_id": "0.0-4.0-3.0-22.0"}}, {"uniqueid": "w85137951:a12336123", "current_trial": 63, "dateTime": 1664556034642, "trialdata": {"revealed_states": [], "num_clicks_accrued": [0, 0, 0, 0, 0, 0, 0, 0, 0, 0, 0, 0, 0], "stateRewards": ["", 4, -4, 48, -48, -4, -4, 48, -48, 4, 4, -48, -24], "withholdReward": true, "trial_id": "mdp_490058671112", "block": "test2", "trialIndex": 55, "score": 52.5, "costs": -0.5, "simulationMode": [null, null, null], "rewards": [4, -4, 48], "path": ["0", "0", "1", "2", "3"], "rt": [1777, 2, 20], "actions": ["up", "up", "right"], "actionTimes": [3112, 3631, 4183], "queries": {"click": {"state": {"target": ["12", "3"], "time": [1675, 2412]}, "edge": {"target": [], "time": []}}, "mouseover": {"state": {"target": ["0", "12", "10", "4", "2", "3", "7"], "time": [1411, 1545, 1978, 2062, 2178, 2245, 2745]}, "edge": {"target": [], "time": []}}, "mouseout": {"state": {"target": ["5", "0", "0", "12", "10", "4", "2", "3", "7", "5"], "time": [445, 1295, 1428, 1945, 1995, 2095, 2228, 2612, 2812, 10645]}, "edge": {"target": [], "time": []}}}, "displayed_time": "10.34", "trialTime": 10700, "trial_type": "mouselab-mdp", "trial_index": 63, "time_elapsed": 973927, "internal_node_id": "0.0-4.0-3.0-23.0"}}, {"uniqueid": "w85137951:a12336123", "current_trial": 64, "dateTime": 1664556044152, "trialdata": {"revealed_states": [], "num_clicks_accrued": [0, 0, 0, 0, 0, 0, 0, 0, 0, 0, 0, 0, 0], "stateRewards": ["", -2, 4, -48, -48, -4, -8, 48, -48, 2, 4, 48, -48], "withholdReward": true, "trial_id": "mdp_258647270500", "block": "test2", "trialIndex": 56, "score": 40.5, "costs": -0.5, "simulationMode": [null, null, null], "rewards": [-4, -8, 48], "path": ["0", "0", "5", "6", "7"], "rt": [1434, 24, 20], "actions": ["right", "right", "up"], "actionTimes": [1657, 2176, 2706], "queries": {"click": {"state": {"target": ["3", "7"], "time": [636, 1020]}, "edge": {"target": [], "time": []}}, "mouseover": {"state": {"target": ["3", "7", "6"], "time": [553, 885, 1202]}, "edge": {"target": [], "time": []}}, "mouseout": {"state": {"target": ["3", "7", "6"], "time": [819, 1169, 1268]}, "edge": {"target": [], "time": []}}}, "displayed_time": "8.22", "trialTime": 9467, "trial_type": "mouselab-mdp", "trial_index": 64, "time_elapsed": 983437, "internal_node_id": "0.0-4.0-3.0-24.0"}}, {"uniqueid": "w85137951:a12336123", "current_trial": 65, "dateTime": 1664556053731, "trialdata": {"revealed_states": [], "num_clicks_accrued": [0, 0, 0, 0, 0, 0, 0, 0, 0, 0, 0, 0, 0], "stateRewards": ["", -4, -4, -24, 24, 4, 4, -24, -24, -4, 4, 24, 24], "withholdReward": true, "trial_id": "mdp_787781487383", "block": "test2", "trialIndex": 57, "score": 28, "costs": -1, "simulationMode": [null, null, null], "rewards": [-4, 4, 24], "path": ["0", "0", "9", "10", "12"], "rt": [2432, 153, 318], "actions": ["left", "left", "down"], "actionTimes": [3318, 3968, 4784], "queries": {"click": {"state": {"target": ["3", "7", "8", "12"], "time": [1263, 1669, 2182, 2693]}, "edge": {"target": [], "time": []}}, "mouseover": {"state": {"target": ["3", "7", "6", "8", "12", "10"], "time": [1149, 1549, 1932, 2116, 2482, 2965]}, "edge": {"target": [], "time": []}}, "mouseout": {"state": {"target": ["6", "5", "3", "7", "6", "8", "12", "10"], "time": [599, 632, 1533, 1849, 1982, 2382, 2916, 3016]}, "edge": {"target": [], "time": []}}}, "displayed_time": "8.89", "trialTime": 9543, "trial_type": "mouselab-mdp", "trial_index": 65, "time_elapsed": 993016, "internal_node_id": "0.0-4.0-3.0-25.0"}}, {"uniqueid": "w85137951:a12336123", "current_trial": 66, "dateTime": 1664556065050, "trialdata": {"revealed_states": [], "num_clicks_accrued": [0, 0, 0, 0, 0, 0, 0, 0, 0, 0, 0, 0, 0], "stateRewards": ["", 2, -4, 48, 24, 2, 8, 24, 24, -2, 4, 24, 24], "withholdReward": false, "trial_id": "mdp_813974524300", "block": "test2", "trialIndex": 58, "score": 30.75, "costs": -0.25, "simulationMode": [null, null, null], "rewards": [-2, 4, 24], "path": ["0", "0", "9", "10", "11"], "rt": [1142, 218, 89], "actions": ["left", "left", "up"], "actionTimes": [1836, 2567, 3172], "queries": {"click": {"state": {"target": ["11"], "time": [1031]}, "edge": {"target": [], "time": []}}, "mouseover": {"state": {"target": ["11"], "time": [849]}, "edge": {"target": [], "time": []}}, "mouseout": {"state": {"target": ["0", "11", "1", "0"], "time": [749, 1166, 5383, 5416]}, "edge": {"target": [], "time": []}}}, "displayed_time": "8.70", "trialTime": 11279, "trial_type": "mouselab-mdp", "trial_index": 66, "time_elapsed": 1004335, "internal_node_id": "0.0-4.0-3.0-26.0"}}, {"uniqueid": "w85137951:a12336123", "current_trial": 67, "dateTime": 1664556074738, "trialdata": {"revealed_states": [], "num_clicks_accrued": [0, 0, 0, 0, 0, 0, 0, 0, 0, 0, 0, 0, 0], "stateRewards": ["", -4, 4, -24, 48, 2, 4, -48, 24, 4, -8, -24, 24], "withholdReward": true, "trial_id": "mdp_740130150937", "block": "test2", "trialIndex": 59, "score": 34.25, "costs": -0.75, "simulationMode": [null, null, null], "rewards": [2, 4, 24], "path": ["0", "0", "5", "6", "8"], "rt": [2306, 80, 130], "actions": ["right", "right", "down"], "actionTimes": [2565, 3147, 3780], "queries": {"click": {"state": {"target": ["3", "7", "8"], "time": [754, 1194, 1634]}, "edge": {"target": [], "time": []}}, "mouseover": {"state": {"target": ["3", "7", "6", "8", "12", "12"], "time": [567, 1000, 1401, 1500, 1867, 2217]}, "edge": {"target": [], "time": []}}, "mouseout": {"state": {"target": ["0", "3", "7", "6", "8", "12", "12"], "time": [133, 933, 1367, 1466, 1767, 2066, 2233]}, "edge": {"target": [], "time": []}}}, "displayed_time": "9.27", "trialTime": 9651, "trial_type": "mouselab-mdp", "trial_index": 67, "time_elapsed": 1014023, "internal_node_id": "0.0-4.0-3.0-27.0"}}, {"uniqueid": "w85137951:a12336123", "current_trial": 68, "dateTime": 1664556084895, "trialdata": {"revealed_states": [], "num_clicks_accrued": [0, 0, 0, 0, 0, 0, 0, 0, 0, 0, 0, 0, 0], "stateRewards": ["", -2, -4, -24, -48, 2, -8, -24, -24, 4, -8, 48, 48], "withholdReward": true, "trial_id": "mdp_950599994674", "block": "test2", "trialIndex": 60, "score": 48, "costs": -1, "simulationMode": [null, null, null], "rewards": [4, -8, 48], "path": ["0", "0", "9", "10", "12"], "rt": [2289, 88, 92], "actions": ["left", "left", "down"], "actionTimes": [2679, 3267, 3871], "queries": {"click": {"state": {"target": ["3", "7", "8", "12"], "time": [811, 1212, 1618, 2066]}, "edge": {"target": [], "time": []}}, "mouseover": {"state": {"target": ["3", "7", "6", "8", "12", "10", "11"], "time": [679, 1063, 1395, 1495, 1912, 2279, 2395]}, "edge": {"target": [], "time": []}}, "mouseout": {"state": {"target": ["0", "3", "7", "6", "8", "12", "10"], "time": [279, 979, 1362, 1445, 1745, 2245, 2329]}, "edge": {"target": [], "time": []}}}, "displayed_time": "8.39", "trialTime": 10119, "trial_type": "mouselab-mdp", "trial_index": 68, "time_elapsed": 1024180, "internal_node_id": "0.0-4.0-3.0-28.0"}}, {"uniqueid": "w85137951:a12336123", "current_trial": 69, "dateTime": 1664556094319, "trialdata": {"revealed_states": [], "num_clicks_accrued": [0, 0, 0, 0, 0, 0, 0, 0, 0, 0, 0, 0, 0], "stateRewards": ["", 4, 4, -24, -48, -4, 4, -48, 24, 4, -8, -48, 48], "withholdReward": false, "trial_id": "mdp_566768794366", "block": "test2", "trialIndex": 61, "score": 48.75, "costs": -0.25, "simulationMode": [null, null, null], "rewards": [4, -8, 48], "path": ["0", "0", "9", "10", "12"], "rt": [1178, 139, 25], "actions": ["left", "left", "down"], "actionTimes": [1636, 2275, 2811], "queries": {"click": {"state": {"target": ["12"], "time": [892]}, "edge": {"target": [], "time": []}}, "mouseover": {"state": {"target": ["10", "12"], "time": [686, 819]}, "edge": {"target": [], "time": []}}, "mouseout": {"state": {"target": ["9", "0", "10", "12"], "time": [52, 552, 752, 1019]}, "edge": {"target": [], "time": []}}}, "displayed_time": "8.46", "trialTime": 9384, "trial_type": "mouselab-mdp", "trial_index": 69, "time_elapsed": 1033604, "internal_node_id": "0.0-4.0-3.0-29.0"}}, {"uniqueid": "w85137951:a12336123", "current_trial": 70, "dateTime": 1664556095363, "trialdata": {"rt": 1041, "stimulus": "<h1> End of block! </h1>\n\nYou have reached the end of the block 2/4. If you need a short break, feel free to take one now before moving on.\n\n<br><br>\nIn the next block, you will complete another 30 rounds of this game.\n\n<br><br>\n<div style='text-align: center;'>Press <code>space</code> to begin.</div>\n<br><br>\n<div style='text-align: center;'>(If the experiment doesn't continue, try clicking on the text and then pressing <code>space</code>.)</div>", "response": " ", "trial_id": "mdp_ready_3", "trial_type": "html-keyboard-response", "trial_index": 70, "time_elapsed": 1034648, "internal_node_id": "0.0-4.0-4.0"}}, {"uniqueid": "w85137951:a12336123", "current_trial": 71, "dateTime": 1664556105107, "trialdata": {"revealed_states": [], "num_clicks_accrued": [0, 0, 0, 0, 0, 0, 0, 0, 0, 0, 0, 0, 0], "stateRewards": ["", -2, 4, -24, 48, 4, -8, 48, -48, 2, -8, 48, 24], "withholdReward": true, "trial_id": "mdp_501111216502", "block": "test3", "trialIndex": 62, "score": 48.5, "costs": -0.5, "simulationMode": [null, null, null], "rewards": [4, -8, 48], "path": ["0", "0", "5", "6", "7"], "rt": [1613, 109, 57], "actions": ["right", "right", "up"], "actionTimes": [2123, 2744, 3309], "queries": {"click": {"state": {"target": ["3", "7"], "time": [919, 1474]}, "edge": {"target": [], "time": []}}, "mouseover": {"state": {"target": ["1", "3", "7", "7", "6"], "time": [618, 751, 1135, 1451, 1784]}, "edge": {"target": [], "time": []}}, "mouseout": {"state": {"target": ["0", "1", "3", "7", "7", "6", "6", "9", "9"], "time": [434, 634, 1068, 1201, 1751, 1851, 8918, 8984, 9135]}, "edge": {"target": [], "time": []}}}, "displayed_time": "9.51", "trialTime": 9704, "trial_type": "mouselab-mdp", "trial_index": 71, "time_elapsed": 1044392, "internal_node_id": "0.0-4.0-5.0-0.0"}}, {"uniqueid": "w85137951:a12336123", "current_trial": 72, "dateTime": 1664556115269, "trialdata": {"revealed_states": [], "num_clicks_accrued": [0, 0, 0, 0, 0, 0, 0, 0, 0, 0, 0, 0, 0], "stateRewards": ["", 4, 4, -48, -48, 4, 4, -24, -24, -4, 8, -48, 24], "withholdReward": true, "trial_id": "mdp_669785455541", "block": "test3", "trialIndex": 63, "score": 32.75, "costs": -0.25, "simulationMode": [null, null, null], "rewards": [-4, 8, 24], "path": ["0", "0", "9", "10", "12"], "rt": [1377, 44, 30], "actions": ["left", "left", "down"], "actionTimes": [1590, 2149, 2685], "queries": {"click": {"state": {"target": ["12"], "time": [845]}, "edge": {"target": [], "time": []}}, "mouseover": {"state": {"target": ["9", "10", "12", "9"], "time": [505, 572, 722, 1238]}, "edge": {"target": [], "time": []}}, "mouseout": {"state": {"target": ["0", "9", "10", "12", "9"], "time": [430, 538, 655, 1072, 1272]}, "edge": {"target": [], "time": []}}}, "displayed_time": "8.21", "trialTime": 10119, "trial_type": "mouselab-mdp", "trial_index": 72, "time_elapsed": 1054554, "internal_node_id": "0.0-4.0-5.0-1.0"}}, {"uniqueid": "w85137951:a12336123", "current_trial": 73, "dateTime": 1664556125184, "trialdata": {"revealed_states": [], "num_clicks_accrued": [0, 0, 0, 0, 0, 0, 0, 0, 0, 0, 0, 0, 0], "stateRewards": ["", 2, 8, 24, 24, 2, -8, -24, -48, 2, 8, -48, 48], "withholdReward": true, "trial_id": "mdp_745175888812", "block": "test3", "trialIndex": 64, "score": 38.75, "costs": -0.25, "simulationMode": [null, null, null], "rewards": [2, 8, 24], "path": ["0", "0", "1", "2", "3"], "rt": [1214, 29, 21], "actions": ["up", "up", "right"], "actionTimes": [1773, 2308, 2817], "queries": {"click": {"state": {"target": ["3"], "time": [1037]}, "edge": {"target": [], "time": []}}, "mouseover": {"state": {"target": ["3", "7"], "time": [945, 1278]}, "edge": {"target": [], "time": []}}, "mouseout": {"state": {"target": ["0", "3"], "time": [662, 1179]}, "edge": {"target": [], "time": []}}}, "displayed_time": "8.56", "trialTime": 9874, "trial_type": "mouselab-mdp", "trial_index": 73, "time_elapsed": 1064469, "internal_node_id": "0.0-4.0-5.0-2.0"}}, {"uniqueid": "w85137951:a12336123", "current_trial": 74, "dateTime": 1664556136942, "trialdata": {"revealed_states": [], "num_clicks_accrued": [0, 0, 0, 0, 0, 0, 0, 0, 0, 0, 0, 0, 0], "stateRewards": ["", 2, -4, 24, 48, -2, 4, -48, -48, -4, 4, 24, -24], "withholdReward": true, "trial_id": "mdp_900363662757", "block": "test3", "trialIndex": 65, "score": 26.75, "costs": -0.25, "simulationMode": [null, null, null], "rewards": [2, -4, 24], "path": ["0", "0", "1", "2", "3"], "rt": [1076, 35, 627], "actions": ["up", "up", "right"], "actionTimes": [1782, 2314, 3472], "queries": {"click": {"state": {"target": ["3"], "time": [1096]}, "edge": {"target": [], "time": []}}, "mouseover": {"state": {"target": ["3", "7"], "time": [996, 1497]}, "edge": {"target": [], "time": []}}, "mouseout": {"state": {"target": ["7", "5", "0", "3", "7"], "time": [379, 529, 779, 1296, 11665]}, "edge": {"target": [], "time": []}}}, "displayed_time": "9.71", "trialTime": 11717, "trial_type": "mouselab-mdp", "trial_index": 74, "time_elapsed": 1076227, "internal_node_id": "0.0-4.0-5.0-3.0"}}, {"uniqueid": "w85137951:a12336123", "current_trial": 75, "dateTime": 1664556146595, "trialdata": {"revealed_states": [], "num_clicks_accrued": [0, 0, 0, 0, 0, 0, 0, 0, 0, 0, 0, 0, 0], "stateRewards": ["", 2, -4, -24, -24, -2, -8, -48, 24, -4, -8, 24, 24], "withholdReward": true, "trial_id": "mdp_521351546461", "block": "test3", "trialIndex": 66, "score": 18.25, "costs": -0.75, "simulationMode": [null, null, null], "rewards": [-2, -8, 24], "path": ["0", "0", "5", "6", "8"], "rt": [2146, 76, 28], "actions": ["right", "right", "down"], "actionTimes": [2537, 3129, 3665], "queries": {"click": {"state": {"target": ["3", "7", "8"], "time": [802, 1386, 1842]}, "edge": {"target": [], "time": []}}, "mouseover": {"state": {"target": ["3", "7", "6", "8"], "time": [687, 1103, 1537, 1637]}, "edge": {"target": [], "time": []}}, "mouseout": {"state": {"target": ["0", "3", "7", "6", "8"], "time": [487, 970, 1520, 1586, 2020]}, "edge": {"target": [], "time": []}}}, "displayed_time": "8.39", "trialTime": 9610, "trial_type": "mouselab-mdp", "trial_index": 75, "time_elapsed": 1085880, "internal_node_id": "0.0-4.0-5.0-4.0"}}, {"uniqueid": "w85137951:a12336123", "current_trial": 76, "dateTime": 1664556157237, "trialdata": {"revealed_states": [], "num_clicks_accrued": [0, 0, 0, 0, 0, 0, 0, 0, 0, 0, 0, 0, 0], "stateRewards": ["", -4, 8, 48, -48, 2, -4, 24, -24, -2, 4, -24, -24], "withholdReward": true, "trial_id": "mdp_804988042722", "block": "test3", "trialIndex": 67, "score": 56.5, "costs": -0.5, "simulationMode": [null, null, null], "rewards": [-4, 8, 48], "path": ["0", "0", "1", "2", "3"], "rt": [1826, 43, 5], "actions": ["up", "up", "right"], "actionTimes": [2833, 3394, 3922], "queries": {"click": {"state": {"target": ["12", "3"], "time": [1485, 2101]}, "edge": {"target": [], "time": []}}, "mouseover": {"state": {"target": ["9", "12", "10", "2", "3", "2", "4"], "time": [1134, 1394, 1634, 1783, 2006, 2317, 2367]}, "edge": {"target": [], "time": []}}, "mouseout": {"state": {"target": ["0", "0", "9", "12", "10", "2", "3", "2", "4", "9"], "time": [467, 1133, 1150, 1600, 1650, 1817, 2267, 2350, 2534, 9933]}, "edge": {"target": [], "time": []}}}, "displayed_time": "10.01", "trialTime": 10599, "trial_type": "mouselab-mdp", "trial_index": 76, "time_elapsed": 1096522, "internal_node_id": "0.0-4.0-5.0-5.0"}}, {"uniqueid": "w85137951:a12336123", "current_trial": 77, "dateTime": 1664556166831, "trialdata": {"revealed_states": [], "num_clicks_accrued": [0, 0, 0, 0, 0, 0, 0, 0, 0, 0, 0, 0, 0], "stateRewards": ["", -2, -8, 24, -24, 4, -8, 48, 48, -4, -8, -24, -48], "withholdReward": true, "trial_id": "mdp_286767261523", "block": "test3", "trialIndex": 68, "score": 48.5, "costs": -0.5, "simulationMode": [null, null, null], "rewards": [4, -8, 48], "path": ["0", "0", "5", "6", "7"], "rt": [1740, 43, 13], "actions": ["right", "right", "up"], "actionTimes": [2026, 2562, 3099], "queries": {"click": {"state": {"target": ["4", "7"], "time": [782, 1286]}, "edge": {"target": [], "time": []}}, "mouseover": {"state": {"target": ["4", "2", "7", "6", "8"], "time": [619, 952, 1103, 1502, 1603]}, "edge": {"target": [], "time": []}}, "mouseout": {"state": {"target": ["0", "4", "2", "7", "6", "8", "5"], "time": [469, 936, 986, 1453, 1569, 9136, 9203]}, "edge": {"target": [], "time": []}}}, "displayed_time": "9.29", "trialTime": 9563, "trial_type": "mouselab-mdp", "trial_index": 77, "time_elapsed": 1106116, "internal_node_id": "0.0-4.0-5.0-6.0"}}, {"uniqueid": "w85137951:a12336123", "current_trial": 78, "dateTime": 1664556176615, "trialdata": {"revealed_states": [], "num_clicks_accrued": [0, 0, 0, 0, 0, 0, 0, 0, 0, 0, 0, 0, 0], "stateRewards": ["", 2, -4, 24, 24, 2, 4, 24, 24, -4, 8, 24, 48], "withholdReward": true, "trial_id": "mdp_268430387178", "block": "test3", "trialIndex": 69, "score": 26.75, "costs": -0.25, "simulationMode": [null, null, null], "rewards": [2, -4, 24], "path": ["0", "0", "1", "2", "3"], "rt": [1437, 37, 20], "actions": ["up", "up", "right"], "actionTimes": [1925, 2467, 3000], "queries": {"click": {"state": {"target": ["3"], "time": [960]}, "edge": {"target": [], "time": []}}, "mouseover": {"state": {"target": ["3", "7", "6", "5"], "time": [813, 1147, 1247, 1513]}, "edge": {"target": [], "time": []}}, "mouseout": {"state": {"target": ["0", "0", "3", "7", "6", "5", "5"], "time": [80, 613, 1096, 1197, 1480, 8813, 9480]}, "edge": {"target": [], "time": []}}}, "displayed_time": "9.49", "trialTime": 9741, "trial_type": "mouselab-mdp", "trial_index": 78, "time_elapsed": 1115900, "internal_node_id": "0.0-4.0-5.0-7.0"}}, {"uniqueid": "w85137951:a12336123", "current_trial": 79, "dateTime": 1664556186240, "trialdata": {"revealed_states": [], "num_clicks_accrued": [0, 0, 0, 0, 0, 0, 0, 0, 0, 0, 0, 0, 0], "stateRewards": ["", 2, 8, 48, -24, -4, 4, 48, 24, -2, 8, 24, 24], "withholdReward": false, "trial_id": "mdp_123436106791", "block": "test3", "trialIndex": 70, "score": 62.75, "costs": -0.25, "simulationMode": [null, null, null], "rewards": [2, 8, 48], "path": ["0", "0", "1", "2", "3"], "rt": [1652, 17, 139], "actions": ["up", "up", "right"], "actionTimes": [1988, 2496, 3152], "queries": {"click": {"state": {"target": ["3"], "time": [1280]}, "edge": {"target": [], "time": []}}, "mouseover": {"state": {"target": ["7", "3", "6"], "time": [1046, 1179, 1563]}, "edge": {"target": [], "time": []}}, "mouseout": {"state": {"target": ["0", "7", "3", "6"], "time": [463, 1129, 1479, 9113]}, "edge": {"target": [], "time": []}}}, "displayed_time": "9.34", "trialTime": 9581, "trial_type": "mouselab-mdp", "trial_index": 79, "time_elapsed": 1125524, "internal_node_id": "0.0-4.0-5.0-8.0"}}, {"uniqueid": "w85137951:a12336123", "current_trial": 80, "dateTime": 1664556196177, "trialdata": {"revealed_states": [], "num_clicks_accrued": [0, 0, 0, 0, 0, 0, 0, 0, 0, 0, 0, 0, 0], "stateRewards": ["", 4, 8, -24, 48, 4, -8, -48, 48, -4, 8, -24, -48], "withholdReward": true, "trial_id": "mdp_376126356841", "block": "test3", "trialIndex": 71, "score": 48.5, "costs": -0.5, "simulationMode": [null, null, null], "rewards": [4, -8, 48], "path": ["0", "0", "5", "6", "8"], "rt": [1711, 102, 39], "actions": ["right", "right", "down"], "actionTimes": [2353, 2958, 3511], "queries": {"click": {"state": {"target": ["7", "8"], "time": [1119, 1664]}, "edge": {"target": [], "time": []}}, "mouseover": {"state": {"target": ["5", "6", "7", "6", "8"], "time": [789, 839, 1039, 1422, 1489]}, "edge": {"target": [], "time": []}}, "mouseout": {"state": {"target": ["0", "5", "6", "7", "6", "8", "0"], "time": [772, 822, 972, 1389, 1456, 1856, 9589]}, "edge": {"target": [], "time": []}}}, "displayed_time": "9.64", "trialTime": 9895, "trial_type": "mouselab-mdp", "trial_index": 80, "time_elapsed": 1135462, "internal_node_id": "0.0-4.0-5.0-9.0"}}, {"uniqueid": "w85137951:a12336123", "current_trial": 81, "dateTime": 1664556209562, "trialdata": {"revealed_states": [], "num_clicks_accrued": [0, 0, 0, 0, 0, 0, 0, 0, 0, 0, 0, 0, 0], "stateRewards": ["", -2, 8, -48, 48, -4, 8, -24, 24, 4, -4, 24, -48], "withholdReward": true, "trial_id": "mdp_904238083902", "block": "test3", "trialIndex": 72, "score": 32, "costs": -1, "simulationMode": [null, null, null], "rewards": [-4, 8, 24], "path": ["0", "0", "5", "6", "8"], "rt": [2917, 88, 53], "actions": ["right", "right", "down"], "actionTimes": [3140, 3722, 4270], "queries": {"click": {"state": {"target": ["12", "3", "7", "8"], "time": [1022, 1597, 2086, 2494]}, "edge": {"target": [], "time": []}}, "mouseover": {"state": {"target": ["12", "12", "9", "1", "2", "3", "7", "6", "8", "9"], "time": [517, 817, 1184, 1251, 1450, 1550, 1967, 2318, 2384, 2751]}, "edge": {"target": [], "time": []}}, "mouseout": {"state": {"target": ["0", "12", "12", "9", "1", "2", "3", "7", "6", "8", "9"], "time": [451, 550, 1167, 1217, 1318, 1484, 1901, 2284, 2350, 2684, 2767]}, "edge": {"target": [], "time": []}}}, "displayed_time": "8.22", "trialTime": 13342, "trial_type": "mouselab-mdp", "trial_index": 81, "time_elapsed": 1148847, "internal_node_id": "0.0-4.0-5.0-10.0"}}, {"uniqueid": "w85137951:a12336123", "current_trial": 82, "dateTime": 1664556223562, "trialdata": {"revealed_states": [], "num_clicks_accrued": [0, 0, 0, 0, 0, 0, 0, 0, 0, 0, 0, 0, 0], "stateRewards": ["", 4, 4, 48, -48, -2, 4, 48, -48, -4, 4, -24, -24], "withholdReward": true, "trial_id": "mdp_753324812898", "block": "test3", "trialIndex": 73, "score": 60.75, "costs": -0.25, "simulationMode": [null, null, null], "rewards": [4, 4, 48], "path": ["0", "0", "1", "2", "3"], "rt": [1061, 76, 142], "actions": ["up", "up", "right"], "actionTimes": [1645, 2210, 2842], "queries": {"click": {"state": {"target": ["3"], "time": [933]}, "edge": {"target": [], "time": []}}, "mouseover": {"state": {"target": ["3", "7"], "time": [832, 1182]}, "edge": {"target": [], "time": []}}, "mouseout": {"state": {"target": ["3"], "time": [1082]}, "edge": {"target": [], "time": []}}}, "displayed_time": "8.58", "trialTime": 13957, "trial_type": "mouselab-mdp", "trial_index": 82, "time_elapsed": 1162847, "internal_node_id": "0.0-4.0-5.0-11.0"}}, {"uniqueid": "w85137951:a12336123", "current_trial": 83, "dateTime": 1664556239186, "trialdata": {"revealed_states": [], "num_clicks_accrued": [0, 0, 0, 0, 0, 0, 0, 0, 0, 0, 0, 0, 0], "stateRewards": ["", 2, -8, -48, 24, 4, 8, 48, -48, 2, -4, 24, 24], "withholdReward": false, "trial_id": "mdp_130475327289", "block": "test3", "trialIndex": 74, "score": 64.25, "costs": -0.75, "simulationMode": [null, null, null], "rewards": [4, 8, 48], "path": ["0", "0", "5", "6", "7"], "rt": [1966, 23, 59], "actions": ["right", "right", "up"], "actionTimes": [2393, 2923, 3493], "queries": {"click": {"state": {"target": ["3", "8", "7"], "time": [806, 1302, 1774]}, "edge": {"target": [], "time": []}}, "mouseover": {"state": {"target": ["1", "3", "7", "6", "8", "6", "7"], "time": [584, 667, 1000, 1100, 1183, 1567, 1667]}, "edge": {"target": [], "time": []}}, "mouseout": {"state": {"target": ["7", "0", "1", "3", "7", "6", "8", "6", "7"], "time": [17, 534, 600, 967, 1034, 1150, 1517, 1600, 1934]}, "edge": {"target": [], "time": []}}}, "displayed_time": "9.43", "trialTime": 15582, "trial_type": "mouselab-mdp", "trial_index": 83, "time_elapsed": 1178471, "internal_node_id": "0.0-4.0-5.0-12.0"}}, {"uniqueid": "w85137951:a12336123", "current_trial": 84, "dateTime": 1664556247634, "trialdata": {"revealed_states": [], "num_clicks_accrued": [0, 0, 0, 0, 0, 0, 0, 0, 0, 0, 0, 0, 0], "stateRewards": ["", -4, -4, 24, 48, 4, -4, -24, 24, -4, -4, 24, 24], "withholdReward": true, "trial_id": "mdp_357725458160", "block": "test3", "trialIndex": 75, "score": 20.75, "costs": -0.25, "simulationMode": [null, null, null], "rewards": [-4, -4, 24], "path": ["0", "0", "1", "2", "3"], "rt": [1463, 96, 44], "actions": ["up", "up", "right"], "actionTimes": [1659, 2258, 2805], "queries": {"click": {"state": {"target": ["3"], "time": [719]}, "edge": {"target": [], "time": []}}, "mouseover": {"state": {"target": ["1", "3", "6", "8"], "time": [427, 577, 944, 1227]}, "edge": {"target": [], "time": []}}, "mouseout": {"state": {"target": ["0", "1", "3", "6", "8", "8", "11", "11"], "time": [167, 460, 844, 1044, 1360, 7327, 7860, 7994]}, "edge": {"target": [], "time": []}}}, "displayed_time": "8.20", "trialTime": 8406, "trial_type": "mouselab-mdp", "trial_index": 84, "time_elapsed": 1186919, "internal_node_id": "0.0-4.0-5.0-13.0"}}, {"uniqueid": "w85137951:a12336123", "current_trial": 85, "dateTime": 1664556259523, "trialdata": {"revealed_states": [], "num_clicks_accrued": [0, 0, 0, 0, 0, 0, 0, 0, 0, 0, 0, 0, 0], "stateRewards": ["", -2, -8, 48, 24, 4, -8, 24, 48, 4, -4, 24, -48], "withholdReward": true, "trial_id": "mdp_871576155740", "block": "test3", "trialIndex": 76, "score": 42.5, "costs": -0.5, "simulationMode": [null, null, null], "rewards": [-2, -8, 48], "path": ["0", "0", "1", "2", "3"], "rt": [1651, 78, 64], "actions": ["up", "up", "right"], "actionTimes": [1890, 2472, 3042], "queries": {"click": {"state": {"target": ["12", "3"], "time": [645, 1245]}, "edge": {"target": [], "time": []}}, "mouseover": {"state": {"target": ["9", "12", "9", "1", "3"], "time": [394, 461, 827, 928, 1094]}, "edge": {"target": [], "time": []}}, "mouseout": {"state": {"target": ["0", "9", "12", "9", "1", "3"], "time": [60, 427, 794, 860, 1010, 1477]}, "edge": {"target": [], "time": []}}}, "displayed_time": "9.24", "trialTime": 11846, "trial_type": "mouselab-mdp", "trial_index": 85, "time_elapsed": 1198808, "internal_node_id": "0.0-4.0-5.0-14.0"}}, {"uniqueid": "w85137951:a12336123", "current_trial": 86, "dateTime": 1664556271108, "trialdata": {"revealed_states": [], "num_clicks_accrued": [0, 0, 0, 0, 0, 0, 0, 0, 0, 0, 0, 0, 0], "stateRewards": ["", -4, -8, -48, -48, 4, -8, 48, 48, 2, 8, 48, 24], "withholdReward": false, "trial_id": "mdp_880437222492", "block": "test3", "trialIndex": 77, "score": 48.5, "costs": -0.5, "simulationMode": [null, null, null], "rewards": [4, -8, 48], "path": ["0", "0", "5", "6", "8"], "rt": [1521, 26, 63], "actions": ["right", "right", "down"], "actionTimes": [1888, 2413, 2985], "queries": {"click": {"state": {"target": ["3", "8"], "time": [699, 1275]}, "edge": {"target": [], "time": []}}, "mouseover": {"state": {"target": ["3", "6", "8", "6"], "time": [554, 987, 1087, 1604]}, "edge": {"target": [], "time": []}}, "mouseout": {"state": {"target": ["0", "3", "6", "8", "6"], "time": [437, 837, 1020, 1554, 1621]}, "edge": {"target": [], "time": []}}}, "displayed_time": "9.37", "trialTime": 11541, "trial_type": "mouselab-mdp", "trial_index": 86, "time_elapsed": 1210393, "internal_node_id": "0.0-4.0-5.0-15.0"}}, {"uniqueid": "w85137951:a12336123", "current_trial": 87, "dateTime": 1664556282941, "trialdata": {"revealed_states": [], "num_clicks_accrued": [0, 0, 0, 0, 0, 0, 0, 0, 0, 0, 0, 0, 0], "stateRewards": ["", 2, 4, -24, -48, 4, -4, 24, 48, -4, -4, -24, 48], "withholdReward": false, "trial_id": "mdp_181958792175", "block": "test3", "trialIndex": 78, "score": 28.5, "costs": -0.5, "simulationMode": [null, null, null], "rewards": [4, -4, 24], "path": ["0", "0", "5", "6", "7"], "rt": [1613, 45, 61], "actions": ["right", "right", "up"], "actionTimes": [2672, 3232, 3814], "queries": {"click": {"state": {"target": ["3", "7"], "time": [1387, 1835]}, "edge": {"target": [], "time": []}}, "mouseover": {"state": {"target": ["1", "3", "7", "6"], "time": [1153, 1286, 1703, 2019]}, "edge": {"target": [], "time": []}}, "mouseout": {"state": {"target": ["5", "0", "1", "3", "7", "6"], "time": [553, 653, 1170, 1636, 1970, 2086]}, "edge": {"target": [], "time": []}}}, "displayed_time": "10.06", "trialTime": 11789, "trial_type": "mouselab-mdp", "trial_index": 87, "time_elapsed": 1222225, "internal_node_id": "0.0-4.0-5.0-16.0"}}, {"uniqueid": "w85137951:a12336123", "current_trial": 88, "dateTime": 1664556292971, "trialdata": {"revealed_states": [], "num_clicks_accrued": [0, 0, 0, 0, 0, 0, 0, 0, 0, 0, 0, 0, 0], "stateRewards": ["", -2, 8, 48, 24, 2, -4, 48, -48, 2, 8, 24, -24], "withholdReward": true, "trial_id": "mdp_176207245985", "block": "test3", "trialIndex": 79, "score": 38.75, "costs": -0.25, "simulationMode": [null, null, null], "rewards": [2, 8, 24], "path": ["0", "0", "9", "10", "11"], "rt": [1099, 77, 69], "actions": ["left", "left", "up"], "actionTimes": [1817, 2382, 2941], "queries": {"click": {"state": {"target": ["11"], "time": [1147]}, "edge": {"target": [], "time": []}}, "mouseover": {"state": {"target": ["11", "11", "1"], "time": [888, 988, 1321]}, "edge": {"target": [], "time": []}}, "mouseout": {"state": {"target": ["11", "11", "11", "1"], "time": [459, 921, 1254, 1371]}, "edge": {"target": [], "time": []}}}, "displayed_time": "8.72", "trialTime": 9987, "trial_type": "mouselab-mdp", "trial_index": 88, "time_elapsed": 1232256, "internal_node_id": "0.0-4.0-5.0-17.0"}}, {"uniqueid": "w85137951:a12336123", "current_trial": 89, "dateTime": 1664556304747, "trialdata": {"revealed_states": [], "num_clicks_accrued": [0, 0, 0, 0, 0, 0, 0, 0, 0, 0, 0, 0, 0], "stateRewards": ["", 2, 4, -48, 48, -4, 8, -48, -24, -4, -4, 48, 48], "withholdReward": false, "trial_id": "mdp_613582696541", "block": "test3", "trialIndex": 80, "score": 44, "costs": -1, "simulationMode": [null, null, null], "rewards": [-4, -4, 48], "path": ["0", "0", "9", "10", "12"], "rt": [2430, 68, 192], "actions": ["left", "left", "down"], "actionTimes": [2867, 3425, 4132], "queries": {"click": {"state": {"target": ["3", "7", "8", "12"], "time": [788, 1172, 1524, 2205]}, "edge": {"target": [], "time": []}}, "mouseover": {"state": {"target": ["3", "7", "6", "8", "12"], "time": [640, 1023, 1357, 1424, 2140]}, "edge": {"target": [], "time": []}}, "mouseout": {"state": {"target": ["5", "0", "0", "3", "7", "6", "8", "12"], "time": [190, 256, 523, 957, 1324, 1373, 1740, 2357]}, "edge": {"target": [], "time": []}}}, "displayed_time": "9.44", "trialTime": 11733, "trial_type": "mouselab-mdp", "trial_index": 89, "time_elapsed": 1244032, "internal_node_id": "0.0-4.0-5.0-18.0"}}, {"uniqueid": "w85137951:a12336123", "current_trial": 90, "dateTime": 1664556314701, "trialdata": {"revealed_states": [], "num_clicks_accrued": [0, 0, 0, 0, 0, 0, 0, 0, 0, 0, 0, 0, 0], "stateRewards": ["", -4, -4, -24, 48, 2, 4, -24, -48, -2, 4, 24, 24], "withholdReward": true, "trial_id": "mdp_360934723192", "block": "test3", "trialIndex": 81, "score": 30, "costs": -1, "simulationMode": [null, null, null], "rewards": [-2, 4, 24], "path": ["0", "0", "9", "10", "12"], "rt": [2690, 4, 3], "actions": ["left", "left", "down"], "actionTimes": [3360, 3850, 4382], "queries": {"click": {"state": {"target": ["3", "8", "7", "12"], "time": [986, 1466, 1883, 2705]}, "edge": {"target": [], "time": []}}, "mouseover": {"state": {"target": ["1", "3", "8", "6", "7", "0", "12", "10", "11"], "time": [779, 946, 1362, 1745, 1812, 2162, 2451, 2862, 3029]}, "edge": {"target": [], "time": []}}, "mouseout": {"state": {"target": ["3", "1", "3", "8", "6", "7", "0", "12", "10", "11", "9", "0"], "time": [162, 795, 1278, 1712, 1779, 2079, 2178, 2829, 2929, 8129, 8162, 8495]}, "edge": {"target": [], "time": []}}}, "displayed_time": "9.67", "trialTime": 9909, "trial_type": "mouselab-mdp", "trial_index": 90, "time_elapsed": 1253986, "internal_node_id": "0.0-4.0-5.0-19.0"}}, {"uniqueid": "w85137951:a12336123", "current_trial": 91, "dateTime": 1664556323220, "trialdata": {"revealed_states": [], "num_clicks_accrued": [0, 0, 0, 0, 0, 0, 0, 0, 0, 0, 0, 0, 0], "stateRewards": ["", -4, 8, -24, 24, -2, -8, 24, -24, 4, -4, -48, 48], "withholdReward": true, "trial_id": "mdp_297684722007", "block": "test3", "trialIndex": 82, "score": 32.5, "costs": -0.5, "simulationMode": [null, null, null], "rewards": [-4, 8, 24], "path": ["0", "0", "1", "2", "4"], "rt": [1880, 96, 112], "actions": ["up", "up", "left"], "actionTimes": [2084, 2672, 3288], "queries": {"click": {"state": {"target": ["3", "4"], "time": [657, 1185]}, "edge": {"target": [], "time": []}}, "mouseover": {"state": {"target": ["3", "2", "4", "10", "12"], "time": [492, 976, 1042, 1459, 1726]}, "edge": {"target": [], "time": []}}, "mouseout": {"state": {"target": ["0", "3", "2", "4", "10", "12"], "time": [177, 925, 1025, 1376, 1692, 1809]}, "edge": {"target": [], "time": []}}}, "displayed_time": "8.21", "trialTime": 8474, "trial_type": "mouselab-mdp", "trial_index": 91, "time_elapsed": 1262504, "internal_node_id": "0.0-4.0-5.0-20.0"}}, {"uniqueid": "w85137951:a12336123", "current_trial": 92, "dateTime": 1664556332410, "trialdata": {"revealed_states": [], "num_clicks_accrued": [0, 0, 0, 0, 0, 0, 0, 0, 0, 0, 0, 0, 0], "stateRewards": ["", 2, -4, -24, 24, 2, 8, 48, 48, 2, -8, 48, -24], "withholdReward": true, "trial_id": "mdp_330392242530", "block": "test3", "trialIndex": 83, "score": 62.75, "costs": -0.25, "simulationMode": [null, null, null], "rewards": [2, 8, 48], "path": ["0", "0", "5", "6", "7"], "rt": [1158, 43, 46], "actions": ["right", "right", "up"], "actionTimes": [1534, 2093, 2663], "queries": {"click": {"state": {"target": ["7"], "time": [796]}, "edge": {"target": [], "time": []}}, "mouseover": {"state": {"target": ["5", "6", "7", "6"], "time": [500, 533, 684, 1083]}, "edge": {"target": [], "time": []}}, "mouseout": {"state": {"target": ["0", "5", "0", "5", "6", "7", "6"], "time": [33, 167, 483, 516, 650, 1016, 1150]}, "edge": {"target": [], "time": []}}}, "displayed_time": "8.38", "trialTime": 9156, "trial_type": "mouselab-mdp", "trial_index": 92, "time_elapsed": 1271695, "internal_node_id": "0.0-4.0-5.0-21.0"}}, {"uniqueid": "w85137951:a12336123", "current_trial": 93, "dateTime": 1664556342218, "trialdata": {"revealed_states": [], "num_clicks_accrued": [0, 0, 0, 0, 0, 0, 0, 0, 0, 0, 0, 0, 0], "stateRewards": ["", -4, 8, -24, -48, 2, 8, -48, -24, -2, -4, 48, -48], "withholdReward": true, "trial_id": "mdp_599927291428", "block": "test3", "trialIndex": 84, "score": 45.75, "costs": -1.25, "simulationMode": [null, null, null], "rewards": [-2, -4, 48], "path": ["0", "0", "9", "10", "11"], "rt": [3516, 69, 73], "actions": ["left", "left", "up"], "actionTimes": [3940, 4499, 5070], "queries": {"click": {"state": {"target": ["7", "8", "12", "3", "4"], "time": [896, 1360, 1929, 2511, 3024]}, "edge": {"target": [], "time": []}}, "mouseover": {"state": {"target": ["5", "6", "7", "6", "8", "12", "9", "1", "3", "2", "4", "11", "11"], "time": [563, 613, 729, 1162, 1229, 1779, 2179, 2246, 2396, 2696, 2762, 3296, 3596]}, "edge": {"target": [], "time": []}}, "mouseout": {"state": {"target": ["5", "0", "