{"condition": 0, "counterbalance": 0, "assignmentId": "a64065934", "workerId": "w44045294", "hitId": "h65527286", "currenttrial": 959, "bonus": 0, "data": [{"uniqueid": "w44045294:a64065934", "current_trial": 0, "dateTime": 1664873468548, "trialdata": {"success": true, "trial_type": "fullscreen", "trial_index": 0, "time_elapsed": 7828, "internal_node_id": "0.0-0.0"}}, {"uniqueid": "w44045294:a64065934", "current_trial": 1, "dateTime": 1664873495967, "trialdata": {"view_history": [{"page_index": 0, "viewing_time": 27408}], "rt": 27410, "trial_id": "exp_instructions_distractor", "trial_type": "instructions", "trial_index": 1, "time_elapsed": 35248, "internal_node_id": "0.0-1.0"}}, {"uniqueid": "w44045294:a64065934", "current_trial": 2, "dateTime": 1664873545476, "trialdata": {"view_history": [{"page_index": 0, "viewing_time": 49505}], "rt": 49506, "trial_id": "color_game_instructions", "trial_type": "instructions", "trial_index": 2, "time_elapsed": 84757, "internal_node_id": "0.0-2.0"}}, {"uniqueid": "w44045294:a64065934", "current_trial": 3, "dateTime": 1664873559376, "trialdata": {"rt": 13897, "stimulus": "<h1> Get ready to start the game! </h1>\n\nThank you for reading the instructions. Get ready start with the first of 5 block(s) of this game.\n<br><br>\nIn this first block, you will complete 90 rounds of this game before moving on.\n<br><br>\nRemember, the better you perform, the bigger your bonus will be!\n<br><br>\n<div style='text-align: center;'>Press <code>space</code> to begin.</div>", "response": " ", "trial_id": "stroop_1_ready_1", "trial_type": "html-keyboard-response", "trial_index": 3, "time_elapsed": 98657, "internal_node_id": "0.0-3.0"}}, {"uniqueid": "w44045294:a64065934", "current_trial": 4, "dateTime": 1664873560690, "trialdata": {"rt": 1301, "stimulus": "<p id='stroop-text' class='stroop-red'>RED</p>", "response": "r", "stimulus-type": "congruent", "word": "red", "color": "red", "correct_response": "r", "trial_id": "stroop-trial-1-congruent-15", "trial_type": "html-keyboard-response", "trial_index": 4, "time_elapsed": 99970, "internal_node_id": "0.0-4.0-0.0"}}, {"uniqueid": "w44045294:a64065934", "current_trial": 5, "dateTime": 1664873562418, "trialdata": {"rt": 1224, "stimulus": "<p id='stroop-text' class='stroop-yellow'>YELLOW</p>", "response": "y", "stimulus-type": "congruent", "word": "yellow", "color": "yellow", "correct_response": "y", "trial_id": "stroop-trial-1-congruent-4", "trial_type": "html-keyboard-response", "trial_index": 5, "time_elapsed": 101698, "internal_node_id": "0.0-4.0-1.0"}}, {"uniqueid": "w44045294:a64065934", "current_trial": 6, "dateTime": 1664873563602, "trialdata": {"rt": 681, "stimulus": "<p id='stroop-text' class='stroop-yellow'>YELLOW</p>", "response": "y", "stimulus-type": "congruent", "word": "yellow", "color": "yellow", "correct_response": "y", "trial_id": "stroop-trial-1-congruent-3", "trial_type": "html-keyboard-response", "trial_index": 6, "time_elapsed": 102882, "internal_node_id": "0.0-4.0-2.0"}}, {"uniqueid": "w44045294:a64065934", "current_trial": 7, "dateTime": 1664873565666, "trialdata": {"rt": 1561, "stimulus": "<p id='stroop-text' class='stroop-green'>RED</p>", "response": "g", "stimulus-type": "incongruent", "word": "red", "color": "green", "correct_response": "g", "trial_id": "stroop-trial-1-incongruent-11", "trial_type": "html-keyboard-response", "trial_index": 7, "time_elapsed": 104946, "internal_node_id": "0.0-4.0-3.0"}}, {"uniqueid": "w44045294:a64065934", "current_trial": 8, "dateTime": 1664873567354, "trialdata": {"rt": 1185, "stimulus": "<p id='stroop-text' class='stroop-red'>YELLOW</p>", "response": "r", "stimulus-type": "incongruent", "word": "yellow", "color": "red", "correct_response": "r", "trial_id": "stroop-trial-1-incongruent-5", "trial_type": "html-keyboard-response", "trial_index": 8, "time_elapsed": 106634, "internal_node_id": "0.0-4.0-4.0"}}, {"uniqueid": "w44045294:a64065934", "current_trial": 9, "dateTime": 1664873569322, "trialdata": {"rt": 1464, "stimulus": "<p id='stroop-text' class='stroop-green'>STONE</p>", "response": "g", "stimulus-type": "unrelated", "word": "STONE", "color": "green", "correct_response": "g", "trial_id": "stroop-trial-1-unrelated-6", "trial_type": "html-keyboard-response", "trial_index": 9, "time_elapsed": 108602, "internal_node_id": "0.0-4.0-5.0"}}, {"uniqueid": "w44045294:a64065934", "current_trial": 10, "dateTime": 1664873571010, "trialdata": {"rt": 1185, "stimulus": "<p id='stroop-text' class='stroop-red'>RED</p>", "response": "r", "stimulus-type": "congruent", "word": "red", "color": "red", "correct_response": "r", "trial_id": "stroop-trial-1-congruent-7", "trial_type": "html-keyboard-response", "trial_index": 10, "time_elapsed": 110290, "internal_node_id": "0.0-4.0-6.0"}}, {"uniqueid": "w44045294:a64065934", "current_trial": 11, "dateTime": 1664873572977, "trialdata": {"rt": 1465, "stimulus": "<p id='stroop-text' class='stroop-blue'>GREEN</p>", "response": "b", "stimulus-type": "incongruent", "word": "green", "color": "blue", "correct_response": "b", "trial_id": "stroop-trial-1-incongruent-9", "trial_type": "html-keyboard-response", "trial_index": 11, "time_elapsed": 112258, "internal_node_id": "0.0-4.0-7.0"}}, {"uniqueid": "w44045294:a64065934", "current_trial": 12, "dateTime": 1664873574154, "trialdata": {"rt": 674, "stimulus": "<p id='stroop-text' class='stroop-blue'>MONKEY</p>", "response": "b", "stimulus-type": "unrelated", "word": "MONKEY", "color": "blue", "correct_response": "b", "trial_id": "stroop-trial-1-unrelated-5", "trial_type": "html-keyboard-response", "trial_index": 12, "time_elapsed": 113434, "internal_node_id": "0.0-4.0-8.0"}}, {"uniqueid": "w44045294:a64065934", "current_trial": 13, "dateTime": 1664873576122, "trialdata": {"rt": 1464, "stimulus": "<p id='stroop-text' class='stroop-red'>BLUE</p>", "response": "r", "stimulus-type": "incongruent", "word": "blue", "color": "red", "correct_response": "r", "trial_id": "stroop-trial-1-incongruent-17", "trial_type": "html-keyboard-response", "trial_index": 13, "time_elapsed": 115402, "internal_node_id": "0.0-4.0-9.0"}}, {"uniqueid": "w44045294:a64065934", "current_trial": 14, "dateTime": 1664873577393, "trialdata": {"rt": 769, "stimulus": "<p id='stroop-text' class='stroop-blue'>BOTTLE</p>", "response": "b", "stimulus-type": "unrelated", "word": "BOTTLE", "color": "blue", "correct_response": "b", "trial_id": "stroop-trial-1-unrelated-29", "trial_type": "html-keyboard-response", "trial_index": 14, "time_elapsed": 116674, "internal_node_id": "0.0-4.0-10.0"}}, {"uniqueid": "w44045294:a64065934", "current_trial": 15, "dateTime": 1664873578609, "trialdata": {"rt": 713, "stimulus": "<p id='stroop-text' class='stroop-blue'>YELLOW</p>", "response": "b", "stimulus-type": "incongruent", "word": "yellow", "color": "blue", "correct_response": "b", "trial_id": "stroop-trial-1-incongruent-25", "trial_type": "html-keyboard-response", "trial_index": 15, "time_elapsed": 117890, "internal_node_id": "0.0-4.0-11.0"}}, {"uniqueid": "w44045294:a64065934", "current_trial": 16, "dateTime": 1664873579603, "trialdata": {"rt": 489, "stimulus": "<p id='stroop-text' class='stroop-blue'>YELLOW</p>", "response": "b", "stimulus-type": "incongruent", "word": "yellow", "color": "blue", "correct_response": "b", "trial_id": "stroop-trial-1-incongruent-30", "trial_type": "html-keyboard-response", "trial_index": 16, "time_elapsed": 118882, "internal_node_id": "0.0-4.0-12.0"}}, {"uniqueid": "w44045294:a64065934", "current_trial": 17, "dateTime": 1664873581242, "trialdata": {"rt": 1135, "stimulus": "<p id='stroop-text' class='stroop-yellow'>YELLOW</p>", "response": "y", "stimulus-type": "congruent", "word": "yellow", "color": "yellow", "correct_response": "y", "trial_id": "stroop-trial-1-congruent-18", "trial_type": "html-keyboard-response", "trial_index": 17, "time_elapsed": 120522, "internal_node_id": "0.0-4.0-13.0"}}, {"uniqueid": "w44045294:a64065934", "current_trial": 18, "dateTime": 1664873583025, "trialdata": {"rt": 1281, "stimulus": "<p id='stroop-text' class='stroop-green'>YELLOW</p>", "response": "g", "stimulus-type": "incongruent", "word": "yellow", "color": "green", "correct_response": "g", "trial_id": "stroop-trial-1-incongruent-10", "trial_type": "html-keyboard-response", "trial_index": 18, "time_elapsed": 122306, "internal_node_id": "0.0-4.0-14.0"}}, {"uniqueid": "w44045294:a64065934", "current_trial": 19, "dateTime": 1664873584873, "trialdata": {"rt": 1345, "stimulus": "<p id='stroop-text' class='stroop-yellow'>FORK</p>", "response": "y", "stimulus-type": "unrelated", "word": "FORK", "color": "yellow", "correct_response": "y", "trial_id": "stroop-trial-1-unrelated-30", "trial_type": "html-keyboard-response", "trial_index": 19, "time_elapsed": 124154, "internal_node_id": "0.0-4.0-15.0"}}, {"uniqueid": "w44045294:a64065934", "current_trial": 20, "dateTime": 1664873586433, "trialdata": {"rt": 1056, "stimulus": "<p id='stroop-text' class='stroop-blue'>BRIDGE</p>", "response": "b", "stimulus-type": "unrelated", "word": "BRIDGE", "color": "blue", "correct_response": "b", "trial_id": "stroop-trial-1-unrelated-23", "trial_type": "html-keyboard-response", "trial_index": 20, "time_elapsed": 125714, "internal_node_id": "0.0-4.0-16.0"}}, {"uniqueid": "w44045294:a64065934", "current_trial": 21, "dateTime": 1664873589201, "trialdata": {"rt": 2265, "stimulus": "<p id='stroop-text' class='stroop-blue'>BLUE</p>", "response": "b", "stimulus-type": "congruent", "word": "blue", "color": "blue", "correct_response": "b", "trial_id": "stroop-trial-1-congruent-27", "trial_type": "html-keyboard-response", "trial_index": 21, "time_elapsed": 128481, "internal_node_id": "0.0-4.0-17.0"}}, {"uniqueid": "w44045294:a64065934", "current_trial": 22, "dateTime": 1664873591201, "trialdata": {"rt": 1497, "stimulus": "<p id='stroop-text' class='stroop-red'>WINDOW</p>", "response": "r", "stimulus-type": "unrelated", "word": "WINDOW", "color": "red", "correct_response": "r", "trial_id": "stroop-trial-1-unrelated-8", "trial_type": "html-keyboard-response", "trial_index": 22, "time_elapsed": 130481, "internal_node_id": "0.0-4.0-18.0"}}, {"uniqueid": "w44045294:a64065934", "current_trial": 23, "dateTime": 1664873593057, "trialdata": {"rt": 1354, "stimulus": "<p id='stroop-text' class='stroop-yellow'>RED</p>", "response": "y", "stimulus-type": "incongruent", "word": "red", "color": "yellow", "correct_response": "y", "trial_id": "stroop-trial-1-incongruent-14", "trial_type": "html-keyboard-response", "trial_index": 23, "time_elapsed": 132338, "internal_node_id": "0.0-4.0-19.0"}}, {"uniqueid": "w44045294:a64065934", "current_trial": 24, "dateTime": 1664873594177, "trialdata": {"rt": 616, "stimulus": "<p id='stroop-text' class='stroop-yellow'>BOTTLE</p>", "response": "y", "stimulus-type": "unrelated", "word": "BOTTLE", "color": "yellow", "correct_response": "y", "trial_id": "stroop-trial-1-unrelated-9", "trial_type": "html-keyboard-response", "trial_index": 24, "time_elapsed": 133457, "internal_node_id": "0.0-4.0-20.0"}}, {"uniqueid": "w44045294:a64065934", "current_trial": 25, "dateTime": 1664873595097, "trialdata": {"rt": 417, "stimulus": "<p id='stroop-text' class='stroop-yellow'>YELLOW</p>", "response": "y", "stimulus-type": "congruent", "word": "yellow", "color": "yellow", "correct_response": "y", "trial_id": "stroop-trial-1-congruent-21", "trial_type": "html-keyboard-response", "trial_index": 25, "time_elapsed": 134377, "internal_node_id": "0.0-4.0-21.0"}}, {"uniqueid": "w44045294:a64065934", "current_trial": 26, "dateTime": 1664873596641, "trialdata": {"rt": 1041, "stimulus": "<p id='stroop-text' class='stroop-green'>FORK</p>", "response": "g", "stimulus-type": "unrelated", "word": "FORK", "color": "green", "correct_response": "g", "trial_id": "stroop-trial-1-unrelated-13", "trial_type": "html-keyboard-response", "trial_index": 26, "time_elapsed": 135921, "internal_node_id": "0.0-4.0-22.0"}}, {"uniqueid": "w44045294:a64065934", "current_trial": 27, "dateTime": 1664873598505, "trialdata": {"rt": 1361, "stimulus": "<p id='stroop-text' class='stroop-blue'>BOAT</p>", "response": "b", "stimulus-type": "unrelated", "word": "BOAT", "color": "blue", "correct_response": "b", "trial_id": "stroop-trial-1-unrelated-20", "trial_type": "html-keyboard-response", "trial_index": 27, "time_elapsed": 137785, "internal_node_id": "0.0-4.0-23.0"}}, {"uniqueid": "w44045294:a64065934", "current_trial": 28, "dateTime": 1664873599641, "trialdata": {"rt": 633, "stimulus": "<p id='stroop-text' class='stroop-red'>RED</p>", "response": "r", "stimulus-type": "congruent", "word": "red", "color": "red", "correct_response": "r", "trial_id": "stroop-trial-1-congruent-6", "trial_type": "html-keyboard-response", "trial_index": 28, "time_elapsed": 138921, "internal_node_id": "0.0-4.0-24.0"}}, {"uniqueid": "w44045294:a64065934", "current_trial": 29, "dateTime": 1664873601288, "trialdata": {"rt": 1145, "stimulus": "<p id='stroop-text' class='stroop-yellow'>CHAIR</p>", "response": "y", "stimulus-type": "unrelated", "word": "CHAIR", "color": "yellow", "correct_response": "y", "trial_id": "stroop-trial-1-unrelated-21", "trial_type": "html-keyboard-response", "trial_index": 29, "time_elapsed": 140569, "internal_node_id": "0.0-4.0-25.0"}}, {"uniqueid": "w44045294:a64065934", "current_trial": 30, "dateTime": 1664873603489, "trialdata": {"rt": 1698, "stimulus": "<p id='stroop-text' class='stroop-red'>RED</p>", "response": "r", "stimulus-type": "congruent", "word": "red", "color": "red", "correct_response": "r", "trial_id": "stroop-trial-1-congruent-9", "trial_type": "html-keyboard-response", "trial_index": 30, "time_elapsed": 142770, "internal_node_id": "0.0-4.0-26.0"}}, {"uniqueid": "w44045294:a64065934", "current_trial": 31, "dateTime": 1664873604568, "trialdata": {"rt": 576, "stimulus": "<p id='stroop-text' class='stroop-red'>RED</p>", "response": "r", "stimulus-type": "congruent", "word": "red", "color": "red", "correct_response": "r", "trial_id": "stroop-trial-1-congruent-16", "trial_type": "html-keyboard-response", "trial_index": 31, "time_elapsed": 143849, "internal_node_id": "0.0-4.0-27.0"}}, {"uniqueid": "w44045294:a64065934", "current_trial": 32, "dateTime": 1664873606360, "trialdata": {"rt": 1288, "stimulus": "<p id='stroop-text' class='stroop-blue'>DOG</p>", "response": "b", "stimulus-type": "unrelated", "word": "DOG", "color": "blue", "correct_response": "b", "trial_id": "stroop-trial-1-unrelated-4", "trial_type": "html-keyboard-response", "trial_index": 32, "time_elapsed": 145641, "internal_node_id": "0.0-4.0-28.0"}}, {"uniqueid": "w44045294:a64065934", "current_trial": 33, "dateTime": 1664873608177, "trialdata": {"rt": 1312, "stimulus": "<p id='stroop-text' class='stroop-green'>GREEN</p>", "response": "g", "stimulus-type": "congruent", "word": "green", "color": "green", "correct_response": "g", "trial_id": "stroop-trial-1-congruent-11", "trial_type": "html-keyboard-response", "trial_index": 33, "time_elapsed": 147457, "internal_node_id": "0.0-4.0-29.0"}}, {"uniqueid": "w44045294:a64065934", "current_trial": 34, "dateTime": 1664873609618, "trialdata": {"rt": 937, "stimulus": "<p id='stroop-text' class='stroop-yellow'>DOG</p>", "response": "y", "stimulus-type": "unrelated", "word": "DOG", "color": "yellow", "correct_response": "y", "trial_id": "stroop-trial-1-unrelated-12", "trial_type": "html-keyboard-response", "trial_index": 34, "time_elapsed": 148897, "internal_node_id": "0.0-4.0-30.0"}}, {"uniqueid": "w44045294:a64065934", "current_trial": 35, "dateTime": 1664873610840, "trialdata": {"rt": 720, "stimulus": "<p id='stroop-text' class='stroop-red'>YELLOW</p>", "response": "y", "stimulus-type": "incongruent", "word": "yellow", "color": "red", "correct_response": "r", "trial_id": "stroop-trial-1-incongruent-6", "trial_type": "html-keyboard-response", "trial_index": 35, "time_elapsed": 150121, "internal_node_id": "0.0-4.0-31.0"}}, {"uniqueid": "w44045294:a64065934", "current_trial": 36, "dateTime": 1664873612976, "trialdata": {"rt": 1633, "stimulus": "<p id='stroop-text' class='stroop-red'>BLUE</p>", "response": "r", "stimulus-type": "incongruent", "word": "blue", "color": "red", "correct_response": "r", "trial_id": "stroop-trial-1-incongruent-21", "trial_type": "html-keyboard-response", "trial_index": 36, "time_elapsed": 152257, "internal_node_id": "0.0-4.0-32.0"}}, {"uniqueid": "w44045294:a64065934", "current_trial": 37, "dateTime": 1664873614553, "trialdata": {"rt": 1073, "stimulus": "<p id='stroop-text' class='stroop-red'>GREEN</p>", "response": "r", "stimulus-type": "incongruent", "word": "green", "color": "red", "correct_response": "r", "trial_id": "stroop-trial-1-incongruent-3", "trial_type": "html-keyboard-response", "trial_index": 37, "time_elapsed": 153833, "internal_node_id": "0.0-4.0-33.0"}}, {"uniqueid": "w44045294:a64065934", "current_trial": 38, "dateTime": 1664873616536, "trialdata": {"rt": 1480, "stimulus": "<p id='stroop-text' class='stroop-yellow'>YELLOW</p>", "response": "y", "stimulus-type": "congruent", "word": "yellow", "color": "yellow", "correct_response": "y", "trial_id": "stroop-trial-1-congruent-10", "trial_type": "html-keyboard-response", "trial_index": 38, "time_elapsed": 155817, "internal_node_id": "0.0-4.0-34.0"}}, {"uniqueid": "w44045294:a64065934", "current_trial": 39, "dateTime": 1664873618616, "trialdata": {"rt": 1577, "stimulus": "<p id='stroop-text' class='stroop-blue'>STONE</p>", "response": "b", "stimulus-type": "unrelated", "word": "STONE", "color": "blue", "correct_response": "b", "trial_id": "stroop-trial-1-unrelated-22", "trial_type": "html-keyboard-response", "trial_index": 39, "time_elapsed": 157897, "internal_node_id": "0.0-4.0-35.0"}}, {"uniqueid": "w44045294:a64065934", "current_trial": 40, "dateTime": 1664873619978, "trialdata": {"rt": 857, "stimulus": "<p id='stroop-text' class='stroop-red'>GREEN</p>", "response": "r", "stimulus-type": "incongruent", "word": "green", "color": "red", "correct_response": "r", "trial_id": "stroop-trial-1-incongruent-1", "trial_type": "html-keyboard-response", "trial_index": 40, "time_elapsed": 159258, "internal_node_id": "0.0-4.0-36.0"}}, {"uniqueid": "w44045294:a64065934", "current_trial": 41, "dateTime": 1664873622098, "trialdata": {"rt": 1615, "stimulus": "<p id='stroop-text' class='stroop-blue'>BLUE</p>", "response": "b", "stimulus-type": "congruent", "word": "blue", "color": "blue", "correct_response": "b", "trial_id": "stroop-trial-1-congruent-1", "trial_type": "html-keyboard-response", "trial_index": 41, "time_elapsed": 161378, "internal_node_id": "0.0-4.0-37.0"}}, {"uniqueid": "w44045294:a64065934", "current_trial": 42, "dateTime": 1664873623858, "trialdata": {"rt": 1257, "stimulus": "<p id='stroop-text' class='stroop-green'>GREEN</p>", "response": "g", "stimulus-type": "congruent", "word": "green", "color": "green", "correct_response": "g", "trial_id": "stroop-trial-1-congruent-29", "trial_type": "html-keyboard-response", "trial_index": 42, "time_elapsed": 163138, "internal_node_id": "0.0-4.0-38.0"}}, {"uniqueid": "w44045294:a64065934", "current_trial": 43, "dateTime": 1664873626050, "trialdata": {"rt": 1689, "stimulus": "<p id='stroop-text' class='stroop-red'>RED</p>", "response": "r", "stimulus-type": "congruent", "word": "red", "color": "red", "correct_response": "r", "trial_id": "stroop-trial-1-congruent-26", "trial_type": "html-keyboard-response", "trial_index": 43, "time_elapsed": 165331, "internal_node_id": "0.0-4.0-39.0"}}, {"uniqueid": "w44045294:a64065934", "current_trial": 44, "dateTime": 1664873627754, "trialdata": {"rt": 1200, "stimulus": "<p id='stroop-text' class='stroop-yellow'>BLUE</p>", "response": "y", "stimulus-type": "incongruent", "word": "blue", "color": "yellow", "correct_response": "y", "trial_id": "stroop-trial-1-incongruent-28", "trial_type": "html-keyboard-response", "trial_index": 44, "time_elapsed": 167034, "internal_node_id": "0.0-4.0-40.0"}}, {"uniqueid": "w44045294:a64065934", "current_trial": 45, "dateTime": 1664873629778, "trialdata": {"rt": 1521, "stimulus": "<p id='stroop-text' class='stroop-blue'>GREEN</p>", "response": "b", "stimulus-type": "incongruent", "word": "green", "color": "blue", "correct_response": "b", "trial_id": "stroop-trial-1-incongruent-27", "trial_type": "html-keyboard-response", "trial_index": 45, "time_elapsed": 169058, "internal_node_id": "0.0-4.0-41.0"}}, {"uniqueid": "w44045294:a64065934", "current_trial": 46, "dateTime": 1664873631097, "trialdata": {"rt": 816, "stimulus": "<p id='stroop-text' class='stroop-red'>DOG</p>", "response": "r", "stimulus-type": "unrelated", "word": "DOG", "color": "red", "correct_response": "r", "trial_id": "stroop-trial-1-unrelated-25", "trial_type": "html-keyboard-response", "trial_index": 46, "time_elapsed": 170378, "internal_node_id": "0.0-4.0-42.0"}}, {"uniqueid": "w44045294:a64065934", "current_trial": 47, "dateTime": 1664873633041, "trialdata": {"rt": 1441, "stimulus": "<p id='stroop-text' class='stroop-yellow'>YELLOW</p>", "response": "y", "stimulus-type": "congruent", "word": "yellow", "color": "yellow", "correct_response": "y", "trial_id": "stroop-trial-1-congruent-30", "trial_type": "html-keyboard-response", "trial_index": 47, "time_elapsed": 172322, "internal_node_id": "0.0-4.0-43.0"}}, {"uniqueid": "w44045294:a64065934", "current_trial": 48, "dateTime": 1664873634113, "trialdata": {"rt": 569, "stimulus": "<p id='stroop-text' class='stroop-yellow'>RED</p>", "response": "y", "stimulus-type": "incongruent", "word": "red", "color": "yellow", "correct_response": "y", "trial_id": "stroop-trial-1-incongruent-4", "trial_type": "html-keyboard-response", "trial_index": 48, "time_elapsed": 173394, "internal_node_id": "0.0-4.0-44.0"}}, {"uniqueid": "w44045294:a64065934", "current_trial": 49, "dateTime": 1664873636474, "trialdata": {"rt": 1857, "stimulus": "<p id='stroop-text' class='stroop-red'>BLUE</p>", "response": "r", "stimulus-type": "incongruent", "word": "blue", "color": "red", "correct_response": "r", "trial_id": "stroop-trial-1-incongruent-22", "trial_type": "html-keyboard-response", "trial_index": 49, "time_elapsed": 175754, "internal_node_id": "0.0-4.0-45.0"}}, {"uniqueid": "w44045294:a64065934", "current_trial": 50, "dateTime": 1664873637753, "trialdata": {"rt": 777, "stimulus": "<p id='stroop-text' class='stroop-yellow'>BRIDGE</p>", "response": "y", "stimulus-type": "unrelated", "word": "BRIDGE", "color": "yellow", "correct_response": "y", "trial_id": "stroop-trial-1-unrelated-19", "trial_type": "html-keyboard-response", "trial_index": 50, "time_elapsed": 177034, "internal_node_id": "0.0-4.0-46.0"}}, {"uniqueid": "w44045294:a64065934", "current_trial": 51, "dateTime": 1664873640025, "trialdata": {"rt": 1769, "stimulus": "<p id='stroop-text' class='stroop-blue'>YELLOW</p>", "response": "b", "stimulus-type": "incongruent", "word": "yellow", "color": "blue", "correct_response": "b", "trial_id": "stroop-trial-1-incongruent-29", "trial_type": "html-keyboard-response", "trial_index": 51, "time_elapsed": 179306, "internal_node_id": "0.0-4.0-47.0"}}, {"uniqueid": "w44045294:a64065934", "current_trial": 52, "dateTime": 1664873641585, "trialdata": {"rt": 1056, "stimulus": "<p id='stroop-text' class='stroop-red'>RED</p>", "response": "r", "stimulus-type": "congruent", "word": "red", "color": "red", "correct_response": "r", "trial_id": "stroop-trial-1-congruent-13", "trial_type": "html-keyboard-response", "trial_index": 52, "time_elapsed": 180866, "internal_node_id": "0.0-4.0-48.0"}}, {"uniqueid": "w44045294:a64065934", "current_trial": 53, "dateTime": 1664873643625, "trialdata": {"rt": 1536, "stimulus": "<p id='stroop-text' class='stroop-blue'>GREEN</p>", "response": "b", "stimulus-type": "incongruent", "word": "green", "color": "blue", "correct_response": "b", "trial_id": "stroop-trial-1-incongruent-12", "trial_type": "html-keyboard-response", "trial_index": 53, "time_elapsed": 182906, "internal_node_id": "0.0-4.0-49.0"}}, {"uniqueid": "w44045294:a64065934", "current_trial": 54, "dateTime": 1664873644937, "trialdata": {"rt": 808, "stimulus": "<p id='stroop-text' class='stroop-blue'>FORK</p>", "response": "b", "stimulus-type": "unrelated", "word": "FORK", "color": "blue", "correct_response": "b", "trial_id": "stroop-trial-1-unrelated-1", "trial_type": "html-keyboard-response", "trial_index": 54, "time_elapsed": 184218, "internal_node_id": "0.0-4.0-50.0"}}, {"uniqueid": "w44045294:a64065934", "current_trial": 55, "dateTime": 1664873646273, "trialdata": {"rt": 831, "stimulus": "<p id='stroop-text' class='stroop-yellow'>YELLOW</p>", "response": "y", "stimulus-type": "congruent", "word": "yellow", "color": "yellow", "correct_response": "y", "trial_id": "stroop-trial-1-congruent-24", "trial_type": "html-keyboard-response", "trial_index": 55, "time_elapsed": 185554, "internal_node_id": "0.0-4.0-51.0"}}, {"uniqueid": "w44045294:a64065934", "current_trial": 56, "dateTime": 1664873647729, "trialdata": {"rt": 954, "stimulus": "<p id='stroop-text' class='stroop-red'>BRAIN</p>", "response": "r", "stimulus-type": "unrelated", "word": "BRAIN", "color": "red", "correct_response": "r", "trial_id": "stroop-trial-1-unrelated-26", "trial_type": "html-keyboard-response", "trial_index": 56, "time_elapsed": 187010, "internal_node_id": "0.0-4.0-52.0"}}, {"uniqueid": "w44045294:a64065934", "current_trial": 57, "dateTime": 1664873649225, "trialdata": {"rt": 992, "stimulus": "<p id='stroop-text' class='stroop-yellow'>BRIDGE</p>", "response": "y", "stimulus-type": "unrelated", "word": "BRIDGE", "color": "yellow", "correct_response": "y", "trial_id": "stroop-trial-1-unrelated-16", "trial_type": "html-keyboard-response", "trial_index": 57, "time_elapsed": 188505, "internal_node_id": "0.0-4.0-53.0"}}, {"uniqueid": "w44045294:a64065934", "current_trial": 58, "dateTime": 1664873650433, "trialdata": {"rt": 705, "stimulus": "<p id='stroop-text' class='stroop-blue'>BLUE</p>", "response": "b", "stimulus-type": "congruent", "word": "blue", "color": "blue", "correct_response": "b", "trial_id": "stroop-trial-1-congruent-22", "trial_type": "html-keyboard-response", "trial_index": 58, "time_elapsed": 189713, "internal_node_id": "0.0-4.0-54.0"}}, {"uniqueid": "w44045294:a64065934", "current_trial": 59, "dateTime": 1664873651457, "trialdata": {"rt": 521, "stimulus": "<p id='stroop-text' class='stroop-green'>YELLOW</p>", "response": "g", "stimulus-type": "incongruent", "word": "yellow", "color": "green", "correct_response": "g", "trial_id": "stroop-trial-1-incongruent-20", "trial_type": "html-keyboard-response", "trial_index": 59, "time_elapsed": 190737, "internal_node_id": "0.0-4.0-55.0"}}, {"uniqueid": "w44045294:a64065934", "current_trial": 60, "dateTime": 1664873652849, "trialdata": {"rt": 889, "stimulus": "<p id='stroop-text' class='stroop-red'>RED</p>", "response": "r", "stimulus-type": "congruent", "word": "red", "color": "red", "correct_response": "r", "trial_id": "stroop-trial-1-congruent-2", "trial_type": "html-keyboard-response", "trial_index": 60, "time_elapsed": 192129, "internal_node_id": "0.0-4.0-56.0"}}, {"uniqueid": "w44045294:a64065934", "current_trial": 61, "dateTime": 1664873654273, "trialdata": {"rt": 921, "stimulus": "<p id='stroop-text' class='stroop-yellow'>BLUE</p>", "response": "y", "stimulus-type": "incongruent", "word": "blue", "color": "yellow", "correct_response": "y", "trial_id": "stroop-trial-1-incongruent-15", "trial_type": "html-keyboard-response", "trial_index": 61, "time_elapsed": 193553, "internal_node_id": "0.0-4.0-57.0"}}, {"uniqueid": "w44045294:a64065934", "current_trial": 62, "dateTime": 1664873655505, "trialdata": {"rt": 729, "stimulus": "<p id='stroop-text' class='stroop-red'>RED</p>", "response": "r", "stimulus-type": "congruent", "word": "red", "color": "red", "correct_response": "r", "trial_id": "stroop-trial-1-congruent-5", "trial_type": "html-keyboard-response", "trial_index": 62, "time_elapsed": 194785, "internal_node_id": "0.0-4.0-58.0"}}, {"uniqueid": "w44045294:a64065934", "current_trial": 63, "dateTime": 1664873657217, "trialdata": {"rt": 1208, "stimulus": "<p id='stroop-text' class='stroop-blue'>GREEN</p>", "response": "g", "stimulus-type": "incongruent", "word": "green", "color": "blue", "correct_response": "b", "trial_id": "stroop-trial-1-incongruent-18", "trial_type": "html-keyboard-response", "trial_index": 63, "time_elapsed": 196497, "internal_node_id": "0.0-4.0-59.0"}}, {"uniqueid": "w44045294:a64065934", "current_trial": 64, "dateTime": 1664873659050, "trialdata": {"rt": 1330, "stimulus": "<p id='stroop-text' class='stroop-red'>BRIDGE</p>", "response": "y", "stimulus-type": "unrelated", "word": "BRIDGE", "color": "red", "correct_response": "r", "trial_id": "stroop-trial-1-unrelated-28", "trial_type": "html-keyboard-response", "trial_index": 64, "time_elapsed": 198330, "internal_node_id": "0.0-4.0-60.0"}}, {"uniqueid": "w44045294:a64065934", "current_trial": 65, "dateTime": 1664873660673, "trialdata": {"rt": 1120, "stimulus": "<p id='stroop-text' class='stroop-red'>RED</p>", "response": "r", "stimulus-type": "congruent", "word": "red", "color": "red", "correct_response": "r", "trial_id": "stroop-trial-1-congruent-23", "trial_type": "html-keyboard-response", "trial_index": 65, "time_elapsed": 199954, "internal_node_id": "0.0-4.0-61.0"}}, {"uniqueid": "w44045294:a64065934", "current_trial": 66, "dateTime": 1664873661777, "trialdata": {"rt": 600, "stimulus": "<p id='stroop-text' class='stroop-red'>BLUE</p>", "response": "r", "stimulus-type": "incongruent", "word": "blue", "color": "red", "correct_response": "r", "trial_id": "stroop-trial-1-incongruent-8", "trial_type": "html-keyboard-response", "trial_index": 66, "time_elapsed": 201057, "internal_node_id": "0.0-4.0-62.0"}}, {"uniqueid": "w44045294:a64065934", "current_trial": 67, "dateTime": 1664873664105, "trialdata": {"rt": 1825, "stimulus": "<p id='stroop-text' class='stroop-green'>BLUE</p>", "response": "g", "stimulus-type": "incongruent", "word": "blue", "color": "green", "correct_response": "g", "trial_id": "stroop-trial-1-incongruent-13", "trial_type": "html-keyboard-response", "trial_index": 67, "time_elapsed": 203385, "internal_node_id": "0.0-4.0-63.0"}}, {"uniqueid": "w44045294:a64065934", "current_trial": 68, "dateTime": 1664873665464, "trialdata": {"rt": 855, "stimulus": "<p id='stroop-text' class='stroop-yellow'>YELLOW</p>", "response": "y", "stimulus-type": "congruent", "word": "yellow", "color": "yellow", "correct_response": "y", "trial_id": "stroop-trial-1-congruent-14", "trial_type": "html-keyboard-response", "trial_index": 68, "time_elapsed": 204745, "internal_node_id": "0.0-4.0-64.0"}}, {"uniqueid": "w44045294:a64065934", "current_trial": 69, "dateTime": 1664873667312, "trialdata": {"rt": 1345, "stimulus": "<p id='stroop-text' class='stroop-blue'>SHIP</p>", "response": "b", "stimulus-type": "unrelated", "word": "SHIP", "color": "blue", "correct_response": "b", "trial_id": "stroop-trial-1-unrelated-27", "trial_type": "html-keyboard-response", "trial_index": 69, "time_elapsed": 206593, "internal_node_id": "0.0-4.0-65.0"}}, {"uniqueid": "w44045294:a64065934", "current_trial": 70, "dateTime": 1664873668456, "trialdata": {"rt": 641, "stimulus": "<p id='stroop-text' class='stroop-red'>RED</p>", "response": "r", "stimulus-type": "congruent", "word": "red", "color": "red", "correct_response": "r", "trial_id": "stroop-trial-1-congruent-25", "trial_type": "html-keyboard-response", "trial_index": 70, "time_elapsed": 207737, "internal_node_id": "0.0-4.0-66.0"}}, {"uniqueid": "w44045294:a64065934", "current_trial": 71, "dateTime": 1664873670129, "trialdata": {"rt": 1169, "stimulus": "<p id='stroop-text' class='stroop-yellow'>YELLOW</p>", "response": "y", "stimulus-type": "congruent", "word": "yellow", "color": "yellow", "correct_response": "y", "trial_id": "stroop-trial-1-congruent-28", "trial_type": "html-keyboard-response", "trial_index": 71, "time_elapsed": 209409, "internal_node_id": "0.0-4.0-67.0"}}, {"uniqueid": "w44045294:a64065934", "current_trial": 72, "dateTime": 1664873671208, "trialdata": {"rt": 577, "stimulus": "<p id='stroop-text' class='stroop-yellow'>FORK</p>", "response": "y", "stimulus-type": "unrelated", "word": "FORK", "color": "yellow", "correct_response": "y", "trial_id": "stroop-trial-1-unrelated-14", "trial_type": "html-keyboard-response", "trial_index": 72, "time_elapsed": 210489, "internal_node_id": "0.0-4.0-68.0"}}, {"uniqueid": "w44045294:a64065934", "current_trial": 73, "dateTime": 1664873673808, "trialdata": {"rt": 2096, "stimulus": "<p id='stroop-text' class='stroop-blue'>DOG</p>", "response": "b", "stimulus-type": "unrelated", "word": "DOG", "color": "blue", "correct_response": "b", "trial_id": "stroop-trial-1-unrelated-2", "trial_type": "html-keyboard-response", "trial_index": 73, "time_elapsed": 213089, "internal_node_id": "0.0-4.0-69.0"}}, {"uniqueid": "w44045294:a64065934", "current_trial": 74, "dateTime": 1664873675352, "trialdata": {"rt": 1040, "stimulus": "<p id='stroop-text' class='stroop-green'>CHAIR</p>", "response": "g", "stimulus-type": "unrelated", "word": "CHAIR", "color": "green", "correct_response": "g", "trial_id": "stroop-trial-1-unrelated-18", "trial_type": "html-keyboard-response", "trial_index": 74, "time_elapsed": 214633, "internal_node_id": "0.0-4.0-70.0"}}, {"uniqueid": "w44045294:a64065934", "current_trial": 75, "dateTime": 1664873676496, "trialdata": {"rt": 640, "stimulus": "<p id='stroop-text' class='stroop-yellow'>YELLOW</p>", "response": "y", "stimulus-type": "congruent", "word": "yellow", "color": "yellow", "correct_response": "y", "trial_id": "stroop-trial-1-congruent-17", "trial_type": "html-keyboard-response", "trial_index": 75, "time_elapsed": 215777, "internal_node_id": "0.0-4.0-71.0"}}, {"uniqueid": "w44045294:a64065934", "current_trial": 76, "dateTime": 1664873677456, "trialdata": {"rt": 457, "stimulus": "<p id='stroop-text' class='stroop-yellow'>YELLOW</p>", "response": "y", "stimulus-type": "congruent", "word": "yellow", "color": "yellow", "correct_response": "y", "trial_id": "stroop-trial-1-congruent-19", "trial_type": "html-keyboard-response", "trial_index": 76, "time_elapsed": 216737, "internal_node_id": "0.0-4.0-72.0"}}, {"uniqueid": "w44045294:a64065934", "current_trial": 77, "dateTime": 1664873679872, "trialdata": {"rt": 1913, "stimulus": "<p id='stroop-text' class='stroop-blue'>RED</p>", "response": "b", "stimulus-type": "incongruent", "word": "red", "color": "blue", "correct_response": "b", "trial_id": "stroop-trial-1-incongruent-23", "trial_type": "html-keyboard-response", "trial_index": 77, "time_elapsed": 219153, "internal_node_id": "0.0-4.0-73.0"}}, {"uniqueid": "w44045294:a64065934", "current_trial": 78, "dateTime": 1664873681345, "trialdata": {"rt": 968, "stimulus": "<p id='stroop-text' class='stroop-green'>BLUE</p>", "response": "g", "stimulus-type": "incongruent", "word": "blue", "color": "green", "correct_response": "g", "trial_id": "stroop-trial-1-incongruent-26", "trial_type": "html-keyboard-response", "trial_index": 78, "time_elapsed": 220626, "internal_node_id": "0.0-4.0-74.0"}}, {"uniqueid": "w44045294:a64065934", "current_trial": 79, "dateTime": 1664873682345, "trialdata": {"rt": 496, "stimulus": "<p id='stroop-text' class='stroop-green'>RED</p>", "response": "g", "stimulus-type": "incongruent", "word": "red", "color": "green", "correct_response": "g", "trial_id": "stroop-trial-1-incongruent-24", "trial_type": "html-keyboard-response", "trial_index": 79, "time_elapsed": 221625, "internal_node_id": "0.0-4.0-75.0"}}, {"uniqueid": "w44045294:a64065934", "current_trial": 80, "dateTime": 1664873683753, "trialdata": {"rt": 905, "stimulus": "<p id='stroop-text' class='stroop-red'>SHIP</p>", "response": "r", "stimulus-type": "unrelated", "word": "SHIP", "color": "red", "correct_response": "r", "trial_id": "stroop-trial-1-unrelated-3", "trial_type": "html-keyboard-response", "trial_index": 80, "time_elapsed": 223033, "internal_node_id": "0.0-4.0-76.0"}}, {"uniqueid": "w44045294:a64065934", "current_trial": 81, "dateTime": 1664873686385, "trialdata": {"rt": 2129, "stimulus": "<p id='stroop-text' class='stroop-blue'>BRIDGE</p>", "response": "b", "stimulus-type": "unrelated", "word": "BRIDGE", "color": "blue", "correct_response": "b", "trial_id": "stroop-trial-1-unrelated-15", "trial_type": "html-keyboard-response", "trial_index": 81, "time_elapsed": 225665, "internal_node_id": "0.0-4.0-77.0"}}, {"uniqueid": "w44045294:a64065934", "current_trial": 82, "dateTime": 1664873687657, "trialdata": {"rt": 768, "stimulus": "<p id='stroop-text' class='stroop-green'>BOTTLE</p>", "response": "y", "stimulus-type": "unrelated", "word": "BOTTLE", "color": "green", "correct_response": "g", "trial_id": "stroop-trial-1-unrelated-7", "trial_type": "html-keyboard-response", "trial_index": 82, "time_elapsed": 226937, "internal_node_id": "0.0-4.0-78.0"}}, {"uniqueid": "w44045294:a64065934", "current_trial": 83, "dateTime": 1664873689609, "trialdata": {"rt": 1449, "stimulus": "<p id='stroop-text' class='stroop-yellow'>YELLOW</p>", "response": "y", "stimulus-type": "congruent", "word": "yellow", "color": "yellow", "correct_response": "y", "trial_id": "stroop-trial-1-congruent-8", "trial_type": "html-keyboard-response", "trial_index": 83, "time_elapsed": 228890, "internal_node_id": "0.0-4.0-79.0"}}, {"uniqueid": "w44045294:a64065934", "current_trial": 84, "dateTime": 1664873690577, "trialdata": {"rt": 464, "stimulus": "<p id='stroop-text' class='stroop-yellow'>BOAT</p>", "response": "y", "stimulus-type": "unrelated", "word": "BOAT", "color": "yellow", "correct_response": "y", "trial_id": "stroop-trial-1-unrelated-11", "trial_type": "html-keyboard-response", "trial_index": 84, "time_elapsed": 229857, "internal_node_id": "0.0-4.0-80.0"}}, {"uniqueid": "w44045294:a64065934", "current_trial": 85, "dateTime": 1664873691505, "trialdata": {"rt": 425, "stimulus": "<p id='stroop-text' class='stroop-yellow'>FORK</p>", "response": "y", "stimulus-type": "unrelated", "word": "FORK", "color": "yellow", "correct_response": "y", "trial_id": "stroop-trial-1-unrelated-10", "trial_type": "html-keyboard-response", "trial_index": 85, "time_elapsed": 230786, "internal_node_id": "0.0-4.0-81.0"}}, {"uniqueid": "w44045294:a64065934", "current_trial": 86, "dateTime": 1664873692720, "trialdata": {"rt": 712, "stimulus": "<p id='stroop-text' class='stroop-red'>RED</p>", "response": "r", "stimulus-type": "congruent", "word": "red", "color": "red", "correct_response": "r", "trial_id": "stroop-trial-1-congruent-12", "trial_type": "html-keyboard-response", "trial_index": 86, "time_elapsed": 232001, "internal_node_id": "0.0-4.0-82.0"}}, {"uniqueid": "w44045294:a64065934", "current_trial": 87, "dateTime": 1664873694553, "trialdata": {"rt": 1329, "stimulus": "<p id='stroop-text' class='stroop-blue'>GREEN</p>", "response": "b", "stimulus-type": "incongruent", "word": "green", "color": "blue", "correct_response": "b", "trial_id": "stroop-trial-1-incongruent-7", "trial_type": "html-keyboard-response", "trial_index": 87, "time_elapsed": 233833, "internal_node_id": "0.0-4.0-83.0"}}, {"uniqueid": "w44045294:a64065934", "current_trial": 88, "dateTime": 1664873695536, "trialdata": {"rt": 481, "stimulus": "<p id='stroop-text' class='stroop-blue'>BLUE</p>", "response": "b", "stimulus-type": "congruent", "word": "blue", "color": "blue", "correct_response": "b", "trial_id": "stroop-trial-1-congruent-20", "trial_type": "html-keyboard-response", "trial_index": 88, "time_elapsed": 234817, "internal_node_id": "0.0-4.0-84.0"}}, {"uniqueid": "w44045294:a64065934", "current_trial": 89, "dateTime": 1664873696920, "trialdata": {"rt": 881, "stimulus": "<p id='stroop-text' class='stroop-green'>YELLOW</p>", "response": "g", "stimulus-type": "incongruent", "word": "yellow", "color": "green", "correct_response": "g", "trial_id": "stroop-trial-1-incongruent-16", "trial_type": "html-keyboard-response", "trial_index": 89, "time_elapsed": 236201, "internal_node_id": "0.0-4.0-85.0"}}, {"uniqueid": "w44045294:a64065934", "current_trial": 90, "dateTime": 1664873698256, "trialdata": {"rt": 832, "stimulus": "<p id='stroop-text' class='stroop-yellow'>BRAIN</p>", "response": "y", "stimulus-type": "unrelated", "word": "BRAIN", "color": "yellow", "correct_response": "y", "trial_id": "stroop-trial-1-unrelated-24", "trial_type": "html-keyboard-response", "trial_index": 90, "time_elapsed": 237537, "internal_node_id": "0.0-4.0-86.0"}}, {"uniqueid": "w44045294:a64065934", "current_trial": 91, "dateTime": 1664873700544, "trialdata": {"rt": 1785, "stimulus": "<p id='stroop-text' class='stroop-red'>GREEN</p>", "response": "r", "stimulus-type": "incongruent", "word": "green", "color": "red", "correct_response": "r", "trial_id": "stroop-trial-1-incongruent-2", "trial_type": "html-keyboard-response", "trial_index": 91, "time_elapsed": 239825, "internal_node_id": "0.0-4.0-87.0"}}, {"uniqueid": "w44045294:a64065934", "current_trial": 92, "dateTime": 1664873701905, "trialdata": {"rt": 857, "stimulus": "<p id='stroop-text' class='stroop-green'>WINDOW</p>", "response": "g", "stimulus-type": "unrelated", "word": "WINDOW", "color": "green", "correct_response": "g", "trial_id": "stroop-trial-1-unrelated-17", "trial_type": "html-keyboard-response", "trial_index": 92, "time_elapsed": 241185, "internal_node_id": "0.0-4.0-88.0"}}, {"uniqueid": "w44045294:a64065934", "current_trial": 93, "dateTime": 1664873702832, "trialdata": {"rt": 424, "stimulus": "<p id='stroop-text' class='stroop-green'>BLUE</p>", "response": "g", "stimulus-type": "incongruent", "word": "blue", "color": "green", "correct_response": "g", "trial_id": "stroop-trial-1-incongruent-19", "trial_type": "html-keyboard-response", "trial_index": 93, "time_elapsed": 242113, "internal_node_id": "0.0-4.0-89.0"}}, {"uniqueid": "w44045294:a64065934", "current_trial": 94, "dateTime": 1664873720944, "trialdata": {"rt": 17606, "stimulus": "  <h1> End of block! </h1>\n\n  You have reached the end of the block 1/5. If you need a short break, feel free to take one now before moving on.\n\n  <br><br>\n  In the next block, you will complete another 90 rounds of this game.\n\n  <br><br>\n  <div style='text-align: center;'>Press <code>space</code> to begin.</div>\n  <br><br>\n<div style='text-align: center;'>(If the experiment doesn't continue, try clicking on the text and then pressing <code>space</code>.)</div>", "response": " ", "trial_id": "stroop_1_ready_2", "trial_type": "html-keyboard-response", "trial_index": 94, "time_elapsed": 260225, "internal_node_id": "0.0-5.0"}}, {"uniqueid": "w44045294:a64065934", "current_trial": 95, "dateTime": 1664873722760, "trialdata": {"rt": 1810, "stimulus": "<p id='stroop-text' class='stroop-blue'>BRAIN</p>", "response": "b", "stimulus-type": "unrelated", "word": "BRAIN", "color": "blue", "correct_response": "b", "trial_id": "stroop-trial-1-unrelated-14", "trial_type": "html-keyboard-response", "trial_index": 95, "time_elapsed": 262040, "internal_node_id": "0.0-6.0-0.0"}}, {"uniqueid": "w44045294:a64065934", "current_trial": 96, "dateTime": 1664873723952, "trialdata": {"rt": 689, "stimulus": "<p id='stroop-text' class='stroop-blue'>BRAIN</p>", "response": "b", "stimulus-type": "unrelated", "word": "BRAIN", "color": "blue", "correct_response": "b", "trial_id": "stroop-trial-1-unrelated-8", "trial_type": "html-keyboard-response", "trial_index": 96, "time_elapsed": 263232, "internal_node_id": "0.0-6.0-1.0"}}, {"uniqueid": "w44045294:a64065934", "current_trial": 97, "dateTime": 1664873727288, "trialdata": {"rt": 2833, "stimulus": "<p id='stroop-text' class='stroop-blue'>RED</p>", "response": "b", "stimulus-type": "incongruent", "word": "red", "color": "blue", "correct_response": "b", "trial_id": "stroop-trial-1-incongruent-2", "trial_type": "html-keyboard-response", "trial_index": 97, "time_elapsed": 266568, "internal_node_id": "0.0-6.0-2.0"}}, {"uniqueid": "w44045294:a64065934", "current_trial": 98, "dateTime": 1664873728432, "trialdata": {"rt": 640, "stimulus": "<p id='stroop-text' class='stroop-blue'>BOTTLE</p>", "response": "b", "stimulus-type": "unrelated", "word": "BOTTLE", "color": "blue", "correct_response": "b", "trial_id": "stroop-trial-1-unrelated-17", "trial_type": "html-keyboard-response", "trial_index": 98, "time_elapsed": 267712, "internal_node_id": "0.0-6.0-3.0"}}, {"uniqueid": "w44045294:a64065934", "current_trial": 99, "dateTime": 1664873729487, "trialdata": {"rt": 550, "stimulus": "<p id='stroop-text' class='stroop-blue'>GREEN</p>", "response": "b", "stimulus-type": "incongruent", "word": "green", "color": "blue", "correct_response": "b", "trial_id": "stroop-trial-1-incongruent-8", "trial_type": "html-keyboard-response", "trial_index": 99, "time_elapsed": 268768, "internal_node_id": "0.0-6.0-4.0"}}, {"uniqueid": "w44045294:a64065934", "current_trial": 100, "dateTime": 1664873730448, "trialdata": {"rt": 456, "stimulus": "<p id='stroop-text' class='stroop-blue'>YELLOW</p>", "response": "b", "stimulus-type": "incongruent", "word": "yellow", "color": "blue", "correct_response": "b", "trial_id": "stroop-trial-1-incongruent-25", "trial_type": "html-keyboard-response", "trial_index": 100, "time_elapsed": 269728, "internal_node_id": "0.0-6.0-5.0"}}, {"uniqueid": "w44045294:a64065934", "current_trial": 101, "dateTime": 1664873732016, "trialdata": {"rt": 1065, "stimulus": "<p id='stroop-text' class='stroop-yellow'>RED</p>", "response": "y", "stimulus-type": "incongruent", "word": "red", "color": "yellow", "correct_response": "y", "trial_id": "stroop-trial-1-incongruent-30", "trial_type": "html-keyboard-response", "trial_index": 101, "time_elapsed": 271296, "internal_node_id": "0.0-6.0-6.0"}}, {"uniqueid": "w44045294:a64065934", "current_trial": 102, "dateTime": 1664873733103, "trialdata": {"rt": 584, "stimulus": "<p id='stroop-text' class='stroop-yellow'>SHIP</p>", "response": "y", "stimulus-type": "unrelated", "word": "SHIP", "color": "yellow", "correct_response": "y", "trial_id": "stroop-trial-1-unrelated-25", "trial_type": "html-keyboard-response", "trial_index": 102, "time_elapsed": 272384, "internal_node_id": "0.0-6.0-7.0"}}, {"uniqueid": "w44045294:a64065934", "current_trial": 103, "dateTime": 1664873734455, "trialdata": {"rt": 847, "stimulus": "<p id='stroop-text' class='stroop-blue'>RED</p>", "response": "b", "stimulus-type": "incongruent", "word": "red", "color": "blue", "correct_response": "b", "trial_id": "stroop-trial-1-incongruent-9", "trial_type": "html-keyboard-response", "trial_index": 103, "time_elapsed": 273736, "internal_node_id": "0.0-6.0-8.0"}}, {"uniqueid": "w44045294:a64065934", "current_trial": 104, "dateTime": 1664873735551, "trialdata": {"rt": 592, "stimulus": "<p id='stroop-text' class='stroop-red'>WINDOW</p>", "response": "r", "stimulus-type": "unrelated", "word": "WINDOW", "color": "red", "correct_response": "r", "trial_id": "stroop-trial-1-unrelated-27", "trial_type": "html-keyboard-response", "trial_index": 104, "time_elapsed": 274832, "internal_node_id": "0.0-6.0-9.0"}}, {"uniqueid": "w44045294:a64065934", "current_trial": 105, "dateTime": 1664873736503, "trialdata": {"rt": 449, "stimulus": "<p id='stroop-text' class='stroop-green'>GREEN</p>", "response": "g", "stimulus-type": "congruent", "word": "green", "color": "green", "correct_response": "g", "trial_id": "stroop-trial-1-congruent-5", "trial_type": "html-keyboard-response", "trial_index": 105, "time_elapsed": 275784, "internal_node_id": "0.0-6.0-10.0"}}, {"uniqueid": "w44045294:a64065934", "current_trial": 106, "dateTime": 1664873737751, "trialdata": {"rt": 745, "stimulus": "<p id='stroop-text' class='stroop-yellow'>BRIDGE</p>", "response": "y", "stimulus-type": "unrelated", "word": "BRIDGE", "color": "yellow", "correct_response": "y", "trial_id": "stroop-trial-1-unrelated-18", "trial_type": "html-keyboard-response", "trial_index": 106, "time_elapsed": 277032, "internal_node_id": "0.0-6.0-11.0"}}, {"uniqueid": "w44045294:a64065934", "current_trial": 107, "dateTime": 1664873740135, "trialdata": {"rt": 1881, "stimulus": "<p id='stroop-text' class='stroop-blue'>GREEN</p>", "response": "b", "stimulus-type": "incongruent", "word": "green", "color": "blue", "correct_response": "b", "trial_id": "stroop-trial-1-incongruent-13", "trial_type": "html-keyboard-response", "trial_index": 107, "time_elapsed": 279416, "internal_node_id": "0.0-6.0-12.0"}}, {"uniqueid": "w44045294:a64065934", "current_trial": 108, "dateTime": 1664873741257, "trialdata": {"rt": 615, "stimulus": "<p id='stroop-text' class='stroop-red'>RED</p>", "response": "r", "stimulus-type": "congruent", "word": "red", "color": "red", "correct_response": "r", "trial_id": "stroop-trial-1-congruent-18", "trial_type": "html-keyboard-response", "trial_index": 108, "time_elapsed": 280537, "internal_node_id": "0.0-6.0-13.0"}}, {"uniqueid": "w44045294:a64065934", "current_trial": 109, "dateTime": 1664873742265, "trialdata": {"rt": 505, "stimulus": "<p id='stroop-text' class='stroop-red'>RED</p>", "response": "r", "stimulus-type": "congruent", "word": "red", "color": "red", "correct_response": "r", "trial_id": "stroop-trial-1-congruent-14", "trial_type": "html-keyboard-response", "trial_index": 109, "time_elapsed": 281546, "internal_node_id": "0.0-6.0-14.0"}}, {"uniqueid": "w44045294:a64065934", "current_trial": 110, "dateTime": 1664873743993, "trialdata": {"rt": 1225, "stimulus": "<p id='stroop-text' class='stroop-blue'>MONKEY</p>", "response": "b", "stimulus-type": "unrelated", "word": "MONKEY", "color": "blue", "correct_response": "b", "trial_id": "stroop-trial-1-unrelated-21", "trial_type": "html-keyboard-response", "trial_index": 110, "time_elapsed": 283273, "internal_node_id": "0.0-6.0-15.0"}}, {"uniqueid": "w44045294:a64065934", "current_trial": 111, "dateTime": 1664873745393, "trialdata": {"rt": 895, "stimulus": "<p id='stroop-text' class='stroop-red'>BRAIN</p>", "response": "r", "stimulus-type": "unrelated", "word": "BRAIN", "color": "red", "correct_response": "r", "trial_id": "stroop-trial-1-unrelated-19", "trial_type": "html-keyboard-response", "trial_index": 111, "time_elapsed": 284673, "internal_node_id": "0.0-6.0-16.0"}}, {"uniqueid": "w44045294:a64065934", "current_trial": 112, "dateTime": 1664873746569, "trialdata": {"rt": 672, "stimulus": "<p id='stroop-text' class='stroop-green'>GREEN</p>", "response": "g", "stimulus-type": "congruent", "word": "green", "color": "green", "correct_response": "g", "trial_id": "stroop-trial-1-congruent-25", "trial_type": "html-keyboard-response", "trial_index": 112, "time_elapsed": 285849, "internal_node_id": "0.0-6.0-17.0"}}, {"uniqueid": "w44045294:a64065934", "current_trial": 113, "dateTime": 1664873748625, "trialdata": {"rt": 1552, "stimulus": "<p id='stroop-text' class='stroop-blue'>GREEN</p>", "response": "b", "stimulus-type": "incongruent", "word": "green", "color": "blue", "correct_response": "b", "trial_id": "stroop-trial-1-incongruent-20", "trial_type": "html-keyboard-response", "trial_index": 113, "time_elapsed": 287905, "internal_node_id": "0.0-6.0-18.0"}}, {"uniqueid": "w44045294:a64065934", "current_trial": 114, "dateTime": 1664873749673, "trialdata": {"rt": 544, "stimulus": "<p id='stroop-text' class='stroop-blue'>BRAIN</p>", "response": "b", "stimulus-type": "unrelated", "word": "BRAIN", "color": "blue", "correct_response": "b", "trial_id": "stroop-trial-1-unrelated-22", "trial_type": "html-keyboard-response", "trial_index": 114, "time_elapsed": 288953, "internal_node_id": "0.0-6.0-19.0"}}, {"uniqueid": "w44045294:a64065934", "current_trial": 115, "dateTime": 1664873750673, "trialdata": {"rt": 496, "stimulus": "<p id='stroop-text' class='stroop-blue'>FORK</p>", "response": "b", "stimulus-type": "unrelated", "word": "FORK", "color": "blue", "correct_response": "b", "trial_id": "stroop-trial-1-unrelated-10", "trial_type": "html-keyboard-response", "trial_index": 115, "time_elapsed": 289953, "internal_node_id": "0.0-6.0-20.0"}}, {"uniqueid": "w44045294:a64065934", "current_trial": 116, "dateTime": 1664873751849, "trialdata": {"rt": 672, "stimulus": "<p id='stroop-text' class='stroop-yellow'>YELLOW</p>", "response": "y", "stimulus-type": "congruent", "word": "yellow", "color": "yellow", "correct_response": "y", "trial_id": "stroop-trial-1-congruent-28", "trial_type": "html-keyboard-response", "trial_index": 116, "time_elapsed": 291129, "internal_node_id": "0.0-6.0-21.0"}}, {"uniqueid": "w44045294:a64065934", "current_trial": 117, "dateTime": 1664873753577, "trialdata": {"rt": 1224, "stimulus": "<p id='stroop-text' class='stroop-blue'>YELLOW</p>", "response": "b", "stimulus-type": "incongruent", "word": "yellow", "color": "blue", "correct_response": "b", "trial_id": "stroop-trial-1-incongruent-19", "trial_type": "html-keyboard-response", "trial_index": 117, "time_elapsed": 292857, "internal_node_id": "0.0-6.0-22.0"}}, {"uniqueid": "w44045294:a64065934", "current_trial": 118, "dateTime": 1664873755026, "trialdata": {"rt": 944, "stimulus": "<p id='stroop-text' class='stroop-green'>RED</p>", "response": "g", "stimulus-type": "incongruent", "word": "red", "color": "green", "correct_response": "g", "trial_id": "stroop-trial-1-incongruent-10", "trial_type": "html-keyboard-response", "trial_index": 118, "time_elapsed": 294305, "internal_node_id": "0.0-6.0-23.0"}}, {"uniqueid": "w44045294:a64065934", "current_trial": 119, "dateTime": 1664873756360, "trialdata": {"rt": 831, "stimulus": "<p id='stroop-text' class='stroop-yellow'>BLUE</p>", "response": "y", "stimulus-type": "incongruent", "word": "blue", "color": "yellow", "correct_response": "y", "trial_id": "stroop-trial-1-incongruent-12", "trial_type": "html-keyboard-response", "trial_index": 119, "time_elapsed": 295641, "internal_node_id": "0.0-6.0-24.0"}}, {"uniqueid": "w44045294:a64065934", "current_trial": 120, "dateTime": 1664873757784, "trialdata": {"rt": 920, "stimulus": "<p id='stroop-text' class='stroop-green'>GREEN</p>", "response": "g", "stimulus-type": "congruent", "word": "green", "color": "green", "correct_response": "g", "trial_id": "stroop-trial-1-congruent-12", "trial_type": "html-keyboard-response", "trial_index": 120, "time_elapsed": 297065, "internal_node_id": "0.0-6.0-25.0"}}, {"uniqueid": "w44045294:a64065934", "current_trial": 121, "dateTime": 1664873759736, "trialdata": {"rt": 1448, "stimulus": "<p id='stroop-text' class='stroop-yellow'>CHAIR</p>", "response": "y", "stimulus-type": "unrelated", "word": "CHAIR", "color": "yellow", "correct_response": "y", "trial_id": "stroop-trial-1-unrelated-30", "trial_type": "html-keyboard-response", "trial_index": 121, "time_elapsed": 299017, "internal_node_id": "0.0-6.0-26.0"}}, {"uniqueid": "w44045294:a64065934", "current_trial": 122, "dateTime": 1664873762208, "trialdata": {"rt": 1967, "stimulus": "<p id='stroop-text' class='stroop-blue'>BLUE</p>", "response": "b", "stimulus-type": "congruent", "word": "blue", "color": "blue", "correct_response": "b", "trial_id": "stroop-trial-1-congruent-20", "trial_type": "html-keyboard-response", "trial_index": 122, "time_elapsed": 301489, "internal_node_id": "0.0-6.0-27.0"}}, {"uniqueid": "w44045294:a64065934", "current_trial": 123, "dateTime": 1664873763376, "trialdata": {"rt": 664, "stimulus": "<p id='stroop-text' class='stroop-red'>YELLOW</p>", "response": "r", "stimulus-type": "incongruent", "word": "yellow", "color": "red", "correct_response": "r", "trial_id": "stroop-trial-1-incongruent-26", "trial_type": "html-keyboard-response", "trial_index": 123, "time_elapsed": 302657, "internal_node_id": "0.0-6.0-28.0"}}, {"uniqueid": "w44045294:a64065934", "current_trial": 124, "dateTime": 1664873765345, "trialdata": {"rt": 1464, "stimulus": "<p id='stroop-text' class='stroop-blue'>YELLOW</p>", "response": "b", "stimulus-type": "incongruent", "word": "yellow", "color": "blue", "correct_response": "b", "trial_id": "stroop-trial-1-incongruent-18", "trial_type": "html-keyboard-response", "trial_index": 124, "time_elapsed": 304625, "internal_node_id": "0.0-6.0-29.0"}}, {"uniqueid": "w44045294:a64065934", "current_trial": 125, "dateTime": 1664873766600, "trialdata": {"rt": 752, "stimulus": "<p id='stroop-text' class='stroop-green'>GREEN</p>", "response": "g", "stimulus-type": "congruent", "word": "green", "color": "green", "correct_response": "g", "trial_id": "stroop-trial-1-congruent-11", "trial_type": "html-keyboard-response", "trial_index": 125, "time_elapsed": 305881, "internal_node_id": "0.0-6.0-30.0"}}, {"uniqueid": "w44045294:a64065934", "current_trial": 126, "dateTime": 1664873767832, "trialdata": {"rt": 727, "stimulus": "<p id='stroop-text' class='stroop-yellow'>YELLOW</p>", "response": "y", "stimulus-type": "congruent", "word": "yellow", "color": "yellow", "correct_response": "y", "trial_id": "stroop-trial-1-congruent-10", "trial_type": "html-keyboard-response", "trial_index": 126, "time_elapsed": 307113, "internal_node_id": "0.0-6.0-31.0"}}, {"uniqueid": "w44045294:a64065934", "current_trial": 127, "dateTime": 1664873769064, "trialdata": {"rt": 729, "stimulus": "<p id='stroop-text' class='stroop-yellow'>RED</p>", "response": "y", "stimulus-type": "incongruent", "word": "red", "color": "yellow", "correct_response": "y", "trial_id": "stroop-trial-1-incongruent-7", "trial_type": "html-keyboard-response", "trial_index": 127, "time_elapsed": 308345, "internal_node_id": "0.0-6.0-32.0"}}, {"uniqueid": "w44045294:a64065934", "current_trial": 128, "dateTime": 1664873770304, "trialdata": {"rt": 737, "stimulus": "<p id='stroop-text' class='stroop-red'>RED</p>", "response": "r", "stimulus-type": "congruent", "word": "red", "color": "red", "correct_response": "r", "trial_id": "stroop-trial-1-congruent-22", "trial_type": "html-keyboard-response", "trial_index": 128, "time_elapsed": 309585, "internal_node_id": "0.0-6.0-33.0"}}, {"uniqueid": "w44045294:a64065934", "current_trial": 129, "dateTime": 1664873771840, "trialdata": {"rt": 1033, "stimulus": "<p id='stroop-text' class='stroop-blue'>WINDOW</p>", "response": "b", "stimulus-type": "unrelated", "word": "WINDOW", "color": "blue", "correct_response": "b", "trial_id": "stroop-trial-1-unrelated-3", "trial_type": "html-keyboard-response", "trial_index": 129, "time_elapsed": 311121, "internal_node_id": "0.0-6.0-34.0"}}, {"uniqueid": "w44045294:a64065934", "current_trial": 130, "dateTime": 1664873773224, "trialdata": {"rt": 880, "stimulus": "<p id='stroop-text' class='stroop-red'>WINDOW</p>", "response": "r", "stimulus-type": "unrelated", "word": "WINDOW", "color": "red", "correct_response": "r", "trial_id": "stroop-trial-1-unrelated-2", "trial_type": "html-keyboard-response", "trial_index": 130, "time_elapsed": 312505, "internal_node_id": "0.0-6.0-35.0"}}, {"uniqueid": "w44045294:a64065934", "current_trial": 131, "dateTime": 1664873774664, "trialdata": {"rt": 936, "stimulus": "<p id='stroop-text' class='stroop-yellow'>YELLOW</p>", "response": "y", "stimulus-type": "congruent", "word": "yellow", "color": "yellow", "correct_response": "y", "trial_id": "stroop-trial-1-congruent-24", "trial_type": "html-keyboard-response", "trial_index": 131, "time_elapsed": 313945, "internal_node_id": "0.0-6.0-36.0"}}, {"uniqueid": "w44045294:a64065934", "current_trial": 132, "dateTime": 1664873775984, "trialdata": {"rt": 817, "stimulus": "<p id='stroop-text' class='stroop-green'>SHIP</p>", "response": "g", "stimulus-type": "unrelated", "word": "SHIP", "color": "green", "correct_response": "g", "trial_id": "stroop-trial-1-unrelated-4", "trial_type": "html-keyboard-response", "trial_index": 132, "time_elapsed": 315265, "internal_node_id": "0.0-6.0-37.0"}}, {"uniqueid": "w44045294:a64065934", "current_trial": 133, "dateTime": 1664873777040, "trialdata": {"rt": 550, "stimulus": "<p id='stroop-text' class='stroop-green'>GREEN</p>", "response": "g", "stimulus-type": "congruent", "word": "green", "color": "green", "correct_response": "g", "trial_id": "stroop-trial-1-congruent-9", "trial_type": "html-keyboard-response", "trial_index": 133, "time_elapsed": 316321, "internal_node_id": "0.0-6.0-38.0"}}, {"uniqueid": "w44045294:a64065934", "current_trial": 134, "dateTime": 1664873778224, "trialdata": {"rt": 680, "stimulus": "<p id='stroop-text' class='stroop-blue'>STONE</p>", "response": "y", "stimulus-type": "unrelated", "word": "STONE", "color": "blue", "correct_response": "b", "trial_id": "stroop-trial-1-unrelated-12", "trial_type": "html-keyboard-response", "trial_index": 134, "time_elapsed": 317504, "internal_node_id": "0.0-6.0-39.0"}}, {"uniqueid": "w44045294:a64065934", "current_trial": 135, "dateTime": 1664873779832, "trialdata": {"rt": 1104, "stimulus": "<p id='stroop-text' class='stroop-red'>YELLOW</p>", "response": "r", "stimulus-type": "incongruent", "word": "yellow", "color": "red", "correct_response": "r", "trial_id": "stroop-trial-1-incongruent-23", "trial_type": "html-keyboard-response", "trial_index": 135, "time_elapsed": 319112, "internal_node_id": "0.0-6.0-40.0"}}, {"uniqueid": "w44045294:a64065934", "current_trial": 136, "dateTime": 1664873781408, "trialdata": {"rt": 1072, "stimulus": "<p id='stroop-text' class='stroop-green'>GREEN</p>", "response": "g", "stimulus-type": "congruent", "word": "green", "color": "green", "correct_response": "g", "trial_id": "stroop-trial-1-congruent-15", "trial_type": "html-keyboard-response", "trial_index": 136, "time_elapsed": 320688, "internal_node_id": "0.0-6.0-41.0"}}, {"uniqueid": "w44045294:a64065934", "current_trial": 137, "dateTime": 1664873782360, "trialdata": {"rt": 447, "stimulus": "<p id='stroop-text' class='stroop-green'>WINDOW</p>", "response": "g", "stimulus-type": "unrelated", "word": "WINDOW", "color": "green", "correct_response": "g", "trial_id": "stroop-trial-1-unrelated-9", "trial_type": "html-keyboard-response", "trial_index": 137, "time_elapsed": 321640, "internal_node_id": "0.0-6.0-42.0"}}, {"uniqueid": "w44045294:a64065934", "current_trial": 138, "dateTime": 1664873783600, "trialdata": {"rt": 736, "stimulus": "<p id='stroop-text' class='stroop-yellow'>MONKEY</p>", "response": "b", "stimulus-type": "unrelated", "word": "MONKEY", "color": "yellow", "correct_response": "y", "trial_id": "stroop-trial-1-unrelated-26", "trial_type": "html-keyboard-response", "trial_index": 138, "time_elapsed": 322880, "internal_node_id": "0.0-6.0-43.0"}}, {"uniqueid": "w44045294:a64065934", "current_trial": 139, "dateTime": 1664873784696, "trialdata": {"rt": 592, "stimulus": "<p id='stroop-text' class='stroop-yellow'>YELLOW</p>", "response": "y", "stimulus-type": "congruent", "word": "yellow", "color": "yellow", "correct_response": "y", "trial_id": "stroop-trial-1-congruent-21", "trial_type": "html-keyboard-response", "trial_index": 139, "time_elapsed": 323976, "internal_node_id": "0.0-6.0-44.0"}}, {"uniqueid": "w44045294:a64065934", "current_trial": 140, "dateTime": 1664873786112, "trialdata": {"rt": 911, "stimulus": "<p id='stroop-text' class='stroop-blue'>BLUE</p>", "response": "b", "stimulus-type": "congruent", "word": "blue", "color": "blue", "correct_response": "b", "trial_id": "stroop-trial-1-congruent-23", "trial_type": "html-keyboard-response", "trial_index": 140, "time_elapsed": 325393, "internal_node_id": "0.0-6.0-45.0"}}, {"uniqueid": "w44045294:a64065934", "current_trial": 141, "dateTime": 1664873787472, "trialdata": {"rt": 856, "stimulus": "<p id='stroop-text' class='stroop-red'>YELLOW</p>", "response": "r", "stimulus-type": "incongruent", "word": "yellow", "color": "red", "correct_response": "r", "trial_id": "stroop-trial-1-incongruent-29", "trial_type": "html-keyboard-response", "trial_index": 141, "time_elapsed": 326752, "internal_node_id": "0.0-6.0-46.0"}}, {"uniqueid": "w44045294:a64065934", "current_trial": 142, "dateTime": 1664873790072, "trialdata": {"rt": 2097, "stimulus": "<p id='stroop-text' class='stroop-yellow'>RED</p>", "response": "y", "stimulus-type": "incongruent", "word": "red", "color": "yellow", "correct_response": "y", "trial_id": "stroop-trial-1-incongruent-16", "trial_type": "html-keyboard-response", "trial_index": 142, "time_elapsed": 329352, "internal_node_id": "0.0-6.0-47.0"}}, {"uniqueid": "w44045294:a64065934", "current_trial": 143, "dateTime": 1664873791608, "trialdata": {"rt": 1032, "stimulus": "<p id='stroop-text' class='stroop-blue'>WINDOW</p>", "response": "b", "stimulus-type": "unrelated", "word": "WINDOW", "color": "blue", "correct_response": "b", "trial_id": "stroop-trial-1-unrelated-28", "trial_type": "html-keyboard-response", "trial_index": 143, "time_elapsed": 330888, "internal_node_id": "0.0-6.0-48.0"}}, {"uniqueid": "w44045294:a64065934", "current_trial": 144, "dateTime": 1664873793336, "trialdata": {"rt": 1224, "stimulus": "<p id='stroop-text' class='stroop-yellow'>BLUE</p>", "response": "y", "stimulus-type": "incongruent", "word": "blue", "color": "yellow", "correct_response": "y", "trial_id": "stroop-trial-1-incongruent-27", "trial_type": "html-keyboard-response", "trial_index": 144, "time_elapsed": 332616, "internal_node_id": "0.0-6.0-49.0"}}, {"uniqueid": "w44045294:a64065934", "current_trial": 145, "dateTime": 1664873794887, "trialdata": {"rt": 1047, "stimulus": "<p id='stroop-text' class='stroop-green'>BLUE</p>", "response": "g", "stimulus-type": "incongruent", "word": "blue", "color": "green", "correct_response": "g", "trial_id": "stroop-trial-1-incongruent-5", "trial_type": "html-keyboard-response", "trial_index": 145, "time_elapsed": 334168, "internal_node_id": "0.0-6.0-50.0"}}, {"uniqueid": "w44045294:a64065934", "current_trial": 146, "dateTime": 1664873795999, "trialdata": {"rt": 607, "stimulus": "<p id='stroop-text' class='stroop-green'>MONKEY</p>", "response": "g", "stimulus-type": "unrelated", "word": "MONKEY", "color": "green", "correct_response": "g", "trial_id": "stroop-trial-1-unrelated-15", "trial_type": "html-keyboard-response", "trial_index": 146, "time_elapsed": 335280, "internal_node_id": "0.0-6.0-51.0"}}, {"uniqueid": "w44045294:a64065934", "current_trial": 147, "dateTime": 1664873797368, "trialdata": {"rt": 864, "stimulus": "<p id='stroop-text' class='stroop-yellow'>RED</p>", "response": "y", "stimulus-type": "incongruent", "word": "red", "color": "yellow", "correct_response": "y", "trial_id": "stroop-trial-1-incongruent-14", "trial_type": "html-keyboard-response", "trial_index": 147, "time_elapsed": 336648, "internal_node_id": "0.0-6.0-52.0"}}, {"uniqueid": "w44045294:a64065934", "current_trial": 148, "dateTime": 1664873799087, "trialdata": {"rt": 1216, "stimulus": "<p id='stroop-text' class='stroop-blue'>SHIP</p>", "response": "b", "stimulus-type": "unrelated", "word": "SHIP", "color": "blue", "correct_response": "b", "trial_id": "stroop-trial-1-unrelated-16", "trial_type": "html-keyboard-response", "trial_index": 148, "time_elapsed": 338368, "internal_node_id": "0.0-6.0-53.0"}}, {"uniqueid": "w44045294:a64065934", "current_trial": 149, "dateTime": 1664873800167, "trialdata": {"rt": 575, "stimulus": "<p id='stroop-text' class='stroop-blue'>MONKEY</p>", "response": "b", "stimulus-type": "unrelated", "word": "MONKEY", "color": "blue", "correct_response": "b", "trial_id": "stroop-trial-1-unrelated-23", "trial_type": "html-keyboard-response", "trial_index": 149, "time_elapsed": 339448, "internal_node_id": "0.0-6.0-54.0"}}, {"uniqueid": "w44045294:a64065934", "current_trial": 150, "dateTime": 1664873801361, "trialdata": {"rt": 688, "stimulus": "<p id='stroop-text' class='stroop-green'>BOTTLE</p>", "response": "y", "stimulus-type": "unrelated", "word": "BOTTLE", "color": "green", "correct_response": "g", "trial_id": "stroop-trial-1-unrelated-11", "trial_type": "html-keyboard-response", "trial_index": 150, "time_elapsed": 340641, "internal_node_id": "0.0-6.0-55.0"}}, {"uniqueid": "w44045294:a64065934", "current_trial": 151, "dateTime": 1664873803289, "trialdata": {"rt": 1424, "stimulus": "<p id='stroop-text' class='stroop-blue'>MONKEY</p>", "response": "b", "stimulus-type": "unrelated", "word": "MONKEY", "color": "blue", "correct_response": "b", "trial_id": "stroop-trial-1-unrelated-20", "trial_type": "html-keyboard-response", "trial_index": 151, "time_elapsed": 342569, "internal_node_id": "0.0-6.0-56.0"}}, {"uniqueid": "w44045294:a64065934", "current_trial": 152, "dateTime": 1664873804912, "trialdata": {"rt": 1119, "stimulus": "<p id='stroop-text' class='stroop-green'>BLUE</p>", "response": "g", "stimulus-type": "incongruent", "word": "blue", "color": "green", "correct_response": "g", "trial_id": "stroop-trial-1-incongruent-28", "trial_type": "html-keyboard-response", "trial_index": 152, "time_elapsed": 344193, "internal_node_id": "0.0-6.0-57.0"}}, {"uniqueid": "w44045294:a64065934", "current_trial": 153, "dateTime": 1664873806496, "trialdata": {"rt": 1079, "stimulus": "<p id='stroop-text' class='stroop-blue'>BLUE</p>", "response": "b", "stimulus-type": "congruent", "word": "blue", "color": "blue", "correct_response": "b", "trial_id": "stroop-trial-1-congruent-30", "trial_type": "html-keyboard-response", "trial_index": 153, "time_elapsed": 345777, "internal_node_id": "0.0-6.0-58.0"}}, {"uniqueid": "w44045294:a64065934", "current_trial": 154, "dateTime": 1664873807777, "trialdata": {"rt": 777, "stimulus": "<p id='stroop-text' class='stroop-green'>CHAIR</p>", "response": "g", "stimulus-type": "unrelated", "word": "CHAIR", "color": "green", "correct_response": "g", "trial_id": "stroop-trial-1-unrelated-7", "trial_type": "html-keyboard-response", "trial_index": 154, "time_elapsed": 347057, "internal_node_id": "0.0-6.0-59.0"}}, {"uniqueid": "w44045294:a64065934", "current_trial": 155, "dateTime": 1664873809488, "trialdata": {"rt": 1207, "stimulus": "<p id='stroop-text' class='stroop-yellow'>RED</p>", "response": "y", "stimulus-type": "incongruent", "word": "red", "color": "yellow", "correct_response": "y", "trial_id": "stroop-trial-1-incongruent-6", "trial_type": "html-keyboard-response", "trial_index": 155, "time_elapsed": 348769, "internal_node_id": "0.0-6.0-60.0"}}, {"uniqueid": "w44045294:a64065934", "current_trial": 156, "dateTime": 1664873811720, "trialdata": {"rt": 1726, "stimulus": "<p id='stroop-text' class='stroop-green'>YELLOW</p>", "response": "g", "stimulus-type": "incongruent", "word": "yellow", "color": "green", "correct_response": "g", "trial_id": "stroop-trial-1-incongruent-4", "trial_type": "html-keyboard-response", "trial_index": 156, "time_elapsed": 351001, "internal_node_id": "0.0-6.0-61.0"}}, {"uniqueid": "w44045294:a64065934", "current_trial": 157, "dateTime": 1664873812880, "trialdata": {"rt": 656, "stimulus": "<p id='stroop-text' class='stroop-yellow'>YELLOW</p>", "response": "b", "stimulus-type": "congruent", "word": "yellow", "color": "yellow", "correct_response": "y", "trial_id": "stroop-trial-1-congruent-7", "trial_type": "html-keyboard-response", "trial_index": 157, "time_elapsed": 352161, "internal_node_id": "0.0-6.0-62.0"}}, {"uniqueid": "w44045294:a64065934", "current_trial": 158, "dateTime": 1664873814416, "trialdata": {"rt": 1030, "stimulus": "<p id='stroop-text' class='stroop-green'>GREEN</p>", "response": "g", "stimulus-type": "congruent", "word": "green", "color": "green", "correct_response": "g", "trial_id": "stroop-trial-1-congruent-26", "trial_type": "html-keyboard-response", "trial_index": 158, "time_elapsed": 353697, "internal_node_id": "0.0-6.0-63.0"}}, {"uniqueid": "w44045294:a64065934", "current_trial": 159, "dateTime": 1664873815888, "trialdata": {"rt": 968, "stimulus": "<p id='stroop-text' class='stroop-yellow'>YELLOW</p>", "response": "y", "stimulus-type": "congruent", "word": "yellow", "color": "yellow", "correct_response": "y", "trial_id": "stroop-trial-1-congruent-3", "trial_type": "html-keyboard-response", "trial_index": 159, "time_elapsed": 355169, "internal_node_id": "0.0-6.0-64.0"}}, {"uniqueid": "w44045294:a64065934", "current_trial": 160, "dateTime": 1664873816984, "trialdata": {"rt": 592, "stimulus": "<p id='stroop-text' class='stroop-yellow'>GREEN</p>", "response": "y", "stimulus-type": "incongruent", "word": "green", "color": "yellow", "correct_response": "y", "trial_id": "stroop-trial-1-incongruent-22", "trial_type": "html-keyboard-response", "trial_index": 160, "time_elapsed": 356265, "internal_node_id": "0.0-6.0-65.0"}}, {"uniqueid": "w44045294:a64065934", "current_trial": 161, "dateTime": 1664873818057, "trialdata": {"rt": 567, "stimulus": "<p id='stroop-text' class='stroop-yellow'>YELLOW</p>", "response": "y", "stimulus-type": "congruent", "word": "yellow", "color": "yellow", "correct_response": "y", "trial_id": "stroop-trial-1-congruent-16", "trial_type": "html-keyboard-response", "trial_index": 161, "time_elapsed": 357337, "internal_node_id": "0.0-6.0-66.0"}}, {"uniqueid": "w44045294:a64065934", "current_trial": 162, "dateTime": 1664873819720, "trialdata": {"rt": 1159, "stimulus": "<p id='stroop-text' class='stroop-blue'>YELLOW</p>", "response": "b", "stimulus-type": "incongruent", "word": "yellow", "color": "blue", "correct_response": "b", "trial_id": "stroop-trial-1-incongruent-24", "trial_type": "html-keyboard-response", "trial_index": 162, "time_elapsed": 359001, "internal_node_id": "0.0-6.0-67.0"}}, {"uniqueid": "w44045294:a64065934", "current_trial": 163, "dateTime": 1664873821040, "trialdata": {"rt": 816, "stimulus": "<p id='stroop-text' class='stroop-red'>RED</p>", "response": "r", "stimulus-type": "congruent", "word": "red", "color": "red", "correct_response": "r", "trial_id": "stroop-trial-1-congruent-17", "trial_type": "html-keyboard-response", "trial_index": 163, "time_elapsed": 360321, "internal_node_id": "0.0-6.0-68.0"}}, {"uniqueid": "w44045294:a64065934", "current_trial": 164, "dateTime": 1664873822800, "trialdata": {"rt": 1254, "stimulus": "<p id='stroop-text' class='stroop-blue'>SHIP</p>", "response": "b", "stimulus-type": "unrelated", "word": "SHIP", "color": "blue", "correct_response": "b", "trial_id": "stroop-trial-1-unrelated-13", "trial_type": "html-keyboard-response", "trial_index": 164, "time_elapsed": 362081, "internal_node_id": "0.0-6.0-69.0"}}, {"uniqueid": "w44045294:a64065934", "current_trial": 165, "dateTime": 1664873824008, "trialdata": {"rt": 703, "stimulus": "<p id='stroop-text' class='stroop-green'>GREEN</p>", "response": "g", "stimulus-type": "congruent", "word": "green", "color": "green", "correct_response": "g", "trial_id": "stroop-trial-1-congruent-29", "trial_type": "html-keyboard-response", "trial_index": 165, "time_elapsed": 363289, "internal_node_id": "0.0-6.0-70.0"}}, {"uniqueid": "w44045294:a64065934", "current_trial": 166, "dateTime": 1664873825568, "trialdata": {"rt": 1056, "stimulus": "<p id='stroop-text' class='stroop-blue'>BLUE</p>", "response": "b", "stimulus-type": "congruent", "word": "blue", "color": "blue", "correct_response": "b", "trial_id": "stroop-trial-1-congruent-19", "trial_type": "html-keyboard-response", "trial_index": 166, "time_elapsed": 364848, "internal_node_id": "0.0-6.0-71.0"}}, {"uniqueid": "w44045294:a64065934", "current_trial": 167, "dateTime": 1664873826608, "trialdata": {"rt": 534, "stimulus": "<p id='stroop-text' class='stroop-blue'>FORK</p>", "response": "b", "stimulus-type": "unrelated", "word": "FORK", "color": "blue", "correct_response": "b", "trial_id": "stroop-trial-1-unrelated-29", "trial_type": "html-keyboard-response", "trial_index": 167, "time_elapsed": 365888, "internal_node_id": "0.0-6.0-72.0"}}, {"uniqueid": "w44045294:a64065934", "current_trial": 168, "dateTime": 1664873827832, "trialdata": {"rt": 720, "stimulus": "<p id='stroop-text' class='stroop-yellow'>RED</p>", "response": "y", "stimulus-type": "incongruent", "word": "red", "color": "yellow", "correct_response": "y", "trial_id": "stroop-trial-1-incongruent-3", "trial_type": "html-keyboard-response", "trial_index": 168, "time_elapsed": 367112, "internal_node_id": "0.0-6.0-73.0"}}, {"uniqueid": "w44045294:a64065934", "current_trial": 169, "dateTime": 1664873829024, "trialdata": {"rt": 687, "stimulus": "<p id='stroop-text' class='stroop-blue'>BLUE</p>", "response": "b", "stimulus-type": "congruent", "word": "blue", "color": "blue", "correct_response": "b", "trial_id": "stroop-trial-1-congruent-13", "trial_type": "html-keyboard-response", "trial_index": 169, "time_elapsed": 368305, "internal_node_id": "0.0-6.0-74.0"}}, {"uniqueid": "w44045294:a64065934", "current_trial": 170, "dateTime": 1664873830056, "trialdata": {"rt": 527, "stimulus": "<p id='stroop-text' class='stroop-blue'>YELLOW</p>", "response": "b", "stimulus-type": "incongruent", "word": "yellow", "color": "blue", "correct_response": "b", "trial_id": "stroop-trial-1-incongruent-11", "trial_type": "html-keyboard-response", "trial_index": 170, "time_elapsed": 369336, "internal_node_id": "0.0-6.0-75.0"}}, {"uniqueid": "w44045294:a64065934", "current_trial": 171, "dateTime": 1664873831344, "trialdata": {"rt": 784, "stimulus": "<p id='stroop-text' class='stroop-green'>CHAIR</p>", "response": "g", "stimulus-type": "unrelated", "word": "CHAIR", "color": "green", "correct_response": "g", "trial_id": "stroop-trial-1-unrelated-1", "trial_type": "html-keyboard-response", "trial_index": 171, "time_elapsed": 370624, "internal_node_id": "0.0-6.0-76.0"}}, {"uniqueid": "w44045294:a64065934", "current_trial": 172, "dateTime": 1664873832416, "trialdata": {"rt": 567, "stimulus": "<p id='stroop-text' class='stroop-green'>MONKEY</p>", "response": "g", "stimulus-type": "unrelated", "word": "MONKEY", "color": "green", "correct_response": "g", "trial_id": "stroop-trial-1-unrelated-6", "trial_type": "html-keyboard-response", "trial_index": 172, "time_elapsed": 371696, "internal_node_id": "0.0-6.0-77.0"}}, {"uniqueid": "w44045294:a64065934", "current_trial": 173, "dateTime": 1664873833688, "trialdata": {"rt": 768, "stimulus": "<p id='stroop-text' class='stroop-yellow'>BOAT</p>", "response": "y", "stimulus-type": "unrelated", "word": "BOAT", "color": "yellow", "correct_response": "y", "trial_id": "stroop-trial-1-unrelated-24", "trial_type": "html-keyboard-response", "trial_index": 173, "time_elapsed": 372968, "internal_node_id": "0.0-6.0-78.0"}}, {"uniqueid": "w44045294:a64065934", "current_trial": 174, "dateTime": 1664873834840, "trialdata": {"rt": 647, "stimulus": "<p id='stroop-text' class='stroop-red'>DOG</p>", "response": "r", "stimulus-type": "unrelated", "word": "DOG", "color": "red", "correct_response": "r", "trial_id": "stroop-trial-1-unrelated-5", "trial_type": "html-keyboard-response", "trial_index": 174, "time_elapsed": 374120, "internal_node_id": "0.0-6.0-79.0"}}, {"uniqueid": "w44045294:a64065934", "current_trial": 175, "dateTime": 1664873836504, "trialdata": {"rt": 1159, "stimulus": "<p id='stroop-text' class='stroop-green'>GREEN</p>", "response": "g", "stimulus-type": "congruent", "word": "green", "color": "green", "correct_response": "g", "trial_id": "stroop-trial-1-congruent-4", "trial_type": "html-keyboard-response", "trial_index": 175, "time_elapsed": 375784, "internal_node_id": "0.0-6.0-80.0"}}, {"uniqueid": "w44045294:a64065934", "current_trial": 176, "dateTime": 1664873837544, "trialdata": {"rt": 536, "stimulus": "<p id='stroop-text' class='stroop-green'>BLUE</p>", "response": "g", "stimulus-type": "incongruent", "word": "blue", "color": "green", "correct_response": "g", "trial_id": "stroop-trial-1-incongruent-1", "trial_type": "html-keyboard-response", "trial_index": 176, "time_elapsed": 376824, "internal_node_id": "0.0-6.0-81.0"}}, {"uniqueid": "w44045294:a64065934", "current_trial": 177, "dateTime": 1664873838776, "trialdata": {"rt": 727, "stimulus": "<p id='stroop-text' class='stroop-yellow'>RED</p>", "response": "y", "stimulus-type": "incongruent", "word": "red", "color": "yellow", "correct_response": "y", "trial_id": "stroop-trial-1-incongruent-17", "trial_type": "html-keyboard-response", "trial_index": 177, "time_elapsed": 378056, "internal_node_id": "0.0-6.0-82.0"}}, {"uniqueid": "w44045294:a64065934", "current_trial": 178, "dateTime": 1664873839784, "trialdata": {"rt": 504, "stimulus": "<p id='stroop-text' class='stroop-yellow'>YELLOW</p>", "response": "y", "stimulus-type": "congruent", "word": "yellow", "color": "yellow", "correct_response": "y", "trial_id": "stroop-trial-1-congruent-8", "trial_type": "html-keyboard-response", "trial_index": 178, "time_elapsed": 379065, "internal_node_id": "0.0-6.0-83.0"}}, {"uniqueid": "w44045294:a64065934", "current_trial": 179, "dateTime": 1664873841112, "trialdata": {"rt": 823, "stimulus": "<p id='stroop-text' class='stroop-green'>GREEN</p>", "response": "g", "stimulus-type": "congruent", "word": "green", "color": "green", "correct_response": "g", "trial_id": "stroop-trial-1-congruent-2", "trial_type": "html-keyboard-response", "trial_index": 179, "time_elapsed": 380392, "internal_node_id": "0.0-6.0-84.0"}}, {"uniqueid": "w44045294:a64065934", "current_trial": 180, "dateTime": 1664873842135, "trialdata": {"rt": 518, "stimulus": "<p id='stroop-text' class='stroop-green'>GREEN</p>", "response": "g", "stimulus-type": "congruent", "word": "green", "color": "green", "correct_response": "g", "trial_id": "stroop-trial-1-congruent-27", "trial_type": "html-keyboard-response", "trial_index": 180, "time_elapsed": 381416, "internal_node_id": "0.0-6.0-85.0"}}, {"uniqueid": "w44045294:a64065934", "current_trial": 181, "dateTime": 1664873843263, "trialdata": {"rt": 623, "stimulus": "<p id='stroop-text' class='stroop-yellow'>YELLOW</p>", "response": "y", "stimulus-type": "congruent", "word": "yellow", "color": "yellow", "correct_response": "y", "trial_id": "stroop-trial-1-congruent-1", "trial_type": "html-keyboard-response", "trial_index": 181, "time_elapsed": 382544, "internal_node_id": "0.0-6.0-86.0"}}, {"uniqueid": "w44045294:a64065934", "current_trial": 182, "dateTime": 1664873844455, "trialdata": {"rt": 687, "stimulus": "<p id='stroop-text' class='stroop-green'>RED</p>", "response": "g", "stimulus-type": "incongruent", "word": "red", "color": "green", "correct_response": "g", "trial_id": "stroop-trial-1-incongruent-15", "trial_type": "html-keyboard-response", "trial_index": 182, "time_elapsed": 383736, "internal_node_id": "0.0-6.0-87.0"}}, {"uniqueid": "w44045294:a64065934", "current_trial": 183, "dateTime": 1664873845807, "trialdata": {"rt": 846, "stimulus": "<p id='stroop-text' class='stroop-yellow'>YELLOW</p>", "response": "y", "stimulus-type": "congruent", "word": "yellow", "color": "yellow", "correct_response": "y", "trial_id": "stroop-trial-1-congruent-6", "trial_type": "html-keyboard-response", "trial_index": 183, "time_elapsed": 385088, "internal_node_id": "0.0-6.0-88.0"}}, {"uniqueid": "w44045294:a64065934", "current_trial": 184, "dateTime": 1664873846831, "trialdata": {"rt": 519, "stimulus": "<p id='stroop-text' class='stroop-yellow'>BLUE</p>", "response": "y", "stimulus-type": "incongruent", "word": "blue", "color": "yellow", "correct_response": "y", "trial_id": "stroop-trial-1-incongruent-21", "trial_type": "html-keyboard-response", "trial_index": 184, "time_elapsed": 386112, "internal_node_id": "0.0-6.0-89.0"}}, {"uniqueid": "w44045294:a64065934", "current_trial": 185, "dateTime": 1664873854559, "trialdata": {"rt": 7224, "stimulus": "  <h1> End of block! </h1>\n\n  You have reached the end of the block 2/5. If you need a short break, feel free to take one now before moving on.\n\n  <br><br>\n  In the next block, you will complete another 90 rounds of this game.\n\n  <br><br>\n  <div style='text-align: center;'>Press <code>space</code> to begin.</div>\n  <br><br>\n<div style='text-align: center;'>(If the experiment doesn't continue, try clicking on the text and then pressing <code>space</code>.)</div>", "response": " ", "trial_id": "stroop_1_ready_3", "trial_type": "html-keyboard-response", "trial_index": 185, "time_elapsed": 393840, "internal_node_id": "0.0-7.0"}}, {"uniqueid": "w44045294:a64065934", "current_trial": 186, "dateTime": 1664873855383, "trialdata": {"rt": 818, "stimulus": "<p id='stroop-text' class='stroop-red'>RED</p>", "response": "r", "stimulus-type": "congruent", "word": "red", "color": "red", "correct_response": "r", "trial_id": "stroop-trial-1-congruent-2", "trial_type": "html-keyboard-response", "trial_index": 186, "time_elapsed": 394664, "internal_node_id": "0.0-8.0-0.0"}}, {"uniqueid": "w44045294:a64065934", "current_trial": 187, "dateTime": 1664873856727, "trialdata": {"rt": 839, "stimulus": "<p id='stroop-text' class='stroop-green'>BLUE</p>", "response": "g", "stimulus-type": "incongruent", "word": "blue", "color": "green", "correct_response": "g", "trial_id": "stroop-trial-1-incongruent-9", "trial_type": "html-keyboard-response", "trial_index": 187, "time_elapsed": 396008, "internal_node_id": "0.0-8.0-1.0"}}, {"uniqueid": "w44045294:a64065934", "current_trial": 188, "dateTime": 1664873857759, "trialdata": {"rt": 527, "stimulus": "<p id='stroop-text' class='stroop-yellow'>YELLOW</p>", "response": "y", "stimulus-type": "congruent", "word": "yellow", "color": "yellow", "correct_response": "y", "trial_id": "stroop-trial-1-congruent-9", "trial_type": "html-keyboard-response", "trial_index": 188, "time_elapsed": 397040, "internal_node_id": "0.0-8.0-2.0"}}, {"uniqueid": "w44045294:a64065934", "current_trial": 189, "dateTime": 1664873859175, "trialdata": {"rt": 912, "stimulus": "<p id='stroop-text' class='stroop-blue'>RED</p>", "response": "b", "stimulus-type": "incongruent", "word": "red", "color": "blue", "correct_response": "b", "trial_id": "stroop-trial-1-incongruent-1", "trial_type": "html-keyboard-response", "trial_index": 189, "time_elapsed": 398456, "internal_node_id": "0.0-8.0-3.0"}}, {"uniqueid": "w44045294:a64065934", "current_trial": 190, "dateTime": 1664873860648, "trialdata": {"rt": 967, "stimulus": "<p id='stroop-text' class='stroop-yellow'>YELLOW</p>", "response": "y", "stimulus-type": "congruent", "word": "yellow", "color": "yellow", "correct_response": "y", "trial_id": "stroop-trial-1-congruent-19", "trial_type": "html-keyboard-response", "trial_index": 190, "time_elapsed": 399929, "internal_node_id": "0.0-8.0-4.0"}}, {"uniqueid": "w44045294:a64065934", "current_trial": 191, "dateTime": 1664873861776, "trialdata": {"rt": 623, "stimulus": "<p id='stroop-text' class='stroop-red'>RED</p>", "response": "r", "stimulus-type": "congruent", "word": "red", "color": "red", "correct_response": "r", "trial_id": "stroop-trial-1-congruent-7", "trial_type": "html-keyboard-response", "trial_index": 191, "time_elapsed": 401057, "internal_node_id": "0.0-8.0-5.0"}}, {"uniqueid": "w44045294:a64065934", "current_trial": 192, "dateTime": 1664873862976, "trialdata": {"rt": 695, "stimulus": "<p id='stroop-text' class='stroop-green'>BOAT</p>", "response": "g", "stimulus-type": "unrelated", "word": "BOAT", "color": "green", "correct_response": "g", "trial_id": "stroop-trial-1-unrelated-14", "trial_type": "html-keyboard-response", "trial_index": 192, "time_elapsed": 402257, "internal_node_id": "0.0-8.0-6.0"}}, {"uniqueid": "w44045294:a64065934", "current_trial": 193, "dateTime": 1664873863984, "trialdata": {"rt": 501, "stimulus": "<p id='stroop-text' class='stroop-green'>MONKEY</p>", "response": "g", "stimulus-type": "unrelated", "word": "MONKEY", "color": "green", "correct_response": "g", "trial_id": "stroop-trial-1-unrelated-20", "trial_type": "html-keyboard-response", "trial_index": 193, "time_elapsed": 403265, "internal_node_id": "0.0-8.0-7.0"}}, {"uniqueid": "w44045294:a64065934", "current_trial": 194, "dateTime": 1664873864945, "trialdata": {"rt": 456, "stimulus": "<p id='stroop-text' class='stroop-green'>CHAIR</p>", "response": "g", "stimulus-type": "unrelated", "word": "CHAIR", "color": "green", "correct_response": "g", "trial_id": "stroop-trial-1-unrelated-30", "trial_type": "html-keyboard-response", "trial_index": 194, "time_elapsed": 404225, "internal_node_id": "0.0-8.0-8.0"}}, {"uniqueid": "w44045294:a64065934", "current_trial": 195, "dateTime": 1664873866120, "trialdata": {"rt": 670, "stimulus": "<p id='stroop-text' class='stroop-red'>STONE</p>", "response": "y", "stimulus-type": "unrelated", "word": "STONE", "color": "red", "correct_response": "r", "trial_id": "stroop-trial-1-unrelated-10", "trial_type": "html-keyboard-response", "trial_index": 195, "time_elapsed": 405401, "internal_node_id": "0.0-8.0-9.0"}}, {"uniqueid": "w44045294:a64065934", "current_trial": 196, "dateTime": 1664873867944, "trialdata": {"rt": 1319, "stimulus": "<p id='stroop-text' class='stroop-blue'>YELLOW</p>", "response": "b", "stimulus-type": "incongruent", "word": "yellow", "color": "blue", "correct_response": "b", "trial_id": "stroop-trial-1-incongruent-8", "trial_type": "html-keyboard-response", "trial_index": 196, "time_elapsed": 407225, "internal_node_id": "0.0-8.0-10.0"}}, {"uniqueid": "w44045294:a64065934", "current_trial": 197, "dateTime": 1664873869256, "trialdata": {"rt": 807, "stimulus": "<p id='stroop-text' class='stroop-red'>BOAT</p>", "response": "r", "stimulus-type": "unrelated", "word": "BOAT", "color": "red", "correct_response": "r", "trial_id": "stroop-trial-1-unrelated-29", "trial_type": "html-keyboard-response", "trial_index": 197, "time_elapsed": 408537, "internal_node_id": "0.0-8.0-11.0"}}, {"uniqueid": "w44045294:a64065934", "current_trial": 198, "dateTime": 1664873870552, "trialdata": {"rt": 790, "stimulus": "<p id='stroop-text' class='stroop-yellow'>YELLOW</p>", "response": "y", "stimulus-type": "congruent", "word": "yellow", "color": "yellow", "correct_response": "y", "trial_id": "stroop-trial-1-congruent-21", "trial_type": "html-keyboard-response", "trial_index": 198, "time_elapsed": 409833, "internal_node_id": "0.0-8.0-12.0"}}, {"uniqueid": "w44045294:a64065934", "current_trial": 199, "dateTime": 1664873872000, "trialdata": {"rt": 943, "stimulus": "<p id='stroop-text' class='stroop-red'>SHIP</p>", "response": "r", "stimulus-type": "unrelated", "word": "SHIP", "color": "red", "correct_response": "r", "trial_id": "stroop-trial-1-unrelated-12", "trial_type": "html-keyboard-response", "trial_index": 199, "time_elapsed": 411281, "internal_node_id": "0.0-8.0-13.0"}}, {"uniqueid": "w44045294:a64065934", "current_trial": 200, "dateTime": 1664873873160, "trialdata": {"rt": 654, "stimulus": "<p id='stroop-text' class='stroop-blue'>BLUE</p>", "response": "b", "stimulus-type": "congruent", "word": "blue", "color": "blue", "correct_response": "b", "trial_id": "stroop-trial-1-congruent-20", "trial_type": "html-keyboard-response", "trial_index": 200, "time_elapsed": 412441, "internal_node_id": "0.0-8.0-14.0"}}, {"uniqueid": "w44045294:a64065934", "current_trial": 201, "dateTime": 1664873874520, "trialdata": {"rt": 856, "stimulus": "<p id='stroop-text' class='stroop-green'>BOTTLE</p>", "response": "g", "stimulus-type": "unrelated", "word": "BOTTLE", "color": "green", "correct_response": "g", "trial_id": "stroop-trial-1-unrelated-21", "trial_type": "html-keyboard-response", "trial_index": 201, "time_elapsed": 413801, "internal_node_id": "0.0-8.0-15.0"}}, {"uniqueid": "w44045294:a64065934", "current_trial": 202, "dateTime": 1664873875472, "trialdata": {"rt": 448, "stimulus": "<p id='stroop-text' class='stroop-green'>GREEN</p>", "response": "g", "stimulus-type": "congruent", "word": "green", "color": "green", "correct_response": "g", "trial_id": "stroop-trial-1-congruent-24", "trial_type": "html-keyboard-response", "trial_index": 202, "time_elapsed": 414753, "internal_node_id": "0.0-8.0-16.0"}}, {"uniqueid": "w44045294:a64065934", "current_trial": 203, "dateTime": 1664873877288, "trialdata": {"rt": 1310, "stimulus": "<p id='stroop-text' class='stroop-blue'>GREEN</p>", "response": "r", "stimulus-type": "incongruent", "word": "green", "color": "blue", "correct_response": "b", "trial_id": "stroop-trial-1-incongruent-3", "trial_type": "html-keyboard-response", "trial_index": 203, "time_elapsed": 416568, "internal_node_id": "0.0-8.0-17.0"}}, {"uniqueid": "w44045294:a64065934", "current_trial": 204, "dateTime": 1664873878800, "trialdata": {"rt": 1007, "stimulus": "<p id='stroop-text' class='stroop-blue'>BLUE</p>", "response": "b", "stimulus-type": "congruent", "word": "blue", "color": "blue", "correct_response": "b", "trial_id": "stroop-trial-1-congruent-11", "trial_type": "html-keyboard-response", "trial_index": 204, "time_elapsed": 418080, "internal_node_id": "0.0-8.0-18.0"}}, {"uniqueid": "w44045294:a64065934", "current_trial": 205, "dateTime": 1664873880104, "trialdata": {"rt": 798, "stimulus": "<p id='stroop-text' class='stroop-green'>GREEN</p>", "response": "g", "stimulus-type": "congruent", "word": "green", "color": "green", "correct_response": "g", "trial_id": "stroop-trial-1-congruent-29", "trial_type": "html-keyboard-response", "trial_index": 205, "time_elapsed": 419384, "internal_node_id": "0.0-8.0-19.0"}}, {"uniqueid": "w44045294:a64065934", "current_trial": 206, "dateTime": 1664873881144, "trialdata": {"rt": 535, "stimulus": "<p id='stroop-text' class='stroop-green'>SHIP</p>", "response": "g", "stimulus-type": "unrelated", "word": "SHIP", "color": "green", "correct_response": "g", "trial_id": "stroop-trial-1-unrelated-15", "trial_type": "html-keyboard-response", "trial_index": 206, "time_elapsed": 420424, "internal_node_id": "0.0-8.0-20.0"}}, {"uniqueid": "w44045294:a64065934", "current_trial": 207, "dateTime": 1664873882072, "trialdata": {"rt": 423, "stimulus": "<p id='stroop-text' class='stroop-green'>BLUE</p>", "response": "g", "stimulus-type": "incongruent", "word": "blue", "color": "green", "correct_response": "g", "trial_id": "stroop-trial-1-incongruent-6", "trial_type": "html-keyboard-response", "trial_index": 207, "time_elapsed": 421353, "internal_node_id": "0.0-8.0-21.0"}}, {"uniqueid": "w44045294:a64065934", "current_trial": 208, "dateTime": 1664873883272, "trialdata": {"rt": 693, "stimulus": "<p id='stroop-text' class='stroop-red'>BRIDGE</p>", "response": "r", "stimulus-type": "unrelated", "word": "BRIDGE", "color": "red", "correct_response": "r", "trial_id": "stroop-trial-1-unrelated-28", "trial_type": "html-keyboard-response", "trial_index": 208, "time_elapsed": 422552, "internal_node_id": "0.0-8.0-22.0"}}, {"uniqueid": "w44045294:a64065934", "current_trial": 209, "dateTime": 1664873885144, "trialdata": {"rt": 1367, "stimulus": "<p id='stroop-text' class='stroop-blue'>BRAIN</p>", "response": "b", "stimulus-type": "unrelated", "word": "BRAIN", "color": "blue", "correct_response": "b", "trial_id": "stroop-trial-1-unrelated-7", "trial_type": "html-keyboard-response", "trial_index": 209, "time_elapsed": 424424, "internal_node_id": "0.0-8.0-23.0"}}, {"uniqueid": "w44045294:a64065934", "current_trial": 210, "dateTime": 1664873886400, "trialdata": {"rt": 750, "stimulus": "<p id='stroop-text' class='stroop-green'>GREEN</p>", "response": "g", "stimulus-type": "congruent", "word": "green", "color": "green", "correct_response": "g", "trial_id": "stroop-trial-1-congruent-1", "trial_type": "html-keyboard-response", "trial_index": 210, "time_elapsed": 425681, "internal_node_id": "0.0-8.0-24.0"}}, {"uniqueid": "w44045294:a64065934", "current_trial": 211, "dateTime": 1664873887592, "trialdata": {"rt": 687, "stimulus": "<p id='stroop-text' class='stroop-green'>YELLOW</p>", "response": "g", "stimulus-type": "incongruent", "word": "yellow", "color": "green", "correct_response": "g", "trial_id": "stroop-trial-1-incongruent-7", "trial_type": "html-keyboard-response", "trial_index": 211, "time_elapsed": 426872, "internal_node_id": "0.0-8.0-25.0"}}, {"uniqueid": "w44045294:a64065934", "current_trial": 212, "dateTime": 1664873888975, "trialdata": {"rt": 879, "stimulus": "<p id='stroop-text' class='stroop-red'>FORK</p>", "response": "r", "stimulus-type": "unrelated", "word": "FORK", "color": "red", "correct_response": "r", "trial_id": "stroop-trial-1-unrelated-1", "trial_type": "html-keyboard-response", "trial_index": 212, "time_elapsed": 428256, "internal_node_id": "0.0-8.0-26.0"}}, {"uniqueid": "w44045294:a64065934", "current_trial": 213, "dateTime": 1664873890112, "trialdata": {"rt": 633, "stimulus": "<p id='stroop-text' class='stroop-green'>BOAT</p>", "response": "g", "stimulus-type": "unrelated", "word": "BOAT", "color": "green", "correct_response": "g", "trial_id": "stroop-trial-1-unrelated-4", "trial_type": "html-keyboard-response", "trial_index": 213, "time_elapsed": 429392, "internal_node_id": "0.0-8.0-27.0"}}, {"uniqueid": "w44045294:a64065934", "current_trial": 214, "dateTime": 1664873891095, "trialdata": {"rt": 478, "stimulus": "<p id='stroop-text' class='stroop-green'>BRAIN</p>", "response": "g", "stimulus-type": "unrelated", "word": "BRAIN", "color": "green", "correct_response": "g", "trial_id": "stroop-trial-1-unrelated-11", "trial_type": "html-keyboard-response", "trial_index": 214, "time_elapsed": 430376, "internal_node_id": "0.0-8.0-28.0"}}, {"uniqueid": "w44045294:a64065934", "current_trial": 215, "dateTime": 1664873892119, "trialdata": {"rt": 520, "stimulus": "<p id='stroop-text' class='stroop-green'>BRAIN</p>", "response": "g", "stimulus-type": "unrelated", "word": "BRAIN", "color": "green", "correct_response": "g", "trial_id": "stroop-trial-1-unrelated-2", "trial_type": "html-keyboard-response", "trial_index": 215, "time_elapsed": 431400, "internal_node_id": "0.0-8.0-29.0"}}, {"uniqueid": "w44045294:a64065934", "current_trial": 216, "dateTime": 1664873893560, "trialdata": {"rt": 935, "stimulus": "<p id='stroop-text' class='stroop-yellow'>RED</p>", "response": "y", "stimulus-type": "incongruent", "word": "red", "color": "yellow", "correct_response": "y", "trial_id": "stroop-trial-1-incongruent-22", "trial_type": "html-keyboard-response", "trial_index": 216, "time_elapsed": 432840, "internal_node_id": "0.0-8.0-30.0"}}, {"uniqueid": "w44045294:a64065934", "current_trial": 217, "dateTime": 1664873895015, "trialdata": {"rt": 951, "stimulus": "<p id='stroop-text' class='stroop-blue'>GREEN</p>", "response": "b", "stimulus-type": "incongruent", "word": "green", "color": "blue", "correct_response": "b", "trial_id": "stroop-trial-1-incongruent-28", "trial_type": "html-keyboard-response", "trial_index": 217, "time_elapsed": 434296, "internal_node_id": "0.0-8.0-31.0"}}, {"uniqueid": "w44045294:a64065934", "current_trial": 218, "dateTime": 1664873896528, "trialdata": {"rt": 1007, "stimulus": "<p id='stroop-text' class='stroop-yellow'>RED</p>", "response": "y", "stimulus-type": "incongruent", "word": "red", "color": "yellow", "correct_response": "y", "trial_id": "stroop-trial-1-incongruent-2", "trial_type": "html-keyboard-response", "trial_index": 218, "time_elapsed": 435808, "internal_node_id": "0.0-8.0-32.0"}}, {"uniqueid": "w44045294:a64065934", "current_trial": 219, "dateTime": 1664873897711, "trialdata": {"rt": 679, "stimulus": "<p id='stroop-text' class='stroop-yellow'>SHIP</p>", "response": "y", "stimulus-type": "unrelated", "word": "SHIP", "color": "yellow", "correct_response": "y", "trial_id": "stroop-trial-1-unrelated-26", "trial_type": "html-keyboard-response", "trial_index": 219, "time_elapsed": 436992, "internal_node_id": "0.0-8.0-33.0"}}, {"uniqueid": "w44045294:a64065934", "current_trial": 220, "dateTime": 1664873899207, "trialdata": {"rt": 990, "stimulus": "<p id='stroop-text' class='stroop-blue'>GREEN</p>", "response": "r", "stimulus-type": "incongruent", "word": "green", "color": "blue", "correct_response": "b", "trial_id": "stroop-trial-1-incongruent-27", "trial_type": "html-keyboard-response", "trial_index": 220, "time_elapsed": 438488, "internal_node_id": "0.0-8.0-34.0"}}, {"uniqueid": "w44045294:a64065934", "current_trial": 221, "dateTime": 1664873900295, "trialdata": {"rt": 583, "stimulus": "<p id='stroop-text' class='stroop-blue'>BLUE</p>", "response": "b", "stimulus-type": "congruent", "word": "blue", "color": "blue", "correct_response": "b", "trial_id": "stroop-trial-1-congruent-25", "trial_type": "html-keyboard-response", "trial_index": 221, "time_elapsed": 439576, "internal_node_id": "0.0-8.0-35.0"}}, {"uniqueid": "w44045294:a64065934", "current_trial": 222, "dateTime": 1664873902775, "trialdata": {"rt": 1975, "stimulus": "<p id='stroop-text' class='stroop-green'>BLUE</p>", "response": "g", "stimulus-type": "incongruent", "word": "blue", "color": "green", "corre