{"condition": 0, "counterbalance": 0, "assignmentId": "a55393478", "workerId": "w57420999", "hitId": "h57530397", "currenttrial": 442, "bonus": 0, "data": [{"uniqueid": "w57420999:a55393478", "current_trial": 0, "dateTime": 1664368470994, "trialdata": {"success": true, "trial_type": "fullscreen", "trial_index": 0, "time_elapsed": 7607, "internal_node_id": "0.0-0.0"}}, {"uniqueid": "w57420999:a55393478", "current_trial": 1, "dateTime": 1664368516999, "trialdata": {"view_history": [{"page_index": 0, "viewing_time": 45992}], "rt": 45995, "trial_id": "exp_instructions_distractor", "trial_type": "instructions", "trial_index": 1, "time_elapsed": 53614, "internal_node_id": "0.0-1.0"}}, {"uniqueid": "w57420999:a55393478", "current_trial": 2, "dateTime": 1664368543356, "trialdata": {"view_history": [{"page_index": 0, "viewing_time": 26351}], "rt": 26352, "trial_id": "color_game_instructions", "trial_type": "instructions", "trial_index": 2, "time_elapsed": 79971, "internal_node_id": "0.0-2.0"}}, {"uniqueid": "w57420999:a55393478", "current_trial": 3, "dateTime": 1664368601279, "trialdata": {"rt": 57917, "stimulus": "<h1> Get ready to start the game! </h1>\n\nThank you for reading the instructions. Get ready start with the first of 5 block(s) of this game.\n<br><br>\nIn this first block, you will complete 90 rounds of this game before moving on.\n<br><br>\nRemember, the better you perform, the bigger your bonus will be!\n<br><br>\n<div style='text-align: center;'>Press <code>space</code> to begin.</div>", "response": " ", "trial_id": "stroop_1_ready_1", "trial_type": "html-keyboard-response", "trial_index": 3, "time_elapsed": 137894, "internal_node_id": "0.0-3.0"}}, {"uniqueid": "w57420999:a55393478", "current_trial": 4, "dateTime": 1664368602274, "trialdata": {"rt": 980, "stimulus": "<p id='stroop-text' class='stroop-red'>RED</p>", "response": "r", "stimulus-type": "congruent", "word": "red", "color": "red", "correct_response": "r", "trial_id": "stroop-trial-1-congruent-13", "trial_type": "html-keyboard-response", "trial_index": 4, "time_elapsed": 138887, "internal_node_id": "0.0-4.0-0.0"}}, {"uniqueid": "w57420999:a55393478", "current_trial": 5, "dateTime": 1664368603574, "trialdata": {"rt": 794, "stimulus": "<p id='stroop-text' class='stroop-red'>RED</p>", "response": "r", "stimulus-type": "congruent", "word": "red", "color": "red", "correct_response": "r", "trial_id": "stroop-trial-1-congruent-28", "trial_type": "html-keyboard-response", "trial_index": 5, "time_elapsed": 140188, "internal_node_id": "0.0-4.0-1.0"}}, {"uniqueid": "w57420999:a55393478", "current_trial": 6, "dateTime": 1664368605058, "trialdata": {"rt": 978, "stimulus": "<p id='stroop-text' class='stroop-green'>FORK</p>", "response": "g", "stimulus-type": "unrelated", "word": "FORK", "color": "green", "correct_response": "g", "trial_id": "stroop-trial-1-unrelated-10", "trial_type": "html-keyboard-response", "trial_index": 6, "time_elapsed": 141672, "internal_node_id": "0.0-4.0-2.0"}}, {"uniqueid": "w57420999:a55393478", "current_trial": 7, "dateTime": 1664368606303, "trialdata": {"rt": 739, "stimulus": "<p id='stroop-text' class='stroop-green'>CHAIR</p>", "response": "g", "stimulus-type": "unrelated", "word": "CHAIR", "color": "green", "correct_response": "g", "trial_id": "stroop-trial-1-unrelated-20", "trial_type": "html-keyboard-response", "trial_index": 7, "time_elapsed": 142916, "internal_node_id": "0.0-4.0-3.0"}}, {"uniqueid": "w57420999:a55393478", "current_trial": 8, "dateTime": 1664368607760, "trialdata": {"rt": 954, "stimulus": "<p id='stroop-text' class='stroop-green'>YELLOW</p>", "response": "g", "stimulus-type": "incongruent", "word": "yellow", "color": "green", "correct_response": "g", "trial_id": "stroop-trial-1-incongruent-12", "trial_type": "html-keyboard-response", "trial_index": 8, "time_elapsed": 144375, "internal_node_id": "0.0-4.0-4.0"}}, {"uniqueid": "w57420999:a55393478", "current_trial": 9, "dateTime": 1664368609454, "trialdata": {"rt": 1190, "stimulus": "<p id='stroop-text' class='stroop-green'>STONE</p>", "response": "g", "stimulus-type": "unrelated", "word": "STONE", "color": "green", "correct_response": "g", "trial_id": "stroop-trial-1-unrelated-19", "trial_type": "html-keyboard-response", "trial_index": 9, "time_elapsed": 146068, "internal_node_id": "0.0-4.0-5.0"}}, {"uniqueid": "w57420999:a55393478", "current_trial": 10, "dateTime": 1664368611347, "trialdata": {"rt": 1388, "stimulus": "<p id='stroop-text' class='stroop-blue'>RED</p>", "response": "b", "stimulus-type": "incongruent", "word": "red", "color": "blue", "correct_response": "b", "trial_id": "stroop-trial-1-incongruent-2", "trial_type": "html-keyboard-response", "trial_index": 10, "time_elapsed": 147961, "internal_node_id": "0.0-4.0-6.0"}}, {"uniqueid": "w57420999:a55393478", "current_trial": 11, "dateTime": 1664368612740, "trialdata": {"rt": 890, "stimulus": "<p id='stroop-text' class='stroop-green'>GREEN</p>", "response": "g", "stimulus-type": "congruent", "word": "green", "color": "green", "correct_response": "g", "trial_id": "stroop-trial-1-congruent-9", "trial_type": "html-keyboard-response", "trial_index": 11, "time_elapsed": 149355, "internal_node_id": "0.0-4.0-7.0"}}, {"uniqueid": "w57420999:a55393478", "current_trial": 12, "dateTime": 1664368613938, "trialdata": {"rt": 695, "stimulus": "<p id='stroop-text' class='stroop-green'>GREEN</p>", "response": "g", "stimulus-type": "congruent", "word": "green", "color": "green", "correct_response": "g", "trial_id": "stroop-trial-1-congruent-30", "trial_type": "html-keyboard-response", "trial_index": 12, "time_elapsed": 150552, "internal_node_id": "0.0-4.0-8.0"}}, {"uniqueid": "w57420999:a55393478", "current_trial": 13, "dateTime": 1664368615287, "trialdata": {"rt": 843, "stimulus": "<p id='stroop-text' class='stroop-red'>STONE</p>", "response": "r", "stimulus-type": "unrelated", "word": "STONE", "color": "red", "correct_response": "r", "trial_id": "stroop-trial-1-unrelated-24", "trial_type": "html-keyboard-response", "trial_index": 13, "time_elapsed": 151901, "internal_node_id": "0.0-4.0-9.0"}}, {"uniqueid": "w57420999:a55393478", "current_trial": 14, "dateTime": 1664368616907, "trialdata": {"rt": 1115, "stimulus": "<p id='stroop-text' class='stroop-blue'>GREEN</p>", "response": "b", "stimulus-type": "incongruent", "word": "green", "color": "blue", "correct_response": "b", "trial_id": "stroop-trial-1-incongruent-11", "trial_type": "html-keyboard-response", "trial_index": 14, "time_elapsed": 153521, "internal_node_id": "0.0-4.0-10.0"}}, {"uniqueid": "w57420999:a55393478", "current_trial": 15, "dateTime": 1664368618423, "trialdata": {"rt": 1013, "stimulus": "<p id='stroop-text' class='stroop-red'>RED</p>", "response": "r", "stimulus-type": "congruent", "word": "red", "color": "red", "correct_response": "r", "trial_id": "stroop-trial-1-congruent-19", "trial_type": "html-keyboard-response", "trial_index": 15, "time_elapsed": 155038, "internal_node_id": "0.0-4.0-11.0"}}, {"uniqueid": "w57420999:a55393478", "current_trial": 16, "dateTime": 1664368619891, "trialdata": {"rt": 964, "stimulus": "<p id='stroop-text' class='stroop-yellow'>BRIDGE</p>", "response": "y", "stimulus-type": "unrelated", "word": "BRIDGE", "color": "yellow", "correct_response": "y", "trial_id": "stroop-trial-1-unrelated-25", "trial_type": "html-keyboard-response", "trial_index": 16, "time_elapsed": 156505, "internal_node_id": "0.0-4.0-12.0"}}, {"uniqueid": "w57420999:a55393478", "current_trial": 17, "dateTime": 1664368621334, "trialdata": {"rt": 939, "stimulus": "<p id='stroop-text' class='stroop-red'>MONKEY</p>", "response": "r", "stimulus-type": "unrelated", "word": "MONKEY", "color": "red", "correct_response": "r", "trial_id": "stroop-trial-1-unrelated-30", "trial_type": "html-keyboard-response", "trial_index": 17, "time_elapsed": 157949, "internal_node_id": "0.0-4.0-13.0"}}, {"uniqueid": "w57420999:a55393478", "current_trial": 18, "dateTime": 1664368623058, "trialdata": {"rt": 1220, "stimulus": "<p id='stroop-text' class='stroop-blue'>BLUE</p>", "response": "b", "stimulus-type": "congruent", "word": "blue", "color": "blue", "correct_response": "b", "trial_id": "stroop-trial-1-congruent-17", "trial_type": "html-keyboard-response", "trial_index": 18, "time_elapsed": 159672, "internal_node_id": "0.0-4.0-14.0"}}, {"uniqueid": "w57420999:a55393478", "current_trial": 19, "dateTime": 1664368624504, "trialdata": {"rt": 943, "stimulus": "<p id='stroop-text' class='stroop-green'>RED</p>", "response": "g", "stimulus-type": "incongruent", "word": "red", "color": "green", "correct_response": "g", "trial_id": "stroop-trial-1-incongruent-30", "trial_type": "html-keyboard-response", "trial_index": 19, "time_elapsed": 161118, "internal_node_id": "0.0-4.0-15.0"}}, {"uniqueid": "w57420999:a55393478", "current_trial": 20, "dateTime": 1664368625788, "trialdata": {"rt": 773, "stimulus": "<p id='stroop-text' class='stroop-red'>RED</p>", "response": "r", "stimulus-type": "congruent", "word": "red", "color": "red", "correct_response": "r", "trial_id": "stroop-trial-1-congruent-24", "trial_type": "html-keyboard-response", "trial_index": 20, "time_elapsed": 162402, "internal_node_id": "0.0-4.0-16.0"}}, {"uniqueid": "w57420999:a55393478", "current_trial": 21, "dateTime": 1664368627152, "trialdata": {"rt": 859, "stimulus": "<p id='stroop-text' class='stroop-blue'>RED</p>", "response": "b", "stimulus-type": "incongruent", "word": "red", "color": "blue", "correct_response": "b", "trial_id": "stroop-trial-1-incongruent-17", "trial_type": "html-keyboard-response", "trial_index": 21, "time_elapsed": 163766, "internal_node_id": "0.0-4.0-17.0"}}, {"uniqueid": "w57420999:a55393478", "current_trial": 22, "dateTime": 1664368628595, "trialdata": {"rt": 939, "stimulus": "<p id='stroop-text' class='stroop-yellow'>BLUE</p>", "response": "y", "stimulus-type": "incongruent", "word": "blue", "color": "yellow", "correct_response": "y", "trial_id": "stroop-trial-1-incongruent-3", "trial_type": "html-keyboard-response", "trial_index": 22, "time_elapsed": 165210, "internal_node_id": "0.0-4.0-18.0"}}, {"uniqueid": "w57420999:a55393478", "current_trial": 23, "dateTime": 1664368629849, "trialdata": {"rt": 749, "stimulus": "<p id='stroop-text' class='stroop-red'>RED</p>", "response": "r", "stimulus-type": "congruent", "word": "red", "color": "red", "correct_response": "r", "trial_id": "stroop-trial-1-congruent-25", "trial_type": "html-keyboard-response", "trial_index": 23, "time_elapsed": 166463, "internal_node_id": "0.0-4.0-19.0"}}, {"uniqueid": "w57420999:a55393478", "current_trial": 24, "dateTime": 1664368631190, "trialdata": {"rt": 836, "stimulus": "<p id='stroop-text' class='stroop-green'>STONE</p>", "response": "g", "stimulus-type": "unrelated", "word": "STONE", "color": "green", "correct_response": "g", "trial_id": "stroop-trial-1-unrelated-5", "trial_type": "html-keyboard-response", "trial_index": 24, "time_elapsed": 167804, "internal_node_id": "0.0-4.0-20.0"}}, {"uniqueid": "w57420999:a55393478", "current_trial": 25, "dateTime": 1664368632929, "trialdata": {"rt": 1235, "stimulus": "<p id='stroop-text' class='stroop-yellow'>YELLOW</p>", "response": "y", "stimulus-type": "congruent", "word": "yellow", "color": "yellow", "correct_response": "y", "trial_id": "stroop-trial-1-congruent-27", "trial_type": "html-keyboard-response", "trial_index": 25, "time_elapsed": 169543, "internal_node_id": "0.0-4.0-21.0"}}, {"uniqueid": "w57420999:a55393478", "current_trial": 26, "dateTime": 1664368634245, "trialdata": {"rt": 811, "stimulus": "<p id='stroop-text' class='stroop-blue'>BLUE</p>", "response": "b", "stimulus-type": "congruent", "word": "blue", "color": "blue", "correct_response": "b", "trial_id": "stroop-trial-1-congruent-5", "trial_type": "html-keyboard-response", "trial_index": 26, "time_elapsed": 170859, "internal_node_id": "0.0-4.0-22.0"}}, {"uniqueid": "w57420999:a55393478", "current_trial": 27, "dateTime": 1664368635417, "trialdata": {"rt": 668, "stimulus": "<p id='stroop-text' class='stroop-blue'>BLUE</p>", "response": "b", "stimulus-type": "congruent", "word": "blue", "color": "blue", "correct_response": "b", "trial_id": "stroop-trial-1-congruent-1", "trial_type": "html-keyboard-response", "trial_index": 27, "time_elapsed": 172031, "internal_node_id": "0.0-4.0-23.0"}}, {"uniqueid": "w57420999:a55393478", "current_trial": 28, "dateTime": 1664368636973, "trialdata": {"rt": 1052, "stimulus": "<p id='stroop-text' class='stroop-blue'>BRIDGE</p>", "response": "b", "stimulus-type": "unrelated", "word": "BRIDGE", "color": "blue", "correct_response": "b", "trial_id": "stroop-trial-1-unrelated-6", "trial_type": "html-keyboard-response", "trial_index": 28, "time_elapsed": 173587, "internal_node_id": "0.0-4.0-24.0"}}, {"uniqueid": "w57420999:a55393478", "current_trial": 29, "dateTime": 1664368638209, "trialdata": {"rt": 732, "stimulus": "<p id='stroop-text' class='stroop-red'>BRAIN</p>", "response": "r", "stimulus-type": "unrelated", "word": "BRAIN", "color": "red", "correct_response": "r", "trial_id": "stroop-trial-1-unrelated-28", "trial_type": "html-keyboard-response", "trial_index": 29, "time_elapsed": 174824, "internal_node_id": "0.0-4.0-25.0"}}, {"uniqueid": "w57420999:a55393478", "current_trial": 30, "dateTime": 1664368640371, "trialdata": {"rt": 1658, "stimulus": "<p id='stroop-text' class='stroop-blue'>GREEN</p>", "response": "b", "stimulus-type": "incongruent", "word": "green", "color": "blue", "correct_response": "b", "trial_id": "stroop-trial-1-incongruent-14", "trial_type": "html-keyboard-response", "trial_index": 30, "time_elapsed": 176986, "internal_node_id": "0.0-4.0-26.0"}}, {"uniqueid": "w57420999:a55393478", "current_trial": 31, "dateTime": 1664368642337, "trialdata": {"rt": 1463, "stimulus": "<p id='stroop-text' class='stroop-blue'>YELLOW</p>", "response": "b", "stimulus-type": "incongruent", "word": "yellow", "color": "blue", "correct_response": "b", "trial_id": "stroop-trial-1-incongruent-20", "trial_type": "html-keyboard-response", "trial_index": 31, "time_elapsed": 178951, "internal_node_id": "0.0-4.0-27.0"}}, {"uniqueid": "w57420999:a55393478", "current_trial": 32, "dateTime": 1664368644195, "trialdata": {"rt": 1354, "stimulus": "<p id='stroop-text' class='stroop-green'>CHAIR</p>", "response": "g", "stimulus-type": "unrelated", "word": "CHAIR", "color": "green", "correct_response": "g", "trial_id": "stroop-trial-1-unrelated-1", "trial_type": "html-keyboard-response", "trial_index": 32, "time_elapsed": 180810, "internal_node_id": "0.0-4.0-28.0"}}, {"uniqueid": "w57420999:a55393478", "current_trial": 33, "dateTime": 1664368645473, "trialdata": {"rt": 775, "stimulus": "<p id='stroop-text' class='stroop-red'>GREEN</p>", "response": "r", "stimulus-type": "incongruent", "word": "green", "color": "red", "correct_response": "r", "trial_id": "stroop-trial-1-incongruent-10", "trial_type": "html-keyboard-response", "trial_index": 33, "time_elapsed": 182087, "internal_node_id": "0.0-4.0-29.0"}}, {"uniqueid": "w57420999:a55393478", "current_trial": 34, "dateTime": 1664368646581, "trialdata": {"rt": 603, "stimulus": "<p id='stroop-text' class='stroop-red'>RED</p>", "response": "r", "stimulus-type": "congruent", "word": "red", "color": "red", "correct_response": "r", "trial_id": "stroop-trial-1-congruent-20", "trial_type": "html-keyboard-response", "trial_index": 34, "time_elapsed": 183196, "internal_node_id": "0.0-4.0-30.0"}}, {"uniqueid": "w57420999:a55393478", "current_trial": 35, "dateTime": 1664368647962, "trialdata": {"rt": 876, "stimulus": "<p id='stroop-text' class='stroop-yellow'>FORK</p>", "response": "y", "stimulus-type": "unrelated", "word": "FORK", "color": "yellow", "correct_response": "y", "trial_id": "stroop-trial-1-unrelated-11", "trial_type": "html-keyboard-response", "trial_index": 35, "time_elapsed": 184577, "internal_node_id": "0.0-4.0-31.0"}}, {"uniqueid": "w57420999:a55393478", "current_trial": 36, "dateTime": 1664368649454, "trialdata": {"rt": 986, "stimulus": "<p id='stroop-text' class='stroop-blue'>SHIP</p>", "response": "b", "stimulus-type": "unrelated", "word": "SHIP", "color": "blue", "correct_response": "b", "trial_id": "stroop-trial-1-unrelated-8", "trial_type": "html-keyboard-response", "trial_index": 36, "time_elapsed": 186068, "internal_node_id": "0.0-4.0-32.0"}}, {"uniqueid": "w57420999:a55393478", "current_trial": 37, "dateTime": 1664368650978, "trialdata": {"rt": 1019, "stimulus": "<p id='stroop-text' class='stroop-blue'>RED</p>", "response": "b", "stimulus-type": "incongruent", "word": "red", "color": "blue", "correct_response": "b", "trial_id": "stroop-trial-1-incongruent-22", "trial_type": "html-keyboard-response", "trial_index": 37, "time_elapsed": 187592, "internal_node_id": "0.0-4.0-33.0"}}, {"uniqueid": "w57420999:a55393478", "current_trial": 38, "dateTime": 1664368652247, "trialdata": {"rt": 763, "stimulus": "<p id='stroop-text' class='stroop-blue'>BOTTLE</p>", "response": "b", "stimulus-type": "unrelated", "word": "BOTTLE", "color": "blue", "correct_response": "b", "trial_id": "stroop-trial-1-unrelated-7", "trial_type": "html-keyboard-response", "trial_index": 38, "time_elapsed": 188861, "internal_node_id": "0.0-4.0-34.0"}}, {"uniqueid": "w57420999:a55393478", "current_trial": 39, "dateTime": 1664368653564, "trialdata": {"rt": 812, "stimulus": "<p id='stroop-text' class='stroop-yellow'>BOTTLE</p>", "response": "y", "stimulus-type": "unrelated", "word": "BOTTLE", "color": "yellow", "correct_response": "y", "trial_id": "stroop-trial-1-unrelated-27", "trial_type": "html-keyboard-response", "trial_index": 39, "time_elapsed": 190178, "internal_node_id": "0.0-4.0-35.0"}}, {"uniqueid": "w57420999:a55393478", "current_trial": 40, "dateTime": 1664368654807, "trialdata": {"rt": 739, "stimulus": "<p id='stroop-text' class='stroop-red'>RED</p>", "response": "r", "stimulus-type": "congruent", "word": "red", "color": "red", "correct_response": "r", "trial_id": "stroop-trial-1-congruent-12", "trial_type": "html-keyboard-response", "trial_index": 40, "time_elapsed": 191421, "internal_node_id": "0.0-4.0-36.0"}}, {"uniqueid": "w57420999:a55393478", "current_trial": 41, "dateTime": 1664368656651, "trialdata": {"rt": 1339, "stimulus": "<p id='stroop-text' class='stroop-blue'>BLUE</p>", "response": "b", "stimulus-type": "congruent", "word": "blue", "color": "blue", "correct_response": "b", "trial_id": "stroop-trial-1-congruent-22", "trial_type": "html-keyboard-response", "trial_index": 41, "time_elapsed": 193265, "internal_node_id": "0.0-4.0-37.0"}}, {"uniqueid": "w57420999:a55393478", "current_trial": 42, "dateTime": 1664368658246, "trialdata": {"rt": 1091, "stimulus": "<p id='stroop-text' class='stroop-yellow'>BOTTLE</p>", "response": "y", "stimulus-type": "unrelated", "word": "BOTTLE", "color": "yellow", "correct_response": "y", "trial_id": "stroop-trial-1-unrelated-15", "trial_type": "html-keyboard-response", "trial_index": 42, "time_elapsed": 194861, "internal_node_id": "0.0-4.0-38.0"}}, {"uniqueid": "w57420999:a55393478", "current_trial": 43, "dateTime": 1664368659883, "trialdata": {"rt": 1132, "stimulus": "<p id='stroop-text' class='stroop-red'>YELLOW</p>", "response": "r", "stimulus-type": "incongruent", "word": "yellow", "color": "red", "correct_response": "r", "trial_id": "stroop-trial-1-incongruent-15", "trial_type": "html-keyboard-response", "trial_index": 43, "time_elapsed": 196497, "internal_node_id": "0.0-4.0-39.0"}}, {"uniqueid": "w57420999:a55393478", "current_trial": 44, "dateTime": 1664368662223, "trialdata": {"rt": 1834, "stimulus": "<p id='stroop-text' class='stroop-yellow'>BRIDGE</p>", "response": "y", "stimulus-type": "unrelated", "word": "BRIDGE", "color": "yellow", "correct_response": "y", "trial_id": "stroop-trial-1-unrelated-4", "trial_type": "html-keyboard-response", "trial_index": 44, "time_elapsed": 198837, "internal_node_id": "0.0-4.0-40.0"}}, {"uniqueid": "w57420999:a55393478", "current_trial": 45, "dateTime": 1664368663587, "trialdata": {"rt": 860, "stimulus": "<p id='stroop-text' class='stroop-yellow'>RED</p>", "response": "y", "stimulus-type": "incongruent", "word": "red", "color": "yellow", "correct_response": "y", "trial_id": "stroop-trial-1-incongruent-19", "trial_type": "html-keyboard-response", "trial_index": 45, "time_elapsed": 200201, "internal_node_id": "0.0-4.0-41.0"}}, {"uniqueid": "w57420999:a55393478", "current_trial": 46, "dateTime": 1664368664919, "trialdata": {"rt": 827, "stimulus": "<p id='stroop-text' class='stroop-red'>BLUE</p>", "response": "r", "stimulus-type": "incongruent", "word": "blue", "color": "red", "correct_response": "r", "trial_id": "stroop-trial-1-incongruent-25", "trial_type": "html-keyboard-response", "trial_index": 46, "time_elapsed": 201533, "internal_node_id": "0.0-4.0-42.0"}}, {"uniqueid": "w57420999:a55393478", "current_trial": 47, "dateTime": 1664368666242, "trialdata": {"rt": 820, "stimulus": "<p id='stroop-text' class='stroop-yellow'>YELLOW</p>", "response": "y", "stimulus-type": "congruent", "word": "yellow", "color": "yellow", "correct_response": "y", "trial_id": "stroop-trial-1-congruent-6", "trial_type": "html-keyboard-response", "trial_index": 47, "time_elapsed": 202857, "internal_node_id": "0.0-4.0-43.0"}}, {"uniqueid": "w57420999:a55393478", "current_trial": 48, "dateTime": 1664368667345, "trialdata": {"rt": 597, "stimulus": "<p id='stroop-text' class='stroop-yellow'>YELLOW</p>", "response": "y", "stimulus-type": "congruent", "word": "yellow", "color": "yellow", "correct_response": "y", "trial_id": "stroop-trial-1-congruent-4", "trial_type": "html-keyboard-response", "trial_index": 48, "time_elapsed": 203959, "internal_node_id": "0.0-4.0-44.0"}}, {"uniqueid": "w57420999:a55393478", "current_trial": 49, "dateTime": 1664368668787, "trialdata": {"rt": 937, "stimulus": "<p id='stroop-text' class='stroop-blue'>RED</p>", "response": "b", "stimulus-type": "incongruent", "word": "red", "color": "blue", "correct_response": "b", "trial_id": "stroop-trial-1-incongruent-18", "trial_type": "html-keyboard-response", "trial_index": 49, "time_elapsed": 205402, "internal_node_id": "0.0-4.0-45.0"}}, {"uniqueid": "w57420999:a55393478", "current_trial": 50, "dateTime": 1664368669759, "trialdata": {"rt": 467, "stimulus": "<p id='stroop-text' class='stroop-blue'>RED</p>", "response": "b", "stimulus-type": "incongruent", "word": "red", "color": "blue", "correct_response": "b", "trial_id": "stroop-trial-1-incongruent-29", "trial_type": "html-keyboard-response", "trial_index": 50, "time_elapsed": 206373, "internal_node_id": "0.0-4.0-46.0"}}, {"uniqueid": "w57420999:a55393478", "current_trial": 51, "dateTime": 1664368671165, "trialdata": {"rt": 901, "stimulus": "<p id='stroop-text' class='stroop-yellow'>RED</p>", "response": "y", "stimulus-type": "incongruent", "word": "red", "color": "yellow", "correct_response": "y", "trial_id": "stroop-trial-1-incongruent-26", "trial_type": "html-keyboard-response", "trial_index": 51, "time_elapsed": 207779, "internal_node_id": "0.0-4.0-47.0"}}, {"uniqueid": "w57420999:a55393478", "current_trial": 52, "dateTime": 1664368672736, "trialdata": {"rt": 1066, "stimulus": "<p id='stroop-text' class='stroop-green'>RED</p>", "response": "g", "stimulus-type": "incongruent", "word": "red", "color": "green", "correct_response": "g", "trial_id": "stroop-trial-1-incongruent-1", "trial_type": "html-keyboard-response", "trial_index": 52, "time_elapsed": 209350, "internal_node_id": "0.0-4.0-48.0"}}, {"uniqueid": "w57420999:a55393478", "current_trial": 53, "dateTime": 1664368674068, "trialdata": {"rt": 828, "stimulus": "<p id='stroop-text' class='stroop-yellow'>DOG</p>", "response": "y", "stimulus-type": "unrelated", "word": "DOG", "color": "yellow", "correct_response": "y", "trial_id": "stroop-trial-1-unrelated-13", "trial_type": "html-keyboard-response", "trial_index": 53, "time_elapsed": 210682, "internal_node_id": "0.0-4.0-49.0"}}, {"uniqueid": "w57420999:a55393478", "current_trial": 54, "dateTime": 1664368675225, "trialdata": {"rt": 654, "stimulus": "<p id='stroop-text' class='stroop-yellow'>YELLOW</p>", "response": "y", "stimulus-type": "congruent", "word": "yellow", "color": "yellow", "correct_response": "y", "trial_id": "stroop-trial-1-congruent-18", "trial_type": "html-keyboard-response", "trial_index": 54, "time_elapsed": 211840, "internal_node_id": "0.0-4.0-50.0"}}, {"uniqueid": "w57420999:a55393478", "current_trial": 55, "dateTime": 1664368676429, "trialdata": {"rt": 697, "stimulus": "<p id='stroop-text' class='stroop-red'>RED</p>", "response": "r", "stimulus-type": "congruent", "word": "red", "color": "red", "correct_response": "r", "trial_id": "stroop-trial-1-congruent-2", "trial_type": "html-keyboard-response", "trial_index": 55, "time_elapsed": 213043, "internal_node_id": "0.0-4.0-51.0"}}, {"uniqueid": "w57420999:a55393478", "current_trial": 56, "dateTime": 1664368677858, "trialdata": {"rt": 924, "stimulus": "<p id='stroop-text' class='stroop-green'>GREEN</p>", "response": "g", "stimulus-type": "congruent", "word": "green", "color": "green", "correct_response": "g", "trial_id": "stroop-trial-1-congruent-14", "trial_type": "html-keyboard-response", "trial_index": 56, "time_elapsed": 214472, "internal_node_id": "0.0-4.0-52.0"}}, {"uniqueid": "w57420999:a55393478", "current_trial": 57, "dateTime": 1664368679047, "trialdata": {"rt": 683, "stimulus": "<p id='stroop-text' class='stroop-green'>STONE</p>", "response": "g", "stimulus-type": "unrelated", "word": "STONE", "color": "green", "correct_response": "g", "trial_id": "stroop-trial-1-unrelated-9", "trial_type": "html-keyboard-response", "trial_index": 57, "time_elapsed": 215661, "internal_node_id": "0.0-4.0-53.0"}}, {"uniqueid": "w57420999:a55393478", "current_trial": 58, "dateTime": 1664368681017, "trialdata": {"rt": 1466, "stimulus": "<p id='stroop-text' class='stroop-red'>BLUE</p>", "response": "r", "stimulus-type": "incongruent", "word": "blue", "color": "red", "correct_response": "r", "trial_id": "stroop-trial-1-incongruent-24", "trial_type": "html-keyboard-response", "trial_index": 58, "time_elapsed": 217631, "internal_node_id": "0.0-4.0-54.0"}}, {"uniqueid": "w57420999:a55393478", "current_trial": 59, "dateTime": 1664368682222, "trialdata": {"rt": 700, "stimulus": "<p id='stroop-text' class='stroop-red'>RED</p>", "response": "r", "stimulus-type": "congruent", "word": "red", "color": "red", "correct_response": "r", "trial_id": "stroop-trial-1-congruent-15", "trial_type": "html-keyboard-response", "trial_index": 59, "time_elapsed": 218836, "internal_node_id": "0.0-4.0-55.0"}}, {"uniqueid": "w57420999:a55393478", "current_trial": 60, "dateTime": 1664368683451, "trialdata": {"rt": 724, "stimulus": "<p id='stroop-text' class='stroop-red'>BRIDGE</p>", "response": "r", "stimulus-type": "unrelated", "word": "BRIDGE", "color": "red", "correct_response": "r", "trial_id": "stroop-trial-1-unrelated-3", "trial_type": "html-keyboard-response", "trial_index": 60, "time_elapsed": 220065, "internal_node_id": "0.0-4.0-56.0"}}, {"uniqueid": "w57420999:a55393478", "current_trial": 61, "dateTime": 1664368684680, "trialdata": {"rt": 719, "stimulus": "<p id='stroop-text' class='stroop-green'>GREEN</p>", "response": "g", "stimulus-type": "congruent", "word": "green", "color": "green", "correct_response": "g", "trial_id": "stroop-trial-1-congruent-3", "trial_type": "html-keyboard-response", "trial_index": 61, "time_elapsed": 221294, "internal_node_id": "0.0-4.0-57.0"}}, {"uniqueid": "w57420999:a55393478", "current_trial": 62, "dateTime": 1664368686842, "trialdata": {"rt": 1657, "stimulus": "<p id='stroop-text' class='stroop-blue'>RED</p>", "response": "b", "stimulus-type": "incongruent", "word": "red", "color": "blue", "correct_response": "b", "trial_id": "stroop-trial-1-incongruent-28", "trial_type": "html-keyboard-response", "trial_index": 62, "time_elapsed": 223457, "internal_node_id": "0.0-4.0-58.0"}}, {"uniqueid": "w57420999:a55393478", "current_trial": 63, "dateTime": 1664368688925, "trialdata": {"rt": 1578, "stimulus": "<p id='stroop-text' class='stroop-red'>CHAIR</p>", "response": "r", "stimulus-type": "unrelated", "word": "CHAIR", "color": "red", "correct_response": "r", "trial_id": "stroop-trial-1-unrelated-12", "trial_type": "html-keyboard-response", "trial_index": 63, "time_elapsed": 225539, "internal_node_id": "0.0-4.0-59.0"}}, {"uniqueid": "w57420999:a55393478", "current_trial": 64, "dateTime": 1664368690097, "trialdata": {"rt": 670, "stimulus": "<p id='stroop-text' class='stroop-red'>YELLOW</p>", "response": "r", "stimulus-type": "incongruent", "word": "yellow", "color": "red", "correct_response": "r", "trial_id": "stroop-trial-1-incongruent-7", "trial_type": "html-keyboard-response", "trial_index": 64, "time_elapsed": 226712, "internal_node_id": "0.0-4.0-60.0"}}, {"uniqueid": "w57420999:a55393478", "current_trial": 65, "dateTime": 1664368691431, "trialdata": {"rt": 831, "stimulus": "<p id='stroop-text' class='stroop-yellow'>GREEN</p>", "response": "y", "stimulus-type": "incongruent", "word": "green", "color": "yellow", "correct_response": "y", "trial_id": "stroop-trial-1-incongruent-21", "trial_type": "html-keyboard-response", "trial_index": 65, "time_elapsed": 228045, "internal_node_id": "0.0-4.0-61.0"}}, {"uniqueid": "w57420999:a55393478", "current_trial": 66, "dateTime": 1664368692795, "trialdata": {"rt": 860, "stimulus": "<p id='stroop-text' class='stroop-green'>FORK</p>", "response": "g", "stimulus-type": "unrelated", "word": "FORK", "color": "green", "correct_response": "g", "trial_id": "stroop-trial-1-unrelated-18", "trial_type": "html-keyboard-response", "trial_index": 66, "time_elapsed": 229409, "internal_node_id": "0.0-4.0-62.0"}}, {"uniqueid": "w57420999:a55393478", "current_trial": 67, "dateTime": 1664368694038, "trialdata": {"rt": 734, "stimulus": "<p id='stroop-text' class='stroop-red'>FORK</p>", "response": "r", "stimulus-type": "unrelated", "word": "FORK", "color": "red", "correct_response": "r", "trial_id": "stroop-trial-1-unrelated-26", "trial_type": "html-keyboard-response", "trial_index": 67, "time_elapsed": 230653, "internal_node_id": "0.0-4.0-63.0"}}, {"uniqueid": "w57420999:a55393478", "current_trial": 68, "dateTime": 1664368695108, "trialdata": {"rt": 565, "stimulus": "<p id='stroop-text' class='stroop-red'>RED</p>", "response": "r", "stimulus-type": "congruent", "word": "red", "color": "red", "correct_response": "r", "trial_id": "stroop-trial-1-congruent-21", "trial_type": "html-keyboard-response", "trial_index": 68, "time_elapsed": 231722, "internal_node_id": "0.0-4.0-64.0"}}, {"uniqueid": "w57420999:a55393478", "current_trial": 69, "dateTime": 1664368696552, "trialdata": {"rt": 939, "stimulus": "<p id='stroop-text' class='stroop-blue'>YELLOW</p>", "response": "b", "stimulus-type": "incongruent", "word": "yellow", "color": "blue", "correct_response": "b", "trial_id": "stroop-trial-1-incongruent-23", "trial_type": "html-keyboard-response", "trial_index": 69, "time_elapsed": 233166, "internal_node_id": "0.0-4.0-65.0"}}, {"uniqueid": "w57420999:a55393478", "current_trial": 70, "dateTime": 1664368697956, "trialdata": {"rt": 900, "stimulus": "<p id='stroop-text' class='stroop-blue'>BLUE</p>", "response": "b", "stimulus-type": "congruent", "word": "blue", "color": "blue", "correct_response": "b", "trial_id": "stroop-trial-1-congruent-7", "trial_type": "html-keyboard-response", "trial_index": 70, "time_elapsed": 234570, "internal_node_id": "0.0-4.0-66.0"}}, {"uniqueid": "w57420999:a55393478", "current_trial": 71, "dateTime": 1664368699138, "trialdata": {"rt": 677, "stimulus": "<p id='stroop-text' class='stroop-red'>YELLOW</p>", "response": "r", "stimulus-type": "incongruent", "word": "yellow", "color": "red", "correct_response": "r", "trial_id": "stroop-trial-1-incongruent-8", "trial_type": "html-keyboard-response", "trial_index": 71, "time_elapsed": 235752, "internal_node_id": "0.0-4.0-67.0"}}, {"uniqueid": "w57420999:a55393478", "current_trial": 72, "dateTime": 1664368700414, "trialdata": {"rt": 770, "stimulus": "<p id='stroop-text' class='stroop-blue'>SHIP</p>", "response": "b", "stimulus-type": "unrelated", "word": "SHIP", "color": "blue", "correct_response": "b", "trial_id": "stroop-trial-1-unrelated-17", "trial_type": "html-keyboard-response", "trial_index": 72, "time_elapsed": 237028, "internal_node_id": "0.0-4.0-68.0"}}, {"uniqueid": "w57420999:a55393478", "current_trial": 73, "dateTime": 1664368702145, "trialdata": {"rt": 1225, "stimulus": "<p id='stroop-text' class='stroop-red'>YELLOW</p>", "response": "r", "stimulus-type": "incongruent", "word": "yellow", "color": "red", "correct_response": "r", "trial_id": "stroop-trial-1-incongruent-4", "trial_type": "html-keyboard-response", "trial_index": 73, "time_elapsed": 238759, "internal_node_id": "0.0-4.0-69.0"}}, {"uniqueid": "w57420999:a55393478", "current_trial": 74, "dateTime": 1664368703445, "trialdata": {"rt": 795, "stimulus": "<p id='stroop-text' class='stroop-green'>GREEN</p>", "response": "g", "stimulus-type": "congruent", "word": "green", "color": "green", "correct_response": "g", "trial_id": "stroop-trial-1-congruent-29", "trial_type": "html-keyboard-response", "trial_index": 74, "time_elapsed": 240060, "internal_node_id": "0.0-4.0-70.0"}}, {"uniqueid": "w57420999:a55393478", "current_trial": 75, "dateTime": 1664368704818, "trialdata": {"rt": 868, "stimulus": "<p id='stroop-text' class='stroop-blue'>STONE</p>", "response": "b", "stimulus-type": "unrelated", "word": "STONE", "color": "blue", "correct_response": "b", "trial_id": "stroop-trial-1-unrelated-16", "trial_type": "html-keyboard-response", "trial_index": 75, "time_elapsed": 241432, "internal_node_id": "0.0-4.0-71.0"}}, {"uniqueid": "w57420999:a55393478", "current_trial": 76, "dateTime": 1664368706198, "trialdata": {"rt": 875, "stimulus": "<p id='stroop-text' class='stroop-green'>BRAIN</p>", "response": "g", "stimulus-type": "unrelated", "word": "BRAIN", "color": "green", "correct_response": "g", "trial_id": "stroop-trial-1-unrelated-2", "trial_type": "html-keyboard-response", "trial_index": 76, "time_elapsed": 242813, "internal_node_id": "0.0-4.0-72.0"}}, {"uniqueid": "w57420999:a55393478", "current_trial": 77, "dateTime": 1664368707595, "trialdata": {"rt": 890, "stimulus": "<p id='stroop-text' class='stroop-yellow'>YELLOW</p>", "response": "y", "stimulus-type": "congruent", "word": "yellow", "color": "yellow", "correct_response": "y", "trial_id": "stroop-trial-1-congruent-23", "trial_type": "html-keyboard-response", "trial_index": 77, "time_elapsed": 244209, "internal_node_id": "0.0-4.0-73.0"}}, {"uniqueid": "w57420999:a55393478", "current_trial": 78, "dateTime": 1664368709046, "trialdata": {"rt": 947, "stimulus": "<p id='stroop-text' class='stroop-green'>GREEN</p>", "response": "g", "stimulus-type": "congruent", "word": "green", "color": "green", "correct_response": "g", "trial_id": "stroop-trial-1-congruent-10", "trial_type": "html-keyboard-response", "trial_index": 78, "time_elapsed": 245661, "internal_node_id": "0.0-4.0-74.0"}}, {"uniqueid": "w57420999:a55393478", "current_trial": 79, "dateTime": 1664368710403, "trialdata": {"rt": 851, "stimulus": "<p id='stroop-text' class='stroop-blue'>BLUE</p>", "response": "b", "stimulus-type": "congruent", "word": "blue", "color": "blue", "correct_response": "b", "trial_id": "stroop-trial-1-congruent-16", "trial_type": "html-keyboard-response", "trial_index": 79, "time_elapsed": 247017, "internal_node_id": "0.0-4.0-75.0"}}, {"uniqueid": "w57420999:a55393478", "current_trial": 80, "dateTime": 1664368711783, "trialdata": {"rt": 876, "stimulus": "<p id='stroop-text' class='stroop-green'>GREEN</p>", "response": "g", "stimulus-type": "congruent", "word": "green", "color": "green", "correct_response": "g", "trial_id": "stroop-trial-1-congruent-11", "trial_type": "html-keyboard-response", "trial_index": 80, "time_elapsed": 248397, "internal_node_id": "0.0-4.0-76.0"}}, {"uniqueid": "w57420999:a55393478", "current_trial": 81, "dateTime": 1664368713395, "trialdata": {"rt": 1106, "stimulus": "<p id='stroop-text' class='stroop-blue'>BRIDGE</p>", "response": "b", "stimulus-type": "unrelated", "word": "BRIDGE", "color": "blue", "correct_response": "b", "trial_id": "stroop-trial-1-unrelated-23", "trial_type": "html-keyboard-response", "trial_index": 81, "time_elapsed": 250009, "internal_node_id": "0.0-4.0-77.0"}}, {"uniqueid": "w57420999:a55393478", "current_trial": 82, "dateTime": 1664368714648, "trialdata": {"rt": 746, "stimulus": "<p id='stroop-text' class='stroop-green'>GREEN</p>", "response": "g", "stimulus-type": "congruent", "word": "green", "color": "green", "correct_response": "g", "trial_id": "stroop-trial-1-congruent-26", "trial_type": "html-keyboard-response", "trial_index": 82, "time_elapsed": 251262, "internal_node_id": "0.0-4.0-78.0"}}, {"uniqueid": "w57420999:a55393478", "current_trial": 83, "dateTime": 1664368715868, "trialdata": {"rt": 716, "stimulus": "<p id='stroop-text' class='stroop-green'>CHAIR</p>", "response": "g", "stimulus-type": "unrelated", "word": "CHAIR", "color": "green", "correct_response": "g", "trial_id": "stroop-trial-1-unrelated-22", "trial_type": "html-keyboard-response", "trial_index": 83, "time_elapsed": 252482, "internal_node_id": "0.0-4.0-79.0"}}, {"uniqueid": "w57420999:a55393478", "current_trial": 84, "dateTime": 1664368717177, "trialdata": {"rt": 803, "stimulus": "<p id='stroop-text' class='stroop-blue'>YELLOW</p>", "response": "b", "stimulus-type": "incongruent", "word": "yellow", "color": "blue", "correct_response": "b", "trial_id": "stroop-trial-1-incongruent-13", "trial_type": "html-keyboard-response", "trial_index": 84, "time_elapsed": 253791, "internal_node_id": "0.0-4.0-80.0"}}, {"uniqueid": "w57420999:a55393478", "current_trial": 85, "dateTime": 1664368718476, "trialdata": {"rt": 793, "stimulus": "<p id='stroop-text' class='stroop-blue'>GREEN</p>", "response": "b", "stimulus-type": "incongruent", "word": "green", "color": "blue", "correct_response": "b", "trial_id": "stroop-trial-1-incongruent-16", "trial_type": "html-keyboard-response", "trial_index": 85, "time_elapsed": 255091, "internal_node_id": "0.0-4.0-81.0"}}, {"uniqueid": "w57420999:a55393478", "current_trial": 86, "dateTime": 1664368719865, "trialdata": {"rt": 884, "stimulus": "<p id='stroop-text' class='stroop-green'>RED</p>", "response": "g", "stimulus-type": "incongruent", "word": "red", "color": "green", "correct_response": "g", "trial_id": "stroop-trial-1-incongruent-27", "trial_type": "html-keyboard-response", "trial_index": 86, "time_elapsed": 256479, "internal_node_id": "0.0-4.0-82.0"}}, {"uniqueid": "w57420999:a55393478", "current_trial": 87, "dateTime": 1664368721190, "trialdata": {"rt": 819, "stimulus": "<p id='stroop-text' class='stroop-yellow'>MONKEY</p>", "response": "y", "stimulus-type": "unrelated", "word": "MONKEY", "color": "yellow", "correct_response": "y", "trial_id": "stroop-trial-1-unrelated-14", "trial_type": "html-keyboard-response", "trial_index": 87, "time_elapsed": 257805, "internal_node_id": "0.0-4.0-83.0"}}, {"uniqueid": "w57420999:a55393478", "current_trial": 88, "dateTime": 1664368722418, "trialdata": {"rt": 723, "stimulus": "<p id='stroop-text' class='stroop-red'>GREEN</p>", "response": "r", "stimulus-type": "incongruent", "word": "green", "color": "red", "correct_response": "r", "trial_id": "stroop-trial-1-incongruent-6", "trial_type": "html-keyboard-response", "trial_index": 88, "time_elapsed": 259032, "internal_node_id": "0.0-4.0-84.0"}}, {"uniqueid": "w57420999:a55393478", "current_trial": 89, "dateTime": 1664368723549, "trialdata": {"rt": 626, "stimulus": "<p id='stroop-text' class='stroop-red'>DOG</p>", "response": "r", "stimulus-type": "unrelated", "word": "DOG", "color": "red", "correct_response": "r", "trial_id": "stroop-trial-1-unrelated-29", "trial_type": "html-keyboard-response", "trial_index": 89, "time_elapsed": 260164, "internal_node_id": "0.0-4.0-85.0"}}, {"uniqueid": "w57420999:a55393478", "current_trial": 90, "dateTime": 1664368725705, "trialdata": {"rt": 1653, "stimulus": "<p id='stroop-text' class='stroop-yellow'>GREEN</p>", "response": "y", "stimulus-type": "incongruent", "word": "green", "color": "yellow", "correct_response": "y", "trial_id": "stroop-trial-1-incongruent-5", "trial_type": "html-keyboard-response", "trial_index": 90, "time_elapsed": 262319, "internal_node_id": "0.0-4.0-86.0"}}, {"uniqueid": "w57420999:a55393478", "current_trial": 91, "dateTime": 1664368727125, "trialdata": {"rt": 915, "stimulus": "<p id='stroop-text' class='stroop-green'>GREEN</p>", "response": "g", "stimulus-type": "congruent", "word": "green", "color": "green", "correct_response": "g", "trial_id": "stroop-trial-1-congruent-8", "trial_type": "html-keyboard-response", "trial_index": 91, "time_elapsed": 263740, "internal_node_id": "0.0-4.0-87.0"}}, {"uniqueid": "w57420999:a55393478", "current_trial": 92, "dateTime": 1664368728474, "trialdata": {"rt": 844, "stimulus": "<p id='stroop-text' class='stroop-yellow'>BOAT</p>", "response": "y", "stimulus-type": "unrelated", "word": "BOAT", "color": "yellow", "correct_response": "y", "trial_id": "stroop-trial-1-unrelated-21", "trial_type": "html-keyboard-response", "trial_index": 92, "time_elapsed": 265088, "internal_node_id": "0.0-4.0-88.0"}}, {"uniqueid": "w57420999:a55393478", "current_trial": 93, "dateTime": 1664368729837, "trialdata": {"rt": 860, "stimulus": "<p id='stroop-text' class='stroop-green'>RED</p>", "response": "g", "stimulus-type": "incongruent", "word": "red", "color": "green", "correct_response": "g", "trial_id": "stroop-trial-1-incongruent-9", "trial_type": "html-keyboard-response", "trial_index": 93, "time_elapsed": 266452, "internal_node_id": "0.0-4.0-89.0"}}, {"uniqueid": "w57420999:a55393478", "current_trial": 94, "dateTime": 1664368753410, "trialdata": {"rt": 23065, "stimulus": "  <h1> End of block! </h1>\n\n  You have reached the end of the block 1/5. If you need a short break, feel free to take one now before moving on.\n\n  <br><br>\n  In the next block, you will complete another 90 rounds of this game.\n\n  <br><br>\n  <div style='text-align: center;'>Press <code>space</code> to begin.</div>\n  <br><br>\n<div style='text-align: center;'>(If the experiment doesn't continue, try clicking on the text and then pressing <code>space</code>.)</div>", "response": " ", "trial_id": "stroop_1_ready_2", "trial_type": "html-keyboard-response", "trial_index": 94, "time_elapsed": 290024, "internal_node_id": "0.0-5.0"}}, {"uniqueid": "w57420999:a55393478", "current_trial": 95, "dateTime": 1664368754461, "trialdata": {"rt": 1043, "stimulus": "<p id='stroop-text' class='stroop-yellow'>BOTTLE</p>", "response": "y", "stimulus-type": "unrelated", "word": "BOTTLE", "color": "yellow", "correct_response": "y", "trial_id": "stroop-trial-1-unrelated-21", "trial_type": "html-keyboard-response", "trial_index": 95, "time_elapsed": 291075, "internal_node_id": "0.0-6.0-0.0"}}, {"uniqueid": "w57420999:a55393478", "current_trial": 96, "dateTime": 1664368755800, "trialdata": {"rt": 833, "stimulus": "<p id='stroop-text' class='stroop-red'>BLUE</p>", "response": "r", "stimulus-type": "incongruent", "word": "blue", "color": "red", "correct_response": "r", "trial_id": "stroop-trial-1-incongruent-16", "trial_type": "html-keyboard-response", "trial_index": 96, "time_elapsed": 292414, "internal_node_id": "0.0-6.0-1.0"}}, {"uniqueid": "w57420999:a55393478", "current_trial": 97, "dateTime": 1664368756940, "trialdata": {"rt": 634, "stimulus": "<p id='stroop-text' class='stroop-red'>YELLOW</p>", "response": "r", "stimulus-type": "incongruent", "word": "yellow", "color": "red", "correct_response": "r", "trial_id": "stroop-trial-1-incongruent-21", "trial_type": "html-keyboard-response", "trial_index": 97, "time_elapsed": 293554, "internal_node_id": "0.0-6.0-2.0"}}, {"uniqueid": "w57420999:a55393478", "current_trial": 98, "dateTime": 1664368758218, "trialdata": {"rt": 773, "stimulus": "<p id='stroop-text' class='stroop-yellow'>YELLOW</p>", "response": "y", "stimulus-type": "congruent", "word": "yellow", "color": "yellow", "correct_response": "y", "trial_id": "stroop-trial-1-congruent-5", "trial_type": "html-keyboard-response", "trial_index": 98, "time_elapsed": 294832, "internal_node_id": "0.0-6.0-3.0"}}, {"uniqueid": "w57420999:a55393478", "current_trial": 99, "dateTime": 1664368759405, "trialdata": {"rt": 682, "stimulus": "<p id='stroop-text' class='stroop-red'>BOTTLE</p>", "response": "r", "stimulus-type": "unrelated", "word": "BOTTLE", "color": "red", "correct_response": "r", "trial_id": "stroop-trial-1-unrelated-13", "trial_type": "html-keyboard-response", "trial_index": 99, "time_elapsed": 296019, "internal_node_id": "0.0-6.0-4.0"}}, {"uniqueid": "w57420999:a55393478", "current_trial": 100, "dateTime": 1664368760475, "trialdata": {"rt": 564, "stimulus": "<p id='stroop-text' class='stroop-yellow'>RED</p>", "response": "y", "stimulus-type": "incongruent", "word": "red", "color": "yellow", "correct_response": "y", "trial_id": "stroop-trial-1-incongruent-17", "trial_type": "html-keyboard-response", "trial_index": 100, "time_elapsed": 297089, "internal_node_id": "0.0-6.0-5.0"}}, {"uniqueid": "w57420999:a55393478", "current_trial": 101, "dateTime": 1664368761479, "trialdata": {"rt": 496, "stimulus": "<p id='stroop-text' class='stroop-red'>RED</p>", "response": "r", "stimulus-type": "congruent", "word": "red", "color": "red", "correct_response": "r", "trial_id": "stroop-trial-1-congruent-6", "trial_type": "html-keyboard-response", "trial_index": 101, "time_elapsed": 298093, "internal_node_id": "0.0-6.0-6.0"}}, {"uniqueid": "w57420999:a55393478", "current_trial": 102, "dateTime": 1664368762452, "trialdata": {"rt": 467, "stimulus": "<p id='stroop-text' class='stroop-yellow'>YELLOW</p>", "response": "y", "stimulus-type": "congruent", "word": "yellow", "color": "yellow", "correct_response": "y", "trial_id": "stroop-trial-1-congruent-3", "trial_type": "html-keyboard-response", "trial_index": 102, "time_elapsed": 299066, "internal_node_id": "0.0-6.0-7.0"}}, {"uniqueid": "w57420999:a55393478", "current_trial": 103, "dateTime": 1664368764160, "trialdata": {"rt": 1202, "stimulus": "<p id='stroop-text' class='stroop-red'>BLUE</p>", "response": "r", "stimulus-type": "incongruent", "word": "blue", "color": "red", "correct_response": "r", "trial_id": "stroop-trial-1-incongruent-23", "trial_type": "html-keyboard-response", "trial_index": 103, "time_elapsed": 300774, "internal_node_id": "0.0-6.0-8.0"}}, {"uniqueid": "w57420999:a55393478", "current_trial": 104, "dateTime": 1664368765707, "trialdata": {"rt": 1040, "stimulus": "<p id='stroop-text' class='stroop-red'>YELLOW</p>", "response": "r", "stimulus-type": "incongruent", "word": "yellow", "color": "red", "correct_response": "r", "trial_id": "stroop-trial-1-incongruent-18", "trial_type": "html-keyboard-response", "trial_index": 104, "time_elapsed": 302322, "internal_node_id": "0.0-6.0-9.0"}}, {"uniqueid": "w57420999:a55393478", "current_trial": 105, "dateTime": 1664368766696, "trialdata": {"rt": 482, "stimulus": "<p id='stroop-text' class='stroop-red'>GREEN</p>", "response": "r", "stimulus-type": "incongruent", "word": "green", "color": "red", "correct_response": "r", "trial_id": "stroop-trial-1-incongruent-2", "trial_type": "html-keyboard-response", "trial_index": 105, "time_elapsed": 303310, "internal_node_id": "0.0-6.0-10.0"}}, {"uniqueid": "w57420999:a55393478", "current_trial": 106, "dateTime": 1664368767621, "trialdata": {"rt": 420, "stimulus": "<p id='stroop-text' class='stroop-red'>BRAIN</p>", "response": "r", "stimulus-type": "unrelated", "word": "BRAIN", "color": "red", "correct_response": "r", "trial_id": "stroop-trial-1-unrelated-6", "trial_type": "html-keyboard-response", "trial_index": 106, "time_elapsed": 304235, "internal_node_id": "0.0-6.0-11.0"}}, {"uniqueid": "w57420999:a55393478", "current_trial": 107, "dateTime": 1664368769281, "trialdata": {"rt": 1154, "stimulus": "<p id='stroop-text' class='stroop-green'>YELLOW</p>", "response": "g", "stimulus-type": "incongruent", "word": "yellow", "color": "green", "correct_response": "g", "trial_id": "stroop-trial-1-incongruent-19", "trial_type": "html-keyboard-response", "trial_index": 107, "time_elapsed": 305895, "internal_node_id": "0.0-6.0-12.0"}}, {"uniqueid": "w57420999:a55393478", "current_trial": 108, "dateTime": 1664368770342, "trialdata": {"rt": 554, "stimulus": "<p id='stroop-text' class='stroop-green'>BOAT</p>", "response": "g", "stimulus-type": "unrelated", "word": "BOAT", "color": "green", "correct_response": "g", "trial_id": "stroop-trial-1-unrelated-7", "trial_type": "html-keyboard-response", "trial_index": 108, "time_elapsed": 306956, "internal_node_id": "0.0-6.0-13.0"}}, {"uniqueid": "w57420999:a55393478", "current_trial": 109, "dateTime": 1664368771458, "trialdata": {"rt": 610, "stimulus": "<p id='stroop-text' class='stroop-red'>RED</p>", "response": "r", "stimulus-type": "congruent", "word": "red", "color": "red", "correct_response": "r", "trial_id": "stroop-trial-1-congruent-22", "trial_type": "html-keyboard-response", "trial_index": 109, "time_elapsed": 308073, "internal_node_id": "0.0-6.0-14.0"}}, {"uniqueid": "w57420999:a55393478", "current_trial": 110, "dateTime": 1664368772655, "trialdata": {"rt": 690, "stimulus": "<p id='stroop-text' class='stroop-green'>GREEN</p>", "response": "g", "stimulus-type": "congruent", "word": "green", "color": "green", "correct_response": "g", "trial_id": "stroop-trial-1-congruent-24", "trial_type": "html-keyboard-response", "trial_index": 110, "time_elapsed": 309269, "internal_node_id": "0.0-6.0-15.0"}}, {"uniqueid": "w57420999:a55393478", "current_trial": 111, "dateTime": 1664368773787, "trialdata": {"rt": 626, "stimulus": "<p id='stroop-text' class='stroop-green'>BRAIN</p>", "response": "g", "stimulus-type": "unrelated", "word": "BRAIN", "color": "green", "correct_response": "g", "trial_id": "stroop-trial-1-unrelated-24", "trial_type": "html-keyboard-response", "trial_index": 111, "time_elapsed": 310401, "internal_node_id": "0.0-6.0-16.0"}}, {"uniqueid": "w57420999:a55393478", "current_trial": 112, "dateTime": 1664368775207, "trialdata": {"rt": 911, "stimulus": "<p id='stroop-text' class='stroop-blue'>BRAIN</p>", "response": "b", "stimulus-type": "unrelated", "word": "BRAIN", "color": "blue", "correct_response": "b", "trial_id": "stroop-trial-1-unrelated-3", "trial_type": "html-keyboard-response", "trial_index": 112, "time_elapsed": 311822, "internal_node_id": "0.0-6.0-17.0"}}, {"uniqueid": "w57420999:a55393478", "current_trial": 113, "dateTime": 1664368776524, "trialdata": {"rt": 811, "stimulus": "<p id='stroop-text' class='stroop-green'>RED</p>", "response": "g", "stimulus-type": "incongruent", "word": "red", "color": "green", "correct_response": "g", "trial_id": "stroop-trial-1-incongruent-5", "trial_type": "html-keyboard-response", "trial_index": 113, "time_elapsed": 313138, "internal_node_id": "0.0-6.0-18.0"}}, {"uniqueid": "w57420999:a55393478", "current_trial": 114, "dateTime": 1664368777648, "trialdata": {"rt": 618, "stimulus": "<p id='stroop-text' class='stroop-green'>GREEN</p>", "response": "g", "stimulus-type": "congruent", "word": "green", "color": "green", "correct_response": "g", "trial_id": "stroop-trial-1-congruent-17", "trial_type": "html-keyboard-response", "trial_index": 114, "time_elapsed": 314263, "internal_node_id": "0.0-6.0-19.0"}}, {"uniqueid": "w57420999:a55393478", "current_trial": 115, "dateTime": 1664368778732, "trialdata": {"rt": 578, "stimulus": "<p id='stroop-text' class='stroop-green'>GREEN</p>", "response": "g", "stimulus-type": "congruent", "word": "green", "color": "green", "correct_response": "g", "trial_id": "stroop-trial-1-congruent-27", "trial_type": "html-keyboard-response", "trial_index": 115, "time_elapsed": 315347, "internal_node_id": "0.0-6.0-20.0"}}, {"uniqueid": "w57420999:a55393478", "current_trial": 116, "dateTime": 1664368780002, "trialdata": {"rt": 761, "stimulus": "<p id='stroop-text' class='stroop-red'>RED</p>", "response": "r", "stimulus-type": "congruent", "word": "red", "color": "red", "correct_response": "r", "trial_id": "stroop-trial-1-congruent-25", "trial_type": "html-keyboard-response", "trial_index": 116, "time_elapsed": 316616, "internal_node_id": "0.0-6.0-21.0"}}, {"uniqueid": "w57420999:a55393478", "current_trial": 117, "dateTime": 1664368781398, "trialdata": {"rt": 889, "stimulus": "<p id='stroop-text' class='stroop-green'>STONE</p>", "response": "g", "stimulus-type": "unrelated", "word": "STONE", "color": "green", "correct_response": "g", "trial_id": "stroop-trial-1-unrelated-18", "trial_type": "html-keyboard-response", "trial_index": 117, "time_elapsed": 318012, "internal_node_id": "0.0-6.0-22.0"}}, {"uniqueid": "w57420999:a55393478", "current_trial": 118, "dateTime": 1664368782586, "trialdata": {"rt": 682, "stimulus": "<p id='stroop-text' class='stroop-green'>FORK</p>", "response": "g", "stimulus-type": "unrelated", "word": "FORK", "color": "green", "correct_response": "g", "trial_id": "stroop-trial-1-unrelated-25", "trial_type": "html-keyboard-response", "trial_index": 118, "time_elapsed": 319201, "internal_node_id": "0.0-6.0-23.0"}}, {"uniqueid": "w57420999:a55393478", "current_trial": 119, "dateTime": 1664368784351, "trialdata": {"rt": 1258, "stimulus": "<p id='stroop-text' class='stroop-yellow'>YELLOW</p>", "response": "y", "stimulus-type": "congruent", "word": "yellow", "color": "yellow", "correct_response": "y", "trial_id": "stroop-trial-1-congruent-1", "trial_type": "html-keyboard-response", "trial_index": 119, "time_elapsed": 320965, "internal_node_id": "0.0-6.0-24.0"}}, {"uniqueid": "w57420999:a55393478", "current_trial": 120, "dateTime": 1664368785763, "trialdata": {"rt": 905, "stimulus": "<p id='stroop-text' class='stroop-blue'>RED</p>", "response": "b", "stimulus-type": "incongruent", "word": "red", "color": "blue", "correct_response": "b", "trial_id": "stroop-trial-1-incongruent-24", "trial_type": "html-keyboard-response", "trial_index": 120, "time_elapsed": 322377, "internal_node_id": "0.0-6.0-25.0"}}, {"uniqueid": "w57420999:a55393478", "current_trial": 121, "dateTime": 1664368786999, "trialdata": {"rt": 731, "stimulus": "<p id='stroop-text' class='stroop-green'>BOAT</p>", "response": "g", "stimulus-type": "unrelated", "word": "BOAT", "color": "green", "correct_response": "g", "trial_id": "stroop-trial-1-unrelated-15", "trial_type": "html-keyboard-response", "trial_index": 121, "time_elapsed": 323613, "internal_node_id": "0.0-6.0-26.0"}}, {"uniqueid": "w57420999:a55393478", "current_trial": 122, "dateTime": 1664368788283, "trialdata": {"rt": 778, "stimulus": "<p id='stroop-text' class='stroop-yellow'>YELLOW</p>", "response": "y", "stimulus-type": "congruent", "word": "yellow", "color": "yellow", "correct_response": "y", "trial_id": "stroop-trial-1-congruent-7", "trial_type": "html-keyboard-response", "trial_index": 122, "time_elapsed": 324898, "internal_node_id": "0.0-6.0-27.0"}}, {"uniqueid": "w57420999:a55393478", "current_trial": 123, "dateTime": 1664368789560, "trialdata": {"rt": 770, "stimulus": "<p id='stroop-text' class='stroop-red'>GREEN</p>", "response": "r", "stimulus-type": "incongruent", "word": "green", "color": "red", "correct_response": "r", "trial_id": "stroop-trial-1-incongruent-9", "trial_type": "html-keyboard-response", "trial_index": 123, "time_elapsed": 326174, "internal_node_id": "0.0-6.0-28.0"}}, {"uniqueid": "w57420999:a55393478", "current_trial": 124, "dateTime": 1664368790604, "trialdata": {"rt": 537, "stimulus": "<p id='stroop-text' class='stroop-red'>YELLOW</p>", "response": "r", "stimulus-type": "incongruent", "word": "yellow", "color": "red", "correct_response": "r", "trial_id": "stroop-trial-1-incongruent-12", "trial_type": "html-keyboard-response", "trial_index": 124, "time_elapsed": 327218, "internal_node_id": "0.0-6.0-29.0"}}, {"uniqueid": "w57420999:a55393478", "current_trial": 125, "dateTime": 1664368791897, "trialdata": {"rt": 786, "stimulus": "<p id='stroop-text' class='stroop-blue'>BRIDGE</p>", "response": "b", "stimulus-type": "unrelated", "word": "BRIDGE", "color": "blue", "correct_response": "b", "trial_id": "stroop-trial-1-unrelated-28", "trial_type": "html-keyboard-response", "trial_index": 125, "time_elapsed": 328511, "internal_node_id": "0.0-6.0-30.0"}}, {"uniqueid": "w57420999:a55393478", "current_trial": 126, "dateTime": 1664368793029, "trialdata": {"rt": 626, "stimulus": "<p id='stroop-text' class='stroop-red'>BOAT</p>", "response": "r", "stimulus-type": "unrelated", "word": "BOAT", "color": "red", "correct_response": "r", "trial_id": "stroop-trial-1-unrelated-5", "trial_type": "html-keyboard-response", "trial_index": 126, "time_elapsed": 329643, "internal_node_id": "0.0-6.0-31.0"}}, {"uniqueid": "w57420999:a55393478", "current_trial": 127, "dateTime": 1664368794417, "trialdata": {"rt": 879, "stimulus": "<p id='stroop-text' class='stroop-green'>SHIP</p>", "response": "g", "stimulus-type": "unrelated", "word": "SHIP", "color": "green", "correct_response": "g", "trial_id": "stroop-trial-1-unrelated-9", "trial_type": "html-keyboard-response", "trial_index": 127, "time_elapsed": 331032, "internal_node_id": "0.0-6.0-32.0"}}, {"uniqueid": "w57420999:a55393478", "current_trial": 128, "dateTime": 1664368795502, "trialdata": {"rt": 578, "stimulus": "<p id='stroop-text' class='stroop-green'>FORK</p>", "response": "g", "stimulus-type": "unrelated", "word": "FORK", "color": "green", "correct_response": "g", "trial_id": "stroop-trial-1-unrelated-29", "trial_type": "html-keyboard-response", "trial_index": 128, "time_elapsed": 332116, "internal_node_id": "0.0-6.0-33.0"}}, {"uniqueid": "w57420999:a55393478", "current_trial": 129, "dateTime": 1664368797921, "trialdata": {"rt": 1913, "stimulus": "<p id='stroop-text' class='stroop-blue'>YELLOW</p>", "response": "b", "stimulus-type": "incongruent", "word": "yellow", "color": "blue", "correct_response": "b", "trial_id": "stroop-trial-1-incongruent-15", "trial_type": "html-keyboard-response", "trial_index": 129, "time_elapsed": 334535, "internal_node_id": "0.0-6.0-34.0"}}, {"uniqueid": "w57420999:a55393478", "current_trial": 130, "dateTime": 1664368799181, "trialdata": {"rt": 754, "stimulus": "<p id='stroop-text' class='stroop-blue'>GREEN</p>", "response": "b", "stimulus-type": "incongruent", "word": "green", "color": "blue", "correct_response": "b", "trial_id": "stroop-trial-1-incongruent-11", "trial_type": "html-keyboard-response", "trial_index": 130, "time_elapsed": 335795, "internal_node_id": "0.0-6.0-35.0"}}, {"uniqueid": "w57420999:a55393478", "current_trial": 131, "dateTime": 1664368800530, "trialdata": {"rt": 839, "stimulus": "<p id='stroop-text' class='stroop-yellow'>DOG</p>", "response": "y", "stimulus-type": "unrelated", "word": "DOG", "color": "yellow", "correct_response": "y", "trial_id": "stroop-trial-1-unrelated-10", "trial_type": "html-keyboard-response", "trial_index": 131, "time_elapsed": 337144, "internal_node_id": "0.0-6.0-36.0"}}, {"uniqueid": "w57420999:a55393478", "current_trial": 132, "dateTime": 1664368801670, "trialdata": {"rt": 634, "stimulus": "<p id='stroop-text' class='stroop-red'>BRAIN</p>", "response": "r", "stimulus-type": "unrelated", "word": "BRAIN", "color": "red", "correct_response": "r", "trial_id": "stroop-trial-1-unrelated-12", "trial_type": "html-keyboard-response", "trial_index": 132, "time_elapsed": 338284, "internal_node_id": "0.0-6.0-37.0"}}, {"uniqueid": "w57420999:a55393478", "current_trial": 133, "dateTime": 1664368802725, "trialdata": {"rt": 551, "stimulus": "<p id='stroop-text' class='stroop-yellow'>YELLOW</p>", "response": "r", "stimulus-type": "congruent", "word": "yellow", "color": "yellow", "correct_response": "y", "trial_id": "stroop-trial-1-congruent-16", "trial_type": "html-keyboard-response", "trial_index": 133, "time_elapsed": 339340, "internal_node_id": "0.0-6.0-38.0"}}, {"uniqueid": "w57420999:a55393478", "current_trial": 134, "dateTime": 1664368804224, "trialdata": {"rt": 993, "stimulus": "<p id='stroop-text' class='stroop-yellow'>YELLOW</p>", "response": "y", "stimulus-type": "congruent", "word": "yellow", "color": "yellow", "correct_response": "y", "trial_id": "stroop-trial-1-congruent-26", "trial_type": "html-keyboard-response", "trial_index": 134, "time_elapsed": 340838, "internal_node_id": "0.0-6.0-39.0"}}, {"uniqueid": "w57420999:a55393478", "current_trial": 135, "dateTime": 1664368805635, "trialdata": {"rt": 905, "stimulus": "<p id='stroop-text' class='stroop-blue'>BLUE</p>", "response": "b", "stimulus-type": "congruent", "word": "blue", "color": "blue", "correct_response": "b", "trial_id": "stroop-trial-1-congruent-14", "trial_type": "html-keyboard-response", "trial_index": 135, "time_elapsed": 342249, "internal_node_id": "0.0-6.0-40.0"}}, {"uniqueid": "w57420999:a55393478", "current_trial": 136, "dateTime": 1664368808239, "trialdata": {"rt": 2097, "stimulus": "<p id='stroop-text' class='stroop-yellow'>BRAIN</p>", "response": "y", "stimulus-type": "unrelated", "word": "BRAIN", "color": "yellow", "correct_response": "y", "trial_id": "stroop-trial-1-unrelated-17", "trial_type": "html-keyboard-response", "trial_index": 136, "time_elapsed": 344853, "internal_node_id": "0.0-6.0-41.0"}}, {"uniqueid": "w57420999:a55393478", "current_trial": 137, "dateTime": 1664368809889, "trialdata": {"rt": 1144, "stimulus": "<p id='stroop-text' class='stroop-blue'>BOAT</p>", "response": "b", "stimulus-type": "unrelated", "word": "BOAT", "color": "blue", "correct_response": "b", "trial_id": "stroop-trial-1-unrelated-26", "trial_type": "html-keyboard-response", "trial_index": 137, "time_elapsed": 346503, "internal_node_id": "0.0-6.0-42.0"}}, {"uniqueid": "w57420999:a55393478", "current_trial": 138, "dateTime": 1664368811509, "trialdata": {"rt": 1112, "stimulus": "<p id='stroop-text' class='stroop-green'>YELLOW</p>", "response": "g", "stimulus-type": "incongruent", "word": "yellow", "color": "green", "correct_response": "g", "trial_id": "stroop-trial-1-incongruent-20", "trial_type": "html-keyboard-response", "trial_index": 138, "time_elapsed": 348123, "internal_node_id": "0.0-6.0-43.0"}}, {"uniqueid": "w57420999:a55393478", "current_trial": 139, "dateTime": 1664368813130, "trialdata": {"rt": 1114, "stimulus": "<p id='stroop-text' class='stroop-yellow'>YELLOW</p>", "response": "y", "stimulus-type": "congruent", "word": "yellow", "color": "yellow", "correct_response": "y", "trial_id": "stroop-trial-1-congruent-2", "trial_type": "html-keyboard-response", "trial_index": 139, "time_elapsed": 349744, "internal_node_id": "0.0-6.0-44.0"}}, {"uniqueid": "w57420999:a55393478", "current_trial": 140, "dateTime": 1664368814534, "trialdata": {"rt": 897, "stimulus": "<p id='stroop-text' class='stroop-blue'>GREEN</p>", "response": "b", "stimulus-type": "incongruent", "word": "green", "color": "blue", "correct_response": "b", "trial_id": "stroop-trial-1-incongruent-6", "trial_type": "html-keyboard-response", "trial_index": 140, "time_elapsed": 351148, "internal_node_id": "0.0-6.0-45.0"}}, {"uniqueid": "w57420999:a55393478", "current_trial": 141, "dateTime": 1664368815818, "trialdata": {"rt": 777, "stimulus": "<p id='stroop-text' class='stroop-green'>GREEN</p>", "response": "g", "stimulus-type": "congruent", "word": "green", "color": "green", "correct_response": "g", "trial_id": "stroop-trial-1-congruent-4", "trial_type": "html-keyboard-response", "trial_index": 141, "time_elapsed": 352432, "internal_node_id": "0.0-6.0-46.0"}}, {"uniqueid": "w57420999:a55393478", "current_trial": 142, "dateTime": 1664368817079, "trialdata": {"rt": 754, "stimulus": "<p id='stroop-text' class='stroop-red'>MONKEY</p>", "response": "r", "stimulus-type": "unrelated", "word": "MONKEY", "color": "red", "correct_response": "r", "trial_id": "stroop-trial-1-unrelated-14", "trial_type": "html-keyboard-response", "trial_index": 142, "time_elapsed": 353693, "internal_node_id": "0.0-6.0-47.0"}}, {"uniqueid": "w57420999:a55393478", "current_trial": 143, "dateTime": 1664368818539, "trialdata": {"rt": 955, "stimulus": "<p id='stroop-text' class='stroop-blue'>BRIDGE</p>", "response": "b", "stimulus-type": "unrelated", "word": "BRIDGE", "color": "blue", "correct_response": "b", "trial_id": "stroop-trial-1-unrelated-4", "trial_type": "html-keyboard-response", "trial_index": 143, "time_elapsed": 355154, "internal_node_id": "0.0-6.0-48.0"}}, {"uniqueid": "w57420999:a55393478", "current_trial": 144, "dateTime": 1664368820175, "trialdata": {"rt": 1124, "stimulus": "<p id='stroop-text' class='stroop-red'>RED</p>", "response": "r", "stimulus-type": "congruent", "word": "red", "color": "red", "correct_response": "r", "trial_id": "stroop-trial-1-congruent-9", "trial_type": "html-keyboard-response", "trial_index": 144, "time_elapsed": 356789, "internal_node_id": "0.0-6.0-49.0"}}, {"uniqueid": "w57420999:a55393478", "current_trial": 145, "dateTime": 1664368821395, "trialdata": {"rt": 713, "stimulus": "<p id='stroop-text' class='stroop-red'>STONE</p>", "response": "r", "stimulus-type": "unrelated", "word": "STONE", "color": "red", "correct_response": "r", "trial_id": "stroop-trial-1-unrelated-23", "trial_type": "html-keyboard-response", "trial_index": 145, "time_elapsed": 358009, "internal_node_id": "0.0-6.0-50.0"}}, {"uniqueid": "w57420999:a55393478", "current_trial": 146, "dateTime": 1664368822783, "trialdata": {"rt": 882, "stimulus": "<p id='stroop-text' class='stroop-blue'>WINDOW</p>", "response": "b", "stimulus-type": "unrelated", "word": "WINDOW", "color": "blue", "correct_response": "b", "trial_id": "stroop-trial-1-unrelated-16", "trial_type": "html-keyboard-response", "trial_index": 146, "time_elapsed": 359397, "internal_node_id": "0.0-6.0-51.0"}}, {"uniqueid": "w57420999:a55393478", "current_trial": 147, "dateTime": 1664368824620, "trialdata": {"rt": 1326, "stimulus": "<p id='stroop-text' class='stroop-yellow'>MONKEY</p>", "response": "y", "stimulus-type": "unrelated", "word": "MONKEY", "color": "yellow", "correct_response": "y", "trial_id": "stroop-trial-1-unrelated-20", "trial_type": "html-keyboard-response", "trial_index": 147, "time_elapsed": 361234, "internal_node_id": "0.0-6.0-52.0"}}, {"uniqueid": "w57420999:a55393478", "current_trial": 148, "dateTime": 1664368826023, "trialdata": {"rt": 896, "stimulus": "<p id='stroop-text' class='stroop-red'>GREEN</p>", "response": "r", "stimulus-type": "incongruent", "word": "green", "color": "red", "correct_response": "r", "trial_id": "stroop-trial-1-incongruent-14", "trial_type": "html-keyboard-response", "trial_index": 148, "time_elapsed": 362637, "internal_node_id": "0.0-6.0-53.0"}}, {"uniqueid": "w57420999:a55393478", "current_trial": 149, "dateTime": 1664368827284, "trialdata": {"rt": 754, "stimulus": "<p id='stroop-text' class='stroop-blue'>BLUE</p>", "response": "b", "stimulus-type": "congruent", "word": "blue", "color": "blue", "correct_response": "b", "trial_id": "stroop-trial-1-congruent-8", "trial_type": "html-keyboard-response", "trial_index": 149, "time_elapsed": 363898, "internal_node_id": "0.0-6.0-54.0"}}, {"uniqueid": "w57420999:a55393478", "current_trial": 150, "dateTime": 1664368828384, "trialdata": {"rt": 589, "stimulus": "<p id='stroop-text' class='stroop-blue'>YELLOW</p>", "response": "b", "stimulus-type": "incongruent", "word": "yellow", "color": "blue", "correct_response": "b", "trial_id": "stroop-trial-1-incongruent-7", "trial_type": "html-keyboard-response", "trial_index": 150, "time_elapsed": 364998, "internal_node_id": "0.0-6.0-55.0"}}, {"uniqueid": "w57420999:a55393478", "current_trial": 151, "dateTime": 1664368829725, "trialdata": {"rt": 832, "stimulus": "<p id='stroop-text' class='stroop-green'>GREEN</p>", "response": "g", "stimulus-type": "congruent", "word": "green", "color": "green", "correct_response": "g", "trial_id": "stroop-trial-1-congruent-13", "trial_type": "html-keyboard-response", "trial_index": 151, "time_elapsed": 366339, "internal_node_id": "0.0-6.0-56.0"}}, {"uniqueid": "w57420999:a55393478", "current_trial": 152, "dateTime": 1664368831273, "trialdata": {"rt": 1042, "stimulus": "<p id='stroop-text' class='stroop-yellow'>BLUE</p>", "response": "y", "stimulus-type": "incongruent", "word": "blue", "color": "yellow", "correct_response": "y", "trial_id": "stroop-trial-1-incongruent-4", "trial_type": "html-keyboard-response", "trial_index": 152, "time_elapsed": 367887, "internal_node_id": "0.0-6.0-57.0"}}, {"uniqueid": "w57420999:a55393478", "current_trial": 153, "dateTime": 1664368832613, "trialdata": {"rt": 832, "stimulus": "<p id='stroop-text' class='stroop-yellow'>RED</p>", "response": "y", "stimulus-type": "incongruent", "word": "red", "color": "yellow", "correct_response": "y", "trial_id": "stroop-trial-1-incongruent-25", "trial_type": "html-keyboard-response", "trial_index": 153, "time_elapsed": 369228, "internal_node_id": "0.0-6.0-58.0"}}, {"uniqueid": "w57420999:a55393478", "current_trial": 154, "dateTime": 1664368833898, "trialdata": {"rt": 777, "stimulus": "<p id='stroop-text' class='stroop-red'>BOTTLE</p>", "response": "r", "stimulus-type": "unrelated", "word": "BOTTLE", "color": "red", "correct_response": "r", "trial_id": "stroop-trial-1-unrelated-1", "trial_type": "html-keyboard-response", "trial_index": 154, "time_elapsed": 370512, "internal_node_id": "0.0-6.0-59.0"}}, {"uniqueid": "w57420999:a55393478", "current_trial": 155, "dateTime": 1664368835469, "trialdata": {"rt": 1064, "stimulus": "<p id='stroop-text' class='stroop-red'>BLUE</p>", "response": "r", "stimulus-type": "incongruent", "word": "blue", "color": "red", "correct_response": "r", "trial_id": "stroop-trial-1-incongruent-13", "trial_type": "html-keyboard-response", "trial_index": 155, "time_elapsed": 372084, "internal_node_id": "0.0-6.0-60.0"}}, {"uniqueid": "w57420999:a55393478", "current_trial": 156, "dateTime": 1664368836658, "trialdata": {"rt": 680, "stimulus": "<p id='stroop-text' class='stroop-red'>RED</p>", "response": "r", "stimulus-type": "congruent", "word": "red", "color": "red", "correct_response": "r", "trial_id": "stroop-trial-1-congruent-18", "trial_type": "html-keyboard-response", "trial_index": 156, "time_elapsed": 373272, "internal_node_id": "0.0-6.0-61.0"}}, {"uniqueid": "w57420999:a55393478", "current_trial": 157, "dateTime": 1664368837959, "trialdata": {"rt": 793, "stimulus": "<p id='stroop-text' class='stroop-yellow'>GREEN</p>", "response": "y", "stimulus-type": "incongruent", "word": "green", "color": "yellow", "correct_response": "y", "trial_id": "stroop-trial-1-incongruent-22", "trial_type": "html-keyboard-response", "trial_index": 157, "time_elapsed": 374573, "internal_node_id": "0.0-6.0-62.0"}}, {"uniqueid": "w57420999:a55393478", "current_trial": 158, "dateTime": 1664368838947, "trialdata": {"rt": 481, "stimulus": "<p id='stroop-text' class='stroop-yellow'>YELLOW</p>", "response": "y", "stimulus-type": "congruent", "word": "yellow", "color": "yellow", "correct_response": "y", "trial_id": "stroop-trial-1-congruent-30", "trial_type": "html-keyboard-response", "trial_index": 158, "time_elapsed": 375562, "internal_node_id": "0.0-6.0-63.0"}}, {"uniqueid": "w57420999:a55393478", "current_trial": 159, "dateTime": 1664368840264, "trialdata": {"rt": 807, "stimulus": "<p id='stroop-text' class='stroop-blue'>BOAT</p>", "response": "b", "stimulus-type": "unrelated", "word": "BOAT", "color": "blue", "correct_response": "b", "trial_id": "stroop-trial-1-unrelated-22", "trial_type": "html-keyboard-response", "trial_index": 159, "time_elapsed": 376878, "internal_node_id": "0.0-6.0-64.0"}}, {"uniqueid": "w57420999:a55393478", "current_trial": 160, "dateTime": 1664368841236, "trialdata": {"rt": 465, "stimulus": "<p id='stroop-text' class='stroop-blue'>YELLOW</p>", "response": "b", "stimulus-type": "incongruent", "word": "yellow", "color": "blue", "correct_response": "b", "trial_id": "stroop-trial-1-incongruent-26", "trial_type": "html-keyboard-response", "trial_index": 160, "time_elapsed": 377850, "internal_node_id": "0.0-6.0-65.0"}}, {"uniqueid": "w57420999:a55393478", "current_trial": 161, "dateTime": 1664368842329, "trialdata": {"rt": 584, "stimulus": "<p id='stroop-text' class='stroop-blue'>RED</p>", "response": "b", "stimulus-type": "incongruent", "word": "red", "color": "blue", "correct_response": "b", "trial_id": "stroop-trial-1-incongruent-10", "trial_type": "html-keyboard-response", "trial_index": 161, "time_elapsed": 378943, "internal_node_id": "0.0-6.0-66.0"}}, {"uniqueid": "w57420999:a55393478", "current_trial": 162, "dateTime": 1664368843613, "trialdata": {"rt": 777, "stimulus": "<p id='stroop-text' class='stroop-red'>GREEN</p>", "response": "r", "stimulus-type": "incongruent", "word": "green", "color": "red", "correct_response": "r", "trial_id": "stroop-trial-1-incongruent-8", "trial_type": "html-keyboard-response", "trial_index": 162, "time_elapsed": 380227, "internal_node_id": "0.0-6.0-67.0"}}, {"uniqueid": "w57420999:a55393478", "current_trial": 163, "dateTime": 1664368844865, "trialdata": {"rt": 745, "stimulus": "<p id='stroop-text' class='stroop-green'>BOAT</p>", "response": "g", "stimulus-type": "unrelated", "word": "BOAT", "color": "green", "correct_response": "g", "trial_id": "stroop-trial-1-unrelated-30", "trial_type": "html-keyboard-response", "trial_index": 163, "time_elapsed": 381480, "internal_node_id": "0.0-6.0-68.0"}}, {"uniqueid": "w57420999:a55393478", "current_trial": 164, "dateTime": 1664368846165, "trialdata": {"rt": 792, "stimulus": "<p id='stroop-text' class='stroop-blue'>BLUE</p>", "response": "b", "stimulus-type": "congruent", "word": "blue", "color": "blue", "correct_response": "b", "trial_id": "stroop-trial-1-congruent-10", "trial_type": "html-keyboard-response", "trial_index": 164, "time_elapsed": 382780, "internal_node_id": "0.0-6.0-69.0"}}, {"uniqueid": "w57420999:a55393478", "current_trial": 165, "dateTime": 1664368847434, "trialdata": {"rt": 762, "stimulus": "<p id='stroop-text' class='stroop-red'>GREEN</p>", "response": "r", "stimulus-type": "incongruent", "word": "green", "color": "red", "correct_response": "r", "trial_id": "stroop-trial-1-incongruent-3", "trial_type": "html-keyboard-response", "trial_index": 165, "time_elapsed": 384048, "internal_node_id": "0.0-6.0-70.0"}}, {"uniqueid": "w57420999:a55393478", "current_trial": 166, "dateTime": 1664368848846, "trialdata": {"rt": 901, "stimulus": "<p id='stroop-text' class='stroop-red'>BLUE</p>", "response": "r", "stimulus-type": "incongruent", "word": "blue", "color": "red", "correct_response": "r", "trial_id": "stroop-trial-1-incongruent-1", "trial_type": "html-keyboard-response", "trial_index": 166, "time_elapsed": 385461, "internal_node_id": "0.0-6.0-71.0"}}, {"uniqueid": "w57420999:a55393478", "current_trial": 167, "dateTime": 1664368849963, "trialdata": {"rt": 609, "stimulus": "<p id='stroop-text' class='stroop-red'>SHIP</p>", "response": "r", "stimulus-type": "unrelated", "word": "SHIP", "color": "red", "correct_response": "r", "trial_id": "stroop-trial-1-unrelated-27", "trial_type": "html-keyboard-response", "trial_index": 167, "time_elapsed": 386577, "internal_node_id": "0.0-6.0-72.0"}}, {"uniqueid": "w57420999:a55393478", "current_trial": 168, "dateTime": 1664368851695, "trialdata": {"rt": 1224, "stimulus": "<p id='stroop-text' class='stroop-green'>GREEN</p>", "response": "g", "stimulus-type": "congruent", "word": "green", "color": "green", "correct_response": "g", "trial_id": "stroop-trial-1-congruent-20", "trial_type": "html-keyboard-response", "trial_index": 168, "time_elapsed": 388309, "internal_node_id": "0.0-6.0-73.0"}}, {"uniqueid": "w57420999:a55393478", "current_trial": 169, "dateTime": 1664368852915, "trialdata": {"rt": 712, "stimulus": "<p id='stroop-text' class='stroop-blue'>WINDOW</p>", "response": "b", "stimulus-type": "unrelated", "word": "WINDOW", "color": "blue", "correct_response": "b", "trial_id": "stroop-trial-1-unrelated-19", "trial_type": "html-keyboard-response", "trial_index": 169, "time_elapsed": 389529, "internal_node_id": "0.0-6.0-74.0"}}, {"uniqueid": "w57420999:a55393478", "current_trial": 170, "dateTime": 1664368855119, "trialdata": {"rt": 1697, "stimulus": "<p id='stroop-text' class='stroop-yellow'>BLUE</p>", "response": "y", "stimulus-type": "incongruent", "word": "blue", "color": "yellow", "correct_response": "y", "trial_id": "stroop-trial-1-incongruent-28", "trial_type": "html-keyboard-response", "trial_index": 170, "time_elapsed": 391733, "internal_node_id": "0.0-6.0-75.0"}}, {"uniqueid": "w57420999:a55393478", "current_trial": 171, "dateTime": 1664368856619, "trialdata": {"rt": 989, "stimulus": "<p id='stroop-text' class='stroop-yellow'>YELLOW</p>", "response": "y", "stimulus-type": "congruent", "word": "yellow", "color": "yellow", "correct_response": "y", "trial_id": "stroop-trial-1-congruent-12", "trial_type": "html-keyboard-response", "trial_index": 171, "time_elapsed": 393233, "internal_node_id": "0.0-6.0-76.0"}}, {"uniqueid": "w57420999:a55393478", "current_trial": 172, "dateTime": 1664368857837, "trialdata": {"rt": 711, "stimulus": "<p id='stroop-text' class='stroop-red'>RED</p>", "response": "r", "stimulus-type": "congruent", "word": "red", "color": "red", "correct_response": "r", "trial_id": "stroop-trial-1-congruent-28", "trial_type": "html-keyboard-response", "trial_index": 172, "time_elapsed": 394452, "internal_node_id": "0.0-6.0-77.0"}}, {"uniqueid": "w57420999:a55393478", "current_trial": 173, "dateTime": 1664368859340, "trialdata": {"rt": 998, "stimulus": "<p id='stroop-text' class='stroop-green'>GREEN</p>", "response": "g", "stimulus-type": "congruent", "word": "green", "color": "green", "correct_response": "g", "trial_id": "stroop-trial-1-congruent-15", "trial_type": "html-keyboard-response", "trial_index": 173, "time_elapsed": 395954, "internal_node_id": "0.0-6.0-78.0"}}, {"uniqueid": "w57420999:a55393478", "current_trial": 174, "dateTime": 1664368860584, "trialdata": {"rt": 736, "stimulus": "<p id='stroop-text' class='stroop-red'>RED</p>", "response": "r", "stimulus-type": "congruent", "word": "red", "color": "red", "correct_response": "r", "trial_id": "stroop-trial-1-congruent-21", "trial_type": "html-keyboard-response", "trial_index": 174, "time_elapsed": 397198, "internal_node_id": "0.0-6.0-79.0"}}, {"uniqueid": "w57420999:a55393478", "current_trial": 175, "dateTime": 1664368861876, "trialdata": {"rt": 785, "stimulus": "<p id='stroop-text' class='stroop-red'>RED</p>", "response": "r", "stimulus-type": "congruent", "word": "red", "color": "red", "correct_response": "r", "trial_id": "stroop-trial-1-congruent-29", "trial_type": "html-keyboard-response", "trial_index": 175, "time_elapsed": 398490, "internal_node_id": "0.0-6.0-80.0"}}, {"uniqueid": "w57420999:a55393478", "current_trial": 176, "dateTime": 1664368863448, "trialdata": {"rt": 1064, "stimulus": "<p id='stroop-text' class='stroop-yellow'>STONE</p>", "response": "y", "stimulus-type": "unrelated", "word": "STONE", "color": "yellow", "correct_response": "y", "trial_id": "stroop-trial-1-unrelated-11", "trial_type": "html-keyboard-response", "trial_index": 176, "time_elapsed": 400062, "internal_node_id": "0.0-6.0-81.0"}}, {"uniqueid": "w57420999:a55393478", "current_trial": 177, "dateTime": 1664368864877, "trialdata": {"rt": 920, "stimulus": "<p id='stroop-text' class='stroop-green'>GREEN</p>", "response": "g", "stimulus-type": "congruent", "word": "green", "color": "green", "correct_response": "g", "trial_id": "stroop-trial-1-congruent-23", "trial_type": "html-keyboard-response", "trial_index": 177, "time_elapsed": 401490, "internal_node_id": "0.0-6.0-82.0"}}, {"uniqueid": "w57420999:a55393478", "current_trial": 178, "dateTime": 1664368866160, "trialdata": {"rt": 774, "stimulus": "<p id='stroop-text' class='stroop-red'>RED</p>", "response": "r", "stimulus-type": "congruent", "word": "red", "color": "red", "correct_response": "r", "trial_id": "stroop-trial-1-congruent-19", "trial_type": "html-keyboard-response", "trial_index": 178, "time_elapsed": 402774, "internal_node_id": "0.0-6.0-83.0"}}, {"uniqueid": "w57420999:a55393478", "current_trial": 179, "dateTime": 1664368867885, "trialdata": {"rt": 1217, "stimulus": "<p id='stroop-text' class='stroop-yellow'>BRAIN</p>", "response": "y", "stimulus-type": "unrelated", "word": "BRAIN", "color": "yellow", "correct_response": "y", "trial_id": "stroop-trial-1-unrelated-2", "trial_type": "html-keyboard-response", "trial_index": 179, "time_elapsed": 404500, "internal_node_id": "0.0-6.0-84.0"}}, {"uniqueid": "w57420999:a55393478", "current_trial": 180, "dateTime": 1664368869928, "trialdata": {"rt": 1535, "stimulus": "<p id='stroop-text' class='stroop-red'>GREEN</p>", "response": "r", "stimulus-type": "incongruent", "word": "green", "color": "red", "correct_response": "r", "trial_id": "stroop-trial-1-incongruent-30", "trial_type": "html-keyboard-response", "trial_index": 180, "time_elapsed": 406542, "internal_node_id": "0.0-6.0-85.0"}}, {"uniqueid": "w57420999:a55393478", "current_trial": 181, "dateTime": 1664368871164, "trialdata": {"rt": 724, "stimulus": "<p id='stroop-text' class='stroop-red'>RED</p>", "response": "r", "stimulus-type": "congruent", "word": "red", "color": "red", "correct_response": "r", "trial_id": "stroop-trial-1-congruent-11", "trial_type": "html-keyboard-response", "trial_index": 181, "time_elapsed": 407778, "internal_node_id": "0.0-6.0-86.0"}}, {"uniqueid": "w57420999:a55393478", "current_trial": 182, "dateTime": 1664368873080, "trialdata": {"rt": 1408, "stimulus": "<p id='stroop-text' class='stroop-yellow'>BLUE</p>", "response": "y", "stimulus-type": "incongruent", "word": "blue", "color": "yellow", "correct_response": "y", "trial_id": "stroop-trial-1-incongruent-27", "trial_type": "html-keyboard-response", "trial_index": 182, "time_elapsed": 409695, "internal_node_id": "0.0-6.0-87.0"}}, {"uniqueid": "w57420999:a55393478", "current_trial": 183, "dateTime": 1664368874756, "trialdata": {"rt": 1168, "stimulus": "<p id='stroop-text' class='stroop-blue'>RED</p>", "response": "b", "stimulus-type": "incongruent", "word": "red", "color": "blue", "correct_response": "b", "trial_id": "stroop-trial-1-incongruent-29", "trial_type": "html-keyboard-response", "trial_index": 183, "time_elapsed": 411370, "internal_node_id": "0.0-6.0-88.0"}}, {"uniqueid": "w57420999:a55393478", "current_trial": 184, "dateTime": 1664368876024, "trialdata": {"rt": 759, "stimulus": "<p id='stroop-text' class='stroop-blue'>SHIP</p>", "response": "b", "stimulus-type": "unrelated", "word": "SHIP", "color": "blue", "correct_response": "b", "trial_id": "stroop-trial-1-unrelated-8", "trial_type": "html-keyboard-response", "trial_index": 184, "time_elapsed": 412638, "internal_node_id": "0.0-6.0-89.0"}}, {"uniqueid": "w57420999:a55393478", "current_trial": 185, "dateTime": 1664368904730, "trialdata": {"rt": 28199, "stimulus": "  <h1> End of block! </h1>\n\n  You have reached the end of the block 2/5. If you need a short break, feel free to take one now before moving on.\n\n  <br><br>\n  In the next block, you will complete another 90 rounds of this game.\n\n  <br><br>\n  <div style='text-align: center;'>Press <code>space</code> to begin.</div>\n  <br><br>\n<div style='text-align: center;'>(If the experiment doesn't continue, try clicking on the text and then pressing <code>space</code>.)</div>", "response": " ", "trial_id": "stroop_1_ready_3", "trial_type": "html-keyboard-response", "trial_index": 185, "time_elapsed": 441345, "internal_node_id": "0.0-7.0"}}, {"uniqueid": "w57420999:a55393478", "current_trial": 186, "dateTime": 1664368905774, "trialdata": {"rt": 1035, "stimulus": "<p id='stroop-text' class='stroop-green'>BLUE</p>", "response": "g", "stimulus-type": "incongruent", "word": "blue", "color": "green", "correct_response": "g", "trial_id": "stroop-trial-1-incongruent-26", "trial_type": "html-keyboard-response", "trial_index": 186, "time_elapsed": 442388, "internal_node_id": "0.0-8.0-0.0"}}, {"uniqueid": "w57420999:a55393478", "current_trial": 187, "dateTime": 1664368907167, "trialdata": {"rt": 879, "stimulus": "<p id='stroop-text' class='stroop-yellow'>MONKEY</p>", "response": "y", "stimulus-type": "unrelated", "word": "MONKEY", "color": "yellow", "correct_response": "y", "trial_id": "stroop-trial-1-unrelated-9", "trial_type": "html-keyboard-response", "trial_index": 187, "time_elapsed": 443781, "internal_node_id": "0.0-8.0-1.0"}}, {"uniqueid": "w57420999:a55393478", "current_trial": 188, "dateTime": 1664368908515, "trialdata": {"rt": 839, "stimulus": "<p id='stroop-text' class='stroop-green'>GREEN</p>", "response": "g", "stimulus-type": "congruent", "word": "green", "color": "green", "correct_response": "g", "trial_id": "stroop-trial-1-congruent-9", "trial_type": "html-keyboard-response", "trial_index": 188, "time_elapsed": 445129, "internal_node_id": "0.0-8.0-2.0"}}, {"uniqueid": "w57420999:a55393478", "current_trial": 189, "dateTime": 1664368909579, "trialdata": {"rt": 557, "stimulus": "<p id='stroop-text' class='stroop-green'>YELLOW</p>", "response": "g", "stimulus-type": "incongruent", "word": "yellow", "color": "green", "correct_response": "g", "trial_id": "stroop-trial-1-incongruent-19", "trial_type": "html-keyboard-response", "trial_index": 189, "time_elapsed": 446193, "internal_node_id": "0.0-8.0-3.0"}}, {"uniqueid": "w57420999:a55393478", "current_trial": 190, "dateTime": 1664368910899, "trialdata": {"rt": 809, "stimulus": "<p id='stroop-text' class='stroop-blue'>BLUE</p>", "response": "b", "stimulus-type": "congruent", "word": "blue", "color": "blue", "correct_response": "b", "trial_id": "stroop-trial-1-congruent-11", "trial_type": "html-keyboard-response", "trial_index": 190, "time_elapsed": 447514, "internal_node_id": "0.0-8.0-4.0"}}, {"uniqueid": "w57420999:a55393478", "current_trial": 191, "dateTime": 1664368912242, "trialdata": {"rt": 835, "stimulus": "<p id='stroop-text' class='stroop-green'>BOAT</p>", "response": "g", "stimulus-type": "unrelated", "word": "BOAT", "color": "green", "correct_response": "g", "trial_id": "stroop-trial-1-unrelated-30", "trial_type": "html-keyboard-response", "trial_index": 191, "time_elapsed": 448857, "internal_node_id": "0.0-8.0-5.0"}}, {"uniqueid": "w57420999:a55393478", "current_trial": 192, "dateTime": 1664368913552, "trialdata": {"rt": 799, "stimulus": "<p id='stroop-text' class='stroop-yellow'>MONKEY</p>", "response": "y", "stimulus-type": "unrelated", "word": "MONKEY", "color": "yellow", "correct_response": "y", "trial_id": "stroop-trial-1-unrelated-14", "trial_type": "html-keyboard-response", "trial_index": 192, "time_elapsed": 450166, "internal_node_id": "0.0-8.0-6.0"}}, {"uniqueid": "w57420999:a55393478", "current_trial": 193, "dateTime": 1664368914683, "trialdata": {"rt": 623, "stimulus": "<p id='stroop-text' class='stroop-red'>RED</p>", "response": "r", "stimulus-type": "congruent", "word": "red", "color": "red", "correct_response": "r", "trial_id": "stroop-trial-1-congruent-30", "trial_type": "html-keyboard-response", "trial_index": 193, "time_elapsed": 451297, "internal_node_id": "0.0-8.0-7.0"}}, {"uniqueid": "w57420999:a55393478", "current_trial": 194, "dateTime": 1664368916071, "trialdata": {"rt": 879, "stimulus": "<p id='stroop-text' class='stroop-yellow'>YELLOW</p>", "response": "y", "stimulus-type": "congruent", "word": "yellow", "color": "yellow", "correct_response": "y", "trial_id": "stroop-trial-1-congruent-12", "trial_type": "html-keyboard-response", "trial_index": 194, "time_elapsed": 452685, "internal_node_id": "0.0-8.0-8.0"}}, {"uniqueid": "w57420999:a55393478", "current_trial": 195, "dateTime": 1664368917368, "trialdata": {"rt": 788, "stimulus": "<p id='stroop-text' class='stroop-red'>RED</p>", "response": "r", "stimulus-type": "congruent", "word": "red", "color": "red", "correct_response": "r", "trial_id": "stroop-trial-1-congruent-23", "trial_type": "html-keyboard-response", "trial_index": 195, "time_elapsed": 453982, "internal_node_id": "0.0-8.0-9.0"}}, {"uniqueid": "w57420999:a55393478", "current_trial": 196, "dateTime": 1664368918529, "trialdata": {"rt": 652, "stimulus": "<p id='stroop-text' class='stroop-red'>GREEN</p>", "response": "r", "stimulus-type": "incongruent", "word": "green", "color": "red", "correct_response": "r", "trial_id": "stroop-trial-1-incongruent-18", "trial_type": "html-keyboard-response", "trial_index": 196, "time_elapsed": 455143, "internal_node_id": "0.0-8.0-10.0"}}, {"uniqueid": "w57420999:a55393478", "current_trial": 197, "dateTime": 1664368920274, "trialdata": {"rt": 1235, "stimulus": "<p id='stroop-text' class='stroop-blue'>GREEN</p>", "response": "b", "stimulus-type": "incongruent", "word": "green", "color": "blue", "correct_response": "b", "trial_id": "stroop-trial-1-incongruent-24", "trial_type": "html-keyboard-response", "trial_index": 197, "time_elapsed": 456889, "internal_node_id": "0.0-8.0-11.0"}}, {"uniqueid": "w57420999:a55393478", "current_trial": 198, "dateTime": 1664368921249, "trialdata": {"rt": 467, "stimulus": "<p id='stroop-text' class='stroop-blue'>GREEN</p>", "response": "b", "stimulus-type": "incongruent", "word": "green", "color": "blue", "correct_response": "b", "trial_id": "stroop-trial-1-incongruent-3", "trial_type": "html-keyboard-response", "trial_index": 198, "time_elapsed": 457863, "internal_node_id": "0.0-8.0-12.0"}}, {"uniqueid": "w57420999:a55393478", "current_trial": 199, "dateTime": 1664368922306, "trialdata": {"rt": 551, "stimulus": "<p id='stroop-text' class='stroop-blue'>BLUE</p>", "response": "b", "stimulus-type": "congruent", "word": "blue", "color": "blue", "correct_response": "b", "trial_id": "stroop-trial-1-congruent-25", "trial_type": "html-keyboard-response", "trial_index": 199, "time_elapsed": 458920, "internal_node_id": "0.0-8.0-13.0"}}, {"uniqueid": "w57420999:a55393478", "current_trial": 200, "dateTime": 1664368923408, "trialdata": {"rt": 594, "stimulus": "<p id='stroop-text' class='stroop-red'>RED</p>", "response": "r", "stimulus-type": "congruent", "word": "red", "color": "red", "correct_response": "r", "trial_id": "stroop-trial-1-congruent-24", "trial_type": "html-keyboard-response", "trial_index": 200, "time_elapsed": 460022, "internal_node_id": "0.0-8.0-14.0"}}, {"uniqueid": "w57420999:a55393478", "current_trial": 201, "dateTime": 1664368924496, "trialdata": {"rt": 581, "stimulus": "<p id='stroop-text' class='stroop-blue'>CHAIR</p>", "response": "b", "stimulus-type": "unrelated", "word": "CHAIR", "color": "blue", "correct_response": "b", "trial_id": "stroop-trial-1-unrelated-20", "trial_type": "html-keyboard-response", "trial_index": 201, "time_elapsed": 461110, "internal_node_id": "0.0-8.0-15.0"}}, {"uniqueid": "w57420999:a55393478", "current_trial": 202, "dateTime": 1664368925807, "trialdata": {"rt": 799, "stimulus": "<p id='stroop-text' class='stroop-green'>GREEN</p>", "response": "g", "stimulus-type": "congruent", "word": "green", "color": "green", "correct_response": "g", "trial_id": "stroop-trial-1-congruent-6", "trial_type": "html-keyboard-response", "trial_index": 202, "time_elapsed": 462421, "internal_node_id": "0.0-8.0-16.0"}}, {"uniqueid": "w57420999:a55393478", "current_trial": 203, "dateTime": 1664368927055, "trialdata": {"rt": 740, "stimulus": "<p id='stroop-text' class='stroop-yellow'>YELLOW</p>", "response": "y", "stimulus-type": "congruent", "word": "yellow", "color": "yellow", "correct_response": "y", "trial_id": "stroop-trial-1-congruent-15", "trial_type": "html-keyboard-response", "trial_index": 203, "time_elapsed": 463669, "internal_node_id": "0.0-8.0-17.0"}}, {"uniqueid": "w57420999:a55393478", "current_trial": 204, "dateTime": 1664368928477, "trialdata": {"rt": 913, "stimulus": "<p id='stroop-text' class='stroop-blue'>WINDOW</p>", "response": "b", "stimulus-type": "unrelated", "word": "WINDOW", "color": "blue", "correct_response": "b", "trial_id": "stroop-trial-1-unrelated-13", "trial_type": "html-keyboard-response", "trial_index": 204, "time_elapsed": 465091, "internal_node_id": "0.0-8.0-18.0"}}, {"uniqueid": "w57420999:a55393478", "current_trial": 205, "dateTime": 1664368929627, "trialdata": {"rt": 639, "stimulus": "<p id='stroop-text' class='stroop-red'>WINDOW</p>", "response": "r", "stimulus-type": "unrelated", "word": "WINDOW", "color": "red", "correct_response": "r", "trial_id": "stroop-trial-1-unrelated-24", "trial_type": "html-keyboard-response", "trial_index": 205, "time_elapsed": 466241, "internal_node_id": "0.0-8.0-19.0"}}, {"uniqueid": "w57420999:a55393478", "current_trial": 206, "dateTime": 1664368931441, "trialdata": {"rt": 1305, "stimulus": "<p id='stroop-text' class='stroop-green'>YELLOW</p>", "response": "g", "stimulus-type": "incongruent", "word": "yellow", "color": "green", "correct_response": "g", "trial_id": "stroop-trial-1-incongruent-27", "trial_type": "html-keyboard-response", "trial_index": 206, "time_elapsed": 468055, "internal_node_id": "0.0-8.0-20.0"}}, {"uniqueid": "w57420999:a55393478", "current_trial": 207, "dateTime": 1664368932784, "trialdata": {"rt": 834, "stimulus": "<p id='stroop-text' class='stroop-green'>GREEN</p>", "response": "g", "stimulus-type": "congruent", "word": "green", "color": "green", "correct_response": "g", "trial_id": "stroop-trial-1-congruent-26", "trial_type": "html-keyboard-response", "trial_index": 207, "time_elapsed": 469398, "internal_node_id": "0.0-8.0-21.0"}}, {"uniqueid": "w57420999:a55393478", "current_trial": 208, "dateTime": 1664368934523, "trialdata": {"rt": 1232, "stimulus": "<p id='stroop-text' class='stroop-green'>DOG</p>", "response": "g", "stimulus-type": "unrelated", "word": "DOG", "color": "green", "correct_response": "g", "trial_id": "stroop-trial-1-unrelated-1", "trial_type": "html-keyboard-response", "trial_index": 208, "time_elapsed": 471138, "internal_node_id": "0.0-8.0-22.0"}}, {"uniqueid": "w57420999:a55393478", "current_trial": 209, "dateTime": 1664368936025, "trialdata": {"rt": 998, "stimulus": "<p id='stroop-text' class='stroop-blue'>YELLOW</p>", "response": "b", "stimulus-type": "incongruent", "word": "yellow", "color": "blue", "correct_response": "b", "trial_id": "stroop-trial-1-incongruent-22", "trial_type": "html-keyboard-response", "trial_index": 209, "time_elapsed": 472640, "internal_node_id": "0.0-8.0-23.0"}}, {"uniqueid": "w57420999:a55393478", "current_trial": 210, "dateTime": 1664368937241, "trialdata": {"rt": 709, "stimulus": "<p id='stroop-text' class='stroop-blue'>YELLOW</p>", "response": "b", "stimulus-type": "incongruent", "word": "yellow", "color": "blue", "correct_response": "b", "trial_id": "stroop-trial-1-incongruent-13", "trial_type": "html-keyboard-response", "trial_index": 210, "time_elapsed": 473855, "internal_node_id": "0.0-8.0-24.0"}}, {"uniqueid": "w57420999:a55393478", "current_trial": 211, "dateTime": 1664368938598, "trialdata": {"rt": 849, "stimulus": "<p id='stroop-text' class='stroop-red'>GREEN</p>", "response": "r", "stimulus-type": "incongruent", "word": "green", "color": "red", "correct_response": "r", "trial_id": "stroop-trial-1-incongruent-7", "trial_type": "html-keyboard-response", "trial_index": 211, "time_elapsed": 475212, "internal_node_id": "0.0-8.0-25.0"}}, {"uniqueid": "w57420999:a55393478", "current_trial": 212, "dateTime": 1664368940021, "trialdata": {"rt": 913, "stimulus": "<p id='stroop-text' class='stroop-yellow'>RED</p>", "response": "y", "stimulus-type": "incongruent", "word": "red", "color": "yellow", "correct_response": "y", "trial_id": "stroop-trial-1-incongruent-8", "trial_type": "html-keyboard-response", "trial_index": 212, "time_elapsed": 476635, "internal_node_id": "0.0-8.0-26.0"}}, {"uniqueid": "w57420999:a55393478", "current_trial": 213, "dateTime": 1664368941657, "trialdata": {"rt": 1128, "stimulus": "<p id='stroop-text' class='stroop-green'>GREEN</p>", "response": "g", "stimulus-type": "congruent", "word": "green", "color": "green", "correct_response": "g", "trial_id": "stroop-trial-1-congruent-20", "trial_type": "html-keyboard-response", "trial_index": 213, "time_elapsed": 478272, "internal_node_id": "0.0-8.0-27.0"}}, {"uniqueid": "w57420999:a55393478", "current_trial": 214, "dateTime": 1664368942976, "trialdata": {"rt": 809, "stimulus": "<p id='stroop-text' class='stroop-yellow'>YELLOW</p>", "response": "y", "stimulus-type": "congruent", "word": "yellow", "color": "yellow", "correct_response": "y", "trial_id": "stroop-trial-1-congruent-22", "trial_type": "html-keyboard-response", "trial_index": 214, "time_elapsed": 479590, "internal_node_id": "0.0-8.0-28.0"}}, {"uniqueid": "w57420999:a55393478", "current_trial": 215, "dateTime": 1664368944301, "trialdata": {"rt": 817, "stimulus": "<p id='stroop-text' class='stroop-blue'>BLUE</p>", "response": "b", "stimulus-type": "congruent", "word": "blue", "color": "blue", "correct_response": "b", "trial_id": "stroop-trial-1-congruent-21", "trial_type": "html-keyboard-response", "trial_index": 215, "time_elapsed": 480915, "internal_node_id": "0.0-8.0-29.0"}}, {"uniqueid": "w57420999:a55393478", "current_trial": 216, "dateTime": 1664368945795, "trialdata": {"rt": 985, "stimulus": "<p id='stroop-text' class='stroop-yellow'>GREEN</p>", "response": "y", "stimulus-type": "incongruent", "word": "green", "color": "yellow", "correct_response": "y", "trial_id": "stroop-trial-1-incongruent-9", "trial_type": "html-keyboard-response", "trial_index": 216, "time_elapsed": 482409, "internal_node_id": "0.0-8.0-30.0"}}, {"uniqueid": "w57420999:a55393478", "current_trial": 217, "dateTime": 1664368947032, "trialdata": {"rt": 728, "stimulus": "<p id='stroop-text' class='stroop-yellow'>FORK</p>", "response": "y", "stimulus-type": "unrelated", "word": "FORK", "color": "yellow", "correct_response": "y", "trial_id": "stroop-trial-1-unrelated-16", "trial_type": "html-keyboard-response", "trial_index": 217, "time_elapsed": 483646, "internal_node_id": "0.0-8.0-31.0"}}, {"uniqueid": "w57420999:a55393478", "current_trial": 218, "dateTime": 1664368948180, "trialdata": {"rt": 640, "stimulus": "<p id='stroop-text' class='stroop-yellow'>WINDOW</p>", "response": "y", "stimulus-type": "unrelated", "word": "WINDOW", "color": "yellow", "correct_response": "y", "trial_id": "stroop-trial-1-unrelated-8", "trial_type": "html-keyboard-response", "trial_index": 218, "time_elapsed": 484795, "internal_node_id": "0.0-8.0-32.0"}}, {"uniqueid": "w57420999:a55393478", "current_trial": 219, "dateTime": 1664368949705, "trialdata": {"rt": 1018, "stimulus": "<p id='stroop-text' class='stroop-blue'>GREEN</p>", "response": "b", "stimulus-type": "incongruent", "word": "green", "color": "blue", "correct_response": "b", "trial_id": "stroop-trial-1-incongruent-20", "trial_type": "html-keyboard-response", "trial_index": 219, "time_elapsed": 486320, "internal_node_id": "0.0-8.0-33.0"}}, {"uniqueid": "w57420999:a55393478", "current_trial": 220, "dateTime": 1664368950936, "trialdata": {"rt": 725, "stimulus": "<p id='stroop-text' class='stroop-green'>FORK</p>", "response": "g", "stimulus-type": "unrelated", "word": "FORK", "color": "green", "correct_response": "g", "trial_id": "stroop-trial-1-unrelated-2", "trial_type": "html-keyboard-response", "trial_index": 220, "time_elapsed": 487550, "internal_node_id": "0.0-8.0-34.0"}}, {"uniqueid": "w57420999:a55393478", "current_trial": 221, "dateTime": 1664368952502, "trialdata": {"rt": 1059, "stimulus": "<p id='stroop-text' class='stroop-yellow'>GREEN</p>", "response": "y", "stimulus-type": "incongruent", "word": "green", "color": "yellow", "correct_response": "y", "trial_id": "stroop-trial-1-incongruent-4", "trial_type": "html-keyboard-response", "trial_index": 221, "time_elapsed": 489117, "internal_node_id": "0.0-8.0-35.0"}}, {"uniqueid": "w57420999:a55393478", "current_trial": 222, "dateTime": 1664368953827, "trialdata": {"rt": 816, "stimulus": "<p id='stroop-text' class='stroop-red'>STONE</p>", "response": "r", "stimulus-type": "unrelated", "word": "STONE", "color": "red", "correct_response": "r", "trial_id": "stroop-trial-1-unrelated-18", "trial_type": "html-keyboard-response", "trial_inde