{"condition": 1, "counterbalance": 0, "assignmentId": "a41368374", "workerId": "w89787437", "hitId": "h29090942", "currenttrial": 143, "bonus": 0, "data": [{"uniqueid": "w89787437:a41368374", "current_trial": 0, "dateTime": 1664367860264, "trialdata": {"success": true, "trial_type": "fullscreen", "trial_index": 0, "time_elapsed": 4198, "internal_node_id": "0.0-0.0"}}, {"uniqueid": "w89787437:a41368374", "current_trial": 1, "dateTime": 1664367875655, "trialdata": {"view_history": [{"page_index": 0, "viewing_time": 15387}], "rt": 15388, "trial_id": "exp_instructions_no_distractor", "trial_type": "instructions", "trial_index": 1, "time_elapsed": 19590, "internal_node_id": "0.0-1.0"}}, {"uniqueid": "w89787437:a41368374", "current_trial": 2, "dateTime": 1664367879061, "trialdata": {"success": true, "trial_type": "fullscreen", "trial_index": 2, "time_elapsed": 22996, "internal_node_id": "0.0-2.0-0.0"}}, {"uniqueid": "w89787437:a41368374", "current_trial": 3, "dateTime": 1664367987904, "trialdata": {"view_history": [{"page_index": 0, "viewing_time": 40445}, {"page_index": 1, "viewing_time": 1244}, {"page_index": 0, "viewing_time": 2845}, {"page_index": 1, "viewing_time": 25426}, {"page_index": 2, "viewing_time": 7327}, {"page_index": 3, "viewing_time": 9089}, {"page_index": 4, "viewing_time": 22467}], "rt": 108843, "trial_id": "mouselab_instructions_1", "trial_type": "instructions", "trial_index": 3, "time_elapsed": 131839, "internal_node_id": "0.0-2.0-1.0"}}, {"uniqueid": "w89787437:a41368374", "current_trial": 4, "dateTime": 1664368010518, "trialdata": {"revealed_states": [], "num_clicks_accrued": [0, 0, 0, 0, 0, 0, 0, 0, 0, 0, 0, 0, 0], "stateRewards": ["", 10, -10, -10, 10, 10, 10, -10, 10, 10, -10, -10, 10], "withholdReward": false, "trial_id": "practice_1", "block": "test", "trialIndex": 0, "score": 31.5, "costs": -0.5, "simulationMode": [null, null, null], "rewards": [10, 10, 10], "path": ["0", "0", "5", "6", "8"], "rt": [10366, 2130, 350], "actions": ["right", "right", "down"], "actionTimes": [13222, 15871, 16740], "queries": {"click": {"state": {"target": ["9", "5"], "time": [9584, 10522]}, "edge": {"target": [], "time": []}}, "mouseover": {"state": {"target": ["0", "9", "5"], "time": [3123, 9322, 10322]}, "edge": {"target": [], "time": []}}, "mouseout": {"state": {"target": ["0", "9", "9", "0", "0", "0", "9", "5"], "time": [6, 40, 673, 906, 2475, 3173, 9838, 10655]}, "edge": {"target": [], "time": []}}}, "displayed_time": "17.26", "trialTime": 22159, "trial_type": "mouselab-mdp", "trial_index": 4, "time_elapsed": 154452, "internal_node_id": "0.0-2.0-2.0-0.0"}}, {"uniqueid": "w89787437:a41368374", "current_trial": 5, "dateTime": 1664368026405, "trialdata": {"revealed_states": [], "num_clicks_accrued": [0, 0, 0, 0, 0, 0, 0, 0, 0, 0, 0, 0, 0], "stateRewards": ["", 10, -10, -10, 10, -10, 10, 10, 10, 10, 10, 10, 10], "withholdReward": false, "trial_id": "practice_2", "block": "test", "trialIndex": 1, "score": 11.25, "costs": -0.75, "simulationMode": [null, null, null], "rewards": [10, -10, 10], "path": ["0", "0", "1", "2", "4"], "rt": [7887, 666, 509], "actions": ["up", "up", "left"], "actionTimes": [10686, 11862, 12869], "queries": {"click": {"state": {"target": ["1", "9", "5"], "time": [5750, 7075, 8242]}, "edge": {"target": [], "time": []}}, "mouseover": {"state": {"target": ["0", "1", "9", "0", "5", "5"], "time": [5143, 5426, 6260, 7393, 7726, 8060]}, "edge": {"target": [], "time": []}}, "mouseout": {"state": {"target": ["5", "0", "9", "0", "0", "1", "9", "0", "5", "5"], "time": [2077, 2143, 2310, 3127, 5177, 5943, 7376, 7493, 7777, 8959]}, "edge": {"target": [], "time": []}}}, "displayed_time": "13.38", "trialTime": 15836, "trial_type": "mouselab-mdp", "trial_index": 5, "time_elapsed": 170340, "internal_node_id": "0.0-2.0-2.0-1.0"}}, {"uniqueid": "w89787437:a41368374", "current_trial": 6, "dateTime": 1664368082792, "trialdata": {"view_history": [{"page_index": 0, "viewing_time": 33640}, {"page_index": 1, "viewing_time": 15527}, {"page_index": 2, "viewing_time": 7215}], "rt": 56383, "trial_id": "mouselab_instructions_2_scarce", "trial_type": "instructions", "trial_index": 6, "time_elapsed": 226727, "internal_node_id": "0.0-2.0-3.0"}}, {"uniqueid": "w89787437:a41368374", "current_trial": 7, "dateTime": 1664368120285, "trialdata": {"rt": 37487, "response": {"Q0": "$-48 to $48", "Q1": "The cost is always $0.25.", "Q2": "The better I perform the higher my bonus will be.", "Q3": "No, the amount of cash at each node of the web may be different each time.", "Q4": "The values of the nodes walked through from start to finish.", "Q5": "Yes."}, "question_order": [0, 1, 2, 3, 4, 5], "correct": {"Q0": "$-48 to $48", "Q1": "The cost is always $0.25.", "Q2": "The better I perform the higher my bonus will be.", "Q3": "No, the amount of cash at each node of the web may be different each time.", "Q4": "The values of the nodes walked through from start to finish.", "Q5": "No, the spider might forget to count the money on some rounds."}, "trial_id": "mouselab_quiz_scarce", "trial_type": "survey-multi-choice", "trial_index": 7, "time_elapsed": 264220, "internal_node_id": "0.0-2.0-4.0"}}, {"uniqueid": "w89787437:a41368374", "current_trial": 8, "dateTime": 1664368126056, "trialdata": {"success": true, "trial_type": "fullscreen", "trial_index": 8, "time_elapsed": 269991, "internal_node_id": "0.0-2.1-0.1"}}, {"uniqueid": "w89787437:a41368374", "current_trial": 9, "dateTime": 1664368133701, "trialdata": {"view_history": [{"page_index": 0, "viewing_time": 2712}, {"page_index": 1, "viewing_time": 1675}, {"page_index": 2, "viewing_time": 1444}, {"page_index": 3, "viewing_time": 808}, {"page_index": 4, "viewing_time": 1004}], "rt": 7642, "trial_id": "mouselab_instructions_1", "trial_type": "instructions", "trial_index": 9, "time_elapsed": 277635, "internal_node_id": "0.0-2.1-1.1"}}, {"uniqueid": "w89787437:a41368374", "current_trial": 10, "dateTime": 1664368143623, "trialdata": {"revealed_states": [], "num_clicks_accrued": [0, 0, 0, 0, 0, 0, 0, 0, 0, 0, 0, 0, 0], "stateRewards": ["", 10, -10, -10, 10, 10, 10, -10, 10, 10, -10, -10, 10], "withholdReward": false, "trial_id": "practice_1", "block": "test", "trialIndex": 2, "score": 31.25, "costs": -0.75, "simulationMode": [null, null, null], "rewards": [10, 10, 10], "path": ["0", "0", "5", "6", "8"], "rt": [3638, 501, 200], "actions": ["right", "right", "down"], "actionTimes": [5799, 6804, 7517], "queries": {"click": {"state": {"target": ["5", "6", "8"], "time": [3206, 4090, 4617]}, "edge": {"target": [], "time": []}}, "mouseover": {"state": {"target": ["5", "6", "8"], "time": [2766, 3902, 4434]}, "edge": {"target": [], "time": []}}, "mouseout": {"state": {"target": ["0", "5", "6", "8"], "time": [2716, 3466, 4333, 4983]}, "edge": {"target": [], "time": []}}}, "displayed_time": "8.02", "trialTime": 9857, "trial_type": "mouselab-mdp", "trial_index": 10, "time_elapsed": 287558, "internal_node_id": "0.0-2.1-2.1-0.1"}}, {"uniqueid": "w89787437:a41368374", "current_trial": 11, "dateTime": 1664368153320, "trialdata": {"revealed_states": [], "num_clicks_accrued": [0, 0, 0, 0, 0, 0, 0, 0, 0, 0, 0, 0, 0], "stateRewards": ["", 10, -10, -10, 10, -10, 10, 10, 10, 10, 10, 10, 10], "withholdReward": false, "trial_id": "practice_2", "block": "test", "trialIndex": 3, "score": -8, "costs": 0, "simulationMode": [null, null, null], "rewards": [10, -10, -10], "path": ["0", "0", "1", "2", "3"], "rt": [925, 1, 597], "actions": ["up", "up", "right"], "actionTimes": [4368, 4866, 5979], "queries": {"click": {"state": {"target": [], "time": []}, "edge": {"target": [], "time": []}}, "mouseover": {"state": {"target": [], "time": []}, "edge": {"target": [], "time": []}}, "mouseout": {"state": {"target": ["7", "1", "5", "0"], "time": [2196, 2213, 2979, 6331]}, "edge": {"target": [], "time": []}}}, "displayed_time": "6.51", "trialTime": 9635, "trial_type": "mouselab-mdp", "trial_index": 11, "time_elapsed": 297255, "internal_node_id": "0.0-2.1-2.1-1.1"}}, {"uniqueid": "w89787437:a41368374", "current_trial": 12, "dateTime": 1664368157451, "trialdata": {"view_history": [{"page_index": 0, "viewing_time": 1119}, {"page_index": 1, "viewing_time": 1619}, {"page_index": 2, "viewing_time": 1389}], "rt": 4127, "trial_id": "mouselab_instructions_2_scarce", "trial_type": "instructions", "trial_index": 12, "time_elapsed": 301386, "internal_node_id": "0.0-2.1-3.1"}}, {"uniqueid": "w89787437:a41368374", "current_trial": 13, "dateTime": 1664368185903, "trialdata": {"rt": 28450, "response": {"Q0": "$-48 to $48", "Q1": "The cost is always $0.25.", "Q2": "The better I perform the higher my bonus will be.", "Q3": "No, the amount of cash at each node of the web may be different each time.", "Q4": "The values of the nodes walked through from start to finish.", "Q5": "No, the spider might forget to count the money on some rounds."}, "question_order": [0, 1, 2, 3, 4, 5], "correct": {"Q0": "$-48 to $48", "Q1": "The cost is always $0.25.", "Q2": "The better I perform the higher my bonus will be.", "Q3": "No, the amount of cash at each node of the web may be different each time.", "Q4": "The values of the nodes walked through from start to finish.", "Q5": "No, the spider might forget to count the money on some rounds."}, "trial_id": "mouselab_quiz_scarce", "trial_type": "survey-multi-choice", "trial_index": 13, "time_elapsed": 329838, "internal_node_id": "0.0-2.1-4.1"}}, {"uniqueid": "w89787437:a41368374", "current_trial": 14, "dateTime": 1664368200538, "trialdata": {"rt": 14629, "stimulus": "\n<h1> Get ready to start the game! </h1>\n\nThank you for reading the instructions. Get ready start with the first of 4 block(s) of this game.\n<br><br>\nIn this first block, you will complete 30 rounds of this game before moving on.\n<br><br>\nRemember, the more money the spider gets, the bigger your bonus will be!\n<br><br>\n<div style='text-align: center;'>Press <code>space</code> to begin.</div>\n\n<br><br>\n(If, at any point, the <code>space</code> key does not take you to the next page, click once on the text and try again.)", "response": " ", "trial_id": "mdp_ready_1", "trial_type": "html-keyboard-response", "trial_index": 14, "time_elapsed": 344473, "internal_node_id": "0.0-4.0-0.0"}}, {"uniqueid": "w89787437:a41368374", "current_trial": 15, "dateTime": 1664368215445, "trialdata": {"revealed_states": [], "num_clicks_accrued": [0, 0, 0, 0, 0, 0, 0, 0, 0, 0, 0, 0, 0], "stateRewards": ["", -2, 4, -48, 24, -4, 8, 48, 24, -2, 4, -48, -24], "withholdReward": true, "trial_id": "mdp_740882974347", "block": "test1", "trialIndex": 4, "score": -17.75, "costs": -0.75, "simulationMode": [null, null, null], "rewards": [-2, 4, -24], "path": ["0", "0", "9", "10", "12"], "rt": [5795, 515, 267], "actions": ["left", "left", "down"], "actionTimes": [7570, 8597, 9383], "queries": {"click": {"state": {"target": ["1", "9", "5"], "time": [3954, 5029, 5942]}, "edge": {"target": [], "time": []}}, "mouseover": {"state": {"target": ["0", "0", "1", "0", "9", "0", "5"], "time": [1915, 3382, 3698, 4231, 4648, 5415, 5748]}, "edge": {"target": [], "time": []}}, "mouseout": {"state": {"target": ["6", "5", "0", "9", "10", "1", "0", "0", "0", "1", "0", "9", "0", "5"], "time": [265, 365, 398, 432, 615, 1198, 1533, 1998, 3431, 4165, 4298, 5315, 5464, 6148]}, "edge": {"target": [], "time": []}}}, "displayed_time": "11.78", "trialTime": 14817, "trial_type": "mouselab-mdp", "trial_index": 15, "time_elapsed": 359379, "internal_node_id": "0.0-4.0-1.0-0.0"}}, {"uniqueid": "w89787437:a41368374", "current_trial": 16, "dateTime": 1664368232611, "trialdata": {"revealed_states": [], "num_clicks_accrued": [0, 0, 0, 0, 0, 0, 0, 0, 0, 0, 0, 0, 0], "stateRewards": ["", -2, 8, 24, -48, -2, -4, 24, 48, 2, 8, -48, -48], "withholdReward": false, "trial_id": "mdp_562228697607", "block": "test1", "trialIndex": 5, "score": -33.75, "costs": -0.75, "simulationMode": [null, null, null], "rewards": [2, 8, -48], "path": ["0", "0", "9", "10", "11"], "rt": [6382, 417, 1432], "actions": ["left", "left", "up"], "actionTimes": [9550, 10481, 12413], "queries": {"click": {"state": {"target": ["1", "9", "5"], "time": [5564, 6802, 7900]}, "edge": {"target": [], "time": []}}, "mouseover": {"state": {"target": ["0", "1", "9", "0", "5", "8"], "time": [3647, 4996, 6262, 7495, 7630, 8312]}, "edge": {"target": [], "time": []}}, "mouseout": {"state": {"target": ["0", "9", "0", "1", "9", "0", "5"], "time": [2563, 2879, 4776, 5862, 7312, 7529, 8145]}, "edge": {"target": [], "time": []}}}, "displayed_time": "12.93", "trialTime": 17100, "trial_type": "mouselab-mdp", "trial_index": 16, "time_elapsed": 376546, "internal_node_id": "0.0-4.0-1.0-1.0"}}, {"uniqueid": "w89787437:a41368374", "current_trial": 17, "dateTime": 1664368247224, "trialdata": {"revealed_states": [], "num_clicks_accrued": [0, 0, 0, 0, 0, 0, 0, 0, 0, 0, 0, 0, 0], "stateRewards": ["", 4, -8, 48, 24, 4, -4, 48, 48, -4, 8, -48, 24], "withholdReward": true, "trial_id": "mdp_303828806348", "block": "test1", "trialIndex": 6, "score": 53, "costs": 0, "simulationMode": [null, null, null], "rewards": [4, -4, 48], "path": ["0", "0", "5", "6", "8"], "rt": [3420, 326, 202], "actions": ["right", "right", "down"], "actionTimes": [5700, 6537, 7244], "queries": {"click": {"state": {"target": [], "time": []}, "edge": {"target": [], "time": []}}, "mouseover": {"state": {"target": ["1", "2", "1", "9"], "time": [2708, 2858, 3324, 3791]}, "edge": {"target": [], "time": []}}, "mouseout": {"state": {"target": ["8", "5", "0", "1", "2", "1", "9"], "time": [1491, 1824, 2142, 2775, 3291, 3691, 4641]}, "edge": {"target": [], "time": []}}}, "displayed_time": "10.28", "trialTime": 14560, "trial_type": "mouselab-mdp", "trial_index": 17, "time_elapsed": 391159, "internal_node_id": "0.0-4.0-1.0-2.0"}}, {"uniqueid": "w89787437:a41368374", "current_trial": 18, "dateTime": 1664368265137, "trialdata": {"revealed_states": [], "num_clicks_accrued": [0, 0, 0, 0, 0, 0, 0, 0, 0, 0, 0, 0, 0], "stateRewards": ["", -4, -8, 24, 48, 2, -4, -24, 24, -4, 8, 48, 48], "withholdReward": true, "trial_id": "mdp_496672670022", "block": "test1", "trialIndex": 7, "score": -21.75, "costs": -0.75, "simulationMode": [null, null, null], "rewards": [2, -4, -24], "path": ["0", "0", "5", "6", "7"], "rt": [7494, 443, 2227], "actions": ["right", "right", "up"], "actionTimes": [10328, 11268, 14002], "queries": {"click": {"state": {"target": ["1", "9", "5"], "time": [5203, 6942, 8906]}, "edge": {"target": [], "time": []}}, "mouseover": {"state": {"target": ["1", "9", "5"], "time": [4639, 6622, 8660]}, "edge": {"target": [], "time": []}}, "mouseout": {"state": {"target": ["0", "1", "9"], "time": [1672, 6241, 7640]}, "edge": {"target": [], "time": []}}}, "displayed_time": "14.51", "trialTime": 17839, "trial_type": "mouselab-mdp", "trial_index": 18, "time_elapsed": 409072, "internal_node_id": "0.0-4.0-1.0-3.0"}}, {"uniqueid": "w89787437:a41368374", "current_trial": 19, "dateTime": 1664368278755, "trialdata": {"revealed_states": [], "num_clicks_accrued": [0, 0, 0, 0, 0, 0, 0, 0, 0, 0, 0, 0, 0], "stateRewards": ["", 2, 4, 48, 24, -4, 8, 48, 48, 2, -4, -48, -24], "withholdReward": true, "trial_id": "mdp_822099887466", "block": "test1", "trialIndex": 8, "score": 35, "costs": 0, "simulationMode": [null, null, null], "rewards": [2, 4, 24], "path": ["0", "0", "1", "2", "4"], "rt": [3882, 823, 421], "actions": ["up", "up", "left"], "actionTimes": [5986, 7322, 8237], "queries": {"click": {"state": {"target": [], "time": []}, "edge": {"target": [], "time": []}}, "mouseover": {"state": {"target": [], "time": []}, "edge": {"target": [], "time": []}}, "mouseout": {"state": {"target": ["5", "5"], "time": [1215, 12180]}, "edge": {"target": [], "time": []}}}, "displayed_time": "10.11", "trialTime": 13565, "trial_type": "mouselab-mdp", "trial_index": 19, "time_elapsed": 422690, "internal_node_id": "0.0-4.0-1.0-4.0"}}, {"uniqueid": "w89787437:a41368374", "current_trial": 20, "dateTime": 1664368293581, "trialdata": {"revealed_states": [], "num_clicks_accrued": [0, 0, 0, 0, 0, 0, 0, 0, 0, 0, 0, 0, 0], "stateRewards": ["", -2, -8, -24, 48, -2, -8, -48, -48, 2, -8, -48, 24], "withholdReward": true, "trial_id": "mdp_288324580942", "block": "test1", "trialIndex": 9, "score": 22.25, "costs": -0.75, "simulationMode": [null, null, null], "rewards": [2, -8, 24], "path": ["0", "0", "9", "10", "12"], "rt": [8873, 520, 122], "actions": ["left", "left", "down"], "actionTimes": [10682, 11718, 12355], "queries": {"click": {"state": {"target": ["1", "9", "5"], "time": [3205, 4518, 7363]}, "edge": {"target": [], "time": []}}, "mouseover": {"state": {"target": ["1", "3", "2", "1", "9", "5", "0", "0"], "time": [2413, 2463, 2680, 2780, 4230, 6880, 7912, 8379]}, "edge": {"target": [], "time": []}}, "mouseout": {"state": {"target": ["1", "3", "2", "1", "9", "5", "0", "9", "0"], "time": [2430, 2480, 2713, 3914, 6663, 7897, 7963, 8329, 8396]}, "edge": {"target": [], "time": []}}}, "displayed_time": "12.85", "trialTime": 14726, "trial_type": "mouselab-mdp", "trial_index": 20, "time_elapsed": 437516, "internal_node_id": "0.0-4.0-1.0-5.0"}}, {"uniqueid": "w89787437:a41368374", "current_trial": 21, "dateTime": 1664368305014, "trialdata": {"revealed_states": [], "num_clicks_accrued": [0, 0, 0, 0, 0, 0, 0, 0, 0, 0, 0, 0, 0], "stateRewards": ["", 2, -8, 24, -48, 2, 4, 48, -48, -2, -8, -48, 48], "withholdReward": true, "trial_id": "mdp_629420544881", "block": "test1", "trialIndex": 10, "score": -37, "costs": 0, "simulationMode": [null, null, null], "rewards": [2, 4, -48], "path": ["0", "0", "5", "6", "8"], "rt": [1186, 86, 144], "actions": ["right", "right", "down"], "actionTimes": [2720, 3309, 3950], "queries": {"click": {"state": {"target": [], "time": []}, "edge": {"target": [], "time": []}}, "mouseover": {"state": {"target": [], "time": []}, "edge": {"target": [], "time": []}}, "mouseout": {"state": {"target": ["0", "1"], "time": [737, 971]}, "edge": {"target": [], "time": []}}}, "displayed_time": "9.54", "trialTime": 11285, "trial_type": "mouselab-mdp", "trial_index": 21, "time_elapsed": 448948, "internal_node_id": "0.0-4.0-1.0-6.0"}}, {"uniqueid": "w89787437:a41368374", "current_trial": 22, "dateTime": 1664368321790, "trialdata": {"revealed_states": [], "num_clicks_accrued": [0, 0, 0, 0, 0, 0, 0, 0, 0, 0, 0, 0, 0], "stateRewards": ["", 4, 4, -48, -24, -2, -4, 48, 24, -4, 4, 24, -48], "withholdReward": false, "trial_id": "mdp_617383046444", "block": "test1", "trialIndex": 11, "score": -43, "costs": 0, "simulationMode": [null, null, null], "rewards": [-4, 4, -48], "path": ["0", "0", "9", "10", "12"], "rt": [2534, 46, 153], "actions": ["left", "left", "down"], "actionTimes": [6879, 7433, 8090], "queries": {"click": {"state": {"target": [], "time": []}, "edge": {"target": [], "time": []}}, "mouseover": {"state": {"target": [], "time": []}, "edge": {"target": [], "time": []}}, "mouseout": {"state": {"target": [], "time": []}, "edge": {"target": [], "time": []}}}, "displayed_time": "13.35", "trialTime": 16661, "trial_type": "mouselab-mdp", "trial_index": 22, "time_elapsed": 465725, "internal_node_id": "0.0-4.0-1.0-7.0"}}, {"uniqueid": "w89787437:a41368374", "current_trial": 23, "dateTime": 1664368334871, "trialdata": {"revealed_states": [], "num_clicks_accrued": [0, 0, 0, 0, 0, 0, 0, 0, 0, 0, 0, 0, 0], "stateRewards": ["", -2, 4, -24, -24, -2, 4, 48, 24, -4, -8, 24, -48], "withholdReward": true, "trial_id": "mdp_191839460481", "block": "test1", "trialIndex": 12, "score": -17, "costs": 0, "simulationMode": [null, null, null], "rewards": [-2, 4, -24], "path": ["0", "0", "1", "2", "3"], "rt": [2482, 62, 63], "actions": ["up", "up", "right"], "actionTimes": [5981, 6549, 7118], "queries": {"click": {"state": {"target": [], "time": []}, "edge": {"target": [], "time": []}}, "mouseover": {"state": {"target": ["1", "1"], "time": [4203, 4637]}, "edge": {"target": [], "time": []}}, "mouseout": {"state": {"target": ["0", "0", "1"], "time": [597, 4170, 4236]}, "edge": {"target": [], "time": []}}}, "displayed_time": "11.50", "trialTime": 12978, "trial_type": "mouselab-mdp", "trial_index": 23, "time_elapsed": 478806, "internal_node_id": "0.0-4.0-1.0-8.0"}}, {"uniqueid": "w89787437:a41368374", "current_trial": 24, "dateTime": 1664368349706, "trialdata": {"revealed_states": [], "num_clicks_accrued": [0, 0, 0, 0, 0, 0, 0, 0, 0, 0, 0, 0, 0], "stateRewards": ["", 2, 8, 24, -48, 4, 8, 24, 24, 4, -8, 48, 48], "withholdReward": false, "trial_id": "mdp_646103824875", "block": "test1", "trialIndex": 13, "score": 41, "costs": 0, "simulationMode": [null, null, null], "rewards": [4, 8, 24], "path": ["0", "0", "5", "6", "8"], "rt": [1570, 609, 412], "actions": ["right", "right", "down"], "actionTimes": [4138, 5259, 6179], "queries": {"click": {"state": {"target": [], "time": []}, "edge": {"target": [], "time": []}}, "mouseover": {"state": {"target": ["0"], "time": [3249]}, "edge": {"target": [], "time": []}}, "mouseout": {"state": {"target": ["1", "0", "0", "0"], "time": [865, 1714, 2114, 3299]}, "edge": {"target": [], "time": []}}}, "displayed_time": "12.57", "trialTime": 14692, "trial_type": "mouselab-mdp", "trial_index": 24, "time_elapsed": 493641, "internal_node_id": "0.0-4.0-1.0-9.0"}}, {"uniqueid": "w89787437:a41368374", "current_trial": 25, "dateTime": 1664368360891, "trialdata": {"revealed_states": [], "num_clicks_accrued": [0, 0, 0, 0, 0, 0, 0, 0, 0, 0, 0, 0, 0], "stateRewards": ["", 4, 8, -24, 48, 4, -8, -48, 48, -4, 8, -24, -48], "withholdReward": true, "trial_id": "mdp_376126356841", "block": "test1", "trialIndex": 14, "score": 64.25, "costs": -0.75, "simulationMode": [null, null, null], "rewards": [4, 8, 48], "path": ["0", "0", "1", "2", "4"], "rt": [5436, 67, 337], "actions": ["up", "up", "left"], "actionTimes": [7016, 7588, 8424], "queries": {"click": {"state": {"target": ["9", "1", "5"], "time": [2759, 4225, 5223]}, "edge": {"target": [], "time": []}}, "mouseover": {"state": {"target": ["9", "1", "5", "0"], "time": [2386, 3470, 4869, 5852]}, "edge": {"target": [], "time": []}}, "mouseout": {"state": {"target": ["0", "9", "9", "1", "5", "0"], "time": [765, 1003, 3252, 4686, 5802, 5886]}, "edge": {"target": [], "time": []}}}, "displayed_time": "9.58", "trialTime": 10967, "trial_type": "mouselab-mdp", "trial_index": 25, "time_elapsed": 504826, "internal_node_id": "0.0-4.0-1.0-10.0"}}, {"uniqueid": "w89787437:a41368374", "current_trial": 26, "dateTime": 1664368372856, "trialdata": {"revealed_states": [], "num_clicks_accrued": [0, 0, 0, 0, 0, 0, 0, 0, 0, 0, 0, 0, 0], "stateRewards": ["", 2, -4, 48, -24, 4, -8, -24, 48, -2, -4, 24, -48], "withholdReward": true, "trial_id": "mdp_357328205509", "block": "test1", "trialIndex": 15, "score": -23.75, "costs": -0.75, "simulationMode": [null, null, null], "rewards": [4, -8, -24], "path": ["0", "0", "5", "6", "7"], "rt": [5240, 223, 806], "actions": ["right", "right", "up"], "actionTimes": [7641, 8362, 9679], "queries": {"click": {"state": {"target": ["5", "9", "1"], "time": [4260, 5497, 6482]}, "edge": {"target": [], "time": []}}, "mouseover": {"state": {"target": ["0", "0", "5", "9", "1"], "time": [2988, 3288, 3838, 5222, 5970]}, "edge": {"target": [], "time": []}}, "mouseout": {"state": {"target": ["5", "0", "5", "0", "0", "0", "0", "5", "9", "1", "9"], "time": [770, 938, 1155, 1620, 1987, 3071, 3704, 4771, 5920, 11387, 11486]}, "edge": {"target": [], "time": []}}}, "displayed_time": "10.40", "trialTime": 11785, "trial_type": "mouselab-mdp", "trial_index": 26, "time_elapsed": 516791, "internal_node_id": "0.0-4.0-1.0-11.0"}}, {"uniqueid": "w89787437:a41368374", "current_trial": 27, "dateTime": 1664368384124, "trialdata": {"revealed_states": [], "num_clicks_accrued": [0, 0, 0, 0, 0, 0, 0, 0, 0, 0, 0, 0, 0], "stateRewards": ["", 4, -4, 48, 24, 2, 4, 24, -24, 2, 4, 24, 48], "withholdReward": true, "trial_id": "mdp_736351885282", "block": "test1", "trialIndex": 16, "score": 28.75, "costs": -0.25, "simulationMode": [null, null, null], "rewards": [4, -4, 24], "path": ["0", "0", "1", "2", "4"], "rt": [3759, 143, 528], "actions": ["up", "up", "left"], "actionTimes": [5585, 6226, 7243], "queries": {"click": {"state": {"target": ["1"], "time": [3793]}, "edge": {"target": [], "time": []}}, "mouseover": {"state": {"target": ["1"], "time": [3397]}, "edge": {"target": [], "time": []}}, "mouseout": {"state": {"target": ["0", "0", "1"], "time": [697, 3164, 4181]}, "edge": {"target": [], "time": []}}}, "displayed_time": "9.83", "trialTime": 11064, "trial_type": "mouselab-mdp", "trial_index": 27, "time_elapsed": 528059, "internal_node_id": "0.0-4.0-1.0-12.0"}}, {"uniqueid": "w89787437:a41368374", "current_trial": 28, "dateTime": 1664368395076, "trialdata": {"revealed_states": [], "num_clicks_accrued": [0, 0, 0, 0, 0, 0, 0, 0, 0, 0, 0, 0, 0], "stateRewards": ["", 2, 4, 48, 48, 4, -8, 24, -48, -4, -8, -24, -48], "withholdReward": true, "trial_id": "mdp_343818007251", "block": "test1", "trialIndex": 17, "score": -55, "costs": 0, "simulationMode": [null, null, null], "rewards": [-4, -8, -48], "path": ["0", "0", "9", "10", "12"], "rt": [1553, 19, 454], "actions": ["left", "left", "down"], "actionTimes": [3085, 3620, 4572], "queries": {"click": {"state": {"target": [], "time": []}, "edge": {"target": [], "time": []}}, "mouseover": {"state": {"target": [], "time": []}, "edge": {"target": [], "time": []}}, "mouseout": {"state": {"target": ["0", "5"], "time": [10365, 10481]}, "edge": {"target": [], "time": []}}}, "displayed_time": "9.53", "trialTime": 10768, "trial_type": "mouselab-mdp", "trial_index": 28, "time_elapsed": 539011, "internal_node_id": "0.0-4.0-1.0-13.0"}}, {"uniqueid": "w89787437:a41368374", "current_trial": 29, "dateTime": 1664368406379, "trialdata": {"revealed_states": [], "num_clicks_accrued": [0, 0, 0, 0, 0, 0, 0, 0, 0, 0, 0, 0, 0], "stateRewards": ["", -2, -8, -24, -24, 4, -4, -48, 48, 2, 8, 48, -48], "withholdReward": true, "trial_id": "mdp_498095124548", "block": "test1", "trialIndex": 18, "score": 63, "costs": 0, "simulationMode": [null, null, null], "rewards": [2, 8, 48], "path": ["0", "0", "9", "10", "11"], "rt": [4112, 512, 326], "actions": ["left", "left", "up"], "actionTimes": [6321, 7348, 8178], "queries": {"click": {"state": {"target": [], "time": []}, "edge": {"target": [], "time": []}}, "mouseover": {"state": {"target": [], "time": []}, "edge": {"target": [], "time": []}}, "mouseout": {"state": {"target": ["5", "7"], "time": [1084, 1119]}, "edge": {"target": [], "time": []}}}, "displayed_time": "10.21", "trialTime": 11092, "trial_type": "mouselab-mdp", "trial_index": 29, "time_elapsed": 550314, "internal_node_id": "0.0-4.0-1.0-14.0"}}, {"uniqueid": "w89787437:a41368374", "current_trial": 30, "dateTime": 1664368419044, "trialdata": {"revealed_states": [], "num_clicks_accrued": [0, 0, 0, 0, 0, 0, 0, 0, 0, 0, 0, 0, 0], "stateRewards": ["", -2, 8, 48, 48, 4, -8, -48, 48, 2, -4, -48, 48], "withholdReward": false, "trial_id": "mdp_132958048709", "block": "test1", "trialIndex": 19, "score": -47, "costs": 0, "simulationMode": [null, null, null], "rewards": [4, -8, -48], "path": ["0", "0", "5", "6", "7"], "rt": [1071, 394, 476], "actions": ["right", "right", "up"], "actionTimes": [2724, 3616, 4581], "queries": {"click": {"state": {"target": [], "time": []}, "edge": {"target": [], "time": []}}, "mouseover": {"state": {"target": [], "time": []}, "edge": {"target": [], "time": []}}, "mouseout": {"state": {"target": ["0"], "time": [1573]}, "edge": {"target": [], "time": []}}}, "displayed_time": "10.65", "trialTime": 12460, "trial_type": "mouselab-mdp", "trial_index": 30, "time_elapsed": 562979, "internal_node_id": "0.0-4.0-1.0-15.0"}}, {"uniqueid": "w89787437:a41368374", "current_trial": 31, "dateTime": 1664368432606, "trialdata": {"revealed_states": [], "num_clicks_accrued": [0, 0, 0, 0, 0, 0, 0, 0, 0, 0, 0, 0, 0], "stateRewards": ["", -2, 4, -24, 24, -4, -8, 24, -48, -4, -4, -48, -24], "withholdReward": false, "trial_id": "mdp_753137520419", "block": "test1", "trialIndex": 20, "score": -55, "costs": 0, "simulationMode": [null, null, null], "rewards": [-4, -8, -48], "path": ["0", "0", "5", "6", "8"], "rt": [1293, 435, 109], "actions": ["right", "right", "down"], "actionTimes": [3728, 4668, 5276], "queries": {"click": {"state": {"target": [], "time": []}, "edge": {"target": [], "time": []}}, "mouseover": {"state": {"target": [], "time": []}, "edge": {"target": [], "time": []}}, "mouseout": {"state": {"target": ["0", "0", "9", "0"], "time": [2341, 12098, 12314, 13014]}, "edge": {"target": [], "time": []}}}, "displayed_time": "10.44", "trialTime": 13351, "trial_type": "mouselab-mdp", "trial_index": 31, "time_elapsed": 576541, "internal_node_id": "0.0-4.0-1.0-16.0"}}, {"uniqueid": "w89787437:a41368374", "current_trial": 32, "dateTime": 1664368444397, "trialdata": {"revealed_states": [], "num_clicks_accrued": [0, 0, 0, 0, 0, 0, 0, 0, 0, 0, 0, 0, 0], "stateRewards": ["", -2, -4, -24, -48, -4, -8, -48, 24, -4, -8, -24, -48], "withholdReward": true, "trial_id": "mdp_475782454549", "block": "test1", "trialIndex": 21, "score": -49.75, "costs": -0.75, "simulationMode": [null, null, null], "rewards": [-2, -4, -48], "path": ["0", "0", "1", "2", "4"], "rt": [6104, 295, 281], "actions": ["up", "up", "left"], "actionTimes": [7504, 8314, 9100], "queries": {"click": {"state": {"target": ["9", "1", "5"], "time": [2600, 3863, 5905]}, "edge": {"target": [], "time": []}}, "mouseover": {"state": {"target": ["9", "1", "5"], "time": [2151, 3167, 5499]}, "edge": {"target": [], "time": []}}, "mouseout": {"state": {"target": ["0", "9", "1"], "time": [1001, 3117, 5383]}, "edge": {"target": [], "time": []}}}, "displayed_time": "10.40", "trialTime": 11596, "trial_type": "mouselab-mdp", "trial_index": 32, "time_elapsed": 588332, "internal_node_id": "0.0-4.0-1.0-17.0"}}, {"uniqueid": "w89787437:a41368374", "current_trial": 33, "dateTime": 1664368457724, "trialdata": {"revealed_states": [], "num_clicks_accrued": [0, 0, 0, 0, 0, 0, 0, 0, 0, 0, 0, 0, 0], "stateRewards": ["", -4, -4, -24, 24, 4, 4, -24, -24, -4, 4, 24, 24], "withholdReward": true, "trial_id": "mdp_787781487383", "block": "test1", "trialIndex": 22, "score": -27, "costs": 0, "simulationMode": [null, null, null], "rewards": [-4, -4, -24], "path": ["0", "0", "1", "2", "3"], "rt": [1830, 321, 649], "actions": ["up", "up", "right"], "actionTimes": [4216, 5057, 6217], "queries": {"click": {"state": {"target": [], "time": []}, "edge": {"target": [], "time": []}}, "mouseover": {"state": {"target": [], "time": []}, "edge": {"target": [], "time": []}}, "mouseout": {"state": {"target": ["5", "0"], "time": [600, 2898]}, "edge": {"target": [], "time": []}}}, "displayed_time": "12.39", "trialTime": 13140, "trial_type": "mouselab-mdp", "trial_index": 33, "time_elapsed": 601659, "internal_node_id": "0.0-4.0-1.0-18.0"}}, {"uniqueid": "w89787437:a41368374", "current_trial": 34, "dateTime": 1664368474387, "trialdata": {"revealed_states": [], "num_clicks_accrued": [0, 0, 0, 0, 0, 0, 0, 0, 0, 0, 0, 0, 0], "stateRewards": ["", 2, 8, 24, -48, 4, 8, 24, 48, 2, -8, -24, 24], "withholdReward": true, "trial_id": "mdp_939899431582", "block": "test1", "trialIndex": 23, "score": 41, "costs": 0, "simulationMode": [null, null, null], "rewards": [4, 8, 24], "path": ["0", "0", "5", "6", "7"], "rt": [825, 373, 483], "actions": ["right", "right", "up"], "actionTimes": [6478, 7340, 8316], "queries": {"click": {"state": {"target": [], "time": []}, "edge": {"target": [], "time": []}}, "mouseover": {"state": {"target": [], "time": []}, "edge": {"target": [], "time": []}}, "mouseout": {"state": {"target": ["0", "0"], "time": [3232, 5481]}, "edge": {"target": [], "time": []}}}, "displayed_time": "15.65", "trialTime": 16471, "trial_type": "mouselab-mdp", "trial_index": 34, "time_elapsed": 618322, "internal_node_id": "0.0-4.0-1.0-19.0"}}, {"uniqueid": "w89787437:a41368374", "current_trial": 35, "dateTime": 1664368486370, "trialdata": {"revealed_states": [], "num_clicks_accrued": [0, 0, 0, 0, 0, 0, 0, 0, 0, 0, 0, 0, 0], "stateRewards": ["", -2, 8, 48, -48, 4, -8, 24, 24, 4, 4, -48, -24], "withholdReward": true, "trial_id": "mdp_746937869927", "block": "test1", "trialIndex": 24, "score": -11, "costs": 0, "simulationMode": [null, null, null], "rewards": [4, 4, -24], "path": ["0", "0", "9", "10", "12"], "rt": [1082, 442, 364], "actions": ["left", "left", "down"], "actionTimes": [3021, 3952, 4825], "queries": {"click": {"state": {"target": [], "time": []}, "edge": {"target": [], "time": []}}, "mouseover": {"state": {"target": [], "time": []}, "edge": {"target": [], "time": []}}, "mouseout": {"state": {"target": ["0"], "time": [1842]}, "edge": {"target": [], "time": []}}}, "displayed_time": "9.94", "trialTime": 11799, "trial_type": "mouselab-mdp", "trial_index": 35, "time_elapsed": 630304, "internal_node_id": "0.0-4.0-1.0-20.0"}}, {"uniqueid": "w89787437:a41368374", "current_trial": 36, "dateTime": 1664368497132, "trialdata": {"revealed_states": [], "num_clicks_accrued": [0, 0, 0, 0, 0, 0, 0, 0, 0, 0, 0, 0, 0], "stateRewards": ["", 2, -4, 48, -48, -2, 8, -48, 24, -2, -8, 48, 48], "withholdReward": false, "trial_id": "mdp_949326095747", "block": "test1", "trialIndex": 25, "score": -45, "costs": 0, "simulationMode": [null, null, null], "rewards": [2, -4, -48], "path": ["0", "0", "1", "2", "4"], "rt": [2026, 47, 1025], "actions": ["up", "up", "left"], "actionTimes": [2939, 3499, 5044], "queries": {"click": {"state": {"target": [], "time": []}, "edge": {"target": [], "time": []}}, "mouseover": {"state": {"target": [], "time": []}, "edge": {"target": [], "time": []}}, "mouseout": {"state": {"target": ["0"], "time": [855]}, "edge": {"target": [], "time": []}}}, "displayed_time": "8.91", "trialTime": 10554, "trial_type": "mouselab-mdp", "trial_index": 36, "time_elapsed": 641066, "internal_node_id": "0.0-4.0-1.0-21.0"}}, {"uniqueid": "w89787437:a41368374", "current_trial": 37, "dateTime": 1664368508912, "trialdata": {"revealed_states": [], "num_clicks_accrued": [0, 0, 0, 0, 0, 0, 0, 0, 0, 0, 0, 0, 0], "stateRewards": ["", -2, 8, -48, -24, -2, 8, 48, -48, -4, 8, 24, 48], "withholdReward": true, "trial_id": "mdp_160707003673", "block": "test1", "trialIndex": 26, "score": -37, "costs": 0, "simulationMode": [null, null, null], "rewards": [-2, 8, -48], "path": ["0", "0", "5", "6", "8"], "rt": [1749, 437, 65], "actions": ["right", "right", "down"], "actionTimes": [3602, 4530, 5092], "queries": {"click": {"state": {"target": [], "time": []}, "edge": {"target": [], "time": []}}, "mouseover": {"state": {"target": [], "time": []}, "edge": {"target": [], "time": []}}, "mouseout": {"state": {"target": ["0"], "time": [1674]}, "edge": {"target": [], "time": []}}}, "displayed_time": "10.85", "trialTime": 11643, "trial_type": "mouselab-mdp", "trial_index": 37, "time_elapsed": 652847, "internal_node_id": "0.0-4.0-1.0-22.0"}}, {"uniqueid": "w89787437:a41368374", "current_trial": 38, "dateTime": 1664368523828, "trialdata": {"revealed_states": [], "num_clicks_accrued": [0, 0, 0, 0, 0, 0, 0, 0, 0, 0, 0, 0, 0], "stateRewards": ["", 2, 4, 48, -48, 2, 4, 24, -24, 2, -4, -24, -48], "withholdReward": true, "trial_id": "mdp_706591889062", "block": "test1", "trialIndex": 27, "score": -45, "costs": 0, "simulationMode": [null, null, null], "rewards": [2, -4, -48], "path": ["0", "0", "9", "10", "12"], "rt": [1152, 23, 671], "actions": ["left", "left", "down"], "actionTimes": [5801, 6338, 7520], "queries": {"click": {"state": {"target": [], "time": []}, "edge": {"target": [], "time": []}}, "mouseover": {"state": {"target": [], "time": []}, "edge": {"target": [], "time": []}}, "mouseout": {"state": {"target": ["0"], "time": [4542]}, "edge": {"target": [], "time": []}}}, "displayed_time": "13.65", "trialTime": 14715, "trial_type": "mouselab-mdp", "trial_index": 38, "time_elapsed": 667763, "internal_node_id": "0.0-4.0-1.0-23.0"}}, {"uniqueid": "w89787437:a41368374", "current_trial": 39, "dateTime": 1664368539600, "trialdata": {"revealed_states": [], "num_clicks_accrued": [0, 0, 0, 0, 0, 0, 0, 0, 0, 0, 0, 0, 0], "stateRewards": ["", 4, 4, -48, -48, 4, 4, -24, -24, -4, 8, -48, 24], "withholdReward": true, "trial_id": "mdp_669785455541", "block": "test1", "trialIndex": 28, "score": -11, "costs": 0, "simulationMode": [null, null, null], "rewards": [4, 4, -24], "path": ["0", "0", "5", "6", "7"], "rt": [1283, 16, 224], "actions": ["right", "right", "up"], "actionTimes": [6010, 6523, 7264], "queries": {"click": {"state": {"target": [], "time": []}, "edge": {"target": [], "time": []}}, "mouseover": {"state": {"target": [], "time": []}, "edge": {"target": [], "time": []}}, "mouseout": {"state": {"target": ["0", "12", "1", "0"], "time": [791, 1072, 1923, 3305]}, "edge": {"target": [], "time": []}}}, "displayed_time": "13.73", "trialTime": 15581, "trial_type": "mouselab-mdp", "trial_index": 39, "time_elapsed": 683534, "internal_node_id": "0.0-4.0-1.0-24.0"}}, {"uniqueid": "w89787437:a41368374", "current_trial": 40, "dateTime": 1664368558772, "trialdata": {"revealed_states": [], "num_clicks_accrued": [0, 0, 0, 0, 0, 0, 0, 0, 0, 0, 0, 0, 0], "stateRewards": ["", 2, -4, -48, 24, 4, 4, 48, -48, -2, -4, -24, -48], "withholdReward": true, "trial_id": "mdp_858916930936", "block": "test1", "trialIndex": 29, "score": -35.75, "costs": -0.75, "simulationMode": [null, null, null], "rewards": [4, 4, -48], "path": ["0", "0", "5", "6", "8"], "rt": [6954, 185, 127], "actions": ["right", "right", "down"], "actionTimes": [14709, 15398, 16025], "queries": {"click": {"state": {"target": ["1", "2", "3"], "time": [8792, 10252, 12069]}, "edge": {"target": [], "time": []}}, "mouseover": {"state": {"target": ["1", "2", "3", "0"], "time": [8464, 9430, 11263, 13163]}, "edge": {"target": [], "time": []}}, "mouseout": {"state": {"target": ["0", "1", "0", "5", "0", "0", "0", "0", "0", "0", "1", "2", "3", "1", "0"], "time": [564, 797, 1013, 1347, 1697, 3130, 3864, 5197, 5414, 8164, 9297, 11180, 12697, 13013, 13213]}, "edge": {"target": [], "time": []}}}, "displayed_time": "16.76", "trialTime": 18914, "trial_type": "mouselab-mdp", "trial_index": 40, "time_elapsed": 702707, "internal_node_id": "0.0-4.0-1.0-25.0"}}, {"uniqueid": "w89787437:a41368374", "current_trial": 41, "dateTime": 1664368577030, "trialdata": {"revealed_states": [], "num_clicks_accrued": [0, 0, 0, 0, 0, 0, 0, 0, 0, 0, 0, 0, 0], "stateRewards": ["", 2, 4, -48, 24, -4, -4, -24, 24, 2, -4, 24, -24], "withholdReward": false, "trial_id": "mdp_163600331068", "block": "test1", "trialIndex": 30, "score": 33.75, "costs": -1.25, "simulationMode": [null, null, null], "rewards": [2, 4, 24], "path": ["0", "0", "1", "2", "4"], "rt": [11731, 380, 669], "actions": ["up", "up", "left"], "actionTimes": [13627, 14508, 15679], "queries": {"click": {"state": {"target": ["12", "8", "3", "4", "7"], "time": [3631, 5122, 9185, 10445, 11701]}, "edge": {"target": [], "time": []}}, "mouseover": {"state": {"target": ["9", "12", "8", "5", "5", "5", "3", "2", "4", "7", "5", "5"], "time": [3025, 3143, 4776, 6776, 8043, 8359, 8775, 9726, 10092, 11275, 12108, 12358]}, "edge": {"target": [], "time": []}}, "mouseout": {"state": {"target": ["9", "12", "8", "8", "5", "5", "5", "3", "2", "4", "7", "5", "5"], "time": [3043, 4160, 5675, 6275, 6809, 8159, 8442, 9693, 9842, 11084, 12077, 12124, 16908]}, "edge": {"target": [], "time": []}}}, "displayed_time": "16.19", "trialTime": 18053, "trial_type": "mouselab-mdp", "trial_index": 41, "time_elapsed": 720965, "internal_node_id": "0.0-4.0-1.0-26.0"}}, {"uniqueid": "w89787437:a41368374", "current_trial": 42, "dateTime": 1664368589991, "trialdata": {"revealed_states": [], "num_clicks_accrued": [0, 0, 0, 0, 0, 0, 0, 0, 0, 0, 0, 0, 0], "stateRewards": ["", 4, -4, 48, -48, -2, -8, -24, 48, -2, 4, 24, -24], "withholdReward": false, "trial_id": "mdp_507290896735", "block": "test1", "trialIndex": 31, "score": 52.25, "costs": -0.75, "simulationMode": [null, null, null], "rewards": [4, -4, 48], "path": ["0", "0", "1", "2", "3"], "rt": [6939, 439, 264], "actions": ["up", "up", "right"], "actionTimes": [8483, 9436, 10212], "queries": {"click": {"state": {"target": ["12", "4", "3"], "time": [3626, 5500, 7210]}, "edge": {"target": [], "time": []}}, "mouseover": {"state": {"target": ["3", "1", "12", "4", "4", "3", "3"], "time": [2512, 2795, 3279, 4529, 5147, 6244, 6996]}, "edge": {"target": [], "time": []}}, "mouseout": {"state": {"target": ["0", "3", "1", "12", "4", "4", "3"], "time": [1195, 2761, 2811, 4078, 4645, 5979, 6312]}, "edge": {"target": [], "time": []}}}, "displayed_time": "11.54", "trialTime": 12768, "trial_type": "mouselab-mdp", "trial_index": 42, "time_elapsed": 733926, "internal_node_id": "0.0-4.0-1.0-27.0"}}, {"uniqueid": "w89787437:a41368374", "current_trial": 43, "dateTime": 1664368601377, "trialdata": {"revealed_states": [], "num_clicks_accrued": [0, 0, 0, 0, 0, 0, 0, 0, 0, 0, 0, 0, 0], "stateRewards": ["", -4, -8, 48, -48, 2, -4, 48, -24, 2, -8, -48, -48], "withholdReward": true, "trial_id": "mdp_624553692913", "block": "test1", "trialIndex": 32, "score": 50.5, "costs": -0.5, "simulationMode": [null, null, null], "rewards": [2, -4, 48], "path": ["0", "0", "5", "6", "7"], "rt": [3221, 111, 745], "actions": ["right", "right", "up"], "actionTimes": [5488, 6116, 7357], "queries": {"click": {"state": {"target": ["8", "7"], "time": [3472, 4701]}, "edge": {"target": [], "time": []}}, "mouseover": {"state": {"target": ["5", "8", "6", "7", "7"], "time": [2902, 3153, 3952, 3985, 4269]}, "edge": {"target": [], "time": []}}, "mouseout": {"state": {"target": ["3", "5", "8", "6", "7"], "time": [1503, 2970, 3938, 3969, 4069]}, "edge": {"target": [], "time": []}}}, "displayed_time": "10.27", "trialTime": 11245, "trial_type": "mouselab-mdp", "trial_index": 43, "time_elapsed": 745311, "internal_node_id": "0.0-4.0-1.0-28.0"}}, {"uniqueid": "w89787437:a41368374", "current_trial": 44, "dateTime": 1664368614033, "trialdata": {"revealed_states": [], "num_clicks_accrued": [0, 0, 0, 0, 0, 0, 0, 0, 0, 0, 0, 0, 0], "stateRewards": ["", -4, 8, 24, -24, -2, 4, -24, 48, -2, 8, -48, -24], "withholdReward": true, "trial_id": "mdp_799359103169", "block": "test1", "trialIndex": 33, "score": 54.25, "costs": -0.75, "simulationMode": [null, null, null], "rewards": [-2, 4, 48], "path": ["0", "0", "5", "6", "8"], "rt": [6885, 268, 114], "actions": ["right", "right", "down"], "actionTimes": [9110, 9868, 10498], "queries": {"click": {"state": {"target": ["4", "11", "8"], "time": [3361, 5583, 7927]}, "edge": {"target": [], "time": []}}, "mouseover": {"state": {"target": ["1", "2", "4", "1", "6", "11", "10", "12", "8"], "time": [2648, 2680, 2914, 3864, 4115, 5264, 6130, 6281, 7648]}, "edge": {"target": [], "time": []}}, "mouseout": {"state": {"target": ["7", "5", "1", "2", "4", "1", "6", "11", "10", "12", "8"], "time": [549, 814, 2664, 2714, 3830, 3880, 4147, 6114, 6181, 6313, 8514]}, "edge": {"target": [], "time": []}}}, "displayed_time": "11.23", "trialTime": 12448, "trial_type": "mouselab-mdp", "trial_index": 44, "time_elapsed": 757968, "internal_node_id": "0.0-4.0-1.0-29.0"}}, {"uniqueid": "w89787437:a41368374", "current_trial": 45, "dateTime": 1664368620593, "trialdata": {"rt": 6555, "stimulus": "<h1> End of block! </h1>\n\nYou have reached the end of the block 1/4. If you need a short break, feel free to take one now before moving on.\n\n<br><br>\nIn the next block, you will complete another 30 rounds of this game.\n\n<br><br>\n<div style='text-align: center;'>Press <code>space</code> to begin.</div>\n<br><br>\n<div style='text-align: center;'>(If the experiment doesn't continue, try clicking on the text and then pressing <code>space</code>.)</div>", "response": " ", "trial_id": "mdp_ready_2", "trial_type": "html-keyboard-response", "trial_index": 45, "time_elapsed": 764528, "internal_node_id": "0.0-4.0-2.0"}}, {"uniqueid": "w89787437:a41368374", "current_trial": 46, "dateTime": 1664368658547, "trialdata": {"revealed_states": [], "num_clicks_accrued": [0, 0, 0, 0, 0, 0, 0, 0, 0, 0, 0, 0, 0], "stateRewards": ["", -4, -4, -24, 24, -4, 4, -24, 48, -2, 4, 48, -48], "withholdReward": true, "trial_id": "mdp_774757609669", "block": "test2", "trialIndex": 34, "score": 52.25, "costs": -0.75, "simulationMode": [null, null, null], "rewards": [-4, 4, 48], "path": ["0", "0", "5", "6", "8"], "rt": [7411, 339, 98], "actions": ["right", "right", "down"], "actionTimes": [12498, 13340, 13949], "queries": {"click": {"state": {"target": ["4", "12", "8"], "time": [7846, 10008, 11312]}, "edge": {"target": [], "time": []}}, "mouseover": {"state": {"target": ["2", "4", "10", "12", "12", "8"], "time": [6983, 7499, 9199, 9248, 9481, 10999]}, "edge": {"target": [], "time": []}}, "mouseout": {"state": {"target": ["0", "9", "10", "12", "8", "6", "5", "9", "2", "4", "10", "12", "12", "8"], "time": [4116, 4166, 4215, 4249, 4348, 4399, 4448, 4683, 6999, 8600, 9216, 9299, 10549, 11807]}, "edge": {"target": [], "time": []}}}, "displayed_time": "14.45", "trialTime": 37783, "trial_type": "mouselab-mdp", "trial_index": 46, "time_elapsed": 802482, "internal_node_id": "0.0-4.0-3.0-0.0"}}, {"uniqueid": "w89787437:a41368374", "current_trial": 47, "dateTime": 1664368694054, "trialdata": {"revealed_states": [], "num_clicks_accrued": [0, 0, 0, 0, 0, 0, 0, 0, 0, 0, 0, 0, 0], "stateRewards": ["", 2, 4, 48, 48, 4, -8, 24, -48, -4, -8, -24, -48], "withholdReward": false, "trial_id": "mdp_343818007251", "block": "test2", "trialIndex": 35, "score": 58.75, "costs": -0.25, "simulationMode": [null, null, null], "rewards": [2, 4, 48], "path": ["0", "0", "1", "2", "4"], "rt": [7051, 538, 333], "actions": ["up", "up", "left"], "actionTimes": [31014, 32068, 32913], "queries": {"click": {"state": {"target": ["4"], "time": [29866]}, "edge": {"target": [], "time": []}}, "mouseover": {"state": {"target": ["1", "0", "9", "4"], "time": [27995, 28096, 28694, 29348]}, "edge": {"target": [], "time": []}}, "mouseout": {"state": {"target": ["0", "0", "0", "1", "0", "9"], "time": [1448, 3132, 27766, 28012, 28578, 28728]}, "edge": {"target": [], "time": []}}}, "displayed_time": "33.43", "trialTime": 35324, "trial_type": "mouselab-mdp", "trial_index": 47, "time_elapsed": 837989, "internal_node_id": "0.0-4.0-3.0-1.0"}}, {"uniqueid": "w89787437:a41368374", "current_trial": 48, "dateTime": 1664368706121, "trialdata": {"revealed_states": [], "num_clicks_accrued": [0, 0, 0, 0, 0, 0, 0, 0, 0, 0, 0, 0, 0], "stateRewards": ["", 2, 4, -48, -24, 2, 8, 24, 48, -2, 4, 48, -48], "withholdReward": false, "trial_id": "mdp_551894842204", "block": "test2", "trialIndex": 36, "score": 62.25, "costs": -0.75, "simulationMode": [null, null, null], "rewards": [2, 8, 48], "path": ["0", "0", "5", "6", "8"], "rt": [4444, 469, 474], "actions": ["right", "right", "down"], "actionTimes": [8137, 9120, 10107], "queries": {"click": {"state": {"target": ["3", "12", "8"], "time": [4786, 6071, 7240]}, "edge": {"target": [], "time": []}}, "mouseover": {"state": {"target": ["3", "1", "9", "12", "8"], "time": [4417, 5283, 5432, 5733, 6966]}, "edge": {"target": [], "time": []}}, "mouseout": {"state": {"target": ["4", "3", "1", "9", "12"], "time": [2967, 5250, 5299, 5599, 6534]}, "edge": {"target": [], "time": []}}}, "displayed_time": "10.69", "trialTime": 11848, "trial_type": "mouselab-mdp", "trial_index": 48, "time_elapsed": 850056, "internal_node_id": "0.0-4.0-3.0-2.0"}}, {"uniqueid": "w89787437:a41368374", "current_trial": 49, "dateTime": 1664368720702, "trialdata": {"revealed_states": [], "num_clicks_accrued": [0, 0, 0, 0, 0, 0, 0, 0, 0, 0, 0, 0, 0], "stateRewards": ["", 2, 4, 48, 24, -2, -8, 24, 24, -2, 4, -48, 24], "withholdReward": false, "trial_id": "mdp_130849500124", "block": "test2", "trialIndex": 37, "score": 57.75, "costs": -1.25, "simulationMode": [null, null, null], "rewards": [2, 4, 48], "path": ["0", "0", "1", "2", "3"], "rt": [9158, 305, 392], "actions": ["up", "up", "right"], "actionTimes": [11284, 12096, 13001], "queries": {"click": {"state": {"target": ["4", "8", "12", "11", "3"], "time": [3139, 5753, 7005, 8150, 9820]}, "edge": {"target": [], "time": []}}, "mouseover": {"state": {"target": ["4", "1", "8", "12", "10", "11", "2", "3"], "time": [2674, 4740, 5258, 6708, 7557, 7824, 8607, 8657]}, "edge": {"target": [], "time": []}}, "mouseout": {"state": {"target": ["8", "5", "0", "4", "1", "8", "12", "10", "11", "2", "3"], "time": [1208, 1291, 1658, 4724, 4757, 6341, 7540, 7674, 8560, 8623, 10390]}, "edge": {"target": [], "time": []}}}, "displayed_time": "13.51", "trialTime": 14354, "trial_type": "mouselab-mdp", "trial_index": 49, "time_elapsed": 864636, "internal_node_id": "0.0-4.0-3.0-3.0"}}, {"uniqueid": "w89787437:a41368374", "current_trial": 50, "dateTime": 1664368733019, "trialdata": {"revealed_states": [], "num_clicks_accrued": [0, 0, 0, 0, 0, 0, 0, 0, 0, 0, 0, 0, 0], "stateRewards": ["", 4, -8, -24, 24, 2, -4, 24, 24, 2, -4, 48, 48], "withholdReward": true, "trial_id": "mdp_457607480918", "block": "test2", "trialIndex": 38, "score": 50.5, "costs": -0.5, "simulationMode": [null, null, null], "rewards": [2, -4, 48], "path": ["0", "0", "9", "10", "12"], "rt": [3387, 21, 654], "actions": ["left", "left", "down"], "actionTimes": [6191, 6709, 7858], "queries": {"click": {"state": {"target": ["3", "12"], "time": [3902, 5194]}, "edge": {"target": [], "time": []}}, "mouseover": {"state": {"target": ["3", "3", "1", "9", "12"], "time": [3170, 3519, 4486, 4570, 4886]}, "edge": {"target": [], "time": []}}, "mouseout": {"state": {"target": ["3", "3", "1", "9", "12", "12"], "time": [3186, 4454, 4520, 4719, 12058, 12118]}, "edge": {"target": [], "time": []}}}, "displayed_time": "10.80", "trialTime": 12136, "trial_type": "mouselab-mdp", "trial_index": 50, "time_elapsed": 876954, "internal_node_id": "0.0-4.0-3.0-4.0"}}, {"uniqueid": "w89787437:a41368374", "current_trial": 51, "dateTime": 1664368746237, "trialdata": {"revealed_states": [], "num_clicks_accrued": [0, 0, 0, 0, 0, 0, 0, 0, 0, 0, 0, 0, 0], "stateRewards": ["", -2, -4, -24, 48, -2, -8, -48, -24, 4, 8, 48, 24], "withholdReward": false, "trial_id": "mdp_625355871626", "block": "test2", "trialIndex": 39, "score": 64.5, "costs": -0.5, "simulationMode": [null, null, null], "rewards": [4, 8, 48], "path": ["0", "0", "9", "10", "11"], "rt": [3872, 6, 394], "actions": ["left", "left", "up"], "actionTimes": [7918, 8442, 9378], "queries": {"click": {"state": {"target": ["8", "11"], "time": [5283, 6955]}, "edge": {"target": [], "time": []}}, "mouseover": {"state": {"target": ["5", "8", "5", "1", "11"], "time": [4603, 4968, 5785, 5867, 6600]}, "edge": {"target": [], "time": []}}, "mouseout": {"state": {"target": ["0", "0", "5", "8", "5", "1"], "time": [1068, 3717, 4668, 5752, 5817, 6051]}, "edge": {"target": [], "time": []}}}, "displayed_time": "12.05", "trialTime": 13036, "trial_type": "mouselab-mdp", "trial_index": 51, "time_elapsed": 890171, "internal_node_id": "0.0-4.0-3.0-5.0"}}, {"uniqueid": "w89787437:a41368374", "current_trial": 52, "dateTime": 1664368773255, "trialdata": {"revealed_states": [], "num_clicks_accrued": [0, 0, 0, 0, 0, 0, 0, 0, 0, 0, 0, 0, 0], "stateRewards": ["", -2, -4, -24, -24, 4, 8, 24, 24, -2, 8, 48, 48], "withholdReward": true, "trial_id": "mdp_620787912291", "block": "test2", "trialIndex": 40, "score": 58.25, "costs": -0.75, "simulationMode": [null, null, null], "rewards": [-2, 8, 48], "path": ["0", "0", "9", "10", "12"], "rt": [6052, 333, 260], "actions": ["left", "left", "down"], "actionTimes": [23116, 23949, 24713], "queries": {"click": {"state": {"target": ["4", "8", "12"], "time": [18800, 20253, 21925]}, "edge": {"target": [], "time": []}}, "mouseover": {"state": {"target": ["2", "4", "5", "8", "12", "0"], "time": [18183, 18516, 19433, 19916, 21549, 22499]}, "edge": {"target": [], "time": []}}, "mouseout": {"state": {"target": ["11", "10", "3", "4", "12", "11", "12", "9", "9", "12", "0", "2", "4", "5", "8", "12", "0"], "time": [819, 1068, 1618, 1718, 1968, 2102, 15735, 15766, 15882, 15900, 16601, 18433, 19237, 19756, 20717, 22415, 22515]}, "edge": {"target": [], "time": []}}}, "displayed_time": "26.07", "trialTime": 26822, "trial_type": "mouselab-mdp", "trial_index": 52, "time_elapsed": 917190, "internal_node_id": "0.0-4.0-3.0-6.0"}}, {"uniqueid": "w89787437:a41368374", "current_trial": 53, "dateTime": 1664368784773, "trialdata": {"revealed_states": [], "num_clicks_accrued": [0, 0, 0, 0, 0, 0, 0, 0, 0, 0, 0, 0, 0], "stateRewards": ["", 2, 8, -48, -24, 4, 4, 24, 48, 4, -4, -48, 48], "withholdReward": true, "trial_id": "mdp_665096999232", "block": "test2", "trialIndex": 41, "score": 52.5, "costs": -0.5, "simulationMode": [null, null, null], "rewards": [4, -4, 48], "path": ["0", "0", "9", "10", "12"], "rt": [3103, 8, 1017], "actions": ["left", "left", "down"], "actionTimes": [4888, 5434, 6975], "queries": {"click": {"state": {"target": ["3", "12"], "time": [2639, 3798]}, "edge": {"target": [], "time": []}}, "mouseover": {"state": {"target": ["3", "1", "9", "12"], "time": [2191, 3142, 3190, 3490]}, "edge": {"target": [], "time": []}}, "mouseout": {"state": {"target": ["0", "3", "1", "9", "12"], "time": [2136, 3141, 3173, 3257, 4274]}, "edge": {"target": [], "time": []}}}, "displayed_time": "9.79", "trialTime": 11332, "trial_type": "mouselab-mdp", "trial_index": 53, "time_elapsed": 928707, "internal_node_id": "0.0-4.0-3.0-7.0"}}, {"uniqueid": "w89787437:a41368374", "current_trial": 54, "dateTime": 1664368800189, "trialdata": {"revealed_states": [], "num_clicks_accrued": [0, 0, 0, 0, 0, 0, 0, 0, 0, 0, 0, 0, 0], "stateRewards": ["", 2, 8, -24, -48, -4, 8, -48, -48, -2, -8, -24, -24], "withholdReward": true, "trial_id": "mdp_978177451072", "block": "test2", "trialIndex": 42, "score": -10.5, "costs": -1.5, "simulationMode": [null, null, null], "rewards": [2, 8, -24], "path": ["0", "0", "1", "2", "3"], "rt": [9779, 390, 39], "actions": ["up", "up", "right"], "actionTimes": [12407, 13303, 13832], "queries": {"click": {"state": {"target": ["8", "4", "3", "7", "12", "11"], "time": [3726, 5068, 6339, 7464, 8696, 9673]}, "edge": {"target": [], "time": []}}, "mouseover": {"state": {"target": ["5", "8", "1", "4", "2", "3", "7", "9", "12", "11", "0"], "time": [3110, 3345, 4194, 4578, 5560, 6063, 7010, 8126, 8376, 9161, 10361]}, "edge": {"target": [], "time": []}}, "mouseout": {"state": {"target": ["0", "0", "5", "8", "1", "4", "2", "3", "7", "9", "12", "11"], "time": [778, 3095, 3127, 4161, 4210, 5529, 5593, 6811, 7947, 8143, 9112, 10057]}, "edge": {"target": [], "time": []}}}, "displayed_time": "14.35", "trialTime": 15219, "trial_type": "mouselab-mdp", "trial_index": 54, "time_elapsed": 944124, "internal_node_id": "0.0-4.0-3.0-8.0"}}, {"uniqueid": "w89787437:a41368374", "current_trial": 55, "dateTime": 1664368810346, "trialdata": {"revealed_states": [], "num_clicks_accrued": [0, 0, 0, 0, 0, 0, 0, 0, 0, 0, 0, 0, 0], "stateRewards": ["", 2, -8, -24, 48, 4, -8, -24, -24, 2, 8, -24, 24], "withholdReward": true, "trial_id": "mdp_480787552818", "block": "test2", "trialIndex": 43, "score": 46.75, "costs": -0.25, "simulationMode": [null, null, null], "rewards": [2, -8, 48], "path": ["0", "0", "1", "2", "4"], "rt": [2175, 309, 535], "actions": ["up", "up", "left"], "actionTimes": [4056, 4883, 5925], "queries": {"click": {"state": {"target": ["4"], "time": [2793]}, "edge": {"target": [], "time": []}}, "mouseover": {"state": {"target": ["4"], "time": [2306]}, "edge": {"target": [], "time": []}}, "mouseout": {"state": {"target": ["0", "3", "3", "0"], "time": [609, 673, 839, 2226]}, "edge": {"target": [], "time": []}}}, "displayed_time": "8.88", "trialTime": 9907, "trial_type": "mouselab-mdp", "trial_index": 55, "time_elapsed": 954281, "internal_node_id": "0.0-4.0-3.0-9.0"}}, {"uniqueid": "w89787437:a41368374", "current_trial": 56, "dateTime": 1664368822607, "trialdata": {"revealed_states": [], "num_clicks_accrued": [0, 0, 0, 0, 0, 0, 0, 0, 0, 0, 0, 0, 0], "stateRewards": ["", -2, -4, 48, -24, 2, -4, -24, -48, 2, 8, -48, -24], "withholdReward": true, "trial_id": "mdp_238243948191", "block": "test2", "trialIndex": 44, "score": 45.75, "costs": -1.25, "simulationMode": [null, null, null], "rewards": [-2, -4, 48], "path": ["0", "0", "1", "2", "3"], "rt": [7496, 128, 78], "actions": ["up", "up", "right"], "actionTimes": [9614, 10260, 10843], "queries": {"click": {"state": {"target": ["7", "11", "12", "8", "3"], "time": [3051, 4764, 5730, 7015, 8121]}, "edge": {"target": [], "time": []}}, "mouseover": {"state": {"target": ["7", "11", "10", "12", "8", "5", "2", "3", "2", "4"], "time": [2797, 4298, 5229, 5529, 6464, 7446, 7547, 7846, 8496, 8729]}, "edge": {"target": [], "time": []}}, "mouseout": {"state": {"target": ["4", "0", "0", "7", "11", "10", "12", "8", "5", "2", "3", "2", "4"], "time": [1264, 1380, 2486, 3476, 5199, 5313, 6080, 7430, 7481, 7746, 8480, 8580, 8879]}, "edge": {"target": [], "time": []}}}, "displayed_time": "11.35", "trialTime": 12027, "trial_type": "mouselab-mdp", "trial_index": 56, "time_elapsed": 966542, "internal_node_id": "0.0-4.0-3.0-10.0"}}, {"uniqueid": "w89787437:a41368374", "current_trial": 57, "dateTime": 1664368833758, "trialdata": {"revealed_states": [], "num_clicks_accrued": [0, 0, 0, 0, 0, 0, 0, 0, 0, 0, 0, 0, 0], "stateRewards": ["", 4, -4, 48, -48, 4, -4, 24, -24, 4, 8, -24, -48], "withholdReward": true, "trial_id": "mdp_433630527224", "block": "test2", "trialIndex": 45, "score": 52.25, "costs": -0.75, "simulationMode": [null, null, null], "rewards": [4, -4, 48], "path": ["0", "0", "1", "2", "3"], "rt": [4496, 93, 460], "actions": ["up", "up", "right"], "actionTimes": [6248, 6857, 7823], "queries": {"click": {"state": {"target": ["8", "4", "3"], "time": [2972, 4048, 4998]}, "edge": {"target": [], "time": []}}, "mouseover": {"state": {"target": ["1", "2", "3", "6", "8", "0", "4", "2", "3", "1", "9"], "time": [2147, 2163, 2363, 2596, 2662, 3495, 3662, 4429, 4713, 5362, 5513]}, "edge": {"target": [], "time": []}}, "mouseout": {"state": {"target": ["1", "1", "2", "3", "6", "8", "0", "4", "2", "3", "1", "9"], "time": [1213, 2163, 2195, 2395, 2646, 3430, 3512, 4412, 4445, 5313, 5379, 5529]}, "edge": {"target": [], "time": []}}}, "displayed_time": "9.75", "trialTime": 10795, "trial_type": "mouselab-mdp", "trial_index": 57, "time_elapsed": 977693, "internal_node_id": "0.0-4.0-3.0-11.0"}}, {"uniqueid": "w89787437:a41368374", "current_trial": 58, "dateTime": 1664368846435, "trialdata": {"revealed_states": [], "num_clicks_accrued": [0, 0, 0, 0, 0, 0, 0, 0, 0, 0, 0, 0, 0], "stateRewards": ["", 2, 4, 48, 24, -4, 8, 48, 48, 2, -4, -48, -24], "withholdReward": true, "trial_id": "mdp_822099887466", "block": "test2", "trialIndex": 46, "score": 58.25, "costs": -0.75, "simulationMode": [null, null, null], "rewards": [2, 4, 48], "path": ["0", "0", "1", "2", "3"], "rt": [4718, 326, 448], "actions": ["up", "up", "right"], "actionTimes": [7606, 8420, 9380], "queries": {"click": {"state": {"target": ["11", "4", "3"], "time": [4711, 5667, 6576]}, "edge": {"target": [], "time": []}}, "mouseover": {"state": {"target": ["4", "11", "4", "2", "3"], "time": [3973, 4343, 5259, 6125, 6280]}, "edge": {"target": [], "time": []}}, "mouseout": {"state": {"target": ["0", "0", "0", "4", "11", "4", "2"], "time": [910, 2026, 3377, 4310, 5144, 6092, 6159]}, "edge": {"target": [], "time": []}}}, "displayed_time": "11.89", "trialTime": 12419, "trial_type": "mouselab-mdp", "trial_index": 58, "time_elapsed": 990370, "internal_node_id": "0.0-4.0-3.0-12.0"}}, {"uniqueid": "w89787437:a41368374", "current_trial": 59, "dateTime": 1664368860077, "trialdata": {"revealed_states": [], "num_clicks_accrued": [0, 0, 0, 0, 0, 0, 0, 0, 0, 0, 0, 0, 0], "stateRewards": ["", 2, 8, 24, -48, 4, 8, 24, 48, 2, -8, -24, 24], "withholdReward": false, "trial_id": "mdp_939899431582", "block": "test2", "trialIndex": 47, "score": 64, "costs": -1, "simulationMode": [null, null, null], "rewards": [4, 8, 48], "path": ["0", "0", "5", "6", "8"], "rt": [5704, 88, 101], "actions": ["right", "right", "down"], "actionTimes": [7611, 8200, 8815], "queries": {"click": {"state": {"target": ["12", "3", "11", "8"], "time": [2968, 4101, 5554, 6751]}, "edge": {"target": [], "time": []}}, "mouseover": {"state": {"target": ["12", "3", "1", "4", "11", "1", "8"], "time": [2662, 3761, 4478, 4962, 5277, 6027, 6461]}, "edge": {"target": [], "time": []}}, "mouseout": {"state": {"target": ["3", "1", "0", "0", "12", "3", "1", "4", "11", "1"], "time": [730, 813, 962, 2330, 3435, 4429, 4677, 5211, 5978, 6061]}, "edge": {"target": [], "time": []}}}, "displayed_time": "10.91", "trialTime": 13382, "trial_type": "mouselab-mdp", "trial_index": 59, "time_elapsed": 1004012, "internal_node_id": "0.0-4.0-3.0-13.0"}}, {"uniqueid": "w89787437:a41368374", "current_trial": 60, "dateTime": 1664368874432, "trialdata": {"revealed_states": [], "num_clicks_accrued": [0, 0, 0, 0, 0, 0, 0, 0, 0, 0, 0, 0, 0], "stateRewards": ["", -2, 8, -24, 24, 2, -8, 48, -24, 2, 8, -24, -24], "withholdReward": true, "trial_id": "mdp_674708270444", "block": "test2", "trialIndex": 48, "score": 46.5, "costs": -0.5, "simulationMode": [null, null, null], "rewards": [2, -8, 48], "path": ["0", "0", "5", "6", "7"], "rt": [4723, 181, 119], "actions": ["right", "right", "up"], "actionTimes": [9308, 9977, 10638], "queries": {"click": {"state": {"target": ["3", "7"], "time": [5638, 8351]}, "edge": {"target": [], "time": []}}, "mouseover": {"state": {"target": ["3", "1", "8", "8", "6", "7", "7", "6"], "time": [5144, 6044, 6610, 6977, 7310, 7326, 8027, 8827]}, "edge": {"target": [], "time": []}}, "mouseout": {"state": {"target": ["8", "5", "0", "3", "1", "8", "8", "6", "7", "7", "6"], "time": [3111, 3361, 4993, 6026, 6060, 6627, 7293, 7326, 7343, 8777, 8843]}, "edge": {"target": [], "time": []}}}, "displayed_time": "12.59", "trialTime": 14120, "trial_type": "mouselab-mdp", "trial_index": 60, "time_elapsed": 1018366, "internal_node_id": "0.0-4.0-3.0-14.0"}}, {"uniqueid": "w89787437:a41368374", "current_trial": 61, "dateTime": 1664368886495, "trialdata": {"revealed_states": [], "num_clicks_accrued": [0, 0, 0, 0, 0, 0, 0, 0, 0, 0, 0, 0, 0], "stateRewards": ["", -4, -8, 24, -48, 2, 4, -48, -48, 2, -8, 24, 48], "withholdReward": false, "trial_id": "mdp_111262146724", "block": "test2", "trialIndex": 49, "score": 46.5, "costs": -0.5, "simulationMode": [null, null, null], "rewards": [2, -8, 48], "path": ["0", "0", "9", "10", "12"], "rt": [3700, 247, 3], "actions": ["left", "left", "down"], "actionTimes": [4974, 5739, 6261], "queries": {"click": {"state": {"target": ["11", "12"], "time": [2693, 3748]}, "edge": {"target": [], "time": []}}, "mouseover": {"state": {"target": ["9", "10", "11", "12"], "time": [1924, 2008, 2391, 3407]}, "edge": {"target": [], "time": []}}, "mouseout": {"state": {"target": ["5", "9", "10", "11", "12"], "time": [641, 1974, 2141, 3041, 4291]}, "edge": {"target": [], "time": []}}}, "displayed_time": "10.28", "trialTime": 11832, "trial_type": "mouselab-mdp", "trial_index": 61, "time_elapsed": 1030430, "internal_node_id": "0.0-4.0-3.0-15.0"}}, {"uniqueid": "w89787437:a41368374", "current_trial": 62, "dateTime": 1664368901918, "trialdata": {"revealed_states": [], "num_clicks_accrued": [0, 0, 0, 0, 0, 0, 0, 0, 0, 0, 0, 0, 0], "stateRewards": ["", 2, -4, -24, -24, -2, -8, -48, 24, -4, -8, 24, 24], "withholdReward": true, "trial_id": "mdp_521351546461", "block": "test2", "trialIndex": 50, "score": 15.5, "costs": -1.5, "simulationMode": [null, null, null], "rewards": [-4, -8, 24], "path": ["0", "0", "9", "10", "11"], "rt": [10535, 263, 208], "actions": ["left", "left", "up"], "actionTimes": [12496, 13265, 13993], "queries": {"click": {"state": {"target": ["3", "12", "8", "11", "7", "4"], "time": [2870, 4702, 5756, 6946, 9238, 10371]}, "edge": {"target": [], "time": []}}, "mouseover": {"state": {"target": ["3", "10", "12", "8", "9", "10", "11", "11", "1", "7", "7", "4"], "time": [2418, 3401, 4402, 5184, 6267, 6300, 6385, 6617, 7452, 7767, 8917, 9867]}, "edge": {"target": [], "time": []}}, "mouseout": {"state": {"target": ["0", "3", "10", "12", "8", "9", "10", "11", "11", "1", "7", "7"], "time": [1318, 3269, 3650, 5085, 6188, 6283, 6317, 6416, 7400, 7483, 8017, 9683]}, "edge": {"target": [], "time": []}}}, "displayed_time": "14.48", "trialTime": 15199, "trial_type": "mouselab-mdp", "trial_index": 62, "time_elapsed": 1045852, "internal_node_id": "0.0-4.0-3.0-16.0"}}, {"uniqueid": "w89787437:a41368374", "current_trial": 63, "dateTime": 1664368917763, "trialdata": {"revealed_states": [], "num_clicks_accrued": [0, 0, 0, 0, 0, 0, 0, 0, 0, 0, 0, 0, 0], "stateRewards": ["", -4, 8, 24, -24, 4, -8, -24, -24, -2, 8, -48, 24], "withholdReward": true, "trial_id": "mdp_240302100183", "block": "test2", "trialIndex": 51, "score": 31.5, "costs": -1.5, "simulationMode": [null, null, null], "rewards": [-4, 8, 24], "path": ["0", "0", "1", "2", "3"], "rt": [8740, 111, 156], "actions": ["up", "up", "right"], "actionTimes": [13151, 13774, 14434], "queries": {"click": {"state": {"target": ["4", "3", "8", "12", "11", "7"], "time": [5618, 6467, 7568, 9393, 10408, 11547]}, "edge": {"target": [], "time": []}}, "mouseover": {"state": {"target": ["2", "4", "2", "3", "7", "6", "8", "12", "10", "11", "11", "7", "5"], "time": [5095, 5262, 5911, 6146, 6996, 7127, 7210, 9094, 9810, 9843, 10110, 11277, 12094]}, "edge": {"target": [], "time": []}}, "mouseout": {"state": {"target": ["4", "0", "2", "4", "2", "3", "7", "6", "8", "12", "10", "11", "11", "7", "5"], "time": [963, 3261, 5111, 5895, 6045, 6943, 7095, 7177, 7994, 9794, 9827, 9860, 10748, 11977, 12109]}, "edge": {"target": [], "time": []}}}, "displayed_time": "14.95", "trialTime": 15607, "trial_type": "mouselab-mdp", "trial_index": 63, "time_elapsed": 1061698, "internal_node_id": "0.0-4.0-3.0-17.0"}}, {"uniqueid": "w89787437:a41368374", "current_trial": 64, "dateTime": 1664368928395, "trialdata": {"revealed_states": [], "num_clicks_accrued": [0, 0, 0, 0, 0, 0, 0, 0, 0, 0, 0, 0, 0], "stateRewards": ["", -2, 4, 48, -24, 2, 8, 24, 48, 2, 4, -24, -48], "withholdReward": true, "trial_id": "mdp_892412058587", "block": "test2", "trialIndex": 52, "score": 54.5, "costs": -0.5, "simulationMode": [null, null, null], "rewards": [-2, 4, 48], "path": ["0", "0", "1", "2", "3"], "rt": [3572, 268, 363], "actions": ["up", "up", "right"], "actionTimes": [5150, 5925, 6787], "queries": {"click": {"state": {"target": ["12", "3"], "time": [2620, 3760]}, "edge": {"target": [], "time": []}}, "mouseover": {"state": {"target": ["9", "12", "2", "3", "3"], "time": [2075, 2290, 3122, 3173, 3524]}, "edge": {"target": [], "time": []}}, "mouseout": {"state": {"target": ["0", "0", "9", "12", "2", "3", "3"], "time": [856, 2039, 2140, 3060, 3140, 3189, 4140]}, "edge": {"target": [], "time": []}}}, "displayed_time": "9.58", "trialTime": 10385, "trial_type": "mouselab-mdp", "trial_index": 64, "time_elapsed": 1072330, "internal_node_id": "0.0-4.0-3.0-18.0"}}, {"uniqueid": "w89787437:a41368374", "current_trial": 65, "dateTime": 1664368940402, "trialdata": {"revealed_states": [], "num_clicks_accrued": [0, 0, 0, 0, 0, 0, 0, 0, 0, 0, 0, 0, 0], "stateRewards": ["", -4, 8, 24, -24, -2, 4, -24, 48, -2, 8, -48, -24], "withholdReward": true, "trial_id": "mdp_799359103169", "block": "test2", "trialIndex": 53, "score": 54, "costs": -1, "simulationMode": [null, null, null], "rewards": [-2, 4, 48], "path": ["0", "0", "5", "6", "8"], "rt": [5337, 110, 217], "actions": ["right", "right", "down"], "actionTimes": [7315, 7942, 8667], "queries": {"click": {"state": {"target": ["4", "12", "11", "8"], "time": [3214, 4229, 5201, 6451]}, "edge": {"target": [], "time": []}}, "mouseover": {"state": {"target": ["1", "4", "11", "10", "12", "10", "11", "1", "5", "8"], "time": [2615, 2898, 3614, 3681, 3864, 4629, 4847, 5630, 5831, 6131]}, "edge": {"target": [], "time": []}}, "mouseout": {"state": {"target": ["0", "1", "4", "11", "10", "12", "10", "11", "1", "5"], "time": [2432, 2664, 3548, 3648, 3781, 4598, 4665, 5568, 5665, 5864]}, "edge": {"target": [], "time": []}}}, "displayed_time": "10.98", "trialTime": 11769, "trial_type": "mouselab-mdp", "trial_index": 65, "time_elapsed": 1084337, "internal_node_id": "0.0-4.0-3.0-19.0"}}, {"uniqueid": "w89787437:a41368374", "current_trial": 66, "dateTime": 1664368952995, "trialdata": {"revealed_states": [], "num_clicks_accrued": [0, 0, 0, 0, 0, 0, 0, 0, 0, 0, 0, 0, 0], "stateRewards": ["", -4, 8, -24, -24, 2, 4, 48, 48, -2, 4, 24, -48], "withholdReward": true, "trial_id": "mdp_397308196941", "block": "test2", "trialIndex": 54, "score": 58.5, "costs": -0.5, "simulationMode": [null, null, null], "rewards": [2, 4, 48], "path": ["0", "0", "5", "6", "8"], "rt": [3426, 70, 87], "actions": ["right", "right", "down"], "actionTimes": [6743, 7320, 7905], "queries": {"click": {"state": {"target": ["4", "8"], "time": [4412, 5467]}, "edge": {"target": [], "time": []}}, "mouseover": {"state": {"target": ["4", "1", "5", "8"], "time": [3898, 4831, 4914, 5198]}, "edge": {"target": [], "time": []}}, "mouseout": {"state": {"target": ["8", "5", "0", "0", "1", "0", "0", "4", "1", "5", "8"], "time": [432, 582, 1048, 1515, 1664, 2231, 2515, 4766, 4848, 4981, 5981]}, "edge": {"target": [], "time": []}}}, "displayed_time": "11.32", "trialTime": 12347, "trial_type": "mouselab-mdp", "trial_index": 66, "time_elapsed": 1096930, "internal_node_id": "0.0-4.0-3.0-20.0"}}, {"uniqueid": "w89787437:a41368374", "current_trial": 67, "dateTime": 1664368965875, "trialdata": {"revealed_states": [], "num_clicks_accrued": [0, 0, 0, 0, 0, 0, 0, 0, 0, 0, 0, 0, 0], "stateRewards": ["", -4, 8, 24, 24, -2, 8, -48, 48, 4, -8, 48, -48], "withholdReward": true, "trial_id": "mdp_295249220524", "block": "test2", "trialIndex": 55, "score": 48.25, "costs": -0.75, "simulationMode": [null, null, null], "rewards": [4, -8, 48], "path": ["0", "0", "9", "10", "11"], "rt": [4893, 15, 253], "actions": ["left", "left", "up"], "actionTimes": [8364, 8877, 9632], "queries": {"click": {"state": {"target": ["12", "3", "11"], "time": [4859, 6006, 7328]}, "edge": {"target": [], "time": []}}, "mouseover": {"state": {"target": ["9", "10", "12", "9", "3", "11"], "time": [4045, 4210, 4510, 5276, 5643, 6993]}, "edge": {"target": [], "time": []}}, "mouseout": {"state": {"target": ["0", "9", "10", "12", "9", "3", "11"], "time": [878, 4111, 4477, 5263, 5294, 6410, 7693]}, "edge": {"target": [], "time": []}}}, "displayed_time": "11.47", "trialTime": 12673, "trial_type": "mouselab-mdp", "trial_index": 67, "time_elapsed": 1109810, "internal_node_id": "0.0-4.0-3.0-21.0"}}, {"uniqueid": "w89787437:a41368374", "current_trial": 68, "dateTime": 1664368977075, "trialdata": {"revealed_states": [], "num_clicks_accrued": [0, 0, 0, 0, 0, 0, 0, 0, 0, 0, 0, 0, 0], "stateRewards": ["", -2, 8, 48, -24, 2, 4, -48, -24, -4, 8, -48, -48], "withholdReward": true, "trial_id": "mdp_539167561933", "block": "test2", "trialIndex": 56, "score": 58.75, "costs": -0.25, "simulationMode": [null, null, null], "rewards": [-2, 8, 48], "path": ["0", "0", "1", "2", "3"], "rt": [2557, 333, 290], "actions": ["up", "up", "right"], "actionTimes": [4722, 5566, 6372], "queries": {"click": {"state": {"target": ["3"], "time": [3436]}, "edge": {"target": [], "time": []}}, "mouseover": {"state": {"target": ["3", "1"], "time": [3131, 3881]}, "edge": {"target": [], "time": []}}, "mouseout": {"state": {"target": ["3"], "time": [3799]}, "edge": {"target": [], "time": []}}}, "displayed_time": "10.17", "trialTime": 10979, "trial_type": "mouselab-mdp", "trial_index": 68, "time_elapsed": 1121010, "internal_node_id": "0.0-4.0-3.0-22.0"}}, {"uniqueid": "w89787437:a41368374", "current_trial": 69, "dateTime": 1664368992541, "trialdata": {"revealed_states": [], "num_clicks_accrued": [0, 0, 0, 0, 0, 0, 0, 0, 0, 0, 0, 0, 0], "stateRewards": ["", -4, -4, 24, -24, 4, 4, 24, 48, 4, -4, 48, -48], "withholdReward": false, "trial_id": "mdp_522385334882", "block": "test2", "trialIndex": 57, "score": 60.75, "costs": -0.25, "simulationMode": [null, null, null], "rewards": [4, 4, 48], "path": ["0", "0", "5", "6", "8"], "rt": [2169, 97, 117], "actions": ["right", "right", "down"], "actionTimes": [5291, 5903, 6539], "queries": {"click": {"state": {"target": ["8"], "time": [4240]}, "edge": {"target": [], "time": []}}, "mouseover": {"state": {"target": ["5", "8"], "time": [3704, 3987]}, "edge": {"target": [], "time": []}}, "mouseout": {"state": {"target": ["1", "0", "5", "8", "12", "9", "1", "1", "9"], "time": [764, 3688, 3771, 12439, 12637, 12670, 12719, 13119, 13272]}, "edge": {"target": [], "time": []}}}, "displayed_time": "11.12", "trialTime": 15269, "trial_type": "mouselab-mdp", "trial_index": 69, "time_elapsed": 1136475, "internal_node_id": "0.0-4.0-3.0-23.0"}}, {"uniqueid": "w89787437:a41368374", "current_trial": 70, "dateTime": 1664369006623, "trialdata": {"revealed_states": [], "num_clicks_accrued": [0, 0, 0, 0, 0, 0, 0, 0, 0, 0, 0, 0, 0], "stateRewards": ["", -4, -8, -24, -48, -2, -8, 24, -48, -4, -8, 24, -48], "withholdReward": false, "trial_id": "mdp_621812384092", "block": "test2", "trialIndex": 58, "score": 17.5, "costs": -1.5, "simulationMode": [null, null, null], "rewards": [-2, -8, 24], "path": ["0", "0", "5", "6", "7"], "rt": [7124, 406, 40], "actions": ["right", "right", "up"], "actionTimes": [8228, 9155, 9695], "queries": {"click": {"state": {"target": ["12", "3", "4", "11", "7", "8"], "time": [1984, 3468, 4366, 5215, 6180, 7394]}, "edge": {"target": [], "time": []}}, "mouseover": {"state": {"target": ["0", "12", "9", "3", "2", "4", "11", "1", "7", "8", "8"], "time": [1471, 1588, 2420, 3200, 3921, 4120, 4838, 5587, 5904, 6671, 6986]}, "edge": {"target": [], "time": []}}, "mouseout": {"state": {"target": ["5", "0", "12", "9", "3", "2", "4", "11", "1", "7", "8"], "time": [571, 1489, 2406, 2437, 3892, 3970, 4755, 5522, 5620, 6520, 6737]}, "edge": {"target": [], "time": []}}}, "displayed_time": "10.21", "trialTime": 13787, "trial_type": "mouselab-mdp", "trial_index": 70, "time_elapsed": 1150558, "internal_node_id": "0.0-4.0-3.0-24.0"}}, {"uniqueid": "w89787437:a41368374", "current_trial": 71, "dateTime": 1664369020214, "trialdata": {"revealed_states": [], "num_clicks_accrued": [0, 0, 0, 0, 0, 0, 0, 0, 0, 0, 0, 0, 0], "stateRewards": ["", 4, -4, 24, 48, 4, 8, -24, -24, -2, 4, 48, 48], "withholdReward": true, "trial_id": "mdp_624998450453", "block": "test2", "trialIndex": 59, "score": 54.75, "costs": -0.25, "simulationMode": [null, null, null], "rewards": [-2, 4, 48], "path": ["0", "0", "9", "10", "11"], "rt": [2831, 408, 297], "actions": ["left", "left", "up"], "actionTimes": [4163, 5057, 5849], "queries": {"click": {"state": {"target": ["11"], "time": [2992]}, "edge": {"target": [], "time": []}}, "mouseover": {"state": {"target": ["9", "10", "10", "11", "9"], "time": [1883, 1966, 2332, 2700, 3432]}, "edge": {"target": [], "time": []}}, "mouseout": {"state": {"target": ["8", "0", "9", "10", "10", "11"], "time": [582, 1799, 1916, 1983, 2382, 3400]}, "edge": {"target": [], "time": []}}}, "displayed_time": "11.33", "trialTime": 13340, "trial_type": "mouselab-mdp", "trial_index": 71, "time_elapsed": 1164149, "internal_node_id": "0.0-4.0-3.0-25.0"}}, {"uniqueid": "w89787437:a41368374", "current_trial": 72, "dateTime": 1664369031589, "trialdata": {"revealed_states": [], "num_clicks_accrued": [0, 0, 0, 0, 0, 0, 0, 0, 0, 0, 0, 0, 0], "stateRewards": ["", -2, -4, 48, 48, 2, 4, -48, 24, 4, -8, 24, -24], "withholdReward": true, "trial_id": "mdp_628613319495", "block": "test2", "trialIndex": 60, "score": 46.75, "costs": -0.25, "simulationMode": [null, null, null], "rewards": [-2, -4, 48], "path": ["0", "0", "1", "2", "3"], "rt": [2201, 348, 283], "actions": ["up", "up", "right"], "actionTimes": [4451, 5306, 6092], "queries": {"click": {"state": {"target": ["3"], "time": [3310]}, "edge": {"target": [], "time": []}}, "mouseover": {"state": {"target": ["3"], "time": [2842]}, "edge": {"target": [], "time": []}}, "mouseout": {"state": {"target": ["9", "3"], "time": [926, 958]}, "edge": {"target": [], "time": []}}}, "displayed_time": "10.25", "trialTime": 11160, "trial_type": "mouselab-mdp", "trial_index": 72, "time_elapsed": 1175524, "internal_node_id": "0.0-4.0-3.0-26.0"}}, {"uniqueid": "w89787437:a41368374", "current_trial": 73, "dateTime": 1664369043102, "trialdata": {"revealed_states": [], "num_clicks_accrued": [0, 0, 0, 0, 0, 0, 0, 0, 0, 0, 0, 0, 0], "stateRewards": ["", -2, 4, -48, -48, 4, 4, 48, -48, 2, 8, 24, 48], "withholdReward": true, "trial_id": "mdp_686771069745", "block": "test2", "trialIndex": 61, "score": 60.5, "costs": -0.5, "simulationMode": [null, null, null], "rewards": [4, 4, 48], "path": ["0", "0", "5", "6", "7"], "rt": [3924, 184, 328], "actions": ["right", "right", "up"], "actionTimes": [5263, 5936, 6782], "queries": {"click": {"state": {"target": ["11", "7"], "time": [2699, 4160]}, "edge": {"target": [], "time": []}}, "mouseover": {"state": {"target": ["0", "9", "11", "1", "7"], "time": [1870, 1986, 2352, 3286, 3905]}, "edge": {"target": [], "time": []}}, "mouseout": {"state": {"target": ["3", "0", "9", "11", "1", "7"], "time": [669, 1885, 2103, 3192, 3385, 4719]}, "edge": {"target": [], "time": []}}}, "displayed_time": "10.34", "trialTime": 11302, "trial_type": "mouselab-mdp", "trial_index": 73, "time_elapsed": 1187037, "internal_node_id": "0.0-4.0-3.0-27.0"}}, {"uniqueid": "w89787437:a41368374", "current_trial": 74, "dateTime": 1664369058564, "trialdata": {"revealed_states": [], "num_clicks_accrued": [0, 0, 0, 0, 0, 0, 0, 0, 0, 0, 0, 0, 0], "stateRewards": ["", -4, -4, -24, -48, -4, 8, -24, -48, 4, -8, 24, -24], "withholdReward": true, "trial_id": "mdp_924927483179", "block": "test2", "trialIndex": 62, "score": 23.5, "costs": -1.5, "simulationMode": [null, null, null], "rewards": [4, -8, 24], "path": ["0", "0", "9", "10", "11"], "rt": [7828, 357, 276], "actions": ["left", "left", "up"], "actionTimes": [8929, 9803, 10576], "queries": {"click": {"state": {"target": ["3", "12", "8", "7", "11", "4"], "time": [2253, 3293, 4315, 5370, 6705, 7746]}, "edge": {"target": [], "time": []}}, "mouseover": {"state": {"target": ["3", "2", "10", "12", "8", "6", "7", "1", "11", "11", "4"], "time": [1866, 2649, 2916, 2999, 4034, 4782, 5032, 5732, 6066, 6149, 7365]}, "edge": {"target": [], "time": []}}, "mouseout": {"state": {"target": ["1", "3", "2", "10", "12", "8", "6", "7", "1", "11", "11", "4", "9", "4", "10", "9", "3"], "time": [533, 2634, 2666, 2932, 3685, 4765, 4933, 5700, 5765, 6099, 7133, 8032, 11848, 11981, 12981, 13131, 14698]}, "edge": {"target": [], "time": []}}}, "displayed_time": "11.06", "trialTime": 15211, "trial_type": "mouselab-mdp", "trial_index": 74, "time_elapsed": 1202499, "internal_node_id": "0.0-4.0-3.0-28.0"}}, {"uniqueid": "w89787437:a41368374", "current_trial": 75, "dateTime": 1664369074330, "trialdata": {"revealed_states": [], "num_clicks_accrued": [0, 0, 0, 0, 0, 0, 0, 0, 0, 0, 0, 0, 0], "stateRewards": ["", -4, -8, -24, 24, 4, 4, -48, -48, -4, -4, 24, -48], "withholdReward": true, "trial_id": "mdp_431592223624", "block": "test2", "trialIndex": 63, "score": 19.5, "costs": -1.5, "simulationMode": [null, null, null], "rewards": [-4, -4, 24], "path": ["0", "0", "9", "10", "11"], "rt": [9108, 342, 588], "actions": ["left", "left", "up"], "actionTimes": [10179, 11041, 12138], "queries": {"click": {"state": {"target": ["3", "12", "11", "7", "8", "4"], "time": [3035, 3993, 5055, 6061, 7070, 8852]}, "edge": {"target": [], "time": []}}, "mouseover": {"state": {"target": ["4", "2", "3", "3", "1", "9", "12", "10", "11", "1", "7", "6", "8", "0", "1", "2", "4"], "time": [1881, 2031, 2048, 2797, 3431, 3464, 3614, 4448, 4731, 5513, 5715, 6548, 6781, 7714, 7831, 7930, 8181]}, "edge": {"target": [], "time": []}}, "mouseout": {"state": {"target": ["0", "4", "2", "3", "3", "1", "9", "12", "10", "11", "1", "7", "6", "8", "0", "1", "2", "4"], "time": [1504, 2015, 2047, 2081, 3398, 3447, 3480, 4415, 4598, 5431, 5564, 6503, 6631, 7465, 7764, 7880, 7980, 9265]}, "edge": {"target": [], "time": []}}}, "displayed_time": "12.71", "trialTime": 15495, "trial_type": "mouselab-mdp", "trial_index": 75, "time_elapsed": 1218265, "internal_node_id": "0.0-4.0-3.0-29.0"}}, {"uniqueid": "w89787437:a41368374", "current_trial": 76, "dateTime": 1664369081939, "trialdata": {"rt": 7602, "stimulus": "<h1> End of block! </h1>\n\nYou have reached the end of the block 2/4. If you need a short break, feel free to take one now before moving on.\n\n<br><br>\nIn the next block, you will complete another 30 rounds of this game.\n\n<br><br>\n<div style='text-align: center;'>Press <code>space</code> to begin.</div>\n<br><br>\n<div style='text-align: center;'>(If the experiment doesn't continue, try clicking on the text and then pressing <code>space</code>.)</div>", "response": " ", "trial_id": "mdp_ready_3", "trial_type": "html-keyboard-response", "trial_index": 76, "time_elapsed": 1225874, "internal_node_id": "0.0-4.0-4.0"}}, {"uniqueid": "w89787437:a41368374", "current_trial": 77, "dateTime": 1664369094341, "trialdata": {"revealed_states": [], "num_clicks_accrued": [0, 0, 0, 0, 0, 0, 0, 0, 0, 0, 0, 0, 0], "stateRewards": ["", 4, -8, 24, 48, -2, -4, -48, 24, 2, 4, -48, -24], "withholdReward": true, "trial_id": "mdp_749974461966", "block": "test3", "trialIndex": 64, "score": 48.75, "costs": -0.25, "simulationMode": [null, null, null], "rewards": [4, -8, 48], "path": ["0", "0", "1", "2", "4"], "rt": [3022, 142, 309], "actions": ["up", "up", "left"], "actionTimes": [5134, 5789, 6623], "queries": {"click": {"state": {"target": ["4"], "time": [3547]}, "edge": {"target": [], "time": []}}, "mouseover": {"state": {"target": ["4", "1"], "time": [3228, 4077]}, "edge": {"target": [], "time": []}}, "mouseout": {"state": {"target": ["11", "4"], "time": [958, 3961]}, "edge": {"target": [], "time": []}}}, "displayed_time": "11.11", "trialTime": 12154, "trial_type": "mouselab-mdp", "trial_index": 77, "time_elapsed": 1238276, "internal_node_id": "0.0-4.0-5.0-0.0"}}, {"uniqueid": "w89787437:a41368374", "current_trial": 78, "dateTime": 1664369107294, "trialdata": {"revealed_states": [], "num_clicks_accrued": [0, 0, 0, 0, 0, 0, 0, 0, 0, 0, 0, 0, 0], "stateRewards": ["", 2, -8, 48, -24, -4, -8, -24, 48, -2, 4, 24, -48], "withholdReward": false, "trial_id": "mdp_186932504904", "block": "test3", "trialIndex": 65, "score": 40.75, "costs": -0.25, "simulationMode": [null, null, null], "rewards": [-4, -8, 48], "path": ["0", "0", "5", "6", "8"], "rt": [1848, 108, 164], "actions": ["right", "right", "down"], "actionTimes": [2981, 3600, 4254], "queries": {"click": {"state": {"target": ["8"], "time": [2035]}, "edge": {"target": [], "time": []}}, "mouseover": {"state": {"target": ["0", "8"], "time": [1507, 1690]}, "edge": {"target": [], "time": []}}, "mouseout": {"state": {"target": ["1", "0", "8", "6", "7", "1", "11", "11", "9"], "time": [690, 1524, 10001, 10091, 10222, 10289, 10922, 12172, 12222]}, "edge": {"target": [], "time": []}}}, "displayed_time": "9.13", "trialTime": 12703, "trial_type": "mouselab-mdp", "trial_index": 78, "time_elapsed": 1251228, "internal_node_id": "0.0-4.0-5.0-1.0"}}, {"uniqueid": "w89787437:a41368374", "current_trial": 79, "dateTime": 1664369118600, "trialdata": {"revealed_states": [], "num_clicks_accrued": [0, 0, 0, 0, 0, 0, 0, 0, 0, 0, 0, 0, 0], "stateRewards": ["", -4, 4, -48, -48, -4, 8, -24, 24, 2, -4, 48, 48], "withholdReward": true, "trial_id": "mdp_821566905048", "block": "test3", "trialIndex": 66, "score": 50.75, "costs": -0.25, "simulationMode": [null, null, null], "rewards": [2, -4, 48], "path": ["0", "0", "9", "10", "11"], "rt": [2250, 51, 114], "actions": ["left", "left", "up"], "actionTimes": [3940, 4508, 5123], "queries": {"click": {"state": {"target": ["11"], "time": [2832]}, "edge": {"target": [], "time": []}}, "mouseover": {"state": {"target": ["4", "11"], "time": [2258, 2523]}, "edge": {"target": [], "time": []}}, "mouseout": {"state": {"target": ["0", "4", "11"], "time": [1408, 2325, 3295]}, "edge": {"target": [], "time": []}}}, "displayed_time": "9.69", "trialTime": 11029, "trial_type": "mouselab-mdp", "trial_index": 79, "time_elapsed": 1262535, "internal_node_id": "0.0-4.0-5.0-2.0"}}, {"uniqueid": "w89787437:a41368374", "current_trial": 80, "dateTime": 1664369131146, "trialdata": {"revealed_states": [], "num_clicks_accrued": [0, 0, 0, 0, 0, 0, 0, 0, 0, 0, 0, 0, 0], "stateRewards": ["", 4, 8, 48, 48, 4, 4, -24, -48, 4, 8, -48, -48], "withholdReward": false, "trial_id": "mdp_984548726931", "block": "test3", "trialIndex": 67, "score": 64.5, "costs": -0.5, "simulationMode": [null, null, null], "rewards": [4, 8, 48], "path": ["0", "0", "1", "2", "3"], "rt": [3049, 132, 11], "actions": ["up", "up", "right"], "actionTimes": [4059, 4703, 5214], "queries": {"click": {"state": {"target": ["7", "3"], "time": [2000, 2923]}, "edge": {"target": [], "time": []}}, "mouseover": {"state": {"target": ["7", "3"], "time": [1687, 2670]}, "edge": {"target": [], "time": []}}, "mouseout": {"state": {"target": ["7", "3"], "time": [2453, 3369]}, "edge": {"target": [], "time": []}}}, "displayed_time": "9.01", "trialTime": 12338, "trial_type": "mouselab-mdp", "trial_index": 80, "time_elapsed": 1275081, "internal_node_id": "0.0-4.0-5.0-3.0"}}, {"uniqueid": "w89787437:a41368374", "current_trial": 81, "dateTime": 1664369150412, "trialdata": {"revealed_states": [], "num_clicks_accrued": [0, 0, 0, 0, 0, 0, 0, 0, 0, 0, 0, 0, 0], "stateRewards": ["", 2, 4, 48, -48, 2, 8, -24, 48, 4, 8, 48, -48], "withholdReward": true, "trial_id": "mdp_110142964375", "block": "test3", "trialIndex": 68, "score": 58.5, "costs": -0.5, "simulationMode": [null, null, null], "rewards": [2, 4, 48], "path": ["0", "0", "1", "2", "3"], "rt": [4133, 67, 102], "actions": ["up", "up", "right"], "actionTimes": [13581, 14143, 14746], "queries": {"click": {"state": {"target": ["12", "3"], "time": [10796, 12222]}, "edge": {"target": [], "time": []}}, "mouseover": {"state": {"target": ["12", "9", "2", "3"], "time": [10508, 11242, 11290, 11958]}, "edge": {"target": [], "time": []}}, "mouseout": {"state": {"target": ["12", "9", "2", "3", "7"], "time": [11235, 11257, 11625, 12641, 18990]}, "edge": {"target": [], "time": []}}}, "displayed_time": "17.45", "trialTime": 19078, "trial_type": "mouselab-mdp", "trial_index": 81, "time_elapsed": 1294347, "internal_node_id": "0.0-4.0-5.0-4.0"}}, {"uniqueid": "w89787437:a41368374", "current_trial": 82, "dateTime": 1664369168750, "trialdata": {"revealed_states": [], "num_clicks_accrued": [0, 0, 0, 0, 0, 0, 0, 0, 0, 0, 0, 0, 0], "stateRewards": ["", 2, 8, 24, 24, 2, -8, -24, -48, 2, 8, -48, 48], "withholdReward": true, "trial_id": "mdp_745175888812", "block": "test3", "trialIndex": 69, "score": 61.5, "costs": -1.5, "simulationMode": [null, null, null], "rewards": [2, 8, 48], "path": ["0", "0", "9", "10", "12"], "rt": [9875, 373, 642], "actions": ["left", "left", "down"], "actionTimes": [11448, 12332, 13484], "queries": {"click": {"state": {"target": ["11", "4", "3", "7", "8", "12"], "time": [3404, 4982, 6038, 6904, 9197, 10217]}, "edge": {"target": [], "time": []}}, "mouseover": {"state": {"target": ["4", "11", "4", "4", "4", "2", "3", "7", "6", "8", "8", "12"], "time": [2174, 3141, 3891, 4141, 4591, 5440, 5707, 6573, 7357, 7440, 8274, 9973]}, "edge": {"target": [], "time": []}}, "mouseout": {"state": {"target": ["3", "5", "0", "4", "11", "4", "4", "4", "2", "3", "7", "6", "8", "8", "12"], "time": [757, 1175, 2010, 2273, 3841, 3907, 4157, 5408, 5490, 6508, 7324, 7407, 7541, 9523, 10606]}, "edge": {"target": [], "time": []}}}, "displayed_time": "13.99", "trialTime": 18167, "trial_type": "mouselab-mdp", "trial_index": 82, "time_elapsed": 1312685, "internal_node_id": "0.0-4.0-5.0-5.0"}}, {"uniqueid": "w89787437:a41368374", "current_trial": 83, "dateTime": 1664369191537, "trialdata": {"revealed_states": [], "num_clicks_accrued": [0, 0, 0, 0, 0, 0, 0, 0, 0, 0, 0, 0, 0], "stateRewards": ["", -4, -4, -48, 48, -4, -8, -24, -48, -2, 8, 48, 24], "withholdReward": true, "trial_id": "mdp_365393526663", "block": "test3", "trialIndex": 70, "score": 44, "costs": -1, "simulationMode": [null, null, null], "rewards": [-4, -4, 48], "path": ["0", "0", "1", "2", "4"], "rt": [8435, 256, 738], "actions": ["up", "up", "left"], "actionTimes": [14222, 14992, 16230], "queries": {"click": {"state": {"target": ["3", "12", "8", "4"], "time": [8979, 9885, 11381, 13031]}, "edge": {"target": [], "time": []}}, "mouseover": {"state": {"target": ["1", "3", "12", "9", "0", "8", "0", "4", "4", "11"], "time": [7408, 8692, 9442, 10341, 10374, 11109, 11825, 12141, 12779, 13443]}, "edge": {"target": [], "time": []}}, "mouseout": {"state": {"target": ["9", "0", "0", "1", "3", "12", "9", "0", "8", "0", "4", "4", "11"], "time": [3826, 4077, 7395, 7425, 9359, 10292, 10358, 10441, 11791, 11841, 12242, 13408, 13475]}, "edge": {"target": [], "time": []}}}, "displayed_time": "16.73", "trialTime": 22491, "trial_type": "mouselab-mdp", "trial_index": 83, "time_elapsed": 1335472, "internal_node_id": "0.0-4.0-5.0-6.0"}}, {"uniqueid": "w89787437:a41368374", "current_trial": 84, "dateTime": 1664369207381, "trialdata": {"revealed_states": [], "num_clicks_accrued": [0, 0, 0, 0, 0, 0, 0, 0, 0, 0, 0, 0, 0], "stateRewards": ["", 2, 4, -48, -24, -4, 4, -24, 24, -2, -8, -24, 24], "withholdReward": false, "trial_id": "mdp_640720803523", "block": "test3", "trialIndex": 71, "score": 27.5, "costs": -1.5, "simulationMode": [null, null, null], "rewards": [-4, 4, 24], "path": ["0", "0", "5", "6", "8"], "rt": [7710, 3, 162], "actions": ["right", "right", "down"], "actionTimes": [11268, 11788, 12477], "queries": {"click": {"state": {"target": ["4", "8", "12", "11", "7", "3"], "time": [4623, 6020, 7258, 8377, 9445, 10226]}, "edge": {"target": [], "time": []}}, "mouseover": {"state": {"target": ["9", "4", "1", "5", "8", "12", "10", "11", "11", "1", "7", "3"], "time": [4081, 4181, 4981, 5097, 5765, 6881, 7749, 7781, 8097, 8813, 9196, 9947]}, "edge": {"target": [], "time": []}}, "mouseout": {"state": {"target": ["0", "0", "1", "0", "9", "4", "1", "5", "8", "12", "10", "11", "11", "1", "7", "3", "2", "11", "10", "12"], "time": [519, 1047, 2798, 4048, 4130, 4964, 5014, 5214, 6415, 7748, 7780, 7864, 8765, 8831, 9878, 14119, 14163, 14463, 14579, 14896]}, "edge": {"target": [], "time": []}}}, "displayed_time": "12.98", "trialTime": 15543, "trial_type": "mouselab-mdp", "trial_index": 84, "time_elapsed": 1351316, "internal_node_id": "0.0-4.0-5.0-7.0"}}, {"uniqueid": "w89787437:a41368374", "current_trial": 85, "dateTime": 1664369219291, "trialdata": {"revealed_states": [], "num_clicks_accrued": [0, 0, 0, 0, 0, 0, 0, 0, 0, 0, 0, 0, 0], "stateRewards": ["", 2, -8, -24, 48, 4, -8, -24, -24, 2, 8, -24, 24], "withholdReward": true, "trial_id": "mdp_480787552818", "block": "test3", "trialIndex": 72, "score": 46.75, "costs": -0.25, "simulationMode": [null, null, null], "rewards": [2, -8, 48], "path": ["0", "0", "1", "2", "4"], "rt": [2368, 321, 854], "actions": ["up", "up", "left"], "actionTimes": [4850, 5667, 7016], "queries": {"click": {"state": {"target": ["4"], "time": [3532]}, "edge": {"target": [], "time": []}}, "mouseover": {"state": {"target": ["4"], "time": [2961]}, "edge": {"target": [], "time": []}}, "mouseout": {"state": {"target": ["12", "12", "0", "4"], "time": [1527, 1592, 2877, 3951]}, "edge": {"target": [], "time": []}}}, "displayed_time": "10.48", "trialTime": 11649, "trial_type": "mouselab-mdp", "trial_index": 85, "time_elapsed": 1363226, "internal_node_id": "0.0-4.0-5.0-8.0"}}, {"uniqueid": "w89787437:a41368374", "current_trial": 86, "dateTime": 1664369231493, "trialdata": {"revealed_states": [], "num_clicks_accrued": [0, 0, 0, 0, 0, 0, 0, 0, 0, 0, 0, 0, 0], "stateRewards": ["", -4, 4, -24, 48, -2, 8, -48, 24, 2, 4, 48, -48], "withholdReward": false, "trial_id": "mdp_366632183904", "block": "test3", "trialIndex": 73, "score": 52, "costs": -1, "simulationMode": [null, null, null], "rewards": [-4, 4, 48], "path": ["0", "0", "1", "2", "4"], "rt": [6216, 6, 834], "actions": ["up", "up", "left"], "actionTimes": [7435, 7937, 9298], "queries": {"click": {"state": {"target": ["8", "12", "3", "4"], "time": [2938, 4077, 5251, 6113]}, "edge": {"target": [], "time": []}}, "mouseover": {"state": {"target": ["5", "8", "8", "12", "9", "3", "2", "4"], "time": [1597, 1864, 2681, 3647, 4532, 4913, 5646, 5797]}, "edge": {"target": [], "time": []}}, "mouseout": {"state": {"target": ["0", "5", "8", "8", "12", "9", "3", "2", "4"], "time": [1580, 1648, 1981, 3447, 4531, 4546, 5614, 5680, 6447]}, "edge": {"target": [], "time": []}}}, "displayed_time": "9.80", "trialTime": 12024, "trial_type": "mouselab-mdp", "trial_index": 86, "time_elapsed": 1375428, "internal_node_id": "0.0-4.0-5.0-9.0"}}, {"uniqueid": "w89787437:a41368374", "current_trial": 87, "dateTime": 1664369242922, "trialdata": {"revealed_states": [], "num_clicks_accrued": [0, 0, 0, 0, 0, 0, 0, 0, 0, 0, 0, 0, 0], "stateRewards": ["", -4, -4, 24, 48, 4, -4, -24, 24, -4, -4, 24, 24], "withholdReward": true, "trial_id": "mdp_357725458160", "block": "test3", "trialIndex": 74, "score": 44.75, "costs": -0.25, "simulationMode": [null, null, null], "rewards": [-4, -4, 48], "path": ["0", "0", "1", "2", "4"], "rt": [2182, 367, 74], "actions": ["up", "up", "left"], "actionTimes": [3340, 4210, 4801], "queries": {"click": {"state": {"target": ["4"], "time": [2096]}, "edge": {"target": [], "time": []}}, "mouseover": {"state": {"target": ["4"], "time": [1842]}, "edge": {"target": [], "time": []}}, "mouseout": {"state": {"target": ["4", "0"], "time": [2526, 10826]}, "edge": {"target": [], "time": []}}}, "displayed_time": "9.16", "trialTime": 11299, "trial_type": "mouselab-mdp", "trial_index": 87, "time_elapsed": 1386856, "internal_node_id": "0.0-4.0-5.0-10.0"}}, {"uniqueid": "w89787437:a41368374", "current_trial": 88, "dateTime": 1664369255625, "trialdata": {"revealed_states": [], "num_clicks_accrued": [0, 0, 0, 0, 0, 0, 0, 0, 0, 0, 0, 0, 0], "stateRewards": ["", 2, 4, -48, 24, -4, 4, -24, 48, -2, -8, -48, 48], "withholdReward": true, "trial_id": "mdp_424193661731", "block": "test3", "trialIndex": 75, "score": 42.5, "costs": -0.5, "simulationMode": [null, null, null], "rewards": [-2, -8, 48], "path": ["0", "0", "9", "10", "12"], "rt": [2998, 186, 876], "actions": ["left", "left", "down"], "actionTimes": [4153, 4834, 6208], "queries": {"click": {"state": {"target": ["3", "12"], "time": [2116, 3124]}, "edge": {"target": [], "time": []}}, "mouseover": {"state": {"target": ["3", "1", "9", "12"], "time": [1696, 2479, 2512, 2847]}, "edge": {"target": [], "time": []}}, "mouseout": {"state": {"target": ["0", "3", "1", "9", "12", "0", "0"], "time": [1605, 2464, 2496, 2546, 3607, 11262, 12145]}, "edge": {"target": [], "time": []}}}, "displayed_time": "10.16", "trialTime": 12441, "trial_type": "mouselab-mdp", "trial_index": 88, "time_elapsed": 1399560, "internal_node_id": "0.0-4.0-5.0-11.0"}}, {"uniqueid": "w89787437:a41368374", "current_trial": 89, "dateTime": 1664369274476, "trialdata": {"revealed_states": [], "num_clicks_accrued": [0, 0, 0, 0, 0, 0, 0, 0, 0, 0, 0, 0, 0], "stateRewards": ["", -2, 8, -48, 48, -4, 8, -24, 24, 4, -4, 24, -48], "withholdReward": true, "trial_id": "mdp_904238083902", "block": "test3", "trialIndex": 76, "score": 57.5, "costs": -1.5, "simulationMode": [null, null, null], "rewards": [-2, 8, 48], "path": ["0", "0", "1", "2", "4"], "rt": [11511, 348, 486], "actions": ["up", "up", "left"], "actionTimes": [12494, 13357, 14344], "queries": {"click": {"state": {"target": ["7", "11", "12", "8", "3", "4"], "time": [2446, 3811, 5063, 6411, 9268, 10716]}, "edge": {"target": [], "time": []}}, "mouseover": {"state": {"target": ["7", "7", "9", "10", "11", "10", "12", "8", "5", "1", "3", "3", "3", "2", "4"], "time": [1359, 2132, 2942, 3042, 3392, 4325, 4742, 6011, 6892, 6992, 7309, 8269, 8975, 9709, 10511]}, "edge": {"target": [], "time": []}}, "mouseout": {"state": {"target": ["1", "7", "7", "9", "10", "11", "10", "12", "8", "5", "1", "3", "3", "3", "2", "4"], "time": [427, 1510, 2893, 2975, 3109, 4276, 4559, 5493, 6860, 6908, 7275, 7359, 8292, 9680, 9776, 16992]}, "edge": {"target": [], "time": []}}}, "displayed_time": "14.86", "trialTime": 18572, "trial_type": "mouselab-mdp", "trial_index": 89, "time_elapsed": 1418411, "internal_node_id": "0.0-4.0-5.0-12.0"}}, {"uniqueid": "w89787437:a41368374", "current_trial": 90, "dateTime": 1664369288123, "trialdata": {"revealed_states": [], "num_clicks_accrued": [0, 0, 0, 0, 0, 0, 0, 0, 0, 0, 0, 0, 0], "stateRewards": ["", -4, 4, -24, 24, -2, -4, 48, 24, 2, 8, -48, 24], "withholdReward": false, "trial_id": "mdp_150340189492", "block": "test3", "trialIndex": 77, "score": 45.5, "costs": -1.5, "simulationMode": [null, null, null], "rewards": [-2, -4, 48], "path": ["0", "0", "5", "6", "7"], "rt": [7262, 461, 91], "actions": ["right", "right", "up"], "actionTimes": [8834, 9807, 10386], "queries": {"click": {"state": {"target": ["8", "12", "11", "4", "3", "7"], "time": [2689, 4265, 5091, 6228, 7135, 8009]}, "edge": {"target": [], "time": []}}, "mouseover": {"state": {"target": ["5", "6", "8", "12", "12", "10", "11", "4", "2", "3", "7"], "time": [2211, 2328, 2495, 3555, 3962, 4594, 4727, 5711, 6643, 6828, 7761]}, "edge": {"target": [], "time": []}}, "mouseout": {"state": {"target": ["1", "5", "6", "8", "12", "12", "10", "11", "4", "2", "3", "7", "5"], "time": [1011, 2261, 2412, 3112, 3594, 4594, 4644, 5544, 6627, 6694, 7510, 11927, 12010]}, "edge": {"target": [], "time": []}}}, "displayed_time": "10.90", "trialTime": 13324, "trial_type": "mouselab-mdp", "trial_index": 90, "time_elapsed": 1432058, "internal_node_id": "0.0-4.0-5.0-13.0"}}, {"uniqueid": "w89787437:a41368374", "current_trial": 91, "dateTime": 1664369301158, "trialdata": {"revealed_states": [], "num_clicks_accrued": [0, 0, 0, 0, 0, 0, 0, 0, 0, 0, 0, 0, 0], "stateRewards": ["", -4, -4, -48, -24, 2, 8, 24, -48, 4, 4, 48, 48], "withholdReward": true, "trial_id": "mdp_693501840209", "block": "test3", "trialIndex": 78, "score": 60.5, "costs": -0.5, "simulationMode": [null, null, null], "rewards": [4, 4, 48], "path": ["0", "0", "9", "10", "12"], "rt": [3941, 305, 618], "actions": ["left", "left", "down"], "actionTimes": [5228, 6038, 7153], "queries": {"click": {"state": {"target": ["7", "12"], "time": [2521, 3890]}, "edge": {"target": [], "time": []}}, "mouseover": {"state": {"target": ["5", "7", "12"], "time": [1916, 2167, 3499]}, "edge": {"target": [], "time": []}}, "mouseout": {"state": {"target": ["0", "5", "7", "12"], "time": [1867, 2067, 2900, 4350]}, "edge": {"target": [], "time": []}}}, "displayed_time": "11.29", "trialTime": 12882, "trial_type": "mouselab-mdp", "trial_index": 91, "time_elapsed": 1445093, "internal_node_id": "0.0-4.0-5.0-14.0"}}, {"uniqueid": "w89787437:a41368374", "current_trial": 92, "dateTime": 1664369321316, "trialdata": {"revealed_states": [], "num_clicks_accrued": [0, 0, 0, 0, 0, 0, 0, 0, 0, 0, 0, 0, 0], "stateRewards": ["", -2, 4, -48, 24, -4, 8, 48, 24, -2, 4, -48, -24], "withholdReward": true, "trial_id": "mdp_740882974347", "block": "test3", "trialIndex": 79, "score": 55.75, "costs": -1.25, "simulationMode": [null, null, null], "rewards": [-4, 8, 48], "path": ["0", "0", "5", "6", "7"], "rt": [7736, 530, 1865], "actions": ["right", "right", "up"], "actionTimes": [10509, 11550, 13932], "queries": {"click": {"state": {"target": ["4", "3", "12", "11", "7"], "time": [4276, 5822, 7073, 8099, 9231]}, "edge": {"target": [], "time": []}}, "mouseover": {"state": {"target": ["1", "4", "2", "3", "3", "1", "9", "12", "10", "11", "1", "7", "6"], "time": [3169, 3518, 4866, 4950, 5434, 6199, 6283, 6733, 7551, 7716, 8649, 8967, 9682]}, "edge": {"target": [], "time": []}}, "mouseout": {"state": {"target": ["9", "4", "1", "1", "4", "2", "3", "3", "1", "9", "12", "10", "11", "1", "7", "6"], "time": [783, 816, 1550, 3217, 4834, 4900, 5066, 6184, 6216, 6366, 7503, 7649, 8534, 8734, 9650, 9933]}, "edge": {"target": [], "time": []}}}, "displayed_time": "14.45", "trialTime": 19942, "trial_type": "mouselab-mdp", "trial_index": 92, "time_elapsed": 1465251, "internal_node_id": "0.0-4.0-5.0-15.0"}}, {"uniqueid": "w89787437:a41368374", "current_trial": 93, "dateTime": 16