{"condition": 1, "counterbalance": 0, "assignmentId": "a19501231", "workerId": "w61811498", "hitId": "h22726443", "currenttrial": 137, "bonus": 0, "data": [{"uniqueid": "w61811498:a19501231", "current_trial": 0, "dateTime": 1664463893834, "trialdata": {"success": true, "trial_type": "fullscreen", "trial_index": 0, "time_elapsed": 3005, "internal_node_id": "0.0-0.0"}}, {"uniqueid": "w61811498:a19501231", "current_trial": 1, "dateTime": 1664463906765, "trialdata": {"view_history": [{"page_index": 0, "viewing_time": 12919}], "rt": 12919, "trial_id": "exp_instructions_no_distractor", "trial_type": "instructions", "trial_index": 1, "time_elapsed": 15936, "internal_node_id": "0.0-1.0"}}, {"uniqueid": "w61811498:a19501231", "current_trial": 2, "dateTime": 1664463910308, "trialdata": {"success": true, "trial_type": "fullscreen", "trial_index": 2, "time_elapsed": 19478, "internal_node_id": "0.0-2.0-0.0"}}, {"uniqueid": "w61811498:a19501231", "current_trial": 3, "dateTime": 1664464052071, "trialdata": {"view_history": [{"page_index": 0, "viewing_time": 67879}, {"page_index": 1, "viewing_time": 34579}, {"page_index": 2, "viewing_time": 19932}, {"page_index": 3, "viewing_time": 6736}, {"page_index": 4, "viewing_time": 12634}], "rt": 141760, "trial_id": "mouselab_instructions_1", "trial_type": "instructions", "trial_index": 3, "time_elapsed": 161242, "internal_node_id": "0.0-2.0-1.0"}}, {"uniqueid": "w61811498:a19501231", "current_trial": 4, "dateTime": 1664464067703, "trialdata": {"revealed_states": [], "num_clicks_accrued": [0, 0, 0, 0, 0, 0, 0, 0, 0, 0, 0, 0, 0], "stateRewards": ["", 10, 10, -10, 10, 10, -10, 10, 10, -10, 10, -10, -10], "withholdReward": false, "trial_id": "practice_1", "block": "test", "trialIndex": 0, "score": 11.75, "costs": -0.25, "simulationMode": [null, null, null], "rewards": [10, -10, 10], "path": ["0", "0", "5", "6", "8"], "rt": [7051, 495, 225], "actions": ["right", "right", "down"], "actionTimes": [8826, 9842, 10589], "queries": {"click": {"state": {"target": ["8"], "time": [7267]}, "edge": {"target": [], "time": []}}, "mouseover": {"state": {"target": ["1", "2", "1", "5", "8"], "time": [5751, 5820, 6251, 6683, 6958]}, "edge": {"target": [], "time": []}}, "mouseout": {"state": {"target": ["0", "0", "1", "2", "1", "5", "8", "6"], "time": [44, 5663, 5785, 6127, 6626, 6717, 7734, 12911]}, "edge": {"target": [], "time": []}}}, "displayed_time": "11.12", "trialTime": 14837, "trial_type": "mouselab-mdp", "trial_index": 4, "time_elapsed": 176874, "internal_node_id": "0.0-2.0-2.0-0.0"}}, {"uniqueid": "w61811498:a19501231", "current_trial": 5, "dateTime": 1664464077070, "trialdata": {"revealed_states": [], "num_clicks_accrued": [0, 0, 0, 0, 0, 0, 0, 0, 0, 0, 0, 0, 0], "stateRewards": ["", -10, -10, -10, -10, 10, -10, 10, 10, 10, 10, -10, -10], "withholdReward": false, "trial_id": "practice_2", "block": "test", "trialIndex": 1, "score": 12, "costs": 0, "simulationMode": [null, null, null], "rewards": [10, 10, -10], "path": ["0", "0", "9", "10", "12"], "rt": [3451, 434, 108], "actions": ["left", "left", "down"], "actionTimes": [4991, 5949, 6591], "queries": {"click": {"state": {"target": [], "time": []}, "edge": {"target": [], "time": []}}, "mouseover": {"state": {"target": [], "time": []}, "edge": {"target": [], "time": []}}, "mouseout": {"state": {"target": ["0", "0", "0"], "time": [814, 2969, 8217]}, "edge": {"target": [], "time": []}}}, "displayed_time": "7.12", "trialTime": 9094, "trial_type": "mouselab-mdp", "trial_index": 5, "time_elapsed": 186241, "internal_node_id": "0.0-2.0-2.0-1.0"}}, {"uniqueid": "w61811498:a19501231", "current_trial": 6, "dateTime": 1664464194439, "trialdata": {"view_history": [{"page_index": 0, "viewing_time": 35696}, {"page_index": 1, "viewing_time": 15501}, {"page_index": 2, "viewing_time": 66168}], "rt": 117365, "trial_id": "mouselab_instructions_2_scarce", "trial_type": "instructions", "trial_index": 6, "time_elapsed": 303609, "internal_node_id": "0.0-2.0-3.0"}}, {"uniqueid": "w61811498:a19501231", "current_trial": 7, "dateTime": 1664464228370, "trialdata": {"rt": 33900, "response": {"Q0": "$-48 to $48", "Q1": "The cost is always $0.25.", "Q2": "The better I perform the higher my bonus will be.", "Q3": "No, the amount of cash at each node of the web may be different each time.", "Q4": "The values of the nodes walked through from start to finish.", "Q5": "No, the spider might forget to count the money on some rounds."}, "question_order": [0, 1, 2, 3, 4, 5], "correct": {"Q0": "$-48 to $48", "Q1": "The cost is always $0.25.", "Q2": "The better I perform the higher my bonus will be.", "Q3": "No, the amount of cash at each node of the web may be different each time.", "Q4": "The values of the nodes walked through from start to finish.", "Q5": "No, the spider might forget to count the money on some rounds."}, "trial_id": "mouselab_quiz_scarce", "trial_type": "survey-multi-choice", "trial_index": 7, "time_elapsed": 337540, "internal_node_id": "0.0-2.0-4.0"}}, {"uniqueid": "w61811498:a19501231", "current_trial": 8, "dateTime": 1664464237925, "trialdata": {"rt": 9527, "stimulus": "\n<h1> Get ready to start the game! </h1>\n\nThank you for reading the instructions. Get ready start with the first of 4 block(s) of this game.\n<br><br>\nIn this first block, you will complete 30 rounds of this game before moving on.\n<br><br>\nRemember, the more money the spider gets, the bigger your bonus will be!\n<br><br>\n<div style='text-align: center;'>Press <code>space</code> to begin.</div>\n\n<br><br>\n(If, at any point, the <code>space</code> key does not take you to the next page, click once on the text and try again.)", "response": " ", "trial_id": "mdp_ready_1", "trial_type": "html-keyboard-response", "trial_index": 8, "time_elapsed": 347096, "internal_node_id": "0.0-4.0-0.0"}}, {"uniqueid": "w61811498:a19501231", "current_trial": 9, "dateTime": 1664464255732, "trialdata": {"revealed_states": [], "num_clicks_accrued": [0, 0, 0, 0, 0, 0, 0, 0, 0, 0, 0, 0, 0], "stateRewards": ["", -4, 8, -24, -48, 2, 8, -48, -24, -2, -4, 48, -48], "withholdReward": false, "trial_id": "mdp_599927291428", "block": "test1", "trialIndex": 2, "score": -49, "costs": 0, "simulationMode": [null, null, null], "rewards": [-2, -4, -48], "path": ["0", "0", "9", "10", "12"], "rt": [1755, 170, 1544], "actions": ["left", "left", "down"], "actionTimes": [7972, 8658, 10733], "queries": {"click": {"state": {"target": [], "time": []}, "edge": {"target": [], "time": []}}, "mouseover": {"state": {"target": [], "time": []}, "edge": {"target": [], "time": []}}, "mouseout": {"state": {"target": ["8", "5"], "time": [3329, 5755]}, "edge": {"target": [], "time": []}}}, "displayed_time": "14.30", "trialTime": 17629, "trial_type": "mouselab-mdp", "trial_index": 9, "time_elapsed": 364902, "internal_node_id": "0.0-4.0-1.0-0.0"}}, {"uniqueid": "w61811498:a19501231", "current_trial": 10, "dateTime": 1664464271592, "trialdata": {"revealed_states": [], "num_clicks_accrued": [0, 0, 0, 0, 0, 0, 0, 0, 0, 0, 0, 0, 0], "stateRewards": ["", -2, -8, 48, 24, 4, -8, 24, 48, 4, -4, 24, -48], "withholdReward": false, "trial_id": "mdp_871576155740", "block": "test1", "trialIndex": 3, "score": 42.75, "costs": -0.25, "simulationMode": [null, null, null], "rewards": [-2, -8, 48], "path": ["0", "0", "1", "2", "3"], "rt": [5357, 202, 237], "actions": ["up", "up", "right"], "actionTimes": [6538, 7281, 8042], "queries": {"click": {"state": {"target": ["6"], "time": [2572]}, "edge": {"target": [], "time": []}}, "mouseover": {"state": {"target": ["5", "6"], "time": [1785, 1993]}, "edge": {"target": [], "time": []}}, "mouseout": {"state": {"target": ["0", "5", "6"], "time": [830, 1844, 3005]}, "edge": {"target": [], "time": []}}}, "displayed_time": "9.29", "trialTime": 15603, "trial_type": "mouselab-mdp", "trial_index": 10, "time_elapsed": 380763, "internal_node_id": "0.0-4.0-1.0-1.0"}}, {"uniqueid": "w61811498:a19501231", "current_trial": 11, "dateTime": 1664464283504, "trialdata": {"revealed_states": [], "num_clicks_accrued": [0, 0, 0, 0, 0, 0, 0, 0, 0, 0, 0, 0, 0], "stateRewards": ["", 2, -8, 24, 24, 2, 4, -48, -48, 4, 4, -24, 48], "withholdReward": true, "trial_id": "mdp_985707010949", "block": "test1", "trialIndex": 4, "score": -11, "costs": 0, "simulationMode": [null, null, null], "rewards": [4, 4, -24], "path": ["0", "0", "9", "10", "11"], "rt": [3073, 446, 93], "actions": ["left", "left", "up"], "actionTimes": [5214, 6187, 6793], "queries": {"click": {"state": {"target": [], "time": []}, "edge": {"target": [], "time": []}}, "mouseover": {"state": {"target": ["0", "9", "12"], "time": [3481, 3582, 3755]}, "edge": {"target": [], "time": []}}, "mouseout": {"state": {"target": ["5", "1", "0", "9", "12"], "time": [1349, 1589, 3531, 3649, 11276]}, "edge": {"target": [], "time": []}}}, "displayed_time": "10.22", "trialTime": 11693, "trial_type": "mouselab-mdp", "trial_index": 11, "time_elapsed": 392675, "internal_node_id": "0.0-4.0-1.0-2.0"}}, {"uniqueid": "w61811498:a19501231", "current_trial": 12, "dateTime": 1664464295721, "trialdata": {"revealed_states": [], "num_clicks_accrued": [0, 0, 0, 0, 0, 0, 0, 0, 0, 0, 0, 0, 0], "stateRewards": ["", 2, -4, 24, 24, 4, -4, -24, 24, -4, -4, 48, 48], "withholdReward": true, "trial_id": "mdp_566306223773", "block": "test1", "trialIndex": 5, "score": 26.75, "costs": -0.25, "simulationMode": [null, null, null], "rewards": [2, -4, 24], "path": ["0", "0", "1", "2", "3"], "rt": [3174, 267, 26], "actions": ["up", "up", "right"], "actionTimes": [5368, 6150, 6709], "queries": {"click": {"state": {"target": ["3"], "time": [3376]}, "edge": {"target": [], "time": []}}, "mouseover": {"state": {"target": ["3"], "time": [3101]}, "edge": {"target": [], "time": []}}, "mouseout": {"state": {"target": ["0", "3"], "time": [1814, 11492]}, "edge": {"target": [], "time": []}}}, "displayed_time": "10.26", "trialTime": 11954, "trial_type": "mouselab-mdp", "trial_index": 12, "time_elapsed": 404892, "internal_node_id": "0.0-4.0-1.0-3.0"}}, {"uniqueid": "w61811498:a19501231", "current_trial": 13, "dateTime": 1664464310029, "trialdata": {"revealed_states": [], "num_clicks_accrued": [0, 0, 0, 0, 0, 0, 0, 0, 0, 0, 0, 0, 0], "stateRewards": ["", 4, -8, -24, 24, 2, -4, 24, 24, 2, -4, 48, 48], "withholdReward": true, "trial_id": "mdp_457607480918", "block": "test1", "trialIndex": 6, "score": 26.75, "costs": -0.25, "simulationMode": [null, null, null], "rewards": [2, -4, 24], "path": ["0", "0", "5", "6", "7"], "rt": [3025, 364, 145], "actions": ["right", "right", "up"], "actionTimes": [6325, 7220, 7900], "queries": {"click": {"state": {"target": ["7"], "time": [4898]}, "edge": {"target": [], "time": []}}, "mouseover": {"state": {"target": ["5", "8", "10", "7", "7"], "time": [3728, 3786, 4286, 4444, 4636]}, "edge": {"target": [], "time": []}}, "mouseout": {"state": {"target": ["0", "5", "8", "10", "7", "7", "8", "12", "11", "10"], "time": [2666, 3747, 3852, 4304, 4487, 5613, 11289, 12012, 13551, 13611]}, "edge": {"target": [], "time": []}}}, "displayed_time": "12.52", "trialTime": 14057, "trial_type": "mouselab-mdp", "trial_index": 13, "time_elapsed": 419200, "internal_node_id": "0.0-4.0-1.0-4.0"}}, {"uniqueid": "w61811498:a19501231", "current_trial": 14, "dateTime": 1664464321554, "trialdata": {"revealed_states": [], "num_clicks_accrued": [0, 0, 0, 0, 0, 0, 0, 0, 0, 0, 0, 0, 0], "stateRewards": ["", 2, 4, -48, 24, -4, 4, -24, 48, -2, -8, -48, 48], "withholdReward": true, "trial_id": "mdp_424193661731", "block": "test1", "trialIndex": 7, "score": 34.75, "costs": -0.25, "simulationMode": [null, null, null], "rewards": [2, 4, 24], "path": ["0", "0", "1", "2", "4"], "rt": [4065, 171, 185], "actions": ["up", "up", "left"], "actionTimes": [6013, 6691, 7389], "queries": {"click": {"state": {"target": ["4"], "time": [4347]}, "edge": {"target": [], "time": []}}, "mouseover": {"state": {"target": ["4", "9"], "time": [4094, 4893]}, "edge": {"target": [], "time": []}}, "mouseout": {"state": {"target": ["0", "4", "9"], "time": [2555, 4817, 4910]}, "edge": {"target": [], "time": []}}}, "displayed_time": "10.02", "trialTime": 11371, "trial_type": "mouselab-mdp", "trial_index": 14, "time_elapsed": 430724, "internal_node_id": "0.0-4.0-1.0-5.0"}}, {"uniqueid": "w61811498:a19501231", "current_trial": 15, "dateTime": 1664464336715, "trialdata": {"revealed_states": [], "num_clicks_accrued": [0, 0, 0, 0, 0, 0, 0, 0, 0, 0, 0, 0, 0], "stateRewards": ["", -2, -4, -48, 48, -2, -4, 24, 48, -4, -8, -24, 24], "withholdReward": true, "trial_id": "mdp_917590390609", "block": "test1", "trialIndex": 8, "score": 23, "costs": 0, "simulationMode": [null, null, null], "rewards": [-2, -4, 24], "path": ["0", "0", "5", "6", "7"], "rt": [1258, 103, 44], "actions": ["right", "right", "up"], "actionTimes": [6175, 6800, 7362], "queries": {"click": {"state": {"target": [], "time": []}, "edge": {"target": [], "time": []}}, "mouseover": {"state": {"target": [], "time": []}, "edge": {"target": [], "time": []}}, "mouseout": {"state": {"target": ["0"], "time": [14092]}, "edge": {"target": [], "time": []}}}, "displayed_time": "13.02", "trialTime": 14905, "trial_type": "mouselab-mdp", "trial_index": 15, "time_elapsed": 445886, "internal_node_id": "0.0-4.0-1.0-6.0"}}, {"uniqueid": "w61811498:a19501231", "current_trial": 16, "dateTime": 1664464351577, "trialdata": {"revealed_states": [], "num_clicks_accrued": [0, 0, 0, 0, 0, 0, 0, 0, 0, 0, 0, 0, 0], "stateRewards": ["", -4, -8, 48, 48, -4, 4, 48, -24, 4, 8, -24, -48], "withholdReward": true, "trial_id": "mdp_142906093415", "block": "test1", "trialIndex": 9, "score": -19, "costs": 0, "simulationMode": [null, null, null], "rewards": [-4, 4, -24], "path": ["0", "0", "5", "6", "8"], "rt": [4237, 111, 498], "actions": ["right", "right", "down"], "actionTimes": [6427, 7057, 8092], "queries": {"click": {"state": {"target": [], "time": []}, "edge": {"target": [], "time": []}}, "mouseover": {"state": {"target": [], "time": []}, "edge": {"target": [], "time": []}}, "mouseout": {"state": {"target": ["0", "0"], "time": [1776, 12439]}, "edge": {"target": [], "time": []}}}, "displayed_time": "11.34", "trialTime": 14573, "trial_type": "mouselab-mdp", "trial_index": 16, "time_elapsed": 460748, "internal_node_id": "0.0-4.0-1.0-7.0"}}, {"uniqueid": "w61811498:a19501231", "current_trial": 17, "dateTime": 1664464365907, "trialdata": {"revealed_states": [], "num_clicks_accrued": [0, 0, 0, 0, 0, 0, 0, 0, 0, 0, 0, 0, 0], "stateRewards": ["", -4, -8, -48, 24, -4, -4, -24, -48, 2, -8, -24, -48], "withholdReward": true, "trial_id": "mdp_628181832088", "block": "test1", "trialIndex": 10, "score": 15.5, "costs": -1.5, "simulationMode": [null, null, null], "rewards": [-4, -8, 24], "path": ["0", "0", "1", "2", "4"], "rt": [8490, 96, 25], "actions": ["up", "up", "left"], "actionTimes": [10322, 10946, 11502], "queries": {"click": {"state": {"target": ["12", "3", "7", "8", "11", "4"], "time": [3047, 6137, 7039, 7991, 9015, 9798]}, "edge": {"target": [], "time": []}}, "mouseover": {"state": {"target": ["0", "9", "12", "6", "3", "7", "6", "8", "0", "11", "4"], "time": [2380, 2504, 2803, 5595, 5836, 6774, 7439, 7661, 8420, 8745, 9495]}, "edge": {"target": [], "time": []}}, "mouseout": {"state": {"target": ["0", "9", "12", "6", "3", "7", "6", "8", "0", "11", "4", "0"], "time": [2436, 2571, 3646, 5632, 6503, 7419, 7487, 8387, 8442, 9446, 13554, 13638]}, "edge": {"target": [], "time": []}}}, "displayed_time": "12.01", "trialTime": 14169, "trial_type": "mouselab-mdp", "trial_index": 17, "time_elapsed": 475078, "internal_node_id": "0.0-4.0-1.0-8.0"}}, {"uniqueid": "w61811498:a19501231", "current_trial": 18, "dateTime": 1664464376913, "trialdata": {"revealed_states": [], "num_clicks_accrued": [0, 0, 0, 0, 0, 0, 0, 0, 0, 0, 0, 0, 0], "stateRewards": ["", 2, -4, -48, -48, -2, -4, -24, -48, -2, 8, 24, 24], "withholdReward": true, "trial_id": "mdp_656069446729", "block": "test1", "trialIndex": 11, "score": 34.5, "costs": -0.5, "simulationMode": [null, null, null], "rewards": [-2, 8, 24], "path": ["0", "0", "9", "10", "12"], "rt": [3405, 224, 152], "actions": ["left", "left", "down"], "actionTimes": [5231, 5981, 6662], "queries": {"click": {"state": {"target": ["8", "12"], "time": [3217, 4328]}, "edge": {"target": [], "time": []}}, "mouseover": {"state": {"target": ["0", "8", "9", "12", "4", "2"], "time": [2323, 2828, 3841, 3975, 4782, 4836]}, "edge": {"target": [], "time": []}}, "mouseout": {"state": {"target": ["0", "1", "0", "8", "9", "12", "4"], "time": [766, 1281, 2491, 3692, 3899, 4718, 4810]}, "edge": {"target": [], "time": []}}}, "displayed_time": "9.91", "trialTime": 10729, "trial_type": "mouselab-mdp", "trial_index": 18, "time_elapsed": 486084, "internal_node_id": "0.0-4.0-1.0-9.0"}}, {"uniqueid": "w61811498:a19501231", "current_trial": 19, "dateTime": 1664464392276, "trialdata": {"revealed_states": [], "num_clicks_accrued": [0, 0, 0, 0, 0, 0, 0, 0, 0, 0, 0, 0, 0], "stateRewards": ["", 2, -8, 48, -24, 2, -4, 24, 48, 4, -4, 48, -24], "withholdReward": true, "trial_id": "mdp_656500928756", "block": "test1", "trialIndex": 12, "score": 52.75, "costs": -0.25, "simulationMode": [null, null, null], "rewards": [4, -4, 48], "path": ["0", "0", "9", "10", "11"], "rt": [1692, 148, 173], "actions": ["left", "left", "up"], "actionTimes": [4090, 4768, 5453], "queries": {"click": {"state": {"target": ["11"], "time": [3259]}, "edge": {"target": [], "time": []}}, "mouseover": {"state": {"target": ["11", "1"], "time": [2966, 3744]}, "edge": {"target": [], "time": []}}, "mouseout": {"state": {"target": ["2", "1", "11", "1", "8", "6", "7", "7", "7", "6", "7", "0"], "time": [611, 792, 3724, 3778, 11422, 11859, 11909, 12824, 13773, 13933, 14461, 14724]}, "edge": {"target": [], "time": []}}}, "displayed_time": "10.46", "trialTime": 15175, "trial_type": "mouselab-mdp", "trial_index": 19, "time_elapsed": 501446, "internal_node_id": "0.0-4.0-1.0-10.0"}}, {"uniqueid": "w61811498:a19501231", "current_trial": 20, "dateTime": 1664464404145, "trialdata": {"revealed_states": [], "num_clicks_accrued": [0, 0, 0, 0, 0, 0, 0, 0, 0, 0, 0, 0, 0], "stateRewards": ["", 4, 4, 48, -48, -2, 4, 48, -48, -4, 4, -24, -24], "withholdReward": true, "trial_id": "mdp_753324812898", "block": "test1", "trialIndex": 13, "score": 54.75, "costs": -0.25, "simulationMode": [null, null, null], "rewards": [-2, 4, 48], "path": ["0", "0", "5", "6", "7"], "rt": [2838, 236, 475], "actions": ["right", "right", "up"], "actionTimes": [4065, 4834, 5848], "queries": {"click": {"state": {"target": ["12"], "time": [2675]}, "edge": {"target": [], "time": []}}, "mouseover": {"state": {"target": ["12"], "time": [2423]}, "edge": {"target": [], "time": []}}, "mouseout": {"state": {"target": ["0", "12"], "time": [2295, 7132]}, "edge": {"target": [], "time": []}}}, "displayed_time": "10.43", "trialTime": 11673, "trial_type": "mouselab-mdp", "trial_index": 20, "time_elapsed": 513315, "internal_node_id": "0.0-4.0-1.0-11.0"}}, {"uniqueid": "w61811498:a19501231", "current_trial": 21, "dateTime": 1664464416631, "trialdata": {"revealed_states": [], "num_clicks_accrued": [0, 0, 0, 0, 0, 0, 0, 0, 0, 0, 0, 0, 0], "stateRewards": ["", -4, -4, -24, 24, -4, 4, -24, 48, -2, 4, 48, -48], "withholdReward": false, "trial_id": "mdp_774757609669", "block": "test1", "trialIndex": 14, "score": 52.75, "costs": -0.25, "simulationMode": [null, null, null], "rewards": [-4, 4, 48], "path": ["0", "0", "5", "6", "8"], "rt": [2302, 763, 455], "actions": ["right", "right", "down"], "actionTimes": [3466, 4753, 5739], "queries": {"click": {"state": {"target": ["8"], "time": [2300]}, "edge": {"target": [], "time": []}}, "mouseover": {"state": {"target": ["8"], "time": [2030]}, "edge": {"target": [], "time": []}}, "mouseout": {"state": {"target": ["0", "8"], "time": [1742, 2845]}, "edge": {"target": [], "time": []}}}, "displayed_time": "10.28", "trialTime": 12311, "trial_type": "mouselab-mdp", "trial_index": 21, "time_elapsed": 525802, "internal_node_id": "0.0-4.0-1.0-12.0"}}, {"uniqueid": "w61811498:a19501231", "current_trial": 22, "dateTime": 1664464429111, "trialdata": {"revealed_states": [], "num_clicks_accrued": [0, 0, 0, 0, 0, 0, 0, 0, 0, 0, 0, 0, 0], "stateRewards": ["", 2, -4, -24, -24, -2, -8, -48, 24, -4, -8, 24, 24], "withholdReward": true, "trial_id": "mdp_521351546461", "block": "test1", "trialIndex": 15, "score": 16.75, "costs": -0.25, "simulationMode": [null, null, null], "rewards": [-4, -8, 24], "path": ["0", "0", "9", "10", "11"], "rt": [3077, 845, 364], "actions": ["left", "left", "up"], "actionTimes": [7409, 8779, 9667], "queries": {"click": {"state": {"target": ["11"], "time": [5472]}, "edge": {"target": [], "time": []}}, "mouseover": {"state": {"target": ["11", "1", "5", "8"], "time": [5182, 6540, 6601, 6913]}, "edge": {"target": [], "time": []}}, "mouseout": {"state": {"target": ["0", "11", "1", "5", "8"], "time": [4022, 6460, 6559, 6632, 6976]}, "edge": {"target": [], "time": []}}}, "displayed_time": "11.40", "trialTime": 12284, "trial_type": "mouselab-mdp", "trial_index": 22, "time_elapsed": 538282, "internal_node_id": "0.0-4.0-1.0-13.0"}}, {"uniqueid": "w61811498:a19501231", "current_trial": 23, "dateTime": 1664464441167, "trialdata": {"revealed_states": [], "num_clicks_accrued": [0, 0, 0, 0, 0, 0, 0, 0, 0, 0, 0, 0, 0], "stateRewards": ["", 2, -4, 48, -24, 4, -8, -24, 48, -2, -4, 24, -48], "withholdReward": false, "trial_id": "mdp_357328205509", "block": "test1", "trialIndex": 16, "score": 48.5, "costs": -0.5, "simulationMode": [null, null, null], "rewards": [4, -8, 48], "path": ["0", "0", "5", "6", "8"], "rt": [4503, 768, 963], "actions": ["right", "right", "down"], "actionTimes": [5726, 7009, 8504], "queries": {"click": {"state": {"target": ["12", "8"], "time": [3639, 4744]}, "edge": {"target": [], "time": []}}, "mouseover": {"state": {"target": ["12", "8"], "time": [3382, 4423]}, "edge": {"target": [], "time": []}}, "mouseout": {"state": {"target": ["0", "12", "8"], "time": [3099, 4150, 10368]}, "edge": {"target": [], "time": []}}}, "displayed_time": "9.30", "trialTime": 11881, "trial_type": "mouselab-mdp", "trial_index": 23, "time_elapsed": 550338, "internal_node_id": "0.0-4.0-1.0-14.0"}}, {"uniqueid": "w61811498:a19501231", "current_trial": 24, "dateTime": 1664464452326, "trialdata": {"revealed_states": [], "num_clicks_accrued": [0, 0, 0, 0, 0, 0, 0, 0, 0, 0, 0, 0, 0], "stateRewards": ["", -4, -4, -48, 48, -4, -8, -24, -48, -2, 8, 48, 24], "withholdReward": false, "trial_id": "mdp_365393526663", "block": "test1", "trialIndex": 17, "score": 44.5, "costs": -0.5, "simulationMode": [null, null, null], "rewards": [-4, -4, 48], "path": ["0", "0", "1", "2", "4"], "rt": [4259, 261, 258], "actions": ["up", "up", "left"], "actionTimes": [6165, 6947, 7712], "queries": {"click": {"state": {"target": ["3", "4"], "time": [3560, 5091]}, "edge": {"target": [], "time": []}}, "mouseover": {"state": {"target": ["3", "2", "4"], "time": [3308, 4463, 4865]}, "edge": {"target": [], "time": []}}, "mouseout": {"state": {"target": ["3", "2"], "time": [4430, 4510]}, "edge": {"target": [], "time": []}}}, "displayed_time": "10.02", "trialTime": 10901, "trial_type": "mouselab-mdp", "trial_index": 24, "time_elapsed": 561497, "internal_node_id": "0.0-4.0-1.0-15.0"}}, {"uniqueid": "w61811498:a19501231", "current_trial": 25, "dateTime": 1664464463983, "trialdata": {"revealed_states": [], "num_clicks_accrued": [0, 0, 0, 0, 0, 0, 0, 0, 0, 0, 0, 0, 0], "stateRewards": ["", -2, -8, 48, 24, 2, 4, 24, -24, -2, -4, 48, -48], "withholdReward": false, "trial_id": "mdp_411152402386", "block": "test1", "trialIndex": 18, "score": 46, "costs": -1, "simulationMode": [null, null, null], "rewards": [-2, -4, 48], "path": ["0", "0", "9", "10", "11"], "rt": [5360, 270, 229], "actions": ["left", "left", "up"], "actionTimes": [6676, 7460, 8197], "queries": {"click": {"state": {"target": ["8", "12", "7", "11"], "time": [2273, 3583, 4821, 5905]}, "edge": {"target": [], "time": []}}, "mouseover": {"state": {"target": ["0", "8", "12", "12", "9", "1", "7", "1", "11", "11"], "time": [1855, 1973, 2907, 3302, 4066, 4189, 4541, 5223, 5290, 5657]}, "edge": {"target": [], "time": []}}, "mouseout": {"state": {"target": ["4", "1", "0", "8", "12", "12", "9", "1", "7", "1", "11", "11", "9"], "time": [811, 913, 1874, 2824, 2956, 4043, 4097, 4216, 5180, 5241, 5395, 10517, 10576]}, "edge": {"target": [], "time": []}}}, "displayed_time": "9.38", "trialTime": 11397, "trial_type": "mouselab-mdp", "trial_index": 25, "time_elapsed": 573153, "internal_node_id": "0.0-4.0-1.0-16.0"}}, {"uniqueid": "w61811498:a19501231", "current_trial": 26, "dateTime": 1664464478190, "trialdata": {"revealed_states": [], "num_clicks_accrued": [0, 0, 0, 0, 0, 0, 0, 0, 0, 0, 0, 0, 0], "stateRewards": ["", -2, 4, -24, 24, -4, -8, 24, -48, -4, -4, -48, -24], "withholdReward": true, "trial_id": "mdp_753137520419", "block": "test1", "trialIndex": 19, "score": 15.5, "costs": -1.5, "simulationMode": [null, null, null], "rewards": [-4, -8, 24], "path": ["0", "0", "5", "6", "7"], "rt": [6930, 833, 155], "actions": ["right", "right", "up"], "actionTimes": [10195, 11545, 12235], "queries": {"click": {"state": {"target": ["4", "3", "11", "12", "7", "8"], "time": [4601, 5379, 6380, 7221, 8550, 9794]}, "edge": {"target": [], "time": []}}, "mouseover": {"state": {"target": ["9", "11", "4", "4", "2", "3", "2", "11", "10", "12", "7", "6", "8"], "time": [3664, 3784, 3942, 4369, 5044, 5112, 5788, 6084, 6903, 6970, 8113, 9435, 9562]}, "edge": {"target": [], "time": []}}, "mouseout": {"state": {"target": ["0", "9", "11", "4", "4", "2", "3", "2", "11", "10", "12", "7", "6"], "time": [3643, 3701, 3884, 4026, 5020, 5078, 5767, 5823, 6879, 6933, 8027, 9403, 9496]}, "edge": {"target": [], "time": []}}}, "displayed_time": "12.78", "trialTime": 14042, "trial_type": "mouselab-mdp", "trial_index": 26, "time_elapsed": 587361, "internal_node_id": "0.0-4.0-1.0-17.0"}}, {"uniqueid": "w61811498:a19501231", "current_trial": 27, "dateTime": 1664464492406, "trialdata": {"revealed_states": [], "num_clicks_accrued": [0, 0, 0, 0, 0, 0, 0, 0, 0, 0, 0, 0, 0], "stateRewards": ["", 2, -8, -24, 48, -4, -8, 24, -48, 4, -8, -24, -24], "withholdReward": true, "trial_id": "mdp_928911266656", "block": "test1", "trialIndex": 20, "score": 46, "costs": -1, "simulationMode": [null, null, null], "rewards": [2, -8, 48], "path": ["0", "0", "1", "2", "4"], "rt": [4924, 1893, 162], "actions": ["up", "up", "left"], "actionTimes": [6034, 8433, 9130], "queries": {"click": {"state": {"target": ["11", "12", "3", "4"], "time": [2450, 3380, 4335, 5118]}, "edge": {"target": [], "time": []}}, "mouseover": {"state": {"target": ["9", "10", "11", "10", "12", "2", "3", "2", "4", "1", "5"], "time": [1647, 2123, 2218, 3055, 3114, 3898, 4091, 4781, 4857, 5490, 5549]}, "edge": {"target": [], "time": []}}, "mouseout": {"state": {"target": ["8", "0", "9", "10", "11", "10", "12", "2", "3", "2", "4", "1", "5", "8"], "time": [577, 756, 1700, 2159, 3033, 3082, 3824, 4050, 4763, 4815, 5461, 5515, 5592, 13227]}, "edge": {"target": [], "time": []}}}, "displayed_time": "10.39", "trialTime": 13977, "trial_type": "mouselab-mdp", "trial_index": 27, "time_elapsed": 601576, "internal_node_id": "0.0-4.0-1.0-18.0"}}, {"uniqueid": "w61811498:a19501231", "current_trial": 28, "dateTime": 1664464506198, "trialdata": {"revealed_states": [], "num_clicks_accrued": [0, 0, 0, 0, 0, 0, 0, 0, 0, 0, 0, 0, 0], "stateRewards": ["", 2, 8, 24, -48, 4, 8, 24, 24, 4, -8, 48, 48], "withholdReward": true, "trial_id": "mdp_646103824875", "block": "test1", "trialIndex": 21, "score": 41, "costs": 0, "simulationMode": [null, null, null], "rewards": [4, 8, 24], "path": ["0", "0", "5", "6", "7"], "rt": [593, 325, 52], "actions": ["right", "right", "up"], "actionTimes": [3920, 4773, 5335], "queries": {"click": {"state": {"target": [], "time": []}, "edge": {"target": [], "time": []}}, "mouseover": {"state": {"target": [], "time": []}, "edge": {"target": [], "time": []}}, "mouseout": {"state": {"target": ["1"], "time": [1461]}, "edge": {"target": [], "time": []}}}, "displayed_time": "12.53", "trialTime": 13534, "trial_type": "mouselab-mdp", "trial_index": 28, "time_elapsed": 615369, "internal_node_id": "0.0-4.0-1.0-19.0"}}, {"uniqueid": "w61811498:a19501231", "current_trial": 29, "dateTime": 1664464518089, "trialdata": {"revealed_states": [], "num_clicks_accrued": [0, 0, 0, 0, 0, 0, 0, 0, 0, 0, 0, 0, 0], "stateRewards": ["", 2, 4, 48, -24, 2, -8, -24, -24, 2, -8, -24, -48], "withholdReward": true, "trial_id": "mdp_274832552938", "block": "test1", "trialIndex": 22, "score": 57.75, "costs": -1.25, "simulationMode": [null, null, null], "rewards": [2, 4, 48], "path": ["0", "0", "1", "2", "3"], "rt": [6250, 269, 79], "actions": ["up", "up", "right"], "actionTimes": [7669, 8467, 9077], "queries": {"click": {"state": {"target": ["12", "11", "8", "7", "3"], "time": [3332, 4193, 5197, 5972, 6752]}, "edge": {"target": [], "time": []}}, "mouseover": {"state": {"target": ["9", "12", "10", "11", "1", "5", "8", "6", "7", "3", "2", "4"], "time": [1987, 3075, 3855, 3927, 4711, 4737, 4848, 5654, 5783, 6501, 7176, 7243]}, "edge": {"target": [], "time": []}}, "mouseout": {"state": {"target": ["0", "0", "9", "12", "10", "11", "1", "5", "8", "6", "7", "3", "2"], "time": [973, 1949, 2051, 3836, 3889, 4676, 4734, 4767, 5635, 5693, 6455, 7155, 7210]}, "edge": {"target": [], "time": []}}}, "displayed_time": "10.60", "trialTime": 11638, "trial_type": "mouselab-mdp", "trial_index": 29, "time_elapsed": 627259, "internal_node_id": "0.0-4.0-1.0-20.0"}}, {"uniqueid": "w61811498:a19501231", "current_trial": 30, "dateTime": 1664464532173, "trialdata": {"revealed_states": [], "num_clicks_accrued": [0, 0, 0, 0, 0, 0, 0, 0, 0, 0, 0, 0, 0], "stateRewards": ["", -4, -4, -24, 48, -4, -8, -24, 48, 2, 4, 48, 48], "withholdReward": true, "trial_id": "mdp_810954007398", "block": "test1", "trialIndex": 23, "score": 44.5, "costs": -0.5, "simulationMode": [null, null, null], "rewards": [-4, -4, 48], "path": ["0", "0", "1", "2", "4"], "rt": [7833, 217, 92], "actions": ["up", "up", "left"], "actionTimes": [10691, 11443, 12067], "queries": {"click": {"state": {"target": ["3", "4"], "time": [4940, 9729]}, "edge": {"target": [], "time": []}}, "mouseover": {"state": {"target": ["1", "3", "3", "2", "4", "1"], "time": [3674, 3764, 4660, 5434, 5700, 10281]}, "edge": {"target": [], "time": []}}, "mouseout": {"state": {"target": ["4", "1", "1", "3", "3", "2", "4", "1"], "time": [2324, 2466, 3708, 3839, 5415, 5467, 10239, 10299]}, "edge": {"target": [], "time": []}}}, "displayed_time": "12.59", "trialTime": 13786, "trial_type": "mouselab-mdp", "trial_index": 30, "time_elapsed": 641344, "internal_node_id": "0.0-4.0-1.0-21.0"}}, {"uniqueid": "w61811498:a19501231", "current_trial": 31, "dateTime": 1664464543032, "trialdata": {"revealed_states": [], "num_clicks_accrued": [0, 0, 0, 0, 0, 0, 0, 0, 0, 0, 0, 0, 0], "stateRewards": ["", 2, 4, -48, 48, -4, 8, -48, -24, -4, -4, 48, 48], "withholdReward": true, "trial_id": "mdp_613582696541", "block": "test1", "trialIndex": 24, "score": 44.5, "costs": -0.5, "simulationMode": [null, null, null], "rewards": [-4, -4, 48], "path": ["0", "0", "9", "10", "12"], "rt": [3281, 236, 131], "actions": ["left", "left", "down"], "actionTimes": [4926, 5687, 6340], "queries": {"click": {"state": {"target": ["8", "12"], "time": [2869, 4164]}, "edge": {"target": [], "time": []}}, "mouseover": {"state": {"target": ["0", "8", "12"], "time": [2411, 2542, 3895]}, "edge": {"target": [], "time": []}}, "mouseout": {"state": {"target": ["5", "0", "8"], "time": [1166, 2455, 3368]}, "edge": {"target": [], "time": []}}}, "displayed_time": "9.70", "trialTime": 10613, "trial_type": "mouselab-mdp", "trial_index": 31, "time_elapsed": 652203, "internal_node_id": "0.0-4.0-1.0-22.0"}}, {"uniqueid": "w61811498:a19501231", "current_trial": 32, "dateTime": 1664464554309, "trialdata": {"revealed_states": [], "num_clicks_accrued": [0, 0, 0, 0, 0, 0, 0, 0, 0, 0, 0, 0, 0], "stateRewards": ["", 2, -8, -48, 24, 4, 8, 48, -48, 2, -4, 24, 24], "withholdReward": true, "trial_id": "mdp_130475327289", "block": "test1", "trialIndex": 25, "score": 64, "costs": -1, "simulationMode": [null, null, null], "rewards": [4, 8, 48], "path": ["0", "0", "5", "6", "7"], "rt": [5620, 263, 110], "actions": ["right", "right", "up"], "actionTimes": [6657, 7448, 8096], "queries": {"click": {"state": {"target": ["3", "4", "12", "7"], "time": [2857, 3744, 4654, 5844]}, "edge": {"target": [], "time": []}}, "mouseover": {"state": {"target": ["3", "2", "4", "10", "12", "9", "7", "7", "6"], "time": [2609, 3427, 3500, 4309, 4391, 5085, 5200, 5599, 6260]}, "edge": {"target": [], "time": []}}, "mouseout": {"state": {"target": ["12", "0", "3", "2", "4", "10", "12", "9", "7", "7", "6"], "time": [571, 732, 3408, 3460, 4239, 4350, 5059, 5115, 5257, 6241, 6301]}, "edge": {"target": [], "time": []}}}, "displayed_time": "10.21", "trialTime": 11066, "trial_type": "mouselab-mdp", "trial_index": 32, "time_elapsed": 663480, "internal_node_id": "0.0-4.0-1.0-23.0"}}, {"uniqueid": "w61811498:a19501231", "current_trial": 33, "dateTime": 1664464565777, "trialdata": {"revealed_states": [], "num_clicks_accrued": [0, 0, 0, 0, 0, 0, 0, 0, 0, 0, 0, 0, 0], "stateRewards": ["", -4, -8, -48, -48, 4, -8, 48, 48, 2, 8, 48, 24], "withholdReward": true, "trial_id": "mdp_880437222492", "block": "test1", "trialIndex": 26, "score": 48.75, "costs": -0.25, "simulationMode": [null, null, null], "rewards": [4, -8, 48], "path": ["0", "0", "5", "6", "8"], "rt": [1523, 123, 101], "actions": ["right", "right", "down"], "actionTimes": [2703, 3346, 3977], "queries": {"click": {"state": {"target": ["8"], "time": [1921]}, "edge": {"target": [], "time": []}}, "mouseover": {"state": {"target": ["8"], "time": [1643]}, "edge": {"target": [], "time": []}}, "mouseout": {"state": {"target": ["0", "8"], "time": [1534, 7169]}, "edge": {"target": [], "time": []}}}, "displayed_time": "9.37", "trialTime": 11186, "trial_type": "mouselab-mdp", "trial_index": 33, "time_elapsed": 674947, "internal_node_id": "0.0-4.0-1.0-24.0"}}, {"uniqueid": "w61811498:a19501231", "current_trial": 34, "dateTime": 1664464586530, "trialdata": {"revealed_states": [], "num_clicks_accrued": [0, 0, 0, 0, 0, 0, 0, 0, 0, 0, 0, 0, 0], "stateRewards": ["", 4, -4, 48, 24, 2, 4, 24, -24, 2, 4, 24, 48], "withholdReward": false, "trial_id": "mdp_736351885282", "block": "test1", "trialIndex": 27, "score": 58.5, "costs": -0.5, "simulationMode": [null, null, null], "rewards": [2, 4, 48], "path": ["0", "0", "9", "10", "12"], "rt": [3338, 146, 172], "actions": ["left", "left", "down"], "actionTimes": [5068, 5743, 6441], "queries": {"click": {"state": {"target": ["11", "12"], "time": [2952, 4243]}, "edge": {"target": [], "time": []}}, "mouseover": {"state": {"target": ["9", "10", "11", "10", "12", "12"], "time": [2082, 2159, 2733, 3586, 3649, 3986]}, "edge": {"target": [], "time": []}}, "mouseout": {"state": {"target": ["0", "9", "10", "11", "10", "12", "12"], "time": [2060, 2109, 2678, 3559, 3618, 3685, 11777]}, "edge": {"target": [], "time": []}}}, "displayed_time": "10.94", "trialTime": 20588, "trial_type": "mouselab-mdp", "trial_index": 34, "time_elapsed": 695701, "internal_node_id": "0.0-4.0-1.0-25.0"}}, {"uniqueid": "w61811498:a19501231", "current_trial": 35, "dateTime": 1664464597402, "trialdata": {"revealed_states": [], "num_clicks_accrued": [0, 0, 0, 0, 0, 0, 0, 0, 0, 0, 0, 0, 0], "stateRewards": ["", 4, -8, 48, -24, -4, 4, 24, 24, -2, -4, 24, 24], "withholdReward": false, "trial_id": "mdp_542168715839", "block": "test1", "trialIndex": 28, "score": 48.75, "costs": -0.25, "simulationMode": [null, null, null], "rewards": [4, -8, 48], "path": ["0", "0", "1", "2", "3"], "rt": [2017, 121, 128], "actions": ["up", "up", "right"], "actionTimes": [3666, 4300, 4958], "queries": {"click": {"state": {"target": ["3"], "time": [2867]}, "edge": {"target": [], "time": []}}, "mouseover": {"state": {"target": ["1", "2", "3"], "time": [2298, 2406, 2595]}, "edge": {"target": [], "time": []}}, "mouseout": {"state": {"target": ["0", "1", "2", "3", "5"], "time": [2253, 2354, 2555, 9755, 9814]}, "edge": {"target": [], "time": []}}}, "displayed_time": "9.74", "trialTime": 10696, "trial_type": "mouselab-mdp", "trial_index": 35, "time_elapsed": 706573, "internal_node_id": "0.0-4.0-1.0-26.0"}}, {"uniqueid": "w61811498:a19501231", "current_trial": 36, "dateTime": 1664464609428, "trialdata": {"revealed_states": [], "num_clicks_accrued": [0, 0, 0, 0, 0, 0, 0, 0, 0, 0, 0, 0, 0], "stateRewards": ["", -4, -4, 24, 48, 4, -4, -24, 24, -4, -4, 24, 24], "withholdReward": true, "trial_id": "mdp_357725458160", "block": "test1", "trialIndex": 29, "score": 43.75, "costs": -1.25, "simulationMode": [null, null, null], "rewards": [-4, -4, 48], "path": ["0", "0", "1", "2", "4"], "rt": [6748, 334, 314], "actions": ["up", "up", "left"], "actionTimes": [8059, 8922, 9760], "queries": {"click": {"state": {"target": ["8", "7", "12", "3", "4"], "time": [2159, 3453, 4703, 6127, 6952]}, "edge": {"target": [], "time": []}}, "mouseover": {"state": {"target": ["8", "7", "5", "12", "4", "2", "3", "2", "4"], "time": [1918, 3222, 4060, 4401, 5659, 5720, 5851, 6646, 6721]}, "edge": {"target": [], "time": []}}, "mouseout": {"state": {"target": ["0", "8", "7", "5", "12", "4", "2", "3", "2", "4", "0"], "time": [1775, 2810, 4034, 4094, 5334, 5680, 5751, 6628, 6681, 7389, 11121]}, "edge": {"target": [], "time": []}}}, "displayed_time": "10.39", "trialTime": 11812, "trial_type": "mouselab-mdp", "trial_index": 36, "time_elapsed": 718599, "internal_node_id": "0.0-4.0-1.0-27.0"}}, {"uniqueid": "w61811498:a19501231", "current_trial": 37, "dateTime": 1664464622318, "trialdata": {"revealed_states": [], "num_clicks_accrued": [0, 0, 0, 0, 0, 0, 0, 0, 0, 0, 0, 0, 0], "stateRewards": ["", 4, -8, 24, 48, 2, -4, 48, 48, 4, -8, 48, 48], "withholdReward": true, "trial_id": "mdp_962498334245", "block": "test1", "trialIndex": 30, "score": 48.75, "costs": -0.25, "simulationMode": [null, null, null], "rewards": [4, -8, 48], "path": ["0", "0", "9", "10", "12"], "rt": [1934, 189, 196], "actions": ["left", "left", "down"], "actionTimes": [3323, 4043, 4758], "queries": {"click": {"state": {"target": ["12"], "time": [2410]}, "edge": {"target": [], "time": []}}, "mouseover": {"state": {"target": ["0", "12"], "time": [1835, 2045]}, "edge": {"target": [], "time": []}}, "mouseout": {"state": {"target": ["0", "0", "12"], "time": [1035, 1879, 5884]}, "edge": {"target": [], "time": []}}}, "displayed_time": "10.59", "trialTime": 12666, "trial_type": "mouselab-mdp", "trial_index": 37, "time_elapsed": 731488, "internal_node_id": "0.0-4.0-1.0-28.0"}}, {"uniqueid": "w61811498:a19501231", "current_trial": 38, "dateTime": 1664464632740, "trialdata": {"revealed_states": [], "num_clicks_accrued": [0, 0, 0, 0, 0, 0, 0, 0, 0, 0, 0, 0, 0], "stateRewards": ["", 4, 4, 24, 24, 4, -4, 48, 48, 4, 4, 24, -48], "withholdReward": true, "trial_id": "mdp_454251689008", "block": "test1", "trialIndex": 31, "score": 52.75, "costs": -0.25, "simulationMode": [null, null, null], "rewards": [4, -4, 48], "path": ["0", "0", "5", "6", "8"], "rt": [1819, 229, 143], "actions": ["right", "right", "down"], "actionTimes": [3120, 3859, 4523], "queries": {"click": {"state": {"target": ["8"], "time": [2362]}, "edge": {"target": [], "time": []}}, "mouseover": {"state": {"target": ["0", "5", "8", "8"], "time": [1687, 1710, 1752, 2141]}, "edge": {"target": [], "time": []}}, "mouseout": {"state": {"target": ["0", "0", "5", "8", "8"], "time": [943, 1706, 1746, 1785, 9748]}, "edge": {"target": [], "time": []}}}, "displayed_time": "9.43", "trialTime": 10124, "trial_type": "mouselab-mdp", "trial_index": 38, "time_elapsed": 741911, "internal_node_id": "0.0-4.0-1.0-29.0"}}, {"uniqueid": "w61811498:a19501231", "current_trial": 39, "dateTime": 1664464635662, "trialdata": {"rt": 2918, "stimulus": "<h1> End of block! </h1>\n\nYou have reached the end of the block 1/4. If you need a short break, feel free to take one now before moving on.\n\n<br><br>\nIn the next block, you will complete another 30 rounds of this game.\n\n<br><br>\n<div style='text-align: center;'>Press <code>space</code> to begin.</div>\n<br><br>\n<div style='text-align: center;'>(If the experiment doesn't continue, try clicking on the text and then pressing <code>space</code>.)</div>", "response": " ", "trial_id": "mdp_ready_2", "trial_type": "html-keyboard-response", "trial_index": 39, "time_elapsed": 744833, "internal_node_id": "0.0-4.0-2.0"}}, {"uniqueid": "w61811498:a19501231", "current_trial": 40, "dateTime": 1664464647236, "trialdata": {"revealed_states": [], "num_clicks_accrued": [0, 0, 0, 0, 0, 0, 0, 0, 0, 0, 0, 0, 0], "stateRewards": ["", 4, 4, 48, -48, 4, 4, -48, 24, 2, 8, 24, -48], "withholdReward": true, "trial_id": "mdp_291674656283", "block": "test2", "trialIndex": 32, "score": 61, "costs": 0, "simulationMode": [null, null, null], "rewards": [4, 4, 48], "path": ["0", "0", "1", "2", "3"], "rt": [1376, 105, 22], "actions": ["up", "up", "right"], "actionTimes": [4021, 4650, 5196], "queries": {"click": {"state": {"target": [], "time": []}, "edge": {"target": [], "time": []}}, "mouseover": {"state": {"target": [], "time": []}, "edge": {"target": [], "time": []}}, "mouseout": {"state": {"target": ["0"], "time": [2257]}, "edge": {"target": [], "time": []}}}, "displayed_time": "10.78", "trialTime": 11392, "trial_type": "mouselab-mdp", "trial_index": 40, "time_elapsed": 756407, "internal_node_id": "0.0-4.0-3.0-0.0"}}, {"uniqueid": "w61811498:a19501231", "current_trial": 41, "dateTime": 1664464659957, "trialdata": {"revealed_states": [], "num_clicks_accrued": [0, 0, 0, 0, 0, 0, 0, 0, 0, 0, 0, 0, 0], "stateRewards": ["", 2, -4, 48, -48, 2, 4, -24, 24, -4, -8, 24, -48], "withholdReward": true, "trial_id": "mdp_238810765895", "block": "test2", "trialIndex": 33, "score": 50, "costs": -1, "simulationMode": [null, null, null], "rewards": [2, -4, 48], "path": ["0", "0", "1", "2", "3"], "rt": [5851, 197, 106], "actions": ["up", "up", "right"], "actionTimes": [7930, 8634, 9251], "queries": {"click": {"state": {"target": ["8", "7", "4", "3"], "time": [4012, 4963, 6105, 6880]}, "edge": {"target": [], "time": []}}, "mouseover": {"state": {"target": ["1", "3", "6", "8", "6", "7", "3", "2", "4", "2", "3"], "time": [3143, 3455, 3585, 3709, 4644, 4676, 5467, 5584, 5719, 6571, 6644]}, "edge": {"target": [], "time": []}}, "mouseout": {"state": {"target": ["0", "0", "1", "3", "6", "8", "6", "7", "3", "2", "4", "2", "3", "5"], "time": [1402, 2729, 3177, 3479, 3643, 4617, 4672, 5424, 5493, 5667, 6551, 6605, 7292, 11293]}, "edge": {"target": [], "time": []}}}, "displayed_time": "10.19", "trialTime": 12505, "trial_type": "mouselab-mdp", "trial_index": 41, "time_elapsed": 769126, "internal_node_id": "0.0-4.0-3.0-1.0"}}, {"uniqueid": "w61811498:a19501231", "current_trial": 42, "dateTime": 1664464672335, "trialdata": {"revealed_states": [], "num_clicks_accrued": [0, 0, 0, 0, 0, 0, 0, 0, 0, 0, 0, 0, 0], "stateRewards": ["", -2, 8, -48, 48, 4, -8, -48, 48, 4, -4, -24, 48], "withholdReward": true, "trial_id": "mdp_144739116828", "block": "test2", "trialIndex": 34, "score": 52.5, "costs": -0.5, "simulationMode": [null, null, null], "rewards": [4, -4, 48], "path": ["0", "0", "9", "10", "12"], "rt": [3522, 161, 164], "actions": ["left", "left", "down"], "actionTimes": [6243, 6913, 7601], "queries": {"click": {"state": {"target": ["11", "12"], "time": [4034, 4950]}, "edge": {"target": [], "time": []}}, "mouseover": {"state": {"target": ["9", "11", "10", "12", "9"], "time": [3559, 3683, 4467, 4631, 5334]}, "edge": {"target": [], "time": []}}, "mouseout": {"state": {"target": ["0", "9", "11", "10", "12", "9"], "time": [3522, 3636, 4444, 4516, 5307, 5365]}, "edge": {"target": [], "time": []}}}, "displayed_time": "10.85", "trialTime": 12098, "trial_type": "mouselab-mdp", "trial_index": 42, "time_elapsed": 781506, "internal_node_id": "0.0-4.0-3.0-2.0"}}, {"uniqueid": "w61811498:a19501231", "current_trial": 43, "dateTime": 1664464686459, "trialdata": {"revealed_states": [], "num_clicks_accrued": [0, 0, 0, 0, 0, 0, 0, 0, 0, 0, 0, 0, 0], "stateRewards": ["", -2, 4, -48, -48, -4, -8, 48, -48, 2, 4, 48, -48], "withholdReward": false, "trial_id": "mdp_258647270500", "block": "test2", "trialIndex": 35, "score": 40.75, "costs": -0.25, "simulationMode": [null, null, null], "rewards": [-4, -8, 48], "path": ["0", "0", "5", "6", "7"], "rt": [2045, 162, 469], "actions": ["right", "right", "up"], "actionTimes": [4370, 5048, 6046], "queries": {"click": {"state": {"target": ["7"], "time": [3251]}, "edge": {"target": [], "time": []}}, "mouseover": {"state": {"target": ["7"], "time": [2794]}, "edge": {"target": [], "time": []}}, "mouseout": {"state": {"target": ["7", "6", "0", "7", "8"], "time": [478, 527, 2685, 3822, 8070]}, "edge": {"target": [], "time": []}}}, "displayed_time": "11.47", "trialTime": 13826, "trial_type": "mouselab-mdp", "trial_index": 43, "time_elapsed": 795630, "internal_node_id": "0.0-4.0-3.0-3.0"}}, {"uniqueid": "w61811498:a19501231", "current_trial": 44, "dateTime": 1664464703782, "trialdata": {"revealed_states": [], "num_clicks_accrued": [0, 0, 0, 0, 0, 0, 0, 0, 0, 0, 0, 0, 0], "stateRewards": ["", 2, 4, -24, -48, 4, -4, 24, 48, -4, -4, -24, 48], "withholdReward": true, "trial_id": "mdp_181958792175", "block": "test2", "trialIndex": 36, "score": 52.5, "costs": -0.5, "simulationMode": [null, null, null], "rewards": [4, -4, 48], "path": ["0", "0", "5", "6", "8"], "rt": [3886, 42, 385], "actions": ["right", "right", "down"], "actionTimes": [12117, 12688, 13598], "queries": {"click": {"state": {"target": ["7", "8"], "time": [10113, 11244]}, "edge": {"target": [], "time": []}}, "mouseover": {"state": {"target": ["5", "7", "8"], "time": [9488, 9811, 10995]}, "edge": {"target": [], "time": []}}, "mouseout": {"state": {"target": ["0", "5", "7", "8", "8"], "time": [9456, 9518, 10607, 11769, 16228]}, "edge": {"target": [], "time": []}}}, "displayed_time": "16.34", "trialTime": 17108, "trial_type": "mouselab-mdp", "trial_index": 44, "time_elapsed": 812953, "internal_node_id": "0.0-4.0-3.0-4.0"}}, {"uniqueid": "w61811498:a19501231", "current_trial": 45, "dateTime": 1664464723566, "trialdata": {"revealed_states": [], "num_clicks_accrued": [0, 0, 0, 0, 0, 0, 0, 0, 0, 0, 0, 0, 0], "stateRewards": ["", -2, -8, 24, -48, 4, 4, -24, -48, -2, -8, -48, 24], "withholdReward": true, "trial_id": "mdp_556006673466", "block": "test2", "trialIndex": 37, "score": 17.5, "costs": -1.5, "simulationMode": [null, null, null], "rewards": [-2, -8, 24], "path": ["0", "0", "9", "10", "12"], "rt": [12302, 145, 200], "actions": ["left", "left", "down"], "actionTimes": [13509, 14170, 14898], "queries": {"click": {"state": {"target": ["12", "11", "7", "8", "3", "4"], "time": [5162, 6883, 8249, 9089, 10505, 12055]}, "edge": {"target": [], "time": []}}, "mouseover": {"state": {"target": ["12", "12", "10", "11", "5", "6", "7", "6", "8", "3", "3", "2", "4", "4"], "time": [3900, 4914, 5806, 6620, 7690, 7711, 7940, 8699, 8855, 9920, 10305, 10965, 11048, 11784]}, "edge": {"target": [], "time": []}}, "mouseout": {"state": {"target": ["0", "12", "12", "10", "11", "5", "6", "7", "6", "8", "3", "3", "2", "4", "4"], "time": [3811, 3981, 5784, 5839, 7629, 7708, 7747, 8658, 8757, 9847, 10006, 10935, 11006, 11089, 12367]}, "edge": {"target": [], "time": []}}}, "displayed_time": "15.41", "trialTime": 19610, "trial_type": "mouselab-mdp", "trial_index": 45, "time_elapsed": 832736, "internal_node_id": "0.0-4.0-3.0-5.0"}}, {"uniqueid": "w61811498:a19501231", "current_trial": 46, "dateTime": 1664464735321, "trialdata": {"revealed_states": [], "num_clicks_accrued": [0, 0, 0, 0, 0, 0, 0, 0, 0, 0, 0, 0, 0], "stateRewards": ["", 2, -8, 24, 24, 4, -4, -24, -48, 4, 8, 24, 24], "withholdReward": true, "trial_id": "mdp_249803813713", "block": "test2", "trialIndex": 38, "score": 39.5, "costs": -1.5, "simulationMode": [null, null, null], "rewards": [4, 8, 24], "path": ["0", "0", "9", "10", "12"], "rt": [6733, 186, 61], "actions": ["left", "left", "down"], "actionTimes": [8134, 8829, 9417], "queries": {"click": {"state": {"target": ["7", "8", "12", "11", "4", "3"], "time": [2639, 3483, 4470, 5502, 6328, 7074]}, "edge": {"target": [], "time": []}}, "mouseover": {"state": {"target": ["7", "6", "8", "12", "10", "11", "4", "2", "3"], "time": [2370, 3131, 3258, 4176, 4984, 5224, 6049, 6719, 6785]}, "edge": {"target": [], "time": []}}, "mouseout": {"state": {"target": ["0", "7", "6", "8", "12", "10", "11", "4", "2", "3", "7", "6"], "time": [1753, 3110, 3164, 3793, 4957, 5145, 5971, 6690, 6748, 10517, 10633, 10691]}, "edge": {"target": [], "time": []}}}, "displayed_time": "10.57", "trialTime": 11576, "trial_type": "mouselab-mdp", "trial_index": 46, "time_elapsed": 844492, "internal_node_id": "0.0-4.0-3.0-6.0"}}, {"uniqueid": "w61811498:a19501231", "current_trial": 47, "dateTime": 1664464746698, "trialdata": {"revealed_states": [], "num_clicks_accrued": [0, 0, 0, 0, 0, 0, 0, 0, 0, 0, 0, 0, 0], "stateRewards": ["", 4, 4, -24, -48, -4, 4, -48, 24, 4, -8, -48, 48], "withholdReward": true, "trial_id": "mdp_566768794366", "block": "test2", "trialIndex": 39, "score": 48.5, "costs": -0.5, "simulationMode": [null, null, null], "rewards": [4, -8, 48], "path": ["0", "0", "9", "10", "12"], "rt": [3019, 178, 58], "actions": ["left", "left", "down"], "actionTimes": [4223, 4928, 5525], "queries": {"click": {"state": {"target": ["11", "12"], "time": [1932, 3154]}, "edge": {"target": [], "time": []}}, "mouseover": {"state": {"target": ["11", "4", "2", "1", "9", "12"], "time": [1663, 2506, 2581, 2672, 2732, 2788]}, "edge": {"target": [], "time": []}}, "mouseout": {"state": {"target": ["0", "11", "4", "2", "1", "9", "12"], "time": [830, 2468, 2539, 2623, 2713, 2756, 3565]}, "edge": {"target": [], "time": []}}}, "displayed_time": "10.42", "trialTime": 11084, "trial_type": "mouselab-mdp", "trial_index": 47, "time_elapsed": 855869, "internal_node_id": "0.0-4.0-3.0-7.0"}}, {"uniqueid": "w61811498:a19501231", "current_trial": 48, "dateTime": 1664464757893, "trialdata": {"revealed_states": [], "num_clicks_accrued": [0, 0, 0, 0, 0, 0, 0, 0, 0, 0, 0, 0, 0], "stateRewards": ["", -4, 8, 48, -48, 2, -4, 24, -24, -2, 4, -24, -24], "withholdReward": false, "trial_id": "mdp_804988042722", "block": "test2", "trialIndex": 40, "score": 26.25, "costs": -0.75, "simulationMode": [null, null, null], "rewards": [2, -4, 24], "path": ["0", "0", "5", "6", "7"], "rt": [4540, 67, 752], "actions": ["right", "right", "up"], "actionTimes": [6031, 6630, 7890], "queries": {"click": {"state": {"target": ["7", "8", "11"], "time": [2369, 3288, 4914]}, "edge": {"target": [], "time": []}}, "mouseover": {"state": {"target": ["7", "6", "8", "11", "10", "12"], "time": [2128, 2841, 3010, 4328, 5565, 5629]}, "edge": {"target": [], "time": []}}, "mouseout": {"state": {"target": ["0", "1", "7", "6", "8", "11", "10", "12"], "time": [679, 1098, 2817, 2943, 3810, 5529, 5623, 5720]}, "edge": {"target": [], "time": []}}}, "displayed_time": "9.59", "trialTime": 11009, "trial_type": "mouselab-mdp", "trial_index": 48, "time_elapsed": 867064, "internal_node_id": "0.0-4.0-3.0-8.0"}}, {"uniqueid": "w61811498:a19501231", "current_trial": 49, "dateTime": 1664464770412, "trialdata": {"revealed_states": [], "num_clicks_accrued": [0, 0, 0, 0, 0, 0, 0, 0, 0, 0, 0, 0, 0], "stateRewards": ["", 2, -8, 24, -24, -2, 8, -48, -48, 2, -8, -24, -48], "withholdReward": false, "trial_id": "mdp_744278669205", "block": "test2", "trialIndex": 41, "score": 22, "costs": -1, "simulationMode": [null, null, null], "rewards": [2, -8, 24], "path": ["0", "0", "1", "2", "3"], "rt": [4978, 238, 177], "actions": ["up", "up", "right"], "actionTimes": [6379, 7150, 7857], "queries": {"click": {"state": {"target": ["4", "3", "8", "7"], "time": [2251, 3127, 4326, 5177]}, "edge": {"target": [], "time": []}}, "mouseover": {"state": {"target": ["4", "2", "3", "6", "8", "6", "7"], "time": [2010, 2787, 2862, 3609, 4057, 4828, 4893]}, "edge": {"target": [], "time": []}}, "mouseout": {"state": {"target": ["0", "4", "2", "3", "6", "8", "6", "7", "6"], "time": [969, 2766, 2821, 3528, 3685, 4805, 4861, 8816, 8869]}, "edge": {"target": [], "time": []}}}, "displayed_time": "10.50", "trialTime": 12319, "trial_type": "mouselab-mdp", "trial_index": 49, "time_elapsed": 879583, "internal_node_id": "0.0-4.0-3.0-9.0"}}, {"uniqueid": "w61811498:a19501231", "current_trial": 50, "dateTime": 1664464784377, "trialdata": {"revealed_states": [], "num_clicks_accrued": [0, 0, 0, 0, 0, 0, 0, 0, 0, 0, 0, 0, 0], "stateRewards": ["", 2, -4, -24, 24, 2, 8, 48, 48, 2, -8, 48, -24], "withholdReward": false, "trial_id": "mdp_330392242530", "block": "test2", "trialIndex": 42, "score": 62, "costs": -1, "simulationMode": [null, null, null], "rewards": [2, 8, 48], "path": ["0", "0", "5", "6", "8"], "rt": [6295, 149, 208], "actions": ["right", "right", "down"], "actionTimes": [8292, 8967, 9715], "queries": {"click": {"state": {"target": ["12", "3", "4", "8"], "time": [3090, 4555, 5551, 7517]}, "edge": {"target": [], "time": []}}, "mouseover": {"state": {"target": ["0", "12", "10", "4", "3", "3", "4", "11", "11", "8"], "time": [2376, 2849, 3576, 3705, 3862, 4304, 5189, 6114, 6807, 7243]}, "edge": {"target": [], "time": []}}, "mouseout": {"state": {"target": ["0", "0", "12", "10", "4", "3", "3", "4", "11", "11", "8"], "time": [1729, 2398, 3556, 3614, 3723, 3937, 5065, 6020, 6205, 6829, 7890]}, "edge": {"target": [], "time": []}}}, "displayed_time": "11.15", "trialTime": 13745, "trial_type": "mouselab-mdp", "trial_index": 50, "time_elapsed": 893547, "internal_node_id": "0.0-4.0-3.0-10.0"}}, {"uniqueid": "w61811498:a19501231", "current_trial": 51, "dateTime": 1664464796346, "trialdata": {"revealed_states": [], "num_clicks_accrued": [0, 0, 0, 0, 0, 0, 0, 0, 0, 0, 0, 0, 0], "stateRewards": ["", 2, 4, 48, 24, -2, -8, 24, 24, -2, 4, -48, 24], "withholdReward": true, "trial_id": "mdp_130849500124", "block": "test2", "trialIndex": 43, "score": 58.5, "costs": -0.5, "simulationMode": [null, null, null], "rewards": [2, 4, 48], "path": ["0", "0", "1", "2", "3"], "rt": [3361, 180, 115], "actions": ["up", "up", "right"], "actionTimes": [4856, 5553, 6194], "queries": {"click": {"state": {"target": ["12", "3"], "time": [2566, 3823]}, "edge": {"target": [], "time": []}}, "mouseover": {"state": {"target": ["12", "2", "3", "3"], "time": [2202, 3053, 3302, 3564]}, "edge": {"target": [], "time": []}}, "mouseout": {"state": {"target": ["0", "12", "2", "3", "3"], "time": [1908, 3006, 3075, 3322, 10017]}, "edge": {"target": [], "time": []}}}, "displayed_time": "9.61", "trialTime": 11770, "trial_type": "mouselab-mdp", "trial_index": 51, "time_elapsed": 905517, "internal_node_id": "0.0-4.0-3.0-11.0"}}, {"uniqueid": "w61811498:a19501231", "current_trial": 52, "dateTime": 1664464820182, "trialdata": {"revealed_states": [], "num_clicks_accrued": [0, 0, 0, 0, 0, 0, 0, 0, 0, 0, 0, 0, 0], "stateRewards": ["", 4, -8, -48, 24, 4, 4, -24, -24, 2, 4, -48, 24], "withholdReward": true, "trial_id": "mdp_626971397185", "block": "test2", "trialIndex": 44, "score": 24, "costs": -1, "simulationMode": [null, null, null], "rewards": [4, -8, 24], "path": ["0", "0", "1", "2", "4"], "rt": [6176, 162, 46], "actions": ["up", "up", "left"], "actionTimes": [7538, 8238, 8803], "queries": {"click": {"state": {"target": ["8", "4", "12", "7"], "time": [2318, 3435, 5140, 6157]}, "edge": {"target": [], "time": []}}, "mouseover": {"state": {"target": ["8", "0", "4", "4", "11", "12", "9", "1", "7", "9"], "time": [2040, 2799, 2864, 3156, 4210, 4448, 5607, 5646, 5923, 6931]}, "edge": {"target": [], "time": []}}, "mouseout": {"state": {"target": ["0", "8", "0", "4", "4", "11", "12", "9", "1", "7", "9"], "time": [1080, 2738, 2817, 2956, 4158, 4265, 5588, 5642, 5682, 6825, 9874]}, "edge": {"target": [], "time": []}}}, "displayed_time": "9.45", "trialTime": 23535, "trial_type": "mouselab-mdp", "trial_index": 52, "time_elapsed": 929353, "internal_node_id": "0.0-4.0-3.0-12.0"}}, {"uniqueid": "w61811498:a19501231", "current_trial": 53, "dateTime": 1664464833987, "trialdata": {"revealed_states": [], "num_clicks_accrued": [0, 0, 0, 0, 0, 0, 0, 0, 0, 0, 0, 0, 0], "stateRewards": ["", 2, 8, 48, 24, -4, 4, -48, 24, 2, 8, 48, 48], "withholdReward": true, "trial_id": "mdp_367344599162", "block": "test2", "trialIndex": 45, "score": 62.75, "costs": -0.25, "simulationMode": [null, null, null], "rewards": [2, 8, 48], "path": ["0", "0", "9", "10", "11"], "rt": [4273, 194, 118], "actions": ["left", "left", "up"], "actionTimes": [7347, 8049, 8714], "queries": {"click": {"state": {"target": ["11"], "time": [6172]}, "edge": {"target": [], "time": []}}, "mouseover": {"state": {"target": ["9", "10", "11", "10", "12"], "time": [4840, 4930, 5152, 6745, 6822]}, "edge": {"target": [], "time": []}}, "mouseout": {"state": {"target": ["0", "9", "10", "11", "10", "12"], "time": [4806, 4914, 4962, 6712, 6789, 12797]}, "edge": {"target": [], "time": []}}}, "displayed_time": "12.20", "trialTime": 13620, "trial_type": "mouselab-mdp", "trial_index": 53, "time_elapsed": 943158, "internal_node_id": "0.0-4.0-3.0-13.0"}}, {"uniqueid": "w61811498:a19501231", "current_trial": 54, "dateTime": 1664464854836, "trialdata": {"revealed_states": [], "num_clicks_accrued": [0, 0, 0, 0, 0, 0, 0, 0, 0, 0, 0, 0, 0], "stateRewards": ["", -4, -8, 48, 24, 4, -8, 24, -48, -2, -8, 24, -48], "withholdReward": true, "trial_id": "mdp_952038635544", "block": "test2", "trialIndex": 46, "score": 39.75, "costs": -1.25, "simulationMode": [null, null, null], "rewards": [-4, -8, 48], "path": ["0", "0", "1", "2", "3"], "rt": [6261, 185, 286], "actions": ["up", "up", "right"], "actionTimes": [11018, 11736, 12550], "queries": {"click": {"state": {"target": ["7", "8", "11", "12", "3"], "time": [5761, 6557, 7482, 8799, 10086]}, "edge": {"target": [], "time": []}}, "mouseover": {"state": {"target": ["7", "6", "8", "10", "11", "10", "12", "12", "2", "3"], "time": [5418, 6169, 6244, 7168, 7274, 8041, 8103, 8541, 9434, 9782]}, "edge": {"target": [], "time": []}}, "mouseout": {"state": {"target": ["5", "7", "6", "8", "10", "11", "10", "12", "12", "2", "3", "5"], "time": [3899, 6151, 6203, 6988, 7233, 8009, 8100, 8173, 9352, 9491, 13690, 13766]}, "edge": {"target": [], "time": []}}}, "displayed_time": "13.88", "trialTime": 20658, "trial_type": "mouselab-mdp", "trial_index": 54, "time_elapsed": 964007, "internal_node_id": "0.0-4.0-3.0-14.0"}}, {"uniqueid": "w61811498:a19501231", "current_trial": 55, "dateTime": 1664464869705, "trialdata": {"revealed_states": [], "num_clicks_accrued": [0, 0, 0, 0, 0, 0, 0, 0, 0, 0, 0, 0, 0], "stateRewards": ["", 2, -4, -48, 24, 4, 4, 48, -48, -2, -4, -24, -48], "withholdReward": true, "trial_id": "mdp_858916930936", "block": "test2", "trialIndex": 47, "score": 60.25, "costs": -0.75, "simulationMode": [null, null, null], "rewards": [4, 4, 48], "path": ["0", "0", "5", "6", "7"], "rt": [3732, 268, 525], "actions": ["right", "right", "up"], "actionTimes": [5184, 5980, 7037], "queries": {"click": {"state": {"target": ["11", "12", "7"], "time": [2576, 3431, 4288]}, "edge": {"target": [], "time": []}}, "mouseover": {"state": {"target": ["9", "11", "10", "12", "9", "7", "6", "8"], "time": [1960, 2365, 3081, 3170, 3825, 3903, 4760, 4798]}, "edge": {"target": [], "time": []}}, "mouseout": {"state": {"target": ["0", "9", "11", "10", "12", "9", "7", "6", "8"], "time": [1922, 2029, 3058, 3128, 3805, 3860, 4742, 4795, 4837]}, "edge": {"target": [], "time": []}}}, "displayed_time": "9.59", "trialTime": 14671, "trial_type": "mouselab-mdp", "trial_index": 55, "time_elapsed": 978876, "internal_node_id": "0.0-4.0-3.0-15.0"}}, {"uniqueid": "w61811498:a19501231", "current_trial": 56, "dateTime": 1664464881167, "trialdata": {"revealed_states": [], "num_clicks_accrued": [0, 0, 0, 0, 0, 0, 0, 0, 0, 0, 0, 0, 0], "stateRewards": ["", 4, 8, -24, 48, -2, -4, 24, -24, -2, 4, 24, 24], "withholdReward": true, "trial_id": "mdp_948713805479", "block": "test2", "trialIndex": 48, "score": 30, "costs": -1, "simulationMode": [null, null, null], "rewards": [-2, 4, 24], "path": ["0", "0", "9", "10", "12"], "rt": [7139, 87, 44], "actions": ["left", "left", "down"], "actionTimes": [8483, 9100, 9664], "queries": {"click": {"state": {"target": ["3", "12", "8", "11"], "time": [2853, 3930, 5118, 7315]}, "edge": {"target": [], "time": []}}, "mouseover": {"state": {"target": ["1", "3", "1", "9", "12", "8", "0", "11", "11", "11", "1", "1"], "time": [2486, 2576, 3445, 3484, 3553, 4776, 6293, 6512, 6693, 7021, 7818, 7902]}, "edge": {"target": [], "time": []}}, "mouseout": {"state": {"target": ["0", "1", "3", "1", "9", "12", "8", "0", "11", "11", "11", "1"], "time": [1028, 2519, 3426, 3480, 3519, 4379, 6252, 6311, 6589, 6712, 7742, 7837]}, "edge": {"target": [], "time": []}}}, "displayed_time": "10.19", "trialTime": 11148, "trial_type": "mouselab-mdp", "trial_index": 56, "time_elapsed": 990338, "internal_node_id": "0.0-4.0-3.0-16.0"}}, {"uniqueid": "w61811498:a19501231", "current_trial": 57, "dateTime": 1664464893051, "trialdata": {"revealed_states": [], "num_clicks_accrued": [0, 0, 0, 0, 0, 0, 0, 0, 0, 0, 0, 0, 0], "stateRewards": ["", -2, -8, 48, -24, 2, -4, -48, -24, -2, -4, -48, 48], "withholdReward": false, "trial_id": "mdp_143798438087", "block": "test2", "trialIndex": 49, "score": 46, "costs": -1, "simulationMode": [null, null, null], "rewards": [-2, -4, 48], "path": ["0", "0", "9", "10", "12"], "rt": [6319, 306, 146], "actions": ["left", "left", "down"], "actionTimes": [8074, 8908, 9586], "queries": {"click": {"state": {"target": ["4", "11", "8", "12"], "time": [2769, 4400, 6016, 7014]}, "edge": {"target": [], "time": []}}, "mouseover": {"state": {"target": ["4", "2", "1", "0", "10", "11", "5", "8", "8", "12", "9"], "time": [2525, 3283, 3366, 3784, 3892, 4100, 4866, 4958, 5757, 6651, 7426]}, "edge": {"target": [], "time": []}}, "mouseout": {"state": {"target": ["1", "0", "0", "4", "2", "1", "0", "10", "11", "5", "8", "8", "12", "9", "7"], "time": [884, 999, 1432, 3242, 3302, 3407, 3803, 4066, 4776, 4916, 5040, 6477, 7399, 7454, 10724]}, "edge": {"target": [], "time": []}}}, "displayed_time": "10.11", "trialTime": 11723, "trial_type": "mouselab-mdp", "trial_index": 57, "time_elapsed": 1002222, "internal_node_id": "0.0-4.0-3.0-17.0"}}, {"uniqueid": "w61811498:a19501231", "current_trial": 58, "dateTime": 1664464906769, "trialdata": {"revealed_states": [], "num_clicks_accrued": [0, 0, 0, 0, 0, 0, 0, 0, 0, 0, 0, 0, 0], "stateRewards": ["", -2, -8, 24, -24, 4, -8, 48, 48, -4, -8, -24, -48], "withholdReward": true, "trial_id": "mdp_286767261523", "block": "test2", "trialIndex": 50, "score": 48.25, "costs": -0.75, "simulationMode": [null, null, null], "rewards": [4, -8, 48], "path": ["0", "0", "5", "6", "8"], "rt": [3825, 635, 173], "actions": ["right", "right", "down"], "actionTimes": [7186, 8354, 9059], "queries": {"click": {"state": {"target": ["3", "4", "8"], "time": [4270, 5292, 6228]}, "edge": {"target": [], "time": []}}, "mouseover": {"state": {"target": ["1", "3", "4", "1", "8", "8", "6"], "time": [3850, 3934, 4995, 5660, 5721, 5901, 6843]}, "edge": {"target": [], "time": []}}, "mouseout": {"state": {"target": ["6", "5", "0", "1", "3", "4", "1", "8", "8", "6", "6", "5"], "time": [2843, 2883, 3820, 3876, 4903, 5626, 5686, 5761, 6825, 6879, 10176, 10267]}, "edge": {"target": [], "time": []}}}, "displayed_time": "12.64", "trialTime": 13525, "trial_type": "mouselab-mdp", "trial_index": 58, "time_elapsed": 1015940, "internal_node_id": "0.0-4.0-3.0-18.0"}}, {"uniqueid": "w61811498:a19501231", "current_trial": 59, "dateTime": 1664464917039, "trialdata": {"revealed_states": [], "num_clicks_accrued": [0, 0, 0, 0, 0, 0, 0, 0, 0, 0, 0, 0, 0], "stateRewards": ["", -2, 4, 24, 48, 2, 4, -48, -48, 2, 8, 48, -48], "withholdReward": true, "trial_id": "mdp_409609775558", "block": "test2", "trialIndex": 51, "score": 62.5, "costs": -0.5, "simulationMode": [null, null, null], "rewards": [2, 8, 48], "path": ["0", "0", "9", "10", "11"], "rt": [3010, 145, 65], "actions": ["left", "left", "up"], "actionTimes": [4388, 5039, 5634], "queries": {"click": {"state": {"target": ["12", "11"], "time": [2166, 3427]}, "edge": {"target": [], "time": []}}, "mouseover": {"state": {"target": ["12", "3", "3", "2", "11", "1", "7"], "time": [1903, 2692, 2824, 2867, 3149, 3858, 3926]}, "edge": {"target": [], "time": []}}, "mouseout": {"state": {"target": ["0", "12", "3", "3", "2", "11", "1", "7", "6"], "time": [1816, 2583, 2726, 2852, 2898, 3820, 3878, 3964, 6650]}, "edge": {"target": [], "time": []}}}, "displayed_time": "9.49", "trialTime": 10110, "trial_type": "mouselab-mdp", "trial_index": 59, "time_elapsed": 1026210, "internal_node_id": "0.0-4.0-3.0-19.0"}}, {"uniqueid": "w61811498:a19501231", "current_trial": 60, "dateTime": 1664464930072, "trialdata": {"revealed_states": [], "num_clicks_accrued": [0, 0, 0, 0, 0, 0, 0, 0, 0, 0, 0, 0, 0], "stateRewards": ["", -4, -4, -24, 48, 2, 4, -24, -48, -2, 4, 24, 24], "withholdReward": true, "trial_id": "mdp_360934723192", "block": "test2", "trialIndex": 52, "score": 30, "costs": -1, "simulationMode": [null, null, null], "rewards": [-2, 4, 24], "path": ["0", "0", "9", "10", "11"], "rt": [6666, 240, 963], "actions": ["left", "left", "up"], "actionTimes": [7927, 8702, 10200], "queries": {"click": {"state": {"target": ["11", "3", "8", "7"], "time": [2074, 3859, 4968, 5855]}, "edge": {"target": [], "time": []}}, "mouseover": {"state": {"target": ["9", "11", "10", "1", "3", "3", "6", "8", "8", "6", "7", "0", "12"], "time": [1707, 1802, 2643, 2743, 2796, 3620, 4318, 4375, 4495, 5453, 5606, 6545, 6742]}, "edge": {"target": [], "time": []}}, "mouseout": {"state": {"target": ["0", "9", "11", "10", "1", "3", "3", "6", "8", "8", "6", "7", "0", "12"], "time": [1687, 1742, 2587, 2684, 2769, 2868, 4242, 4353, 4427, 5433, 5487, 6502, 6607, 11555]}, "edge": {"target": [], "time": []}}}, "displayed_time": "10.73", "trialTime": 12801, "trial_type": "mouselab-mdp", "trial_index": 60, "time_elapsed": 1039241, "internal_node_id": "0.0-4.0-3.0-20.0"}}, {"uniqueid": "w61811498:a19501231", "current_trial": 61, "dateTime": 1664464944535, "trialdata": {"revealed_states": [], "num_clicks_accrued": [0, 0, 0, 0, 0, 0, 0, 0, 0, 0, 0, 0, 0], "stateRewards": ["", 4, -8, -24, 24, 2, -4, 24, 24, 2, -4, 48, 48], "withholdReward": true, "trial_id": "mdp_457607480918", "block": "test2", "trialIndex": 53, "score": 50.75, "costs": -0.25, "simulationMode": [null, null, null], "rewards": [2, -4, 48], "path": ["0", "0", "9", "10", "12"], "rt": [2863, 1118, 108], "actions": ["left", "left", "down"], "actionTimes": [6996, 8632, 9256], "queries": {"click": {"state": {"target": ["12"], "time": [6064]}, "edge": {"target": [], "time": []}}, "mouseover": {"state": {"target": ["0", "9", "12"], "time": [5436, 5539, 5822]}, "edge": {"target": [], "time": []}}, "mouseout": {"state": {"target": ["0", "0", "9", "12"], "time": [3771, 5473, 5607, 6577]}, "edge": {"target": [], "time": []}}}, "displayed_time": "13.34", "trialTime": 14027, "trial_type": "mouselab-mdp", "trial_index": 61, "time_elapsed": 1053705, "internal_node_id": "0.0-4.0-3.0-21.0"}}, {"uniqueid": "w61811498:a19501231", "current_trial": 62, "dateTime": 1664464956194, "trialdata": {"revealed_states": [], "num_clicks_accrued": [0, 0, 0, 0, 0, 0, 0, 0, 0, 0, 0, 0, 0], "stateRewards": ["", 4, 4, 48, -48, -2, 4, 48, -48, -4, 4, -24, -24], "withholdReward": false, "trial_id": "mdp_753324812898", "block": "test2", "trialIndex": 54, "score": 60.5, "costs": -0.5, "simulationMode": [null, null, null], "rewards": [4, 4, 48], "path": ["0", "0", "1", "2", "3"], "rt": [2909, 135, 73], "actions": ["up", "up", "right"], "actionTimes": [4823, 5485, 6081], "queries": {"click": {"state": {"target": ["12", "3"], "time": [2701, 3792]}, "edge": {"target": [], "time": []}}, "mouseover": {"state": {"target": ["12", "2", "3"], "time": [2443, 3256, 3532]}, "edge": {"target": [], "time": []}}, "mouseout": {"state": {"target": ["6", "0", "0", "12", "2", "3", "0"], "time": [1029, 1114, 2343, 3201, 3284, 4302, 10595]}, "edge": {"target": [], "time": []}}}, "displayed_time": "10.04", "trialTime": 11362, "trial_type": "mouselab-mdp", "trial_index": 62, "time_elapsed": 1065363, "internal_node_id": "0.0-4.0-3.0-22.0"}}, {"uniqueid": "w61811498:a19501231", "current_trial": 63, "dateTime": 1664464966583, "trialdata": {"revealed_states": [], "num_clicks_accrued": [0, 0, 0, 0, 0, 0, 0, 0, 0, 0, 0, 0, 0], "stateRewards": ["", 4, -8, -24, 48, -4, 8, -24, -48, -4, -4, 24, 48], "withholdReward": true, "trial_id": "mdp_282352776624", "block": "test2", "trialIndex": 55, "score": 44, "costs": -1, "simulationMode": [null, null, null], "rewards": [-4, -4, 48], "path": ["0", "0", "9", "10", "12"], "rt": [5174, 202, 74], "actions": ["left", "left", "down"], "actionTimes": [6224, 6956, 7553], "queries": {"click": {"state": {"target": ["11", "8", "7", "12"], "time": [2089, 3279, 4271, 5751]}, "edge": {"target": [], "time": []}}, "mouseover": {"state": {"target": ["9", "11", "10", "8", "3", "7", "9", "10", "12"], "time": [1579, 1844, 2554, 3020, 3863, 4027, 4862, 4919, 5502]}, "edge": {"target": [], "time": []}}, "mouseout": {"state": {"target": ["0", "9", "11", "10", "8", "3", "7", "9", "10", "12"], "time": [735, 1654, 2529, 2582, 3773, 3919, 4807, 4881, 5084, 9090]}, "edge": {"target": [], "time": []}}}, "displayed_time": "9.12", "trialTime": 10198, "trial_type": "mouselab-mdp", "trial_index": 63, "time_elapsed": 1075753, "internal_node_id": "0.0-4.0-3.0-23.0"}}, {"uniqueid": "w61811498:a19501231", "current_trial": 64, "dateTime": 1664464977390, "trialdata": {"revealed_states": [], "num_clicks_accrued": [0, 0, 0, 0, 0, 0, 0, 0, 0, 0, 0, 0, 0], "stateRewards": ["", -4, -8, -24, 24, 2, 8, 24, 48, 2, 4, 24, -48], "withholdReward": true, "trial_id": "mdp_122352383932", "block": "test2", "trialIndex": 56, "score": 16, "costs": -1, "simulationMode": [null, null, null], "rewards": [-4, -8, 24], "path": ["0", "0", "1", "2", "4"], "rt": [5862, 140, 60], "actions": ["up", "up", "left"], "actionTimes": [7157, 7815, 8402], "queries": {"click": {"state": {"target": ["3", "4", "12", "11"], "time": [2436, 3291, 4334, 5146]}, "edge": {"target": [], "time": []}}, "mouseover": {"state": {"target": ["1", "3", "2", "4", "10", "12", "10", "11", "5", "6"], "time": [1697, 2147, 2923, 2992, 3907, 3989, 4842, 4885, 5788, 6217]}, "edge": {"target": [], "time": []}}, "mouseout": {"state": {"target": ["5", "0", "1", "3", "2", "4", "10", "12", "10", "11", "5", "6", "8"], "time": [712, 1639, 1715, 2894, 2964, 3708, 3932, 4824, 4882, 5523, 6183, 6281, 9549]}, "edge": {"target": [], "time": []}}}, "displayed_time": "9.37", "trialTime": 10549, "trial_type": "mouselab-mdp", "trial_index": 64, "time_elapsed": 1086561, "internal_node_id": "0.0-4.0-3.0-24.0"}}, {"uniqueid": "w61811498:a19501231", "current_trial": 65, "dateTime": 1664464991077, "trialdata": {"revealed_states": [], "num_clicks_accrued": [0, 0, 0, 0, 0, 0, 0, 0, 0, 0, 0, 0, 0], "stateRewards": ["", 2, -8, 24, 24, 2, 4, -48, -48, 4, 4, -24, 48], "withholdReward": true, "trial_id": "mdp_985707010949", "block": "test2", "trialIndex": 57, "score": 60.25, "costs": -0.75, "simulationMode": [null, null, null], "rewards": [4, 4, 48], "path": ["0", "0", "9", "10", "12"], "rt": [4339, 278, 83], "actions": ["left", "left", "down"], "actionTimes": [6091, 6889, 7495], "queries": {"click": {"state": {"target": ["7", "8", "12"], "time": [2790, 3839, 5143]}, "edge": {"target": [], "time": []}}, "mouseover": {"state": {"target": ["7", "5", "8", "12", "9"], "time": [2509, 3437, 3501, 4439, 5589]}, "edge": {"target": [], "time": []}}, "mouseout": {"state": {"target": ["0", "7", "5", "8", "12", "9"], "time": [2306, 3210, 3472, 4349, 5379, 5608]}, "edge": {"target": [], "time": []}}}, "displayed_time": "9.85", "trialTime": 13492, "trial_type": "mouselab-mdp", "trial_index": 65, "time_elapsed": 1100247, "internal_node_id": "0.0-4.0-3.0-25.0"}}, {"uniqueid": "w61811498:a19501231", "current_trial": 66, "dateTime": 1664465003948, "trialdata": {"revealed_states": [], "num_clicks_accrued": [0, 0, 0, 0, 0, 0, 0, 0, 0, 0, 0, 0, 0], "stateRewards": ["", -2, 8, -48, 48, -4, 8, -24, 24, 4, -4, 24, -48], "withholdReward": false, "trial_id": "mdp_904238083902", "block": "test2", "trialIndex": 58, "score": 32, "costs": -1, "simulationMode": [null, null, null], "rewards": [-4, 8, 24], "path": ["0", "0", "5", "6", "8"], "rt": [5767, 132, 74], "actions": ["right", "right", "down"], "actionTimes": [7998, 8661, 9241], "queries": {"click": {"state": {"target": ["7", "12", "11", "8"], "time": [3240, 4330, 5411, 6736]}, "edge": {"target": [], "time": []}}, "mouseover": {"state": {"target": ["7", "5", "12", "8", "0", "11", "5", "8", "8"], "time": [2982, 3749, 4031, 4774, 4931, 5147, 5890, 5951, 6423]}, "edge": {"target": [], "time": []}}, "mouseout": {"state": {"target": ["0", "7", "5", "12", "8", "0", "11", "5", "8", "8"], "time": [2657, 3706, 3767, 4682, 4856, 4953, 5834, 5909, 6104, 7090]}, "edge": {"target": [], "time": []}}}, "displayed_time": "11.42", "trialTime": 12650, "trial_type": "mouselab-mdp", "trial_index": 66, "time_elapsed": 1113119, "internal_node_id": "0.0-4.0-3.0-26.0"}}, {"uniqueid": "w61811498:a19501231", "current_trial": 67, "dateTime": 1664465014498, "trialdata": {"revealed_states": [], "num_clicks_accrued": [0, 0, 0, 0, 0, 0, 0, 0, 0, 0, 0, 0, 0], "stateRewards": ["", 4, -8, 24, 48, 2, -4, 48, 48, 4, -8, 48, 48], "withholdReward": true, "trial_id": "mdp_962498334245", "block": "test2", "trialIndex": 59, "score": 48.5, "costs": -0.5, "simulationMode": [null, null, null], "rewards": [4, -8, 48], "path": ["0", "0", "9", "10", "11"], "rt": [3504, 148, 111], "actions": ["left", "left", "up"], "actionTimes": [4945, 5604, 6239], "queries": {"click": {"state": {"target": ["3", "11"], "time": [2656, 3953]}, "edge": {"target": [], "time": []}}, "mouseover": {"state": {"target": ["1", "3", "3", "1", "10", "11", "11", "11", "9"], "time": [1968, 2075, 2448, 3078, 3250, 3318, 3441, 3698, 4327]}, "edge": {"target": [], "time": []}}, "mouseout": {"state": {"target": ["0", "1", "3", "3", "1", "10", "11", "11", "11", "9", "9", "0"], "time": [1082, 2002, 2133, 3054, 3117, 3298, 3391, 3531, 4307, 4367, 7970, 8216]}, "edge": {"target": [], "time": []}}}, "displayed_time": "9.54", "trialTime": 10258, "trial_type": "mouselab-mdp", "trial_index": 67, "time_elapsed": 1123668, "internal_node_id": "0.0-4.0-3.0-27.0"}}, {"uniqueid": "w61811498:a19501231", "current_trial": 68, "dateTime": 1664465024894, "trialdata": {"revealed_states": [], "num_clicks_accrued": [0, 0, 0, 0, 0, 0, 0, 0, 0, 0, 0, 0, 0], "stateRewards": ["", 2, 4, -48, 24, -4, -4, -24, 24, 2, -4, 24, -24], "withholdReward": true, "trial_id": "mdp_163600331068", "block": "test2", "trialIndex": 60, "score": 20, "costs": -1, "simulationMode": [null, null, null], "rewards": [-4, -4, 24], "path": ["0", "0", "5", "6", "8"], "rt": [6240, 82, 66], "actions": ["right", "right", "down"], "actionTimes": [7441, 8055, 8652], "queries": {"click": {"state": {"target": ["11", "8", "7", "12"], "time": [2143, 3421, 4294, 6351]}, "edge": {"target": [], "time": []}}, "mouseover": {"state": {"target": ["9", "11", "10", "8", "8", "6", "7", "5", "12", "12", "12"], "time": [1722, 1815, 2624, 2884, 3177, 3981, 4055, 5038, 5151, 5517, 5925]}, "edge": {"target": [], "time": []}}, "mouseout": {"state": {"target": ["0", "9", "11", "10", "8", "8", "6", "7", "5", "12", "12", "12"], "time": [1685, 1800, 2599, 2676, 2903, 3945, 4047, 4992, 5094, 5203, 5675, 6967]}, "edge": {"target": [], "time": []}}}, "displayed_time": "9.28", "trialTime": 10075, "trial_type": "mouselab-mdp", "trial_index": 68, "time_elapsed": 1134065, "internal_node_id": "0.0-4.0-3.0-28.0"}}, {"uniqueid": "w61811498:a19501231", "current_trial": 69, "dateTime": 1664465037627, "trialdata": {"revealed_states": [], "num_clicks_accrued": [0, 0, 0, 0, 0, 0, 0, 0, 0, 0, 0, 0, 0], "stateRewards": ["", -4, -8, 24, 48, 2, -4, -24, 24, -4, 8, 48, 48], "withholdReward": false, "trial_id": "mdp_496672670022", "block": "test2", "trialIndex": 61, "score": 56.5, "costs": -0.5, "simulationMode": [null, null, null], "rewards": [-4, 8, 48], "path": ["0", "0", "9", "10", "11"], "rt": [2962, 88, 52], "actions": ["left", "left", "up"], "actionTimes": [5529, 6135, 6699], "queries": {"click": {"state": {"target": ["3", "11"], "time": [3655, 4613]}, "edge": {"target": [], "time": []}}, "mouseover": {"state": {"target": ["1", "2", "3", "2", "11", "10", "12"], "time": [3115, 3187, 3386, 4112, 4244, 4980, 5154]}, "edge": {"target": [], "time": []}}, "mouseout": {"state": {"target": ["0", "1", "2", "3", "2", "11", "10", "12"], "time": [3082, 3137, 3302, 4086, 4141, 4954, 5021, 9873]}, "edge": {"target": [], "time": []}}}, "displayed_time": "11.67", "trialTime": 12525, "trial_type": "mouselab-mdp", "trial_index": 69, "time_elapsed": 1146798, "internal_node_id": "0.0-4.0-3.0-29.0"}}, {"uniqueid": "w61811498:a19501231", "current_trial": 70, "dateTime": 1664465039857, "trialdata": {"rt": 2221, "stimulus": "<h1> End of block! </h1>\n\nYou have reached the end of the block 2/4. If you need a short break, feel free to take one now before moving on.\n\n<br><br>\nIn the next block, you will complete another 30 rounds of this game.\n\n<br><br>\n<div style='text-align: center;'>Press <code>space</code> to begin.</div>\n<br><br>\n<div style='text-align: center;'>(If the experiment doesn't continue, try clicking on the text and then pressing <code>space</code>.)</div>", "response": " ", "trial_id": "mdp_ready_3", "trial_type": "html-keyboard-response", "trial_index": 70, "time_elapsed": 1149027, "internal_node_id": "0.0-4.0-4.0"}}, {"uniqueid": "w61811498:a19501231", "current_trial": 71, "dateTime": 1664465053984, "trialdata": {"revealed_states": [], "num_clicks_accrued": [0, 0, 0, 0, 0, 0, 0, 0, 0, 0, 0, 0, 0], "stateRewards": ["", -4, -8, -24, -48, -2, -8, 24, -48, -4, -8, 24, -48], "withholdReward": true, "trial_id": "mdp_621812384092", "block": "test3", "trialIndex": 62, "score": 16, "costs": -1, "simulationMode": [null, null, null], "rewards": [-4, -8, 24], "path": ["0", "0", "9", "10", "11"], "rt": [7892, 50, 1064], "actions": ["left", "left", "up"], "actionTimes": [10001, 10568, 12150], "queries": {"click": {"state": {"target": ["3", "12", "11", "4"], "time": [4841, 6065, 7273, 8437]}, "edge": {"target": [], "time": []}}, "mouseover": {"state": {"target": ["3", "10", "12", "9", "1", "5", "5", "11", "9", "0", "0", "4", "4", "1"], "time": [4582, 5449, 5574, 6412, 6471, 6564, 6785, 6876, 7662, 7696, 7808, 7866, 8189, 8795]}, "edge": {"target": [], "time": []}}, "mouseout": {"state": {"target": ["0", "3", "10", "12", "9", "1", "5", "5", "11", "9", "0", "0", "4", "4", "1"], "time": [1383, 5243, 5533, 6376, 6434, 6513, 6589, 6802, 7635, 7692, 7736, 7828, 7890, 8757, 8818]}, "edge": {"target": [], "time": []}}}, "displayed_time": "12.68", "trialTime": 13937, "trial_type": "mouselab-mdp", "trial_index": 71, "time_elapsed": 1163155, "internal_node_id": "0.0-4.0-5.0-0.0"}}, {"uniqueid": "w61811498:a19501231", "current_trial": 72, "dateTime": 1664465065357, "trialdata": {"revealed_states": [], "num_clicks_accrued": [0, 0, 0, 0, 0, 0, 0, 0, 0, 0, 0, 0, 0], "stateRewards": ["", -4, 4, -48, -48, -4, 8, -24, 24, 2, -4, 48, 48], "withholdReward": true, "trial_id": "mdp_821566905048", "block": "test3", "trialIndex": 63, "score": 50.25, "costs": -0.75, "simulationMode": [null, null, null], "rewards": [2, -4, 48], "path": ["0", "0", "9", "10", "11"], "rt": [5439, 102, 21], "actions": ["left", "left", "up"], "actionTimes": [6431, 7041, 7576], "queries": {"click": {"state": {"target": ["8", "7", "11"], "time": [2215, 3848, 5474]}, "edge": {"target": [], "time": []}}, "mouseover": {"state": {"target": ["8", "6", "7", "9", "10", "12", "10", "11", "10", "12", "12"], "time": [1824, 2723, 3591, 4304, 4359, 4600, 4833, 5089, 5850, 5927, 6064]}, "edge": {"target": [], "time": []}}, "mouseout": {"state": {"target": ["0", "8", "6", "7", "9", "10", "12", "10", "11", "10", "12", "12"], "time": [1748, 2703, 2757, 4207, 4324, 4559, 4808, 4870, 5831, 5885, 5969, 6081]}, "edge": {"target": [], "time": []}}}, "displayed_time": "9.10", "trialTime": 11174, "trial_type": "mouselab-mdp", "trial_index": 72, "time_elapsed": 1174527, "internal_node_id": "0.0-4.0-5.0-1.0"}}, {"uniqueid": "w61811498:a19501231", "current_trial": 73, "dateTime": 1664465076517, "trialdata": {"revealed_states": [], "num_clicks_accrued": [0, 0, 0, 0, 0, 0, 0, 0, 0, 0, 0, 0, 0], "stateRewards": ["", -2, 8, -48, -24, -2, 8, 48, -48, -4, 8, 24, 48], "withholdReward": true, "trial_id": "mdp_160707003673", "block": "test3", "trialIndex": 64, "score": 58.75, "costs": -0.25, "simulationMode": [null, null, null], "rewards": [-2, 8, 48], "path": ["0", "0", "5", "6", "7"], "rt": [1886, 96, 157], "actions": ["right", "right", "up"], "actionTimes": [3975, 4590, 5264], "queries": {"click": {"state": {"target": ["7"], "time": [3212]}, "edge": {"target": [], "time": []}}, "mouseover": {"state": {"target": ["7", "6"], "time": [2939, 3656]}, "edge": {"target": [], "time": []}}, "mouseout": {"state": {"target": ["0", "7", "6", "8"], "time": [2419, 3638, 3699, 9006]}, "edge": {"target": [], "time": []}}}, "displayed_time": "10.19", "trialTime": 10883, "trial_type": "mouselab-mdp", "trial_index": 73, "time_elapsed": 1185687, "internal_node_id": "0.0-4.0-5.0-2.0"}}, {"uniqueid": "w61811498:a19501231", "current_trial": 74, "dateTime": 1664465089621, "trialdata": {"revealed_states": [], "num_clicks_accrued": [0, 0, 0, 0, 0, 0, 0, 0, 0, 0, 0, 0, 0], "stateRewards": ["", 2, -8, 24, -24, -2, 8, -48, -48, 2, -8, -24, -48], "withholdReward": false, "trial_id": "mdp_744278669205", "block": "test3", "trialIndex": 65, "score": 22, "costs": -1, "simulationMode": [null, null, null], "rewards": [2, -8, 24], "path": ["0", "0", "1", "2", "3"], "rt": [7598, 1116, 193], "actions": ["up", "up", "right"], "actionTimes": [8965, 10597, 11301], "queries": {"click": {"state": {"target": ["12", "11", "7", "3"], "time": [2171, 3585, 4602, 6972]}, "edge": {"target": [], "time": []}}, "mouseover": {"state": {"target": ["12", "5", "11", "6", "7", "6", "8", "5", "2", "3", "6", "8", "6", "3"], "time": [1906, 3014, 3258, 4023, 4334, 5028, 5291, 5483, 5540, 5872, 6248, 6448, 6492, 6550]}, "edge": {"target": [], "time": []}}, "mouseout": {"state": {"target": ["0", "0", "12", "5", "11", "6", "7", "6", "8", "5", "2", "3", "6", "8", "6", "3"], "time": [617, 1778, 2579, 3050, 3934, 4308, 4994, 5050, 5458, 5509, 5566, 6178, 6263, 6477, 6521, 7327]}, "edge": {"target": [], "time": []}}}, "displayed_time": "11.83", "trialTime": 12806, "trial_type": "mouselab-mdp", "trial_index": 74, "time_elapsed": 1198792, "internal_node_id": "0.0-4.0-5.0-3.0"}}, {"uniqueid": "w61811498:a19501231", "current_trial": 75, "dateTime": 1664465100155, "trialdata": {"revealed_states": [], "num_clicks_accrued": [0, 0, 0, 0, 0, 0, 0, 0, 0, 0, 0, 0, 0], "stateRewards": ["", 2, 8, 48, -24, -4, 4, 48, 24, -2, 8, 24, 24], "withholdReward": true, "trial_id": "mdp_123436106791", "block": "test3", "trialIndex": 66, "score": 52, "costs": -1, "simulationMode": [null, null, null], "rewards": [-4, 4, 48], "path": ["0", "0", "5", "6", "7"], "rt": [5276, 137, 134], "actions": ["right", "right", "up"], "actionTimes": [6549, 7229, 7880], "queries": {"click": {"state": {"target": ["8", "11", "12", "7"], "time": [2184, 3827, 4619, 5821]}, "edge": {"target": [], "time": []}}, "mouseover": {"state": {"target": ["0", "5", "8", "7", "9", "10", "11", "10", "12", "9", "7", "6"], "time": [1785, 1849, 1890, 2849, 3037, 3178, 3579, 4254, 4385, 5023, 5111, 6151]}, "edge": {"target": [], "time": []}}, "mouseout": {"state": {"target": ["0", "0", "5", "8", "7", "9", "10", "11", "10", "12", "9", "7", "6"], "time": [896, 1822, 1883, 2789, 2945, 3071, 3245, 4214, 4339, 4998, 5055, 6124, 6183]}, "edge": {"target": [], "time": []}}}, "displayed_time": "9.42", "trialTime": 10319, "trial_type": "mouselab-mdp", "trial_index": 75, "time_elapsed": 1209324, "internal_node_id": "0.0-4.0-5.0-4.0"}}, {"uniqueid": "w61811498:a19501231", "current_trial": 76, "dateTime": 1664465111580, "trialdata": {"revealed_states": [], "num_clicks_accrued": [0, 0, 0, 0, 0, 0, 0, 0, 0, 0, 0, 0, 0], "stateRewards": ["", -2, -8, 24, -24, 4, -8, 48, 48, -4, -8, -24, -48], "withholdReward": false, "trial_id": "mdp_286767261523", "block": "test3", "trialIndex": 67, "score": 48, "costs": -1, "simulationMode": [null, null, null], "rewards": [4, -8, 48], "path": ["0", "0", "5", "6", "8"], "rt": [4718, 95, 60], "actions": ["right", "right", "down"], "actionTimes": [5880, 6502, 7098], "queries": {"click": {"state": {"target": ["11", "12", "3", "8"], "time": [1911, 2642, 3874, 5258]}, "edge": {"target": [], "time": []}}, "mouseover": {"state": {"target": ["11", "10", "12", "10", "2", "3", "3", "5", "8", "8"], "time": [1621, 2291, 2363, 2971, 3104, 3164, 3611, 4345, 4595, 4795]}, "edge": {"target": [], "time": []}}, "mouseout": {"state": {"target": ["0", "11", "10", "12", "10", "2", "3", "3", "5", "8", "8"], "time": [1525, 2272, 2325, 2951, 3006, 3123, 3247, 4246, 4387, 4610, 5614]}, "edge": {"target": [], "time": []}}}, "displayed_time": "10.29", "trialTime": 11129, "trial_type": "mouselab-mdp", "trial_index": 76, "time_elapsed": 1220751, "internal_node_id": "0.0-4.0-5.0-5.0"}}, {"uniqueid": "w61811498:a19501231", "current_trial": 77, "dateTime": 1664465123062, "trialdata": {"revealed_states": [], "num_clicks_accrued": [0, 0, 0, 0, 0, 0, 0, 0, 0, 0, 0, 0, 0], "stateRewards": ["", 2, -8, -24, 48, -4, -8, 24, -48, 4, -8, -24, -24], "withholdReward": true, "trial_id": "mdp_928911266656", "block": "test3", "trialIndex": 68, "score": 46.25, "costs": -0.75, "simulationMode": [null, null, null], "rewards": [2, -8, 48], "path": ["0", "0", "1", "2", "4"], "rt": [3839, 143, 83], "actions": ["up", "up", "left"], "actionTimes": [4946, 5624, 6215], "queries": {"click": {"state": {"target": ["11", "3", "4"], "time": [1964, 2891, 4005]}, "edge": {"target": [], "time": []}}, "mouseover": {"state": {"target": ["9", "11", "2", "3", "2", "4"], "time": [1498, 1679, 2494, 2543, 3391, 3624]}, "edge": {"target": [], "time": []}}, "mouseout": {"state": {"target": ["0", "9", "11", "2", "3", "2", "4"], "time": [763, 1517, 2447, 2540, 3359, 3438, 4370]}, "edge": {"target": [], "time": []}}}, "displayed_time": "9.16", "trialTime": 11204, "trial_type": "mouselab-mdp", "trial_index": 77, "time_elapsed": 1232233, "internal_node_id": "0.0-4.0-5.0-6.0"}}, {"uniqueid": "w61811498:a19501231", "current_trial": 78, "dateTime": 1664465134212, "trialdata": {"revealed_states": [], "num_clicks_accrued": [0, 0, 0, 0, 0, 0, 0, 0, 0, 0, 0, 0, 0], "stateRewards": ["", -4, 8, -24, 24, -2, -8, 24, -24, 4, -4, -48, 48], "withholdReward": true, "trial_id": "mdp_297684722007", "block": "test3", "trialIndex": 69, "score": 52.75, "costs": -0.25, "simulationMode": [null, null, null], "rewards": [4, -4, 48], "path": ["0", "0", "9", "10", "12"], "rt": [1863, 232, 93], "actions": ["left", "left", "down"], "actionTimes": [2927, 3691, 4313], "queries": {"click": {"state": {"target": ["12"], "time": [1958]}, "edge": {"target": [], "time": []}}, "mouseover": {"state": {"target": ["12"], "time": [1750]}, "edge": {"target": [], "time": []}}, "mouseout": {"state": {"target": ["0", "12"], "time": [1545, 5194]}, "edge": {"target": [], "time": []}}}, "displayed_time": "10.16", "trialTime": 10925, "trial_type": "mouselab-mdp", "trial_index": 78, "time_elapsed": 1243383, "internal_node_id": "0.0-4.0-5.0-7.0"}}, {"uniqueid": "w61811498:a19501231", "current_trial": 79, "dateTime": 1664465147632, "trialdata": {"revealed_states": [], "num_clicks_accrued": [0, 0, 0, 0, 0, 0, 0, 0, 0, 0, 0, 0, 0], "stateRewards": ["", -4, -4, -24, -48, -4, 8, -24, -48, 4, -8, 24, -24], "withholdReward": true, "trial_id": "mdp_924927483179", "block": "test3", "trialIndex": 70, "score": 24, "costs": -1, "simulationMode": [null, null, null], "rewards": [4, -8, 24], "path": ["0", "0", "9", "10", "11"], "rt": [6101, 136, 449], "actions": ["left", "left", "up"], "actionTimes": [8933, 9576, 10558], "queries": {"click": {"state": {"target": ["8", "12", "3", "11"], "time": [4224, 5390, 6656, 7536]}, "edge": {"target": [], "time": []}}, "mouseover": {"state": {"target": ["5", "6", "8", "12", "10", "2", "3", "3", "1", "11", "1", "7"], "time": [3606, 3676, 3961, 5054, 5952, 6096, 6171, 6345, 7096, 7204, 7922, 7996]}, "edge": {"target": [], "time": []}}, "mouseout": {"state": {"target": ["8", "5", "5", "6", "8", "12", "10", "2", "3", "3", "1", "11", "1", "7"], "time": [2228, 2279, 3654, 3763, 4714, 5917, 6022, 6137, 6229, 7030, 7130, 7873, 7939, 8030]}, "edge": {"target": [], "time": []}}}, "displayed_time": "12.04", "trialTime": 13198, "trial_type": "mouselab-mdp", "trial_index": 79, "time_elapsed": 1256803, "internal_node_id": "0.0-4.0-5.0-8.0"}}, {"uniqueid": "w61811498:a19501231", "current_trial": 80, "dateTime": 1664465161698, "trialdata": {"revealed_states": [], "num_clicks_accrued": [0, 0, 0, 0, 0, 0, 0, 0, 0, 0, 0, 0, 0], "stateRewards": ["", 2, -8, 24, 24, 2, 4, -48, -48, 4, 4, -24, 48], "withholdReward": true, "trial_id": "mdp_985707010949", "block": "test3", "trialIndex": 71, "score": 60.5, "costs": -0.5, "simulationMode": [null, null, null], "rewards": [4, 4, 48], "path": ["0", "0", "9", "10", "12"], "rt": [2689, 169, 27], "actions": ["left", "left", "down"], "actionTimes": [4155, 4837, 5394], "queries": {"click": {"state": {"target": ["7", "12"], "time": [2201, 3166]}, "edge": {"target": [], "time": []}}, "mouseover": {"state": {"target": ["7", "5", "0", "12", "9"], "time": [1933, 2713, 2746, 2850, 3744]}, "edge": {"target": [], "time": []}}, "mouseout": {"state": {"target": ["0", "7", "5", "0", "12", "9", "0", "0"], "time": [1793, 2686, 2743, 2785, 3694, 3763, 9112, 13187]}, "edge": {"target": [], "time": []}}}, "displayed_time": "10.59", "trialTime": 13818, "trial_type": "mouselab-mdp", "trial_index": 80, "time_elapsed": 1270869, "internal_node_id": "0.0-4.0-5.0-9.0"}}, {"uniqueid": "w61811498:a19501231", "current_trial": 81, "dateTime": 1664465173127, "trialdata": {"revealed_states": [], "num_clicks_accrued": [0, 0, 0, 0, 0, 0, 0, 0, 0, 0, 0, 0, 0], "stateRewards": ["", 4, -4, 24, 48, 4, 8, -24, -24, -2, 4, 48, 48], "withholdReward": true, "trial_id": "mdp_624998450453", "block": "test3", "trialIndex": 72, "score": 54.75, "costs": -0.25, "simulationMode": [null, null, null], "rewards": [-2, 4, 48], "path": ["0", "0", "9", "10", "12"], "rt": [1935, 145, 36], "actions": ["left", "left", "down"], "actionTimes": [3097, 3754, 4328], "queries": {"click": {"state": {"target": ["12"], "time": [2261]}, "edge": {"target": [], "time": []}}, "mouseover": {"state": {"target": ["9", "12"], "time": [1795, 2056]}, "edge": {"target": [], "time": []}}, "mouseout": {"state": {"target": ["1", "0", "9", "12", "0"], "time": [630, 1774, 1865, 2709, 5343]}, "edge": {"target": [], "time": []}}}, "displayed_time": "10.30", "trialTime": 11221, "trial_type": "mouselab-mdp", "trial_index": 81, "time_elapsed": 1282298, "internal_node_id": "0.0-4.0-5.0-10.0"}}, {"uniqueid": "w61811498:a19501231", "current_trial": 82, "dateTime": 1664465185558, "trialdata": {"revealed_states": [], "num_clicks_accrued": [0, 0, 0, 0, 0, 0, 0, 0, 0, 0, 0, 0, 0], "stateRewards": ["", 2, 4, -48, -24, -4, 4, -24, 24, -2, -8, -24, 24], "withholdReward": true, "trial_id": "mdp_640720803523", "block": "test3", "trialIndex": 73, "score": 28, "costs": -1, "simulationMode": [null, null, null], "rewards": [-4, 4, 24], "path": ["0", "0", "5", "6", "8"], "rt": [4940, 216, 38], "actions": ["right", "right", "down"], "actionTimes": [5969, 6709, 7279], "queries": {"click": {"state": {"target": ["8", "11", "12", "7"], "time": [1834, 3042, 4026, 5132]}, "edge": {"target": [], "time": []}}, "mouseover": {"state": {"target": ["8", "5", "1", "10", "10", "11", "10", "12", "9", "7"], "time": [1560, 2376, 2441, 2565, 2697, 2785, 3566, 3755, 4464, 4822]}, "edge": {"target": [], "time": []}}, "mouseout": {"state": {"target": ["0", "8", "5", "1", "10", "10", "11", "10", "12", "9", "7", "5"], "time": [1471, 2336, 2399, 2479, 2613, 2764, 3531, 3609, 4444, 4499, 10894, 11031]}, "edge": {"target": [], "time": []}}}, "displayed_time": "10.26", "trialTime": 12233, "trial_type": "mouselab-mdp", "trial_index": 82, "time_elapsed": 1294729, "internal_node_id": "0.0-4.0-5.0-11.0"}}, {"uniqueid": "w61811498:a19501231", "current_trial": 83, "dateTime": 1664465198989, "trialdata": {"revealed_states": [], "num_clicks_accrued": [0, 0, 0, 0, 0, 0, 0, 0, 0, 0, 0, 0, 0], "stateRewards": ["", -4, 4, 24, 24, -2, 8, 24, -48, 4, -8, -24, -48], "withholdReward": true, "trial_id": "mdp_651542905861", "block": "test3", "trialIndex": 74, "score": -24, "costs": -1, "simulationMode": [null, null, null], "rewards": [4, -8, -24], "path": ["0", "0", "9", "10", "11"], "rt": [6791, 2232, 347], "actions": ["left", "left", "up"], "actionTimes": [7948, 10698, 11555], "queries": {"click": {"state": {"target": ["11", "3", "12", "8"], "time": [2087, 3379, 5209, 6843]}, "edge": {"target": [], "time": []}}, "mouseover": {"state": {"target": ["9", "11", "3", "1", "9", "12", "12", "8", "8"], "time": [1672, 1806, 3116, 3872, 3907, 3982, 4905, 5724, 5913]}, "edge": {"target": [], "time": []}}, "mouseout": {"state": {"target": ["0", "9", "11", "3", "1", "9", "12", "12", "8", "8"], "time": [773, 1739, 2591, 3851, 3906, 3941, 4106, 5642, 5765, 12692]}, "edge": {"target": [], "time": []}}}, "displayed_time": "12.07", "trialTime": 13147, "trial_type": "mouselab-mdp", "trial_index": 83, "time_elapsed": 1308159, "internal_node_id": "0.0-4.0-5.0-12.0"}}, {"uniqueid": "w61811498:a19501231", "current_trial": 84, "dateTime": 1664465210736, "trialdata": {"revealed_states": [], "num_clicks_accrued": [0, 0, 0, 0, 0, 0, 0, 0, 0, 0, 0, 0, 0], "stateRewards": ["", 4, 4, -48, -48, 4, 4, -24, -24, -4, 8, -48, 24], "withholdReward": false, "trial_id": "mdp_669785455541", "block": "test3", "trialIndex": 75, "score": 31.5, "costs": -1.5, "simulationMode": [null, null, null], "rewards": [-4, 8, 24], "path": ["0", "0", "9", "10", "12"], "rt": [7328, 61, 112], "actions": ["left", "left", "down"], "actionTimes": [8444, 9036, 9657], "queries": {"click": {"state": {"target": ["8", "7", "12", "11", "4", "3"], "time": [2044, 2802, 3852, 5313, 6383, 7710]}, "edge": {"target": [], "time": []}}, "mouseover": {"state": {"target": ["5", "8", "6", "7", "9", "12", "10", "11", "4", "4", "2", "3", "5"], "time": [1646, 1755, 2521, 2595, 3243, 3609, 4303, 5036, 5750, 6125, 6745, 7451, 8136]}, "edge": {"target": [], "time": []}}, "mouseout": {"state": {"target": ["0", "5", "8", "6", "7", "9", "12", "10", "11", "4", "4", "2", "3", "5"], "time": [752, 1717, 2501, 2556, 3190, 3261, 4277, 4338, 5667, 5825, 6717, 6773, 8089, 8171]}, "edge": {"target": [], "time": []}}}, "displayed_time": "10.18", "trialTime": 11455, "trial_type": "mouselab-mdp", "trial_index": 84, "time_elapsed": 1319906, "internal_node_id": "0.0-4.0-5.0-13.0"}}, {"uniqueid": "w61811498:a19501231", "current_trial": 85, "dateTime": 1664465222891, "trialdata": {"revealed_states": [], "num_clicks_accrued": [0, 0, 0, 0, 0, 0, 0, 0, 0, 0, 0, 0, 0], "stateRewards": ["", -4, 8, -48, -48, -2, -8, -24, -48, 2, -4, -48, 24], "withholdReward": true, "trial_id": "mdp_743906784415", "block": "test3", "trialIndex": 76, "score": 25.5, "costs": -1.5, "simulationMode": [null, null, null], "rewards": [2, -4, 24], "path": ["0", "0", "9", "10", "12"], "rt": [6356, 165, 144], "actions": ["left", "left", "down"], "actionTimes": [7486, 8170, 8840], "queries": {"click": {"state": {"target": ["11", "12", "4", "3", "7", "8"], "time": [1946, 3137, 4059, 5179, 5861, 6631]}, "edge": {"target": [], "time": []}}, "mouseover": {"state": {"target": ["9", "11", "10", "12", "10", "4", "2", "3", "7", "6", "8"], "time": [1603, 1688, 2466, 2593, 3513, 3653, 4432, 4890, 5594, 6227, 6310]}, "edge": {"target": [], "time": []}}, "mouseout": {"state": {"target": ["0", "9", "11", "10", "12", "10", "4", "2", "3", "7", "6", "8"], "time": [1563, 1675, 2435, 2520, 3493, 3554, 4406, 4493, 5543, 6199, 6254, 10012]}, "edge": {"target": [], "time": []}}}, "displayed_time": "10.27", "trialTime": 11928, "trial_type": "mouselab-mdp", "trial_index": 85, "time_elapsed": 1332062, "internal_node_id": "0.0-4.0-5.0-14.0"}}, {"uniqueid": "w61811498:a19501231", "current_trial": 86, "dateTime": 1664465233427, "trialdata": {"revealed_states": [], "num_clicks_accrued": [0, 0, 0, 0, 0, 0, 0, 0, 0, 0, 0, 0, 0], "stateRewards": ["", -4, 4, -24, 24, -2, -4, 48, 24, 2, 8, -48, 24], "withholdReward": true, "trial_id": "mdp_150340189492", "block": "test3", "trialIndex": 77, "score": 46.25, "costs": -0.75, "simulationMode": [null, null, null], "rewards": [-2, -4, 48], "path": ["0", "0", "5", "6", "7"], "rt": [3573, 28, 427], "actions": ["right", "right", "up"], "actionTimes": [4806, 5359, 6311], "queries": {"click": {"state": {"target": ["11", "12", "7"], "time": [2102, 2937, 4018]}, "edge": {"target": [], "time": []}}, "mouseover": {"state": {"target": ["11", "10", "12", "9", "7", "6", "8"], "time": [1817, 2577, 2692, 3363, 3701, 4402, 4469]}, "edge": {"target": [], "time": []}}, "mouseout": {"state": {"target": ["0", "11", "10", "12", "9", "7", "6", "8"], "time": [916, 2541, 2634, 3334, 3395, 4361, 4450, 9386]}, "edge": {"target": [], "time": []}}}, "displayed_time": "9.49", "trialTime": 10320, "trial_type": "mouselab-mdp", "trial_index": 86, "time_elapsed": 1342598, "internal_node_id": "0.0-4.0-5.0-15.0"}}, {"uniqueid": "w61811498:a19501231", "current_trial": 87, "dateTime": 1664465245026, "trialdata": {"revealed_states": [], "num_clicks_accrued": [0, 0, 0, 0, 0, 0, 0, 0, 0, 0, 0, 0, 0], "stateRewards": ["", 2, -4, -24, -48, -2, 8, -24, 48, -2, 8, 24, -48], "withholdReward": true, "trial_id": "mdp_566582551557", "block": "test3", "trialIndex": 78, "score": 58, "costs": -1, "simulationMode": [null, null, null], "rewards": [-2, 8, 48], "path": ["0", "0", "5", "6", "8"], "rt": [5101, 109, 593], "actions": ["right", "right", "down"], "actionTimes": [6529, 7149, 8273], "queries": {"click": {"state": {"target": ["12", "11", "7", "8"], "time": [2502, 3545, 4573, 5730]}, "edge": {"target": [], "time": []}}, "mouseover": {"state": {"target": ["12", "10", "11", "1", "7", "6", "8", "8"], "time": [2169, 3240, 3275, 4053, 4235, 4989, 5102, 5503]}, "edge": {"target": [], "time": []}}, "mouseout": {"state": {"target": ["0", "12", "10", "11", "1", "7", "6", "8", "8"], "time": [2031, 3192, 3272, 4011, 4071, 4969, 5031, 5177, 6229]}, "edge": {"target": [], "time": []}}}, "displayed_time": "10.54", "trialTime": 11380, "trial_type": "mouselab-mdp", "trial_index": 87, "time_elapsed": 1354197, "internal_node_id": "0.0-4.0-5.0-16.0"}}, {"uniqueid": "w61811498:a19501231", "current_trial": 88, "dateTime": 1664465259754, "trialdata": {"revealed_states": [], "num_clicks_accrued": [0, 0, 0, 0, 0, 0, 0, 0, 0, 0, 0, 0, 0], "stateRewards": ["", -2, -8, 48, 24, 2, 4, 24, -24, -2, -4, 48, -48], "withholdReward": true, "trial_id": "mdp_411152402386", "block": "test3", "trialIndex": 79, "score": 34, "costs": -1, "simulationMode": [null, null, null], "rewards": [2, 4, 24], "path": ["0", "0", "5", "6", "7"], "rt": [5949, 36, 81], "actions": ["right", "right", "up"], "actionTimes": [7232, 7803, 8399], "queries": {"click": {"state": {"target": ["4", "12", "8", "7"], "time": [2178, 3424, 5176, 5924]}, "edge": {"target": [], "time": []}}, "mouseover": {"state": {"target": ["4", "12", "8", "8", "6", "7", "1"], "time": [1946, 3121, 3988, 4892, 5558, 5638, 6654]}, "edge": {"target": [], "time": []}}, "mouseout": {"state": {"target": ["0", "4", "12", "8", "8", "6", "7", "1", "0"], "time": [867, 2623, 3870, 4121, 5531, 5589, 6584, 6721, 9929]}, "edge": {"target": [], "time": []}}}, "displayed_time": "9.40", "trialTime": 14502, "trial_type": "mouselab-mdp", "trial_index": 88, "time_elapsed": 1368924, "internal_nod