{"condition": 0, "counterbalance": 0, "assignmentId": "a67111579", "workerId": "w13906838", "hitId": "h15783283", "currenttrial": 959, "bonus": 0, "data": [{"uniqueid": "w13906838:a67111579", "current_trial": 0, "dateTime": 1664555122096, "trialdata": {"success": true, "trial_type": "fullscreen", "trial_index": 0, "time_elapsed": 10349, "internal_node_id": "0.0-0.0"}}, {"uniqueid": "w13906838:a67111579", "current_trial": 1, "dateTime": 1664555133062, "trialdata": {"view_history": [{"page_index": 0, "viewing_time": 10928}], "rt": 10932, "trial_id": "exp_instructions_distractor", "trial_type": "instructions", "trial_index": 1, "time_elapsed": 21319, "internal_node_id": "0.0-1.0"}}, {"uniqueid": "w13906838:a67111579", "current_trial": 2, "dateTime": 1664555192339, "trialdata": {"view_history": [{"page_index": 0, "viewing_time": 59253}], "rt": 59256, "trial_id": "color_game_instructions", "trial_type": "instructions", "trial_index": 2, "time_elapsed": 80596, "internal_node_id": "0.0-2.0"}}, {"uniqueid": "w13906838:a67111579", "current_trial": 3, "dateTime": 1664555200195, "trialdata": {"rt": 7834, "stimulus": "<h1> Get ready to start the game! </h1>\n\nThank you for reading the instructions. Get ready start with the first of 5 block(s) of this game.\n<br><br>\nIn this first block, you will complete 90 rounds of this game before moving on.\n<br><br>\nRemember, the better you perform, the bigger your bonus will be!\n<br><br>\n<div style='text-align: center;'>Press <code>space</code> to begin.</div>", "response": " ", "trial_id": "stroop_1_ready_1", "trial_type": "html-keyboard-response", "trial_index": 3, "time_elapsed": 88451, "internal_node_id": "0.0-3.0"}}, {"uniqueid": "w13906838:a67111579", "current_trial": 4, "dateTime": 1664555202016, "trialdata": {"rt": 1787, "stimulus": "<p id='stroop-text' class='stroop-blue'>CHAIR</p>", "response": "b", "stimulus-type": "unrelated", "word": "CHAIR", "color": "blue", "correct_response": "b", "trial_id": "stroop-trial-1-unrelated-24", "trial_type": "html-keyboard-response", "trial_index": 4, "time_elapsed": 90269, "internal_node_id": "0.0-4.0-0.0"}}, {"uniqueid": "w13906838:a67111579", "current_trial": 5, "dateTime": 1664555203772, "trialdata": {"rt": 1247, "stimulus": "<p id='stroop-text' class='stroop-yellow'>FORK</p>", "response": "y", "stimulus-type": "unrelated", "word": "FORK", "color": "yellow", "correct_response": "y", "trial_id": "stroop-trial-1-unrelated-17", "trial_type": "html-keyboard-response", "trial_index": 5, "time_elapsed": 92027, "internal_node_id": "0.0-4.0-1.0"}}, {"uniqueid": "w13906838:a67111579", "current_trial": 6, "dateTime": 1664555205353, "trialdata": {"rt": 1073, "stimulus": "<p id='stroop-text' class='stroop-blue'>BLUE</p>", "response": "b", "stimulus-type": "congruent", "word": "blue", "color": "blue", "correct_response": "b", "trial_id": "stroop-trial-1-congruent-16", "trial_type": "html-keyboard-response", "trial_index": 6, "time_elapsed": 93609, "internal_node_id": "0.0-4.0-2.0"}}, {"uniqueid": "w13906838:a67111579", "current_trial": 7, "dateTime": 1664555207656, "trialdata": {"rt": 1794, "stimulus": "<p id='stroop-text' class='stroop-green'>YELLOW</p>", "response": "g", "stimulus-type": "incongruent", "word": "yellow", "color": "green", "correct_response": "g", "trial_id": "stroop-trial-1-incongruent-2", "trial_type": "html-keyboard-response", "trial_index": 7, "time_elapsed": 95911, "internal_node_id": "0.0-4.0-3.0"}}, {"uniqueid": "w13906838:a67111579", "current_trial": 8, "dateTime": 1664555209708, "trialdata": {"rt": 1543, "stimulus": "<p id='stroop-text' class='stroop-yellow'>YELLOW</p>", "response": "y", "stimulus-type": "congruent", "word": "yellow", "color": "yellow", "correct_response": "y", "trial_id": "stroop-trial-1-congruent-29", "trial_type": "html-keyboard-response", "trial_index": 8, "time_elapsed": 97963, "internal_node_id": "0.0-4.0-4.0"}}, {"uniqueid": "w13906838:a67111579", "current_trial": 9, "dateTime": 1664555211772, "trialdata": {"rt": 1552, "stimulus": "<p id='stroop-text' class='stroop-green'>GREEN</p>", "response": "g", "stimulus-type": "congruent", "word": "green", "color": "green", "correct_response": "g", "trial_id": "stroop-trial-1-congruent-9", "trial_type": "html-keyboard-response", "trial_index": 9, "time_elapsed": 100028, "internal_node_id": "0.0-4.0-5.0"}}, {"uniqueid": "w13906838:a67111579", "current_trial": 10, "dateTime": 1664555214417, "trialdata": {"rt": 2135, "stimulus": "<p id='stroop-text' class='stroop-blue'>YELLOW</p>", "response": "b", "stimulus-type": "incongruent", "word": "yellow", "color": "blue", "correct_response": "b", "trial_id": "stroop-trial-1-incongruent-13", "trial_type": "html-keyboard-response", "trial_index": 10, "time_elapsed": 102672, "internal_node_id": "0.0-4.0-6.0"}}, {"uniqueid": "w13906838:a67111579", "current_trial": 11, "dateTime": 1664555216100, "trialdata": {"rt": 1173, "stimulus": "<p id='stroop-text' class='stroop-red'>RED</p>", "response": "r", "stimulus-type": "congruent", "word": "red", "color": "red", "correct_response": "r", "trial_id": "stroop-trial-1-congruent-13", "trial_type": "html-keyboard-response", "trial_index": 11, "time_elapsed": 104355, "internal_node_id": "0.0-4.0-7.0"}}, {"uniqueid": "w13906838:a67111579", "current_trial": 12, "dateTime": 1664555217944, "trialdata": {"rt": 1335, "stimulus": "<p id='stroop-text' class='stroop-yellow'>RED</p>", "response": "y", "stimulus-type": "incongruent", "word": "red", "color": "yellow", "correct_response": "y", "trial_id": "stroop-trial-1-incongruent-8", "trial_type": "html-keyboard-response", "trial_index": 12, "time_elapsed": 106199, "internal_node_id": "0.0-4.0-8.0"}}, {"uniqueid": "w13906838:a67111579", "current_trial": 13, "dateTime": 1664555219692, "trialdata": {"rt": 1237, "stimulus": "<p id='stroop-text' class='stroop-green'>BLUE</p>", "response": "b", "stimulus-type": "incongruent", "word": "blue", "color": "green", "correct_response": "g", "trial_id": "stroop-trial-1-incongruent-28", "trial_type": "html-keyboard-response", "trial_index": 13, "time_elapsed": 107947, "internal_node_id": "0.0-4.0-9.0"}}, {"uniqueid": "w13906838:a67111579", "current_trial": 14, "dateTime": 1664555221588, "trialdata": {"rt": 1385, "stimulus": "<p id='stroop-text' class='stroop-green'>GREEN</p>", "response": "g", "stimulus-type": "congruent", "word": "green", "color": "green", "correct_response": "g", "trial_id": "stroop-trial-1-congruent-3", "trial_type": "html-keyboard-response", "trial_index": 14, "time_elapsed": 109843, "internal_node_id": "0.0-4.0-10.0"}}, {"uniqueid": "w13906838:a67111579", "current_trial": 15, "dateTime": 1664555223315, "trialdata": {"rt": 1217, "stimulus": "<p id='stroop-text' class='stroop-yellow'>YELLOW</p>", "response": "y", "stimulus-type": "congruent", "word": "yellow", "color": "yellow", "correct_response": "y", "trial_id": "stroop-trial-1-congruent-23", "trial_type": "html-keyboard-response", "trial_index": 15, "time_elapsed": 111569, "internal_node_id": "0.0-4.0-11.0"}}, {"uniqueid": "w13906838:a67111579", "current_trial": 16, "dateTime": 1664555224939, "trialdata": {"rt": 1112, "stimulus": "<p id='stroop-text' class='stroop-red'>RED</p>", "response": "r", "stimulus-type": "congruent", "word": "red", "color": "red", "correct_response": "r", "trial_id": "stroop-trial-1-congruent-17", "trial_type": "html-keyboard-response", "trial_index": 16, "time_elapsed": 113191, "internal_node_id": "0.0-4.0-12.0"}}, {"uniqueid": "w13906838:a67111579", "current_trial": 17, "dateTime": 1664555227437, "trialdata": {"rt": 1990, "stimulus": "<p id='stroop-text' class='stroop-yellow'>YELLOW</p>", "response": "y", "stimulus-type": "congruent", "word": "yellow", "color": "yellow", "correct_response": "y", "trial_id": "stroop-trial-1-congruent-8", "trial_type": "html-keyboard-response", "trial_index": 17, "time_elapsed": 115693, "internal_node_id": "0.0-4.0-13.0"}}, {"uniqueid": "w13906838:a67111579", "current_trial": 18, "dateTime": 1664555228879, "trialdata": {"rt": 934, "stimulus": "<p id='stroop-text' class='stroop-yellow'>YELLOW</p>", "response": "y", "stimulus-type": "congruent", "word": "yellow", "color": "yellow", "correct_response": "y", "trial_id": "stroop-trial-1-congruent-18", "trial_type": "html-keyboard-response", "trial_index": 18, "time_elapsed": 117135, "internal_node_id": "0.0-4.0-14.0"}}, {"uniqueid": "w13906838:a67111579", "current_trial": 19, "dateTime": 1664555230491, "trialdata": {"rt": 1102, "stimulus": "<p id='stroop-text' class='stroop-blue'>BOAT</p>", "response": "b", "stimulus-type": "unrelated", "word": "BOAT", "color": "blue", "correct_response": "b", "trial_id": "stroop-trial-1-unrelated-14", "trial_type": "html-keyboard-response", "trial_index": 19, "time_elapsed": 118747, "internal_node_id": "0.0-4.0-15.0"}}, {"uniqueid": "w13906838:a67111579", "current_trial": 20, "dateTime": 1664555233162, "trialdata": {"rt": 2162, "stimulus": "<p id='stroop-text' class='stroop-green'>BRIDGE</p>", "response": "g", "stimulus-type": "unrelated", "word": "BRIDGE", "color": "green", "correct_response": "g", "trial_id": "stroop-trial-1-unrelated-18", "trial_type": "html-keyboard-response", "trial_index": 20, "time_elapsed": 121418, "internal_node_id": "0.0-4.0-16.0"}}, {"uniqueid": "w13906838:a67111579", "current_trial": 21, "dateTime": 1664555234716, "trialdata": {"rt": 1044, "stimulus": "<p id='stroop-text' class='stroop-blue'>GREEN</p>", "response": "g", "stimulus-type": "incongruent", "word": "green", "color": "blue", "correct_response": "b", "trial_id": "stroop-trial-1-incongruent-9", "trial_type": "html-keyboard-response", "trial_index": 21, "time_elapsed": 122972, "internal_node_id": "0.0-4.0-17.0"}}, {"uniqueid": "w13906838:a67111579", "current_trial": 22, "dateTime": 1664555236570, "trialdata": {"rt": 1345, "stimulus": "<p id='stroop-text' class='stroop-yellow'>GREEN</p>", "response": "y", "stimulus-type": "incongruent", "word": "green", "color": "yellow", "correct_response": "y", "trial_id": "stroop-trial-1-incongruent-14", "trial_type": "html-keyboard-response", "trial_index": 22, "time_elapsed": 124825, "internal_node_id": "0.0-4.0-18.0"}}, {"uniqueid": "w13906838:a67111579", "current_trial": 23, "dateTime": 1664555238554, "trialdata": {"rt": 1477, "stimulus": "<p id='stroop-text' class='stroop-blue'>CHAIR</p>", "response": "b", "stimulus-type": "unrelated", "word": "CHAIR", "color": "blue", "correct_response": "b", "trial_id": "stroop-trial-1-unrelated-22", "trial_type": "html-keyboard-response", "trial_index": 23, "time_elapsed": 126810, "internal_node_id": "0.0-4.0-19.0"}}, {"uniqueid": "w13906838:a67111579", "current_trial": 24, "dateTime": 1664555239975, "trialdata": {"rt": 912, "stimulus": "<p id='stroop-text' class='stroop-green'>GREEN</p>", "response": "g", "stimulus-type": "congruent", "word": "green", "color": "green", "correct_response": "g", "trial_id": "stroop-trial-1-congruent-19", "trial_type": "html-keyboard-response", "trial_index": 24, "time_elapsed": 128231, "internal_node_id": "0.0-4.0-20.0"}}, {"uniqueid": "w13906838:a67111579", "current_trial": 25, "dateTime": 1664555241511, "trialdata": {"rt": 1018, "stimulus": "<p id='stroop-text' class='stroop-blue'>GREEN</p>", "response": "b", "stimulus-type": "incongruent", "word": "green", "color": "blue", "correct_response": "b", "trial_id": "stroop-trial-1-incongruent-23", "trial_type": "html-keyboard-response", "trial_index": 25, "time_elapsed": 129766, "internal_node_id": "0.0-4.0-21.0"}}, {"uniqueid": "w13906838:a67111579", "current_trial": 26, "dateTime": 1664555243509, "trialdata": {"rt": 1489, "stimulus": "<p id='stroop-text' class='stroop-red'>STONE</p>", "response": "r", "stimulus-type": "unrelated", "word": "STONE", "color": "red", "correct_response": "r", "trial_id": "stroop-trial-1-unrelated-25", "trial_type": "html-keyboard-response", "trial_index": 26, "time_elapsed": 131765, "internal_node_id": "0.0-4.0-22.0"}}, {"uniqueid": "w13906838:a67111579", "current_trial": 27, "dateTime": 1664555245330, "trialdata": {"rt": 1308, "stimulus": "<p id='stroop-text' class='stroop-blue'>BLUE</p>", "response": "b", "stimulus-type": "congruent", "word": "blue", "color": "blue", "correct_response": "b", "trial_id": "stroop-trial-1-congruent-2", "trial_type": "html-keyboard-response", "trial_index": 27, "time_elapsed": 133585, "internal_node_id": "0.0-4.0-23.0"}}, {"uniqueid": "w13906838:a67111579", "current_trial": 28, "dateTime": 1664555247439, "trialdata": {"rt": 1602, "stimulus": "<p id='stroop-text' class='stroop-green'>STONE</p>", "response": "g", "stimulus-type": "unrelated", "word": "STONE", "color": "green", "correct_response": "g", "trial_id": "stroop-trial-1-unrelated-20", "trial_type": "html-keyboard-response", "trial_index": 28, "time_elapsed": 135695, "internal_node_id": "0.0-4.0-24.0"}}, {"uniqueid": "w13906838:a67111579", "current_trial": 29, "dateTime": 1664555250310, "trialdata": {"rt": 2361, "stimulus": "<p id='stroop-text' class='stroop-blue'>MONKEY</p>", "response": "b", "stimulus-type": "unrelated", "word": "MONKEY", "color": "blue", "correct_response": "b", "trial_id": "stroop-trial-1-unrelated-19", "trial_type": "html-keyboard-response", "trial_index": 29, "time_elapsed": 138566, "internal_node_id": "0.0-4.0-25.0"}}, {"uniqueid": "w13906838:a67111579", "current_trial": 30, "dateTime": 1664555252094, "trialdata": {"rt": 1275, "stimulus": "<p id='stroop-text' class='stroop-blue'>DOG</p>", "response": "b", "stimulus-type": "unrelated", "word": "DOG", "color": "blue", "correct_response": "b", "trial_id": "stroop-trial-1-unrelated-9", "trial_type": "html-keyboard-response", "trial_index": 30, "time_elapsed": 140350, "internal_node_id": "0.0-4.0-26.0"}}, {"uniqueid": "w13906838:a67111579", "current_trial": 31, "dateTime": 1664555253785, "trialdata": {"rt": 1182, "stimulus": "<p id='stroop-text' class='stroop-red'>RED</p>", "response": "r", "stimulus-type": "congruent", "word": "red", "color": "red", "correct_response": "r", "trial_id": "stroop-trial-1-congruent-6", "trial_type": "html-keyboard-response", "trial_index": 31, "time_elapsed": 142041, "internal_node_id": "0.0-4.0-27.0"}}, {"uniqueid": "w13906838:a67111579", "current_trial": 32, "dateTime": 1664555255827, "trialdata": {"rt": 1534, "stimulus": "<p id='stroop-text' class='stroop-blue'>SHIP</p>", "response": "b", "stimulus-type": "unrelated", "word": "SHIP", "color": "blue", "correct_response": "b", "trial_id": "stroop-trial-1-unrelated-2", "trial_type": "html-keyboard-response", "trial_index": 32, "time_elapsed": 144083, "internal_node_id": "0.0-4.0-28.0"}}, {"uniqueid": "w13906838:a67111579", "current_trial": 33, "dateTime": 1664555257855, "trialdata": {"rt": 1518, "stimulus": "<p id='stroop-text' class='stroop-green'>GREEN</p>", "response": "g", "stimulus-type": "congruent", "word": "green", "color": "green", "correct_response": "g", "trial_id": "stroop-trial-1-congruent-24", "trial_type": "html-keyboard-response", "trial_index": 33, "time_elapsed": 146111, "internal_node_id": "0.0-4.0-29.0"}}, {"uniqueid": "w13906838:a67111579", "current_trial": 34, "dateTime": 1664555259954, "trialdata": {"rt": 1588, "stimulus": "<p id='stroop-text' class='stroop-blue'>RED</p>", "response": "b", "stimulus-type": "incongruent", "word": "red", "color": "blue", "correct_response": "b", "trial_id": "stroop-trial-1-incongruent-21", "trial_type": "html-keyboard-response", "trial_index": 34, "time_elapsed": 148210, "internal_node_id": "0.0-4.0-30.0"}}, {"uniqueid": "w13906838:a67111579", "current_trial": 35, "dateTime": 1664555262778, "trialdata": {"rt": 2316, "stimulus": "<p id='stroop-text' class='stroop-red'>DOG</p>", "response": "r", "stimulus-type": "unrelated", "word": "DOG", "color": "red", "correct_response": "r", "trial_id": "stroop-trial-1-unrelated-3", "trial_type": "html-keyboard-response", "trial_index": 35, "time_elapsed": 151034, "internal_node_id": "0.0-4.0-31.0"}}, {"uniqueid": "w13906838:a67111579", "current_trial": 36, "dateTime": 1664555264710, "trialdata": {"rt": 1426, "stimulus": "<p id='stroop-text' class='stroop-blue'>YELLOW</p>", "response": "b", "stimulus-type": "incongruent", "word": "yellow", "color": "blue", "correct_response": "b", "trial_id": "stroop-trial-1-incongruent-10", "trial_type": "html-keyboard-response", "trial_index": 36, "time_elapsed": 152966, "internal_node_id": "0.0-4.0-32.0"}}, {"uniqueid": "w13906838:a67111579", "current_trial": 37, "dateTime": 1664555268316, "trialdata": {"rt": 3099, "stimulus": "<p id='stroop-text' class='stroop-yellow'>YELLOW</p>", "response": "y", "stimulus-type": "congruent", "word": "yellow", "color": "yellow", "correct_response": "y", "trial_id": "stroop-trial-1-congruent-12", "trial_type": "html-keyboard-response", "trial_index": 37, "time_elapsed": 156572, "internal_node_id": "0.0-4.0-33.0"}}, {"uniqueid": "w13906838:a67111579", "current_trial": 38, "dateTime": 1664555270012, "trialdata": {"rt": 1189, "stimulus": "<p id='stroop-text' class='stroop-green'>GREEN</p>", "response": "g", "stimulus-type": "congruent", "word": "green", "color": "green", "correct_response": "g", "trial_id": "stroop-trial-1-congruent-26", "trial_type": "html-keyboard-response", "trial_index": 38, "time_elapsed": 158266, "internal_node_id": "0.0-4.0-34.0"}}, {"uniqueid": "w13906838:a67111579", "current_trial": 39, "dateTime": 1664555271617, "trialdata": {"rt": 1095, "stimulus": "<p id='stroop-text' class='stroop-green'>GREEN</p>", "response": "g", "stimulus-type": "congruent", "word": "green", "color": "green", "correct_response": "g", "trial_id": "stroop-trial-1-congruent-22", "trial_type": "html-keyboard-response", "trial_index": 39, "time_elapsed": 159873, "internal_node_id": "0.0-4.0-35.0"}}, {"uniqueid": "w13906838:a67111579", "current_trial": 40, "dateTime": 1664555273289, "trialdata": {"rt": 1164, "stimulus": "<p id='stroop-text' class='stroop-yellow'>YELLOW</p>", "response": "y", "stimulus-type": "congruent", "word": "yellow", "color": "yellow", "correct_response": "y", "trial_id": "stroop-trial-1-congruent-1", "trial_type": "html-keyboard-response", "trial_index": 40, "time_elapsed": 161545, "internal_node_id": "0.0-4.0-36.0"}}, {"uniqueid": "w13906838:a67111579", "current_trial": 41, "dateTime": 1664555275154, "trialdata": {"rt": 1356, "stimulus": "<p id='stroop-text' class='stroop-yellow'>YELLOW</p>", "response": "y", "stimulus-type": "congruent", "word": "yellow", "color": "yellow", "correct_response": "y", "trial_id": "stroop-trial-1-congruent-28", "trial_type": "html-keyboard-response", "trial_index": 41, "time_elapsed": 163410, "internal_node_id": "0.0-4.0-37.0"}}, {"uniqueid": "w13906838:a67111579", "current_trial": 42, "dateTime": 1664555276820, "trialdata": {"rt": 1147, "stimulus": "<p id='stroop-text' class='stroop-yellow'>STONE</p>", "response": "y", "stimulus-type": "unrelated", "word": "STONE", "color": "yellow", "correct_response": "y", "trial_id": "stroop-trial-1-unrelated-7", "trial_type": "html-keyboard-response", "trial_index": 42, "time_elapsed": 165075, "internal_node_id": "0.0-4.0-38.0"}}, {"uniqueid": "w13906838:a67111579", "current_trial": 43, "dateTime": 1664555279698, "trialdata": {"rt": 2370, "stimulus": "<p id='stroop-text' class='stroop-green'>RED</p>", "response": "g", "stimulus-type": "incongruent", "word": "red", "color": "green", "correct_response": "g", "trial_id": "stroop-trial-1-incongruent-15", "trial_type": "html-keyboard-response", "trial_index": 43, "time_elapsed": 167954, "internal_node_id": "0.0-4.0-39.0"}}, {"uniqueid": "w13906838:a67111579", "current_trial": 44, "dateTime": 1664555281615, "trialdata": {"rt": 1408, "stimulus": "<p id='stroop-text' class='stroop-red'>BRAIN</p>", "response": "r", "stimulus-type": "unrelated", "word": "BRAIN", "color": "red", "correct_response": "r", "trial_id": "stroop-trial-1-unrelated-23", "trial_type": "html-keyboard-response", "trial_index": 44, "time_elapsed": 169871, "internal_node_id": "0.0-4.0-40.0"}}, {"uniqueid": "w13906838:a67111579", "current_trial": 45, "dateTime": 1664555283824, "trialdata": {"rt": 1700, "stimulus": "<p id='stroop-text' class='stroop-green'>RED</p>", "response": "g", "stimulus-type": "incongruent", "word": "red", "color": "green", "correct_response": "g", "trial_id": "stroop-trial-1-incongruent-16", "trial_type": "html-keyboard-response", "trial_index": 45, "time_elapsed": 172079, "internal_node_id": "0.0-4.0-41.0"}}, {"uniqueid": "w13906838:a67111579", "current_trial": 46, "dateTime": 1664555285814, "trialdata": {"rt": 1479, "stimulus": "<p id='stroop-text' class='stroop-green'>YELLOW</p>", "response": "g", "stimulus-type": "incongruent", "word": "yellow", "color": "green", "correct_response": "g", "trial_id": "stroop-trial-1-incongruent-12", "trial_type": "html-keyboard-response", "trial_index": 46, "time_elapsed": 174070, "internal_node_id": "0.0-4.0-42.0"}}, {"uniqueid": "w13906838:a67111579", "current_trial": 47, "dateTime": 1664555288160, "trialdata": {"rt": 1837, "stimulus": "<p id='stroop-text' class='stroop-red'>BOAT</p>", "response": "r", "stimulus-type": "unrelated", "word": "BOAT", "color": "red", "correct_response": "r", "trial_id": "stroop-trial-1-unrelated-13", "trial_type": "html-keyboard-response", "trial_index": 47, "time_elapsed": 176415, "internal_node_id": "0.0-4.0-43.0"}}, {"uniqueid": "w13906838:a67111579", "current_trial": 48, "dateTime": 1664555290318, "trialdata": {"rt": 1649, "stimulus": "<p id='stroop-text' class='stroop-red'>YELLOW</p>", "response": "r", "stimulus-type": "incongruent", "word": "yellow", "color": "red", "correct_response": "r", "trial_id": "stroop-trial-1-incongruent-27", "trial_type": "html-keyboard-response", "trial_index": 48, "time_elapsed": 178574, "internal_node_id": "0.0-4.0-44.0"}}, {"uniqueid": "w13906838:a67111579", "current_trial": 49, "dateTime": 1664555292167, "trialdata": {"rt": 1338, "stimulus": "<p id='stroop-text' class='stroop-blue'>RED</p>", "response": "b", "stimulus-type": "incongruent", "word": "red", "color": "blue", "correct_response": "b", "trial_id": "stroop-trial-1-incongruent-11", "trial_type": "html-keyboard-response", "trial_index": 49, "time_elapsed": 180422, "internal_node_id": "0.0-4.0-45.0"}}, {"uniqueid": "w13906838:a67111579", "current_trial": 50, "dateTime": 1664555294872, "trialdata": {"rt": 2197, "stimulus": "<p id='stroop-text' class='stroop-blue'>GREEN</p>", "response": "b", "stimulus-type": "incongruent", "word": "green", "color": "blue", "correct_response": "b", "trial_id": "stroop-trial-1-incongruent-30", "trial_type": "html-keyboard-response", "trial_index": 50, "time_elapsed": 183128, "internal_node_id": "0.0-4.0-46.0"}}, {"uniqueid": "w13906838:a67111579", "current_trial": 51, "dateTime": 1664555298421, "trialdata": {"rt": 3039, "stimulus": "<p id='stroop-text' class='stroop-green'>GREEN</p>", "response": "g", "stimulus-type": "congruent", "word": "green", "color": "green", "correct_response": "g", "trial_id": "stroop-trial-1-congruent-5", "trial_type": "html-keyboard-response", "trial_index": 51, "time_elapsed": 186677, "internal_node_id": "0.0-4.0-47.0"}}, {"uniqueid": "w13906838:a67111579", "current_trial": 52, "dateTime": 1664555300271, "trialdata": {"rt": 1339, "stimulus": "<p id='stroop-text' class='stroop-green'>CHAIR</p>", "response": "g", "stimulus-type": "unrelated", "word": "CHAIR", "color": "green", "correct_response": "g", "trial_id": "stroop-trial-1-unrelated-5", "trial_type": "html-keyboard-response", "trial_index": 52, "time_elapsed": 188527, "internal_node_id": "0.0-4.0-48.0"}}, {"uniqueid": "w13906838:a67111579", "current_trial": 53, "dateTime": 1664555302252, "trialdata": {"rt": 1464, "stimulus": "<p id='stroop-text' class='stroop-green'>BRIDGE</p>", "response": "g", "stimulus-type": "unrelated", "word": "BRIDGE", "color": "green", "correct_response": "g", "trial_id": "stroop-trial-1-unrelated-6", "trial_type": "html-keyboard-response", "trial_index": 53, "time_elapsed": 190508, "internal_node_id": "0.0-4.0-49.0"}}, {"uniqueid": "w13906838:a67111579", "current_trial": 54, "dateTime": 1664555304262, "trialdata": {"rt": 1493, "stimulus": "<p id='stroop-text' class='stroop-blue'>RED</p>", "response": "b", "stimulus-type": "incongruent", "word": "red", "color": "blue", "correct_response": "b", "trial_id": "stroop-trial-1-incongruent-1", "trial_type": "html-keyboard-response", "trial_index": 54, "time_elapsed": 192518, "internal_node_id": "0.0-4.0-50.0"}}, {"uniqueid": "w13906838:a67111579", "current_trial": 55, "dateTime": 1664555306102, "trialdata": {"rt": 1330, "stimulus": "<p id='stroop-text' class='stroop-red'>GREEN</p>", "response": "r", "stimulus-type": "incongruent", "word": "green", "color": "red", "correct_response": "r", "trial_id": "stroop-trial-1-incongruent-22", "trial_type": "html-keyboard-response", "trial_index": 55, "time_elapsed": 194358, "internal_node_id": "0.0-4.0-51.0"}}, {"uniqueid": "w13906838:a67111579", "current_trial": 56, "dateTime": 1664555307586, "trialdata": {"rt": 977, "stimulus": "<p id='stroop-text' class='stroop-red'>RED</p>", "response": "r", "stimulus-type": "congruent", "word": "red", "color": "red", "correct_response": "r", "trial_id": "stroop-trial-1-congruent-30", "trial_type": "html-keyboard-response", "trial_index": 56, "time_elapsed": 195843, "internal_node_id": "0.0-4.0-52.0"}}, {"uniqueid": "w13906838:a67111579", "current_trial": 57, "dateTime": 1664555309082, "trialdata": {"rt": 989, "stimulus": "<p id='stroop-text' class='stroop-blue'>BRAIN</p>", "response": "b", "stimulus-type": "unrelated", "word": "BRAIN", "color": "blue", "correct_response": "b", "trial_id": "stroop-trial-1-unrelated-26", "trial_type": "html-keyboard-response", "trial_index": 57, "time_elapsed": 197338, "internal_node_id": "0.0-4.0-53.0"}}, {"uniqueid": "w13906838:a67111579", "current_trial": 58, "dateTime": 1664555310284, "trialdata": {"rt": 695, "stimulus": "<p id='stroop-text' class='stroop-red'>RED</p>", "response": "r", "stimulus-type": "congruent", "word": "red", "color": "red", "correct_response": "r", "trial_id": "stroop-trial-1-congruent-15", "trial_type": "html-keyboard-response", "trial_index": 58, "time_elapsed": 198540, "internal_node_id": "0.0-4.0-54.0"}}, {"uniqueid": "w13906838:a67111579", "current_trial": 59, "dateTime": 1664555311720, "trialdata": {"rt": 929, "stimulus": "<p id='stroop-text' class='stroop-green'>BLUE</p>", "response": "g", "stimulus-type": "incongruent", "word": "blue", "color": "green", "correct_response": "g", "trial_id": "stroop-trial-1-incongruent-17", "trial_type": "html-keyboard-response", "trial_index": 59, "time_elapsed": 199976, "internal_node_id": "0.0-4.0-55.0"}}, {"uniqueid": "w13906838:a67111579", "current_trial": 60, "dateTime": 1664555313152, "trialdata": {"rt": 923, "stimulus": "<p id='stroop-text' class='stroop-blue'>MONKEY</p>", "response": "b", "stimulus-type": "unrelated", "word": "MONKEY", "color": "blue", "correct_response": "b", "trial_id": "stroop-trial-1-unrelated-27", "trial_type": "html-keyboard-response", "trial_index": 60, "time_elapsed": 201408, "internal_node_id": "0.0-4.0-56.0"}}, {"uniqueid": "w13906838:a67111579", "current_trial": 61, "dateTime": 1664555314575, "trialdata": {"rt": 915, "stimulus": "<p id='stroop-text' class='stroop-green'>GREEN</p>", "response": "g", "stimulus-type": "congruent", "word": "green", "color": "green", "correct_response": "g", "trial_id": "stroop-trial-1-congruent-20", "trial_type": "html-keyboard-response", "trial_index": 61, "time_elapsed": 202830, "internal_node_id": "0.0-4.0-57.0"}}, {"uniqueid": "w13906838:a67111579", "current_trial": 62, "dateTime": 1664555316254, "trialdata": {"rt": 1166, "stimulus": "<p id='stroop-text' class='stroop-red'>YELLOW</p>", "response": "r", "stimulus-type": "incongruent", "word": "yellow", "color": "red", "correct_response": "r", "trial_id": "stroop-trial-1-incongruent-26", "trial_type": "html-keyboard-response", "trial_index": 62, "time_elapsed": 204510, "internal_node_id": "0.0-4.0-58.0"}}, {"uniqueid": "w13906838:a67111579", "current_trial": 63, "dateTime": 1664555317557, "trialdata": {"rt": 790, "stimulus": "<p id='stroop-text' class='stroop-yellow'>BRAIN</p>", "response": "y", "stimulus-type": "unrelated", "word": "BRAIN", "color": "yellow", "correct_response": "y", "trial_id": "stroop-trial-1-unrelated-15", "trial_type": "html-keyboard-response", "trial_index": 63, "time_elapsed": 205813, "internal_node_id": "0.0-4.0-59.0"}}, {"uniqueid": "w13906838:a67111579", "current_trial": 64, "dateTime": 1664555318935, "trialdata": {"rt": 867, "stimulus": "<p id='stroop-text' class='stroop-yellow'>YELLOW</p>", "response": "y", "stimulus-type": "congruent", "word": "yellow", "color": "yellow", "correct_response": "y", "trial_id": "stroop-trial-1-congruent-4", "trial_type": "html-keyboard-response", "trial_index": 64, "time_elapsed": 207191, "internal_node_id": "0.0-4.0-60.0"}}, {"uniqueid": "w13906838:a67111579", "current_trial": 65, "dateTime": 1664555320468, "trialdata": {"rt": 1024, "stimulus": "<p id='stroop-text' class='stroop-blue'>BRAIN</p>", "response": "b", "stimulus-type": "unrelated", "word": "BRAIN", "color": "blue", "correct_response": "b", "trial_id": "stroop-trial-1-unrelated-21", "trial_type": "html-keyboard-response", "trial_index": 65, "time_elapsed": 208724, "internal_node_id": "0.0-4.0-61.0"}}, {"uniqueid": "w13906838:a67111579", "current_trial": 66, "dateTime": 1664555322133, "trialdata": {"rt": 1156, "stimulus": "<p id='stroop-text' class='stroop-blue'>FORK</p>", "response": "b", "stimulus-type": "unrelated", "word": "FORK", "color": "blue", "correct_response": "b", "trial_id": "stroop-trial-1-unrelated-8", "trial_type": "html-keyboard-response", "trial_index": 66, "time_elapsed": 210390, "internal_node_id": "0.0-4.0-62.0"}}, {"uniqueid": "w13906838:a67111579", "current_trial": 67, "dateTime": 1664555324098, "trialdata": {"rt": 1456, "stimulus": "<p id='stroop-text' class='stroop-blue'>SHIP</p>", "response": "b", "stimulus-type": "unrelated", "word": "SHIP", "color": "blue", "correct_response": "b", "trial_id": "stroop-trial-1-unrelated-28", "trial_type": "html-keyboard-response", "trial_index": 67, "time_elapsed": 212354, "internal_node_id": "0.0-4.0-63.0"}}, {"uniqueid": "w13906838:a67111579", "current_trial": 68, "dateTime": 1664555325947, "trialdata": {"rt": 1341, "stimulus": "<p id='stroop-text' class='stroop-green'>YELLOW</p>", "response": "g", "stimulus-type": "incongruent", "word": "yellow", "color": "green", "correct_response": "g", "trial_id": "stroop-trial-1-incongruent-4", "trial_type": "html-keyboard-response", "trial_index": 68, "time_elapsed": 214203, "internal_node_id": "0.0-4.0-64.0"}}, {"uniqueid": "w13906838:a67111579", "current_trial": 69, "dateTime": 1664555327683, "trialdata": {"rt": 1225, "stimulus": "<p id='stroop-text' class='stroop-yellow'>BLUE</p>", "response": "y", "stimulus-type": "incongruent", "word": "blue", "color": "yellow", "correct_response": "y", "trial_id": "stroop-trial-1-incongruent-7", "trial_type": "html-keyboard-response", "trial_index": 69, "time_elapsed": 215939, "internal_node_id": "0.0-4.0-65.0"}}, {"uniqueid": "w13906838:a67111579", "current_trial": 70, "dateTime": 1664555329164, "trialdata": {"rt": 972, "stimulus": "<p id='stroop-text' class='stroop-red'>WINDOW</p>", "response": "r", "stimulus-type": "unrelated", "word": "WINDOW", "color": "red", "correct_response": "r", "trial_id": "stroop-trial-1-unrelated-29", "trial_type": "html-keyboard-response", "trial_index": 70, "time_elapsed": 217420, "internal_node_id": "0.0-4.0-66.0"}}, {"uniqueid": "w13906838:a67111579", "current_trial": 71, "dateTime": 1664555331283, "trialdata": {"rt": 1608, "stimulus": "<p id='stroop-text' class='stroop-blue'>GREEN</p>", "response": "b", "stimulus-type": "incongruent", "word": "green", "color": "blue", "correct_response": "b", "trial_id": "stroop-trial-1-incongruent-6", "trial_type": "html-keyboard-response", "trial_index": 71, "time_elapsed": 219539, "internal_node_id": "0.0-4.0-67.0"}}, {"uniqueid": "w13906838:a67111579", "current_trial": 72, "dateTime": 1664555332826, "trialdata": {"rt": 1033, "stimulus": "<p id='stroop-text' class='stroop-red'>RED</p>", "response": "r", "stimulus-type": "congruent", "word": "red", "color": "red", "correct_response": "r", "trial_id": "stroop-trial-1-congruent-11", "trial_type": "html-keyboard-response", "trial_index": 72, "time_elapsed": 221082, "internal_node_id": "0.0-4.0-68.0"}}, {"uniqueid": "w13906838:a67111579", "current_trial": 73, "dateTime": 1664555334396, "trialdata": {"rt": 1061, "stimulus": "<p id='stroop-text' class='stroop-blue'>BRIDGE</p>", "response": "b", "stimulus-type": "unrelated", "word": "BRIDGE", "color": "blue", "correct_response": "b", "trial_id": "stroop-trial-1-unrelated-30", "trial_type": "html-keyboard-response", "trial_index": 73, "time_elapsed": 222652, "internal_node_id": "0.0-4.0-69.0"}}, {"uniqueid": "w13906838:a67111579", "current_trial": 74, "dateTime": 1664555335920, "trialdata": {"rt": 1008, "stimulus": "<p id='stroop-text' class='stroop-blue'>BRAIN</p>", "response": "b", "stimulus-type": "unrelated", "word": "BRAIN", "color": "blue", "correct_response": "b", "trial_id": "stroop-trial-1-unrelated-11", "trial_type": "html-keyboard-response", "trial_index": 74, "time_elapsed": 224176, "internal_node_id": "0.0-4.0-70.0"}}, {"uniqueid": "w13906838:a67111579", "current_trial": 75, "dateTime": 1664555337409, "trialdata": {"rt": 978, "stimulus": "<p id='stroop-text' class='stroop-yellow'>MONKEY</p>", "response": "y", "stimulus-type": "unrelated", "word": "MONKEY", "color": "yellow", "correct_response": "y", "trial_id": "stroop-trial-1-unrelated-1", "trial_type": "html-keyboard-response", "trial_index": 75, "time_elapsed": 225665, "internal_node_id": "0.0-4.0-71.0"}}, {"uniqueid": "w13906838:a67111579", "current_trial": 76, "dateTime": 1664555338800, "trialdata": {"rt": 883, "stimulus": "<p id='stroop-text' class='stroop-yellow'>BLUE</p>", "response": "y", "stimulus-type": "incongruent", "word": "blue", "color": "yellow", "correct_response": "y", "trial_id": "stroop-trial-1-incongruent-24", "trial_type": "html-keyboard-response", "trial_index": 76, "time_elapsed": 227056, "internal_node_id": "0.0-4.0-72.0"}}, {"uniqueid": "w13906838:a67111579", "current_trial": 77, "dateTime": 1664555340484, "trialdata": {"rt": 1173, "stimulus": "<p id='stroop-text' class='stroop-green'>MONKEY</p>", "response": "g", "stimulus-type": "unrelated", "word": "MONKEY", "color": "green", "correct_response": "g", "trial_id": "stroop-trial-1-unrelated-4", "trial_type": "html-keyboard-response", "trial_index": 77, "time_elapsed": 228740, "internal_node_id": "0.0-4.0-73.0"}}, {"uniqueid": "w13906838:a67111579", "current_trial": 78, "dateTime": 1664555341867, "trialdata": {"rt": 873, "stimulus": "<p id='stroop-text' class='stroop-yellow'>YELLOW</p>", "response": "y", "stimulus-type": "congruent", "word": "yellow", "color": "yellow", "correct_response": "y", "trial_id": "stroop-trial-1-congruent-25", "trial_type": "html-keyboard-response", "trial_index": 78, "time_elapsed": 230123, "internal_node_id": "0.0-4.0-74.0"}}, {"uniqueid": "w13906838:a67111579", "current_trial": 79, "dateTime": 1664555343506, "trialdata": {"rt": 1123, "stimulus": "<p id='stroop-text' class='stroop-blue'>YELLOW</p>", "response": "b", "stimulus-type": "incongruent", "word": "yellow", "color": "blue", "correct_response": "b", "trial_id": "stroop-trial-1-incongruent-19", "trial_type": "html-keyboard-response", "trial_index": 79, "time_elapsed": 231762, "internal_node_id": "0.0-4.0-75.0"}}, {"uniqueid": "w13906838:a67111579", "current_trial": 80, "dateTime": 1664555344764, "trialdata": {"rt": 745, "stimulus": "<p id='stroop-text' class='stroop-green'>RED</p>", "response": "r", "stimulus-type": "incongruent", "word": "red", "color": "green", "correct_response": "g", "trial_id": "stroop-trial-1-incongruent-3", "trial_type": "html-keyboard-response", "trial_index": 80, "time_elapsed": 233020, "internal_node_id": "0.0-4.0-76.0"}}, {"uniqueid": "w13906838:a67111579", "current_trial": 81, "dateTime": 1664555346539, "trialdata": {"rt": 1263, "stimulus": "<p id='stroop-text' class='stroop-green'>RED</p>", "response": "g", "stimulus-type": "incongruent", "word": "red", "color": "green", "correct_response": "g", "trial_id": "stroop-trial-1-incongruent-20", "trial_type": "html-keyboard-response", "trial_index": 81, "time_elapsed": 234795, "internal_node_id": "0.0-4.0-77.0"}}, {"uniqueid": "w13906838:a67111579", "current_trial": 82, "dateTime": 1664555348333, "trialdata": {"rt": 1281, "stimulus": "<p id='stroop-text' class='stroop-green'>BOTTLE</p>", "response": "g", "stimulus-type": "unrelated", "word": "BOTTLE", "color": "green", "correct_response": "g", "trial_id": "stroop-trial-1-unrelated-16", "trial_type": "html-keyboard-response", "trial_index": 82, "time_elapsed": 236589, "internal_node_id": "0.0-4.0-78.0"}}, {"uniqueid": "w13906838:a67111579", "current_trial": 83, "dateTime": 1664555349796, "trialdata": {"rt": 950, "stimulus": "<p id='stroop-text' class='stroop-red'>RED</p>", "response": "r", "stimulus-type": "congruent", "word": "red", "color": "red", "correct_response": "r", "trial_id": "stroop-trial-1-congruent-7", "trial_type": "html-keyboard-response", "trial_index": 83, "time_elapsed": 238051, "internal_node_id": "0.0-4.0-79.0"}}, {"uniqueid": "w13906838:a67111579", "current_trial": 84, "dateTime": 1664555350860, "trialdata": {"rt": 554, "stimulus": "<p id='stroop-text' class='stroop-red'>RED</p>", "response": "r", "stimulus-type": "congruent", "word": "red", "color": "red", "correct_response": "r", "trial_id": "stroop-trial-1-congruent-10", "trial_type": "html-keyboard-response", "trial_index": 84, "time_elapsed": 239116, "internal_node_id": "0.0-4.0-80.0"}}, {"uniqueid": "w13906838:a67111579", "current_trial": 85, "dateTime": 1664555352417, "trialdata": {"rt": 1045, "stimulus": "<p id='stroop-text' class='stroop-yellow'>BRAIN</p>", "response": "y", "stimulus-type": "unrelated", "word": "BRAIN", "color": "yellow", "correct_response": "y", "trial_id": "stroop-trial-1-unrelated-12", "trial_type": "html-keyboard-response", "trial_index": 85, "time_elapsed": 240673, "internal_node_id": "0.0-4.0-81.0"}}, {"uniqueid": "w13906838:a67111579", "current_trial": 86, "dateTime": 1664555353978, "trialdata": {"rt": 1051, "stimulus": "<p id='stroop-text' class='stroop-red'>YELLOW</p>", "response": "r", "stimulus-type": "incongruent", "word": "yellow", "color": "red", "correct_response": "r", "trial_id": "stroop-trial-1-incongruent-5", "trial_type": "html-keyboard-response", "trial_index": 86, "time_elapsed": 242234, "internal_node_id": "0.0-4.0-82.0"}}, {"uniqueid": "w13906838:a67111579", "current_trial": 87, "dateTime": 1664555355180, "trialdata": {"rt": 692, "stimulus": "<p id='stroop-text' class='stroop-red'>BLUE</p>", "response": "r", "stimulus-type": "incongruent", "word": "blue", "color": "red", "correct_response": "r", "trial_id": "stroop-trial-1-incongruent-29", "trial_type": "html-keyboard-response", "trial_index": 87, "time_elapsed": 243436, "internal_node_id": "0.0-4.0-83.0"}}, {"uniqueid": "w13906838:a67111579", "current_trial": 88, "dateTime": 1664555356224, "trialdata": {"rt": 534, "stimulus": "<p id='stroop-text' class='stroop-red'>RED</p>", "response": "r", "stimulus-type": "congruent", "word": "red", "color": "red", "correct_response": "r", "trial_id": "stroop-trial-1-congruent-14", "trial_type": "html-keyboard-response", "trial_index": 88, "time_elapsed": 244479, "internal_node_id": "0.0-4.0-84.0"}}, {"uniqueid": "w13906838:a67111579", "current_trial": 89, "dateTime": 1664555357322, "trialdata": {"rt": 589, "stimulus": "<p id='stroop-text' class='stroop-red'>GREEN</p>", "response": "r", "stimulus-type": "incongruent", "word": "green", "color": "red", "correct_response": "r", "trial_id": "stroop-trial-1-incongruent-25", "trial_type": "html-keyboard-response", "trial_index": 89, "time_elapsed": 245578, "internal_node_id": "0.0-4.0-85.0"}}, {"uniqueid": "w13906838:a67111579", "current_trial": 90, "dateTime": 1664555358847, "trialdata": {"rt": 1012, "stimulus": "<p id='stroop-text' class='stroop-green'>GREEN</p>", "response": "g", "stimulus-type": "congruent", "word": "green", "color": "green", "correct_response": "g", "trial_id": "stroop-trial-1-congruent-27", "trial_type": "html-keyboard-response", "trial_index": 90, "time_elapsed": 247103, "internal_node_id": "0.0-4.0-86.0"}}, {"uniqueid": "w13906838:a67111579", "current_trial": 91, "dateTime": 1664555360248, "trialdata": {"rt": 890, "stimulus": "<p id='stroop-text' class='stroop-blue'>MONKEY</p>", "response": "b", "stimulus-type": "unrelated", "word": "MONKEY", "color": "blue", "correct_response": "b", "trial_id": "stroop-trial-1-unrelated-10", "trial_type": "html-keyboard-response", "trial_index": 91, "time_elapsed": 248504, "internal_node_id": "0.0-4.0-87.0"}}, {"uniqueid": "w13906838:a67111579", "current_trial": 92, "dateTime": 1664555361511, "trialdata": {"rt": 753, "stimulus": "<p id='stroop-text' class='stroop-blue'>RED</p>", "response": "b", "stimulus-type": "incongruent", "word": "red", "color": "blue", "correct_response": "b", "trial_id": "stroop-trial-1-incongruent-18", "trial_type": "html-keyboard-response", "trial_index": 92, "time_elapsed": 249767, "internal_node_id": "0.0-4.0-88.0"}}, {"uniqueid": "w13906838:a67111579", "current_trial": 93, "dateTime": 1664555362726, "trialdata": {"rt": 703, "stimulus": "<p id='stroop-text' class='stroop-yellow'>YELLOW</p>", "response": "y", "stimulus-type": "congruent", "word": "yellow", "color": "yellow", "correct_response": "y", "trial_id": "stroop-trial-1-congruent-21", "trial_type": "html-keyboard-response", "trial_index": 93, "time_elapsed": 250982, "internal_node_id": "0.0-4.0-89.0"}}, {"uniqueid": "w13906838:a67111579", "current_trial": 94, "dateTime": 1664555375320, "trialdata": {"rt": 12080, "stimulus": "  <h1> End of block! </h1>\n\n  You have reached the end of the block 1/5. If you need a short break, feel free to take one now before moving on.\n\n  <br><br>\n  In the next block, you will complete another 90 rounds of this game.\n\n  <br><br>\n  <div style='text-align: center;'>Press <code>space</code> to begin.</div>\n  <br><br>\n<div style='text-align: center;'>(If the experiment doesn't continue, try clicking on the text and then pressing <code>space</code>.)</div>", "response": " ", "trial_id": "stroop_1_ready_2", "trial_type": "html-keyboard-response", "trial_index": 94, "time_elapsed": 263576, "internal_node_id": "0.0-5.0"}}, {"uniqueid": "w13906838:a67111579", "current_trial": 95, "dateTime": 1664555377242, "trialdata": {"rt": 1905, "stimulus": "<p id='stroop-text' class='stroop-yellow'>DOG</p>", "response": "y", "stimulus-type": "unrelated", "word": "DOG", "color": "yellow", "correct_response": "y", "trial_id": "stroop-trial-1-unrelated-22", "trial_type": "html-keyboard-response", "trial_index": 95, "time_elapsed": 265498, "internal_node_id": "0.0-6.0-0.0"}}, {"uniqueid": "w13906838:a67111579", "current_trial": 96, "dateTime": 1664555378784, "trialdata": {"rt": 1034, "stimulus": "<p id='stroop-text' class='stroop-red'>RED</p>", "response": "r", "stimulus-type": "congruent", "word": "red", "color": "red", "correct_response": "r", "trial_id": "stroop-trial-1-congruent-23", "trial_type": "html-keyboard-response", "trial_index": 96, "time_elapsed": 267040, "internal_node_id": "0.0-6.0-1.0"}}, {"uniqueid": "w13906838:a67111579", "current_trial": 97, "dateTime": 1664555380391, "trialdata": {"rt": 1094, "stimulus": "<p id='stroop-text' class='stroop-green'>CHAIR</p>", "response": "g", "stimulus-type": "unrelated", "word": "CHAIR", "color": "green", "correct_response": "g", "trial_id": "stroop-trial-1-unrelated-4", "trial_type": "html-keyboard-response", "trial_index": 97, "time_elapsed": 268646, "internal_node_id": "0.0-6.0-2.0"}}, {"uniqueid": "w13906838:a67111579", "current_trial": 98, "dateTime": 1664555381872, "trialdata": {"rt": 971, "stimulus": "<p id='stroop-text' class='stroop-red'>SHIP</p>", "response": "r", "stimulus-type": "unrelated", "word": "SHIP", "color": "red", "correct_response": "r", "trial_id": "stroop-trial-1-unrelated-13", "trial_type": "html-keyboard-response", "trial_index": 98, "time_elapsed": 270128, "internal_node_id": "0.0-6.0-3.0"}}, {"uniqueid": "w13906838:a67111579", "current_trial": 99, "dateTime": 1664555383420, "trialdata": {"rt": 1037, "stimulus": "<p id='stroop-text' class='stroop-green'>SHIP</p>", "response": "g", "stimulus-type": "unrelated", "word": "SHIP", "color": "green", "correct_response": "g", "trial_id": "stroop-trial-1-unrelated-2", "trial_type": "html-keyboard-response", "trial_index": 99, "time_elapsed": 271676, "internal_node_id": "0.0-6.0-4.0"}}, {"uniqueid": "w13906838:a67111579", "current_trial": 100, "dateTime": 1664555384971, "trialdata": {"rt": 1042, "stimulus": "<p id='stroop-text' class='stroop-green'>SHIP</p>", "response": "g", "stimulus-type": "unrelated", "word": "SHIP", "color": "green", "correct_response": "g", "trial_id": "stroop-trial-1-unrelated-7", "trial_type": "html-keyboard-response", "trial_index": 100, "time_elapsed": 273227, "internal_node_id": "0.0-6.0-5.0"}}, {"uniqueid": "w13906838:a67111579", "current_trial": 101, "dateTime": 1664555386265, "trialdata": {"rt": 784, "stimulus": "<p id='stroop-text' class='stroop-blue'>BRAIN</p>", "response": "b", "stimulus-type": "unrelated", "word": "BRAIN", "color": "blue", "correct_response": "b", "trial_id": "stroop-trial-1-unrelated-16", "trial_type": "html-keyboard-response", "trial_index": 101, "time_elapsed": 274521, "internal_node_id": "0.0-6.0-6.0"}}, {"uniqueid": "w13906838:a67111579", "current_trial": 102, "dateTime": 1664555387778, "trialdata": {"rt": 1004, "stimulus": "<p id='stroop-text' class='stroop-red'>DOG</p>", "response": "r", "stimulus-type": "unrelated", "word": "DOG", "color": "red", "correct_response": "r", "trial_id": "stroop-trial-1-unrelated-28", "trial_type": "html-keyboard-response", "trial_index": 102, "time_elapsed": 276034, "internal_node_id": "0.0-6.0-7.0"}}, {"uniqueid": "w13906838:a67111579", "current_trial": 103, "dateTime": 1664555389386, "trialdata": {"rt": 1082, "stimulus": "<p id='stroop-text' class='stroop-green'>BOTTLE</p>", "response": "g", "stimulus-type": "unrelated", "word": "BOTTLE", "color": "green", "correct_response": "g", "trial_id": "stroop-trial-1-unrelated-15", "trial_type": "html-keyboard-response", "trial_index": 103, "time_elapsed": 277642, "internal_node_id": "0.0-6.0-8.0"}}, {"uniqueid": "w13906838:a67111579", "current_trial": 104, "dateTime": 1664555390821, "trialdata": {"rt": 918, "stimulus": "<p id='stroop-text' class='stroop-yellow'>YELLOW</p>", "response": "y", "stimulus-type": "congruent", "word": "yellow", "color": "yellow", "correct_response": "y", "trial_id": "stroop-trial-1-congruent-12", "trial_type": "html-keyboard-response", "trial_index": 104, "time_elapsed": 279077, "internal_node_id": "0.0-6.0-9.0"}}, {"uniqueid": "w13906838:a67111579", "current_trial": 105, "dateTime": 1664555392564, "trialdata": {"rt": 1232, "stimulus": "<p id='stroop-text' class='stroop-blue'>BLUE</p>", "response": "b", "stimulus-type": "congruent", "word": "blue", "color": "blue", "correct_response": "b", "trial_id": "stroop-trial-1-congruent-6", "trial_type": "html-keyboard-response", "trial_index": 105, "time_elapsed": 280820, "internal_node_id": "0.0-6.0-10.0"}}, {"uniqueid": "w13906838:a67111579", "current_trial": 106, "dateTime": 1664555393743, "trialdata": {"rt": 663, "stimulus": "<p id='stroop-text' class='stroop-blue'>BRIDGE</p>", "response": "b", "stimulus-type": "unrelated", "word": "BRIDGE", "color": "blue", "correct_response": "b", "trial_id": "stroop-trial-1-unrelated-25", "trial_type": "html-keyboard-response", "trial_index": 106, "time_elapsed": 281999, "internal_node_id": "0.0-6.0-11.0"}}, {"uniqueid": "w13906838:a67111579", "current_trial": 107, "dateTime": 1664555395066, "trialdata": {"rt": 814, "stimulus": "<p id='stroop-text' class='stroop-yellow'>WINDOW</p>", "response": "y", "stimulus-type": "unrelated", "word": "WINDOW", "color": "yellow", "correct_response": "y", "trial_id": "stroop-trial-1-unrelated-26", "trial_type": "html-keyboard-response", "trial_index": 107, "time_elapsed": 283322, "internal_node_id": "0.0-6.0-12.0"}}, {"uniqueid": "w13906838:a67111579", "current_trial": 108, "dateTime": 1664555396849, "trialdata": {"rt": 1269, "stimulus": "<p id='stroop-text' class='stroop-yellow'>DOG</p>", "response": "y", "stimulus-type": "unrelated", "word": "DOG", "color": "yellow", "correct_response": "y", "trial_id": "stroop-trial-1-unrelated-24", "trial_type": "html-keyboard-response", "trial_index": 108, "time_elapsed": 285105, "internal_node_id": "0.0-6.0-13.0"}}, {"uniqueid": "w13906838:a67111579", "current_trial": 109, "dateTime": 1664555398037, "trialdata": {"rt": 673, "stimulus": "<p id='stroop-text' class='stroop-yellow'>YELLOW</p>", "response": "y", "stimulus-type": "congruent", "word": "yellow", "color": "yellow", "correct_response": "y", "trial_id": "stroop-trial-1-congruent-19", "trial_type": "html-keyboard-response", "trial_index": 109, "time_elapsed": 286293, "internal_node_id": "0.0-6.0-14.0"}}, {"uniqueid": "w13906838:a67111579", "current_trial": 110, "dateTime": 1664555399601, "trialdata": {"rt": 1053, "stimulus": "<p id='stroop-text' class='stroop-red'>GREEN</p>", "response": "r", "stimulus-type": "incongruent", "word": "green", "color": "red", "correct_response": "r", "trial_id": "stroop-trial-1-incongruent-1", "trial_type": "html-keyboard-response", "trial_index": 110, "time_elapsed": 287857, "internal_node_id": "0.0-6.0-15.0"}}, {"uniqueid": "w13906838:a67111579", "current_trial": 111, "dateTime": 1664555401412, "trialdata": {"rt": 1300, "stimulus": "<p id='stroop-text' class='stroop-green'>WINDOW</p>", "response": "g", "stimulus-type": "unrelated", "word": "WINDOW", "color": "green", "correct_response": "g", "trial_id": "stroop-trial-1-unrelated-11", "trial_type": "html-keyboard-response", "trial_index": 111, "time_elapsed": 289667, "internal_node_id": "0.0-6.0-16.0"}}, {"uniqueid": "w13906838:a67111579", "current_trial": 112, "dateTime": 1664555402900, "trialdata": {"rt": 980, "stimulus": "<p id='stroop-text' class='stroop-blue'>DOG</p>", "response": "b", "stimulus-type": "unrelated", "word": "DOG", "color": "blue", "correct_response": "b", "trial_id": "stroop-trial-1-unrelated-21", "trial_type": "html-keyboard-response", "trial_index": 112, "time_elapsed": 291156, "internal_node_id": "0.0-6.0-17.0"}}, {"uniqueid": "w13906838:a67111579", "current_trial": 113, "dateTime": 1664555404277, "trialdata": {"rt": 862, "stimulus": "<p id='stroop-text' class='stroop-yellow'>RED</p>", "response": "y", "stimulus-type": "incongruent", "word": "red", "color": "yellow", "correct_response": "y", "trial_id": "stroop-trial-1-incongruent-9", "trial_type": "html-keyboard-response", "trial_index": 113, "time_elapsed": 292533, "internal_node_id": "0.0-6.0-18.0"}}, {"uniqueid": "w13906838:a67111579", "current_trial": 114, "dateTime": 1664555406528, "trialdata": {"rt": 1741, "stimulus": "<p id='stroop-text' class='stroop-red'>BLUE</p>", "response": "r", "stimulus-type": "incongruent", "word": "blue", "color": "red", "correct_response": "r", "trial_id": "stroop-trial-1-incongruent-24", "trial_type": "html-keyboard-response", "trial_index": 114, "time_elapsed": 294784, "internal_node_id": "0.0-6.0-19.0"}}, {"uniqueid": "w13906838:a67111579", "current_trial": 115, "dateTime": 1664555408764, "trialdata": {"rt": 1725, "stimulus": "<p id='stroop-text' class='stroop-blue'>YELLOW</p>", "response": "y", "stimulus-type": "incongruent", "word": "yellow", "color": "blue", "correct_response": "b", "trial_id": "stroop-trial-1-incongruent-26", "trial_type": "html-keyboard-response", "trial_index": 115, "time_elapsed": 297019, "internal_node_id": "0.0-6.0-20.0"}}, {"uniqueid": "w13906838:a67111579", "current_trial": 116, "dateTime": 1664555409960, "trialdata": {"rt": 681, "stimulus": "<p id='stroop-text' class='stroop-yellow'>YELLOW</p>", "response": "y", "stimulus-type": "congruent", "word": "yellow", "color": "yellow", "correct_response": "y", "trial_id": "stroop-trial-1-congruent-18", "trial_type": "html-keyboard-response", "trial_index": 116, "time_elapsed": 298216, "internal_node_id": "0.0-6.0-21.0"}}, {"uniqueid": "w13906838:a67111579", "current_trial": 117, "dateTime": 1664555411539, "trialdata": {"rt": 1068, "stimulus": "<p id='stroop-text' class='stroop-yellow'>YELLOW</p>", "response": "y", "stimulus-type": "congruent", "word": "yellow", "color": "yellow", "correct_response": "y", "trial_id": "stroop-trial-1-congruent-1", "trial_type": "html-keyboard-response", "trial_index": 117, "time_elapsed": 299794, "internal_node_id": "0.0-6.0-22.0"}}, {"uniqueid": "w13906838:a67111579", "current_trial": 118, "dateTime": 1664555412843, "trialdata": {"rt": 794, "stimulus": "<p id='stroop-text' class='stroop-green'>GREEN</p>", "response": "g", "stimulus-type": "congruent", "word": "green", "color": "green", "correct_response": "g", "trial_id": "stroop-trial-1-congruent-28", "trial_type": "html-keyboard-response", "trial_index": 118, "time_elapsed": 301099, "internal_node_id": "0.0-6.0-23.0"}}, {"uniqueid": "w13906838:a67111579", "current_trial": 119, "dateTime": 1664555414111, "trialdata": {"rt": 757, "stimulus": "<p id='stroop-text' class='stroop-red'>SHIP</p>", "response": "r", "stimulus-type": "unrelated", "word": "SHIP", "color": "red", "correct_response": "r", "trial_id": "stroop-trial-1-unrelated-9", "trial_type": "html-keyboard-response", "trial_index": 119, "time_elapsed": 302367, "internal_node_id": "0.0-6.0-24.0"}}, {"uniqueid": "w13906838:a67111579", "current_trial": 120, "dateTime": 1664555415661, "trialdata": {"rt": 1041, "stimulus": "<p id='stroop-text' class='stroop-yellow'>YELLOW</p>", "response": "y", "stimulus-type": "congruent", "word": "yellow", "color": "yellow", "correct_response": "y", "trial_id": "stroop-trial-1-congruent-29", "trial_type": "html-keyboard-response", "trial_index": 120, "time_elapsed": 303917, "internal_node_id": "0.0-6.0-25.0"}}, {"uniqueid": "w13906838:a67111579", "current_trial": 121, "dateTime": 1664555416952, "trialdata": {"rt": 781, "stimulus": "<p id='stroop-text' class='stroop-blue'>SHIP</p>", "response": "b", "stimulus-type": "unrelated", "word": "SHIP", "color": "blue", "correct_response": "b", "trial_id": "stroop-trial-1-unrelated-14", "trial_type": "html-keyboard-response", "trial_index": 121, "time_elapsed": 305208, "internal_node_id": "0.0-6.0-26.0"}}, {"uniqueid": "w13906838:a67111579", "current_trial": 122, "dateTime": 1664555418820, "trialdata": {"rt": 1357, "stimulus": "<p id='stroop-text' class='stroop-yellow'>SHIP</p>", "response": "y", "stimulus-type": "unrelated", "word": "SHIP", "color": "yellow", "correct_response": "y", "trial_id": "stroop-trial-1-unrelated-29", "trial_type": "html-keyboard-response", "trial_index": 122, "time_elapsed": 307076, "internal_node_id": "0.0-6.0-27.0"}}, {"uniqueid": "w13906838:a67111579", "current_trial": 123, "dateTime": 1664555421977, "trialdata": {"rt": 2642, "stimulus": "<p id='stroop-text' class='stroop-blue'>BLUE</p>", "response": "b", "stimulus-type": "congruent", "word": "blue", "color": "blue", "correct_response": "b", "trial_id": "stroop-trial-1-congruent-22", "trial_type": "html-keyboard-response", "trial_index": 123, "time_elapsed": 310233, "internal_node_id": "0.0-6.0-28.0"}}, {"uniqueid": "w13906838:a67111579", "current_trial": 124, "dateTime": 1664555423311, "trialdata": {"rt": 824, "stimulus": "<p id='stroop-text' class='stroop-green'>YELLOW</p>", "response": "y", "stimulus-type": "incongruent", "word": "yellow", "color": "green", "correct_response": "g", "trial_id": "stroop-trial-1-incongruent-22", "trial_type": "html-keyboard-response", "trial_index": 124, "time_elapsed": 311567, "internal_node_id": "0.0-6.0-29.0"}}, {"uniqueid": "w13906838:a67111579", "current_trial": 125, "dateTime": 1664555425000, "trialdata": {"rt": 1178, "stimulus": "<p id='stroop-text' class='stroop-red'>RED</p>", "response": "r", "stimulus-type": "congruent", "word": "red", "color": "red", "correct_response": "r", "trial_id": "stroop-trial-1-congruent-17", "trial_type": "html-keyboard-response", "trial_index": 125, "time_elapsed": 313256, "internal_node_id": "0.0-6.0-30.0"}}, {"uniqueid": "w13906838:a67111579", "current_trial": 126, "dateTime": 1664555426511, "trialdata": {"rt": 1000, "stimulus": "<p id='stroop-text' class='stroop-blue'>BLUE</p>", "response": "b", "stimulus-type": "congruent", "word": "blue", "color": "blue", "correct_response": "b", "trial_id": "stroop-trial-1-congruent-27", "trial_type": "html-keyboard-response", "trial_index": 126, "time_elapsed": 314767, "internal_node_id": "0.0-6.0-31.0"}}, {"uniqueid": "w13906838:a67111579", "current_trial": 127, "dateTime": 1664555427998, "trialdata": {"rt": 974, "stimulus": "<p id='stroop-text' class='stroop-yellow'>GREEN</p>", "response": "y", "stimulus-type": "incongruent", "word": "green", "color": "yellow", "correct_response": "y", "trial_id": "stroop-trial-1-incongruent-15", "trial_type": "html-keyboard-response", "trial_index": 127, "time_elapsed": 316254, "internal_node_id": "0.0-6.0-32.0"}}, {"uniqueid": "w13906838:a67111579", "current_trial": 128, "dateTime": 1664555429505, "trialdata": {"rt": 980, "stimulus": "<p id='stroop-text' class='stroop-red'>BLUE</p>", "response": "b", "stimulus-type": "incongruent", "word": "blue", "color": "red", "correct_response": "r", "trial_id": "stroop-trial-1-incongruent-21", "trial_type": "html-keyboard-response", "trial_index": 128, "time_elapsed": 317760, "internal_node_id": "0.0-6.0-33.0"}}, {"uniqueid": "w13906838:a67111579", "current_trial": 129, "dateTime": 1664555431279, "trialdata": {"rt": 1265, "stimulus": "<p id='stroop-text' class='stroop-red'>FORK</p>", "response": "r", "stimulus-type": "unrelated", "word": "FORK", "color": "red", "correct_response": "r", "trial_id": "stroop-trial-1-unrelated-27", "trial_type": "html-keyboard-response", "trial_index": 129, "time_elapsed": 319535, "internal_node_id": "0.0-6.0-34.0"}}, {"uniqueid": "w13906838:a67111579", "current_trial": 130, "dateTime": 1664555433866, "trialdata": {"rt": 2072, "stimulus": "<p id='stroop-text' class='stroop-green'>DOG</p>", "response": "g", "stimulus-type": "unrelated", "word": "DOG", "color": "green", "correct_response": "g", "trial_id": "stroop-trial-1-unrelated-19", "trial_type": "html-keyboard-response", "trial_index": 130, "time_elapsed": 322122, "internal_node_id": "0.0-6.0-35.0"}}, {"uniqueid": "w13906838:a67111579", "current_trial": 131, "dateTime": 1664555435822, "trialdata": {"rt": 1441, "stimulus": "<p id='stroop-text' class='stroop-yellow'>BLUE</p>", "response": "b", "stimulus-type": "incongruent", "word": "blue", "color": "yellow", "correct_response": "y", "trial_id": "stroop-trial-1-incongruent-23", "trial_type": "html-keyboard-response", "trial_index": 131, "time_elapsed": 324076, "internal_node_id": "0.0-6.0-36.0"}}, {"uniqueid": "w13906838:a67111579", "current_trial": 132, "dateTime": 1664555439677, "trialdata": {"rt": 3345, "stimulus": "<p id='stroop-text' class='stroop-green'>FORK</p>", "response": "g", "stimulus-type": "unrelated", "word": "FORK", "color": "green", "correct_response": "g", "trial_id": "stroop-trial-1-unrelated-17", "trial_type": "html-keyboard-response", "trial_index": 132, "time_elapsed": 327933, "internal_node_id": "0.0-6.0-37.0"}}, {"uniqueid": "w13906838:a67111579", "current_trial": 133, "dateTime": 1664555441215, "trialdata": {"rt": 1018, "stimulus": "<p id='stroop-text' class='stroop-yellow'>GREEN</p>", "response": "y", "stimulus-type": "incongruent", "word": "green", "color": "yellow", "correct_response": "y", "trial_id": "stroop-trial-1-incongruent-12", "trial_type": "html-keyboard-response", "trial_index": 133, "time_elapsed": 329471, "internal_node_id": "0.0-6.0-38.0"}}, {"uniqueid": "w13906838:a67111579", "current_trial": 134, "dateTime": 1664555442972, "trialdata": {"rt": 1244, "stimulus": "<p id='stroop-text' class='stroop-blue'>BLUE</p>", "response": "b", "stimulus-type": "congruent", "word": "blue", "color": "blue", "correct_response": "b", "trial_id": "stroop-trial-1-congruent-14", "trial_type": "html-keyboard-response", "trial_index": 134, "time_elapsed": 331228, "internal_node_id": "0.0-6.0-39.0"}}, {"uniqueid": "w13906838:a67111579", "current_trial": 135, "dateTime": 1664555444703, "trialdata": {"rt": 1218, "stimulus": "<p id='stroop-text' class='stroop-green'>BOAT</p>", "response": "g", "stimulus-type": "unrelated", "word": "BOAT", "color": "green", "correct_response": "g", "trial_id": "stroop-trial-1-unrelated-30", "trial_type": "html-keyboard-response", "trial_index": 135, "time_elapsed": 332959, "internal_node_id": "0.0-6.0-40.0"}}, {"uniqueid": "w13906838:a67111579", "current_trial": 136, "dateTime": 1664555446345, "trialdata": {"rt": 1131, "stimulus": "<p id='stroop-text' class='stroop-red'>BOTTLE</p>", "response": "r", "stimulus-type": "unrelated", "word": "BOTTLE", "color": "red", "correct_response": "r", "trial_id": "stroop-trial-1-unrelated-5", "trial_type": "html-keyboard-response", "trial_index": 136, "time_elapsed": 334601, "internal_node_id": "0.0-6.0-41.0"}}, {"uniqueid": "w13906838:a67111579", "current_trial": 137, "dateTime": 1664555447928, "trialdata": {"rt": 1072, "stimulus": "<p id='stroop-text' class='stroop-yellow'>DOG</p>", "response": "y", "stimulus-type": "unrelated", "word": "DOG", "color": "yellow", "correct_response": "y", "trial_id": "stroop-trial-1-unrelated-18", "trial_type": "html-keyboard-response", "trial_index": 137, "time_elapsed": 336184, "internal_node_id": "0.0-6.0-42.0"}}, {"uniqueid": "w13906838:a67111579", "current_trial": 138, "dateTime": 1664555449581, "trialdata": {"rt": 1139, "stimulus": "<p id='stroop-text' class='stroop-green'>GREEN</p>", "response": "g", "stimulus-type": "congruent", "word": "green", "color": "green", "correct_response": "g", "trial_id": "stroop-trial-1-congruent-24", "trial_type": "html-keyboard-response", "trial_index": 138, "time_elapsed": 337837, "internal_node_id": "0.0-6.0-43.0"}}, {"uniqueid": "w13906838:a67111579", "current_trial": 139, "dateTime": 1664555451406, "trialdata": {"rt": 1311, "stimulus": "<p id='stroop-text' class='stroop-yellow'>BLUE</p>", "response": "y", "stimulus-type": "incongruent", "word": "blue", "color": "yellow", "correct_response": "y", "trial_id": "stroop-trial-1-incongruent-29", "trial_type": "html-keyboard-response", "trial_index": 139, "time_elapsed": 339662, "internal_node_id": "0.0-6.0-44.0"}}, {"uniqueid": "w13906838:a67111579", "current_trial": 140, "dateTime": 1664555453049, "trialdata": {"rt": 1130, "stimulus": "<p id='stroop-text' class='stroop-red'>MONKEY</p>", "response": "r", "stimulus-type": "unrelated", "word": "MONKEY", "color": "red", "correct_response": "r", "trial_id": "stroop-trial-1-unrelated-10", "trial_type": "html-keyboard-response", "trial_index": 140, "time_elapsed": 341305, "internal_node_id": "0.0-6.0-45.0"}}, {"uniqueid": "w13906838:a67111579", "current_trial": 141, "dateTime": 1664555454608, "trialdata": {"rt": 1046, "stimulus": "<p id='stroop-text' class='stroop-red'>GREEN</p>", "response": "g", "stimulus-type": "incongruent", "word": "green", "color": "red", "correct_response": "r", "trial_id": "stroop-trial-1-incongruent-2", "trial_type": "html-keyboard-response", "trial_index": 141, "time_elapsed": 342863, "internal_node_id": "0.0-6.0-46.0"}}, {"uniqueid": "w13906838:a67111579", "current_trial": 142, "dateTime": 1664555456180, "trialdata": {"rt": 1059, "stimulus": "<p id='stroop-text' class='stroop-blue'>BLUE</p>", "response": "b", "stimulus-type": "congruent", "word": "blue", "color": "blue", "correct_response": "b", "trial_id": "stroop-trial-1-congruent-9", "trial_type": "html-keyboard-response", "trial_index": 142, "time_elapsed": 344436, "internal_node_id": "0.0-6.0-47.0"}}, {"uniqueid": "w13906838:a67111579", "current_trial": 143, "dateTime": 1664555457541, "trialdata": {"rt": 845, "stimulus": "<p id='stroop-text' class='stroop-yellow'>YELLOW</p>", "response": "y", "stimulus-type": "congruent", "word": "yellow", "color": "yellow", "correct_response": "y", "trial_id": "stroop-trial-1-congruent-16", "trial_type": "html-keyboard-response", "trial_index": 143, "time_elapsed": 345797, "internal_node_id": "0.0-6.0-48.0"}}, {"uniqueid": "w13906838:a67111579", "current_trial": 144, "dateTime": 1664555459006, "trialdata": {"rt": 953, "stimulus": "<p id='stroop-text' class='stroop-green'>GREEN</p>", "response": "g", "stimulus-type": "congruent", "word": "green", "color": "green", "correct_response": "g", "trial_id": "stroop-trial-1-congruent-20", "trial_type": "html-keyboard-response", "trial_index": 144, "time_elapsed": 347261, "internal_node_id": "0.0-6.0-49.0"}}, {"uniqueid": "w13906838:a67111579", "current_trial": 145, "dateTime": 1664555460970, "trialdata": {"rt": 1451, "stimulus": "<p id='stroop-text' class='stroop-green'>YELLOW</p>", "response": "g", "stimulus-type": "incongruent", "word": "yellow", "color": "green", "correct_response": "g", "trial_id": "stroop-trial-1-incongruent-17", "trial_type": "html-keyboard-response", "trial_index": 145, "time_elapsed": 349226, "internal_node_id": "0.0-6.0-50.0"}}, {"uniqueid": "w13906838:a67111579", "current_trial": 146, "dateTime": 1664555462990, "trialdata": {"rt": 1506, "stimulus": "<p id='stroop-text' class='stroop-red'>RED</p>", "response": "r", "stimulus-type": "congruent", "word": "red", "color": "red", "correct_response": "r", "trial_id": "stroop-trial-1-congruent-4", "trial_type": "html-keyboard-response", "trial_index": 146, "time_elapsed": 351246, "internal_node_id": "0.0-6.0-51.0"}}, {"uniqueid": "w13906838:a67111579", "current_trial": 147, "dateTime": 1664555464308, "trialdata": {"rt": 805, "stimulus": "<p id='stroop-text' class='stroop-red'>YELLOW</p>", "response": "r", "stimulus-type": "incongruent", "word": "yellow", "color": "red", "correct_response": "r", "trial_id": "stroop-trial-1-incongruent-14", "trial_type": "html-keyboard-response", "trial_index": 147, "time_elapsed": 352564, "internal_node_id": "0.0-6.0-52.0"}}, {"uniqueid": "w13906838:a67111579", "current_trial": 148, "dateTime": 1664555465380, "trialdata": {"rt": 561, "stimulus": "<p id='stroop-text' class='stroop-red'>YELLOW</p>", "response": "r", "stimulus-type": "incongruent", "word": "yellow", "color": "red", "correct_response": "r", "trial_id": "stroop-trial-1-incongruent-8", "trial_type": "html-keyboard-response", "trial_index": 148, "time_elapsed": 353636, "internal_node_id": "0.0-6.0-53.0"}}, {"uniqueid": "w13906838:a67111579", "current_trial": 149, "dateTime": 1664555466913, "trialdata": {"rt": 1015, "stimulus": "<p id='stroop-text' class='stroop-blue'>STONE</p>", "response": "b", "stimulus-type": "unrelated", "word": "STONE", "color": "blue", "correct_response": "b", "trial_id": "stroop-trial-1-unrelated-1", "trial_type": "html-keyboard-response", "trial_index": 149, "time_elapsed": 355169, "internal_node_id": "0.0-6.0-54.0"}}, {"uniqueid": "w13906838:a67111579", "current_trial": 150, "dateTime": 1664555468179, "trialdata": {"rt": 752, "stimulus": "<p id='stroop-text' class='stroop-blue'>BLUE</p>", "response": "b", "stimulus-type": "congruent", "word": "blue", "color": "blue", "correct_response": "b", "trial_id": "stroop-trial-1-congruent-10", "trial_type": "html-keyboard-response", "trial_index": 150, "time_elapsed": 356435, "internal_node_id": "0.0-6.0-55.0"}}, {"uniqueid": "w13906838:a67111579", "current_trial": 151, "dateTime": 1664555469245, "trialdata": {"rt": 553, "stimulus": "<p id='stroop-text' class='stroop-blue'>BLUE</p>", "response": "b", "stimulus-type": "congruent", "word": "blue", "color": "blue", "correct_response": "b", "trial_id": "stroop-trial-1-congruent-3", "trial_type": "html-keyboard-response", "trial_index": 151, "time_elapsed": 357501, "internal_node_id": "0.0-6.0-56.0"}}, {"uniqueid": "w13906838:a67111579", "current_trial": 152, "dateTime": 1664555470713, "trialdata": {"rt": 951, "stimulus": "<p id='stroop-text' class='stroop-blue'>GREEN</p>", "response": "b", "stimulus-type": "incongruent", "word": "green", "color": "blue", "correct_response": "b", "trial_id": "stroop-trial-1-incongruent-27", "trial_type": "html-keyboard-response", "trial_index": 152, "time_elapsed": 358969, "internal_node_id": "0.0-6.0-57.0"}}, {"uniqueid": "w13906838:a67111579", "current_trial": 153, "dateTime": 1664555472229, "trialdata": {"rt": 1006, "stimulus": "<p id='stroop-text' class='stroop-yellow'>BLUE</p>", "response": "y", "stimulus-type": "incongruent", "word": "blue", "color": "yellow", "correct_response": "y", "trial_id": "stroop-trial-1-incongruent-3", "trial_type": "html-keyboard-response", "trial_index": 153, "time_elapsed": 360484, "internal_node_id": "0.0-6.0-58.0"}}, {"uniqueid": "w13906838:a67111579", "current_trial": 154, "dateTime": 1664555474740, "trialdata": {"rt": 1994, "stimulus": "<p id='stroop-text' class='stroop-green'>GREEN</p>", "response": "g", "stimulus-type": "congruent", "word": "green", "color": "green", "correct_response": "g", "trial_id": "stroop-trial-1-congruent-15", "trial_type": "html-keyboard-response", "trial_index": 154, "time_elapsed": 362996, "internal_node_id": "0.0-6.0-59.0"}}, {"uniqueid": "w13906838:a67111579", "current_trial": 155, "dateTime": 1664555478424, "trialdata": {"rt": 3167, "stimulus": "<p id='stroop-text' class='stroop-red'>DOG</p>", "response": "r", "stimulus-type": "unrelated", "word": "DOG", "color": "red", "correct_response": "r", "trial_id": "stroop-trial-1-unrelated-8", "trial_type": "html-keyboard-response", "trial_index": 155, "time_elapsed": 366680, "internal_node_id": "0.0-6.0-60.0"}}, {"uniqueid": "w13906838:a67111579", "current_trial": 156, "dateTime": 1664555481021, "trialdata": {"rt": 2085, "stimulus": "<p id='stroop-text' class='stroop-blue'>CHAIR</p>", "response": "b", "stimulus-type": "unrelated", "word": "CHAIR", "color": "blue", "correct_response": "b", "trial_id": "stroop-trial-1-unrelated-12", "trial_type": "html-keyboard-response", "trial_index": 156, "time_elapsed": 369276, "internal_node_id": "0.0-6.0-61.0"}}, {"uniqueid": "w13906838:a67111579", "current_trial": 157, "dateTime": 1664555482506, "trialdata": {"rt": 969, "stimulus": "<p id='stroop-text' class='stroop-green'>YELLOW</p>", "response": "y", "stimulus-type": "incongruent", "word": "yellow", "color": "green", "correct_response": "g", "trial_id": "stroop-trial-1-incongruent-4", "trial_type": "html-keyboard-response", "trial_index": 157, "time_elapsed": 370762, "internal_node_id": "0.0-6.0-62.0"}}, {"uniqueid": "w13906838:a67111579", "current_trial": 158, "dateTime": 1664555484539, "trialdata": {"rt": 1517, "stimulus": "<p id='stroop-text' class='stroop-yellow'>RED</p>", "response": "y", "stimulus-type": "incongruent", "word": "red", "color": "yellow", "correct_response": "y", "trial_id": "stroop-trial-1-incongruent-13", "trial_type": "html-keyboard-response", "trial_index": 158, "time_elapsed": 372795, "internal_node_id": "0.0-6.0-63.0"}}, {"uniqueid": "w13906838:a67111579", "current_trial": 159, "dateTime": 1664555486375, "trialdata": {"rt": 1316, "stimulus": "<p id='stroop-text' class='stroop-green'>YELLOW</p>", "response": "g", "stimulus-type": "incongruent", "word": "yellow", "color": "green", "correct_response": "g", "trial_id": "stroop-trial-1-incongruent-25", "trial_type": "html-keyboard-response", "trial_index": 159, "time_elapsed": 374631, "internal_node_id": "0.0-6.0-64.0"}}, {"uniqueid": "w13906838:a67111579", "current_trial": 160, "dateTime": 1664555487915, "trialdata": {"rt": 1028, "stimulus": "<p id='stroop-text' class='stroop-blue'>BOTTLE</p>", "response": "b", "stimulus-type": "unrelated", "word": "BOTTLE", "color": "blue", "correct_response": "b", "trial_id": "stroop-trial-1-unrelated-6", "trial_type": "html-keyboard-response", "trial_index": 160, "time_elapsed": 376171, "internal_node_id": "0.0-6.0-65.0"}}, {"uniqueid": "w13906838:a67111579", "current_trial": 161, "dateTime": 1664555489645, "trialdata": {"rt": 1214, "stimulus": "<p id='stroop-text' class='stroop-yellow'>YELLOW</p>", "response": "y", "stimulus-type": "congruent", "word": "yellow", "color": "yellow", "correct_response": "y", "trial_id": "stroop-trial-1-congruent-11", "trial_type": "html-keyboard-response", "trial_index": 161, "time_elapsed": 377901, "internal_node_id": "0.0-6.0-66.0"}}, {"uniqueid": "w13906838:a67111579", "current_trial": 162, "dateTime": 1664555491032, "trialdata": {"rt": 872, "stimulus": "<p id='stroop-text' class='stroop-green'>GREEN</p>", "response": "g", "stimulus-type": "congruent", "word": "green", "color": "green", "correct_response": "g", "trial_id": "stroop-trial-1-congruent-5", "trial_type": "html-keyboard-response", "trial_index": 162, "time_elapsed": 379288, "internal_node_id": "0.0-6.0-67.0"}}, {"uniqueid": "w13906838:a67111579", "current_trial": 163, "dateTime": 1664555493192, "trialdata": {"rt": 1647, "stimulus": "<p id='stroop-text' class='stroop-yellow'>RED</p>", "response": "y", "stimulus-type": "incongruent", "word": "red", "color": "yellow", "correct_response": "y", "trial_id": "stroop-trial-1-incongruent-28", "trial_type": "html-keyboard-response", "trial_index": 163, "time_elapsed": 381448, "internal_node_id": "0.0-6.0-68.0"}}, {"uniqueid": "w13906838:a67111579", "current_trial": 164, "dateTime": 1664555495041, "trialdata": {"rt": 1331, "stimulus": "<p id='stroop-text' class='stroop-blue'>BLUE</p>", "response": "b", "stimulus-type": "congruent", "word": "blue", "color": "blue", "correct_response": "b", "trial_id": "stroop-trial-1-congruent-13", "trial_type": "html-keyboard-response", "trial_index": 164, "time_elapsed": 383297, "internal_node_id": "0.0-6.0-69.0"}}, {"uniqueid": "w13906838:a67111579", "current_trial": 165, "dateTime": 1664555496527, "trialdata": {"rt": 973, "stimulus": "<p id='stroop-text' class='stroop-red'>BLUE</p>", "response": "r", "stimulus-type": "incongruent", "word": "blue", "color": "red", "correct_response": "r", "trial_id": "stroop-trial-1-incongruent-6", "trial_type": "html-keyboard-response", "trial_index": 165, "time_elapsed": 384783, "internal_node_id": "0.0-6.0-70.0"}}, {"uniqueid": "w13906838:a67111579", "current_trial": 166, "dateTime": 1664555498309, "trialdata": {"rt": 1268, "stimulus": "<p id='stroop-text' class='stroop-green'>YELLOW</p>", "response": "g", "stimulus-type": "incongruent", "word": "yellow", "color": "green", "correct_response": "g", "trial_id": "stroop-trial-1-incongruent-19", "trial_type": "html-keyboard-response", "trial_index": 166, "time_elapsed": 386565, "internal_node_id": "0.0-6.0-71.0"}}, {"uniqueid": "w13906838:a67111579", "current_trial": 167, "dateTime": 1664555499843, "trialdata": {"rt": 1002, "stimulus": "<p id='stroop-text' class='stroop-blue'>BLUE</p>", "response": "b", "stimulus-type": "congruent", "word": "blue", "color": "blue", "correct_response": "b", "trial_id": "stroop-trial-1-congruent-26", "trial_type": "html-keyboard-response", "trial_index": 167, "time_elapsed": 388099, "internal_node_id": "0.0-6.0-72.0"}}, {"uniqueid": "w13906838:a67111579", "current_trial": 168, "dateTime": 1664555501300, "trialdata": {"rt": 937, "stimulus": "<p id='stroop-text' class='stroop-green'>GREEN</p>", "response": "g", "stimulus-type": "congruent", "word": "green", "color": "green", "correct_response": "g", "trial_id": "stroop-trial-1-congruent-2", "trial_type": "html-keyboard-response", "trial_index": 168, "time_elapsed": 389556, "internal_node_id": "0.0-6.0-73.0"}}, {"uniqueid": "w13906838:a67111579", "current_trial": 169, "dateTime": 1664555503223, "trialdata": {"rt": 1409, "stimulus": "<p id='stroop-text' class='stroop-red'>RED</p>", "response": "r", "stimulus-type": "congruent", "word": "red", "color": "red", "correct_response": "r", "trial_id": "stroop-trial-1-congruent-21", "trial_type": "html-keyboard-response", "trial_index": 169, "time_elapsed": 391479, "internal_node_id": "0.0-6.0-74.0"}}, {"uniqueid": "w13906838:a67111579", "current_trial": 170, "dateTime": 1664555504736, "trialdata": {"rt": 997, "stimulus": "<p id='stroop-text' class='stroop-blue'>BLUE</p>", "response": "b", "stimulus-type": "congruent", "word": "blue", "color": "blue", "correct_response": "b", "trial_id": "stroop-trial-1-congruent-8", "trial_type": "html-keyboard-response", "trial_index": 170, "time_elapsed": 392990, "internal_node_id": "0.0-6.0-75.0"}}, {"uniqueid": "w13906838:a67111579", "current_trial": 171, "dateTime": 1664555506217, "trialdata": {"rt": 968, "stimulus": "<p id='stroop-text' class='stroop-red'>YELLOW</p>", "response": "r", "stimulus-type": "incongruent", "word": "yellow", "color": "red", "correct_response": "r", "trial_id": "stroop-trial-1-incongruent-10", "trial_type": "html-keyboard-response", "trial_index": 171, "time_elapsed": 394473, "internal_node_id": "0.0-6.0-76.0"}}, {"uniqueid": "w13906838:a67111579", "current_trial": 172, "dateTime": 1664555507802, "trialdata": {"rt": 1074, "stimulus": "<p id='stroop-text' class='stroop-blue'>BLUE</p>", "response": "b", "stimulus-type": "congruent", "word": "blue", "color": "blue", "correct_response": "b", "trial_id": "stroop-trial-1-congruent-7", "trial_type": "html-keyboard-response", "trial_index": 172, "time_elapsed": 396057, "internal_node_id": "0.0-6.0-77.0"}}, {"uniqueid": "w13906838:a67111579", "current_trial": 173, "dateTime": 1664555508996, "trialdata": {"rt": 682, "stimulus": "<p id='stroop-text' class='stroop-red'>YELLOW</p>", "response": "r", "stimulus-type": "incongruent", "word": "yellow", "color": "red", "correct_response": "r", "trial_id": "stroop-trial-1-incongruent-20", "trial_type": "html-keyboard-response", "trial_index": 173, "time_elapsed": 397253, "internal_node_id": "0.0-6.0-78.0"}}, {"uniqueid": "w13906838:a67111579", "current_trial": 174, "dateTime": 1664555510254, "trialdata": {"rt": 746, "stimulus": "<p id='stroop-text' class='stroop-red'>DOG</p>", "response": "r", "stimulus-type": "unrelated", "word": "DOG", "color": "red", "correct_response": "r", "trial_id": "stroop-trial-1-unrelated-3", "trial_type": "html-keyboard-response", "trial_index": 174, "time_elapsed": 398510, "internal_node_id": "0.0-6.0-79.0"}}, {"uniqueid": "w13906838:a67111579", "current_trial": 175, "dateTime": 1664555512073, "trialdata": {"rt": 1302, "stimulus": "<p id='stroop-text' class='stroop-green'>BLUE</p>", "response": "g", "stimulus-type": "incongruent", "word": "blue", "color": "green", "correct_response": "g", "trial_id": "stroop-trial-1-incongruent-18", "trial_type": "html-keyboard-response", "trial_index": 175, "time_elapsed": 400329, "internal_node_id": "0.0-6.0-80.0"}}, {"uniqueid": "w13906838:a67111579", "current_trial": 176, "dateTime": 1664555513971, "trialdata": {"rt": 1385, "stimulus": "<p id='stroop-text' class='stroop-yellow'>WINDOW</p>", "response": "y", "stimulus-type": "unrelated", "word": "WINDOW", "color": "yellow", "correct_response": "y", "trial_id": "stroop-trial-1-unrelated-23", "trial_type": "html-keyboard-response", "trial_index": 176, "time_elapsed": 402227, "internal_node_id": "0.0-6.0-81.0"}}, {"uniqueid": "w13906838:a67111579", "current_trial": 177, "dateTime": 1664555515407, "trialdata": {"rt": 923, "stimulus": "<p id='stroop-text' class='stroop-yellow'>YELLOW</p>", "response": "y", "stimulus-type": "congruent", "word": "yellow", "color": "yellow", "correct_response": "y", "trial_id": "stroop-trial-1-congruent-30", "trial_type": "html-keyboard-response", "trial_index": 177, "time_elapsed": 403663, "internal_node_id": "0.0-6.0-82.0"}}, {"uniqueid": "w13906838:a67111579", "current_trial": 178, "dateTime": 1664555517559, "trialdata": {"rt": 1636, "stimulus": "<p id='stroop-text' class='stroop-red'>GREEN</p>", "response": "r", "stimulus-type": "incongruent", "word": "green", "color": "red", "correct_response": "r", "trial_id": "stroop-trial-1-incongruent-16", "trial_type": "html-keyboard-response", "trial_index": 178, "time_elapsed": 405815, "internal_node_id": "0.0-6.0-83.0"}}, {"uniqueid": "w13906838:a67111579", "current_trial": 179, "dateTime": 1664555519326, "trialdata": {"rt": 1247, "stimulus": "<p id='stroop-text' class='stroop-yellow'>BLUE</p>", "response": "b", "stimulus-type": "incongruent", "word": "blue", "color": "yellow", "correct_response": "y", "trial_id": "stroop-trial-1-incongruent-11", "trial_type": "html-keyboard-response", "trial_index": 179, "time_elapsed": 407582, "internal_node_id": "0.0-6.0-84.0"}}, {"uniqueid": "w13906838:a67111579", "current_trial": 180, "dateTime": 1664555521735, "trialdata": {"rt": 1897, "stimulus": "<p id='stroop-text' class='stroop-blue'>GREEN</p>", "response": "b", "stimulus-type": "incongruent", "word": "green", "color": "blue", "correct_response": "b", "trial_id": "stroop-trial-1-incongruent-7", "trial_type": "html-keyboard-response", "trial_index": 180, "time_elapsed": 409991, "internal_node_id": "0.0-6.0-85.0"}}, {"uniqueid": "w13906838:a67111579", "current_trial": 181, "dateTime": 1664555524149, "trialdata": {"rt": 1901, "stimulus": "<p id='stroop-text' class='stroop-green'>CHAIR</p>", "response": "g", "stimulus-type": "unrelated", "word": "CHAIR", "color": "green", "correct_response": "g", "trial_id": "stroop-trial-1-unrelated-20", "trial_type": "html-keyboard-response", "trial_index": 181, "time_elapsed": 412404, "internal_node_id": "0.0-6.0-86.0"}}, {"uniqueid": "w13906838:a67111579", "current_trial": 182, "dateTime": 1664555526399, "trialdata": {"rt": 1736, "stimulus": "<p id='stroop-text' class='stroop-red'>BLUE</p>", "response": "b", "stimulus-type": "incongruent", "word": "blue", "color": "red", "correct_response": "r", "trial_id": "stroop-trial-1-incongruent-30", "trial_type": "html-keyboard-response", "trial_index": 182, "time_elapsed": 414655, "internal_node_id": "0.0-6.0-87.0"}}, {"uniqueid": "w13906838:a67111579", "current_trial": 183, "dateTime": 1664555528579, "trialdata": {"rt": 1662, "stimulus": "<p id='stroop-text' class='stroop-red'>BLUE</p>", "response": "r", "stimulus-type": "incongruent", "word": "blue", "color": "red", "correct_response": "r", "trial_id": "stroop-trial-1-incongruent-5", "trial_type": "html-keyboard-response", "trial_index": 183, "time_elapsed": 416835, "internal_node_id": "0.0-6.0-88.0"}}, {"uniqueid": "w13906838:a67111579", "current_trial": 184, "dateTime": 1664555529760, "trialdata": {"rt": 667, "stimulus": "<p id='stroop-text' class='stroop-yellow'>YELLOW</p>", "response": "y", "stimulus-type": "congruent", "word": "yellow", "color": "yellow", "correct_response": "y", "trial_id": "stroop-trial-1-congruent-25", "trial_type": "html-keyboard-response", "trial_index": 184, "time_elapsed": 418016, "internal_node_id": "0.0-6.0-89.0"}}, {"uniqueid": "w13906838:a67111579", "current_trial": 185, "dateTime": 1664555535137, "trialdata": {"rt": 4857, "stimulus": "  <h1> End of block! </h1>\n\n  You have reached the end of the block 2/5. If you need a short break, feel free to take one now before moving on.\n\n  <br><br>\n  In the next block, you will complete another 90 rounds of this game.\n\n  <br><br>\n  <div style='text-align: center;'>Press <code>space</code> to begin.</div>\n  <br><br>\n<div style='text-align: center;'>(If the experiment doesn't continue, try clicking on the text and then pressing <code>space</code>.)</div>", "response": " ", "trial_id": "stroop_1_ready_3", "trial_type": "html-keyboard-response", "trial_index": 185, "time_elapsed": 423393, "internal_node_id": "0.0-7.0"}}, {"uniqueid": "w13906838:a67111579", "current_trial": 186, "dateTime": 1664555536476, "trialdata": {"rt": 1316, "stimulus": "<p id='stroop-text' class='stroop-green'>WINDOW</p>", "response": "g", "stimulus-type": "unrelated", "word": "WINDOW", "color": "green", "correct_response": "g", "trial_id": "stroop-trial-1-unrelated-26", "trial_type": "html-keyboard-response", "trial_index": 186, "time_elapsed": 424732, "internal_node_id": "0.0-8.0-0.0"}}, {"uniqueid": "w13906838:a67111579", "current_trial": 187, "dateTime": 1664555538057, "trialdata": {"rt": 1067, "stimulus": "<p id='stroop-text' class='stroop-yellow'>WINDOW</p>", "response": "y", "stimulus-type": "unrelated", "word": "WINDOW", "color": "yellow", "correct_response": "y", "trial_id": "stroop-trial-1-unrelated-2", "trial_type": "html-keyboard-response", "trial_index": 187, "time_elapsed": 426313, "internal_node_id": "0.0-8.0-1.0"}}, {"uniqueid": "w13906838:a67111579", "current_trial": 188, "dateTime": 1664555539447, "trialdata": {"rt": 858, "stimulus": "<p id='stroop-text' class='stroop-green'>DOG</p>", "response": "g", "stimulus-type": "unrelated", "word": "DOG", "color": "green", "correct_response": "g", "trial_id": "stroop-trial-1-unrelated-8", "trial_type": "html-keyboard-response", "trial_index": 188, "time_elapsed": 427702, "internal_node_id": "0.0-8.0-2.0"}}, {"uniqueid": "w13906838:a67111579", "current_trial": 189, "dateTime": 1664555541226, "trialdata": {"rt": 1264, "stimulus": "<p id='stroop-text' class='stroop-red'>GREEN</p>", "response": "r", "stimulus-type": "incongruent", "word": "green", "color": "red", "correct_response": "r", "trial_id": "stroop-trial-1-incongruent-2", "trial_type": "html-keyboard-response", "trial_index": 189, "time_elapsed": 429482, "internal_node_id": "0.0-8.0-3.0"}}, {"uniqueid": "w13906838:a67111579", "current_trial": 190, "dateTime": 1664555542945, "trialdata": {"rt": 1199, "stimulus": "<p id='stroop-text' class='stroop-green'>GREEN</p>", "response": "g", "stimulus-type": "congruent", "word": "green", "color": "green", "correct_response": "g", "trial_id": "stroop-trial-1-congruent-30", "trial_type": "html-keyboard-response", "trial_index": 190, "time_elapsed": 431201, "internal_node_id": "0.0-8.0-4.0"}}, {"uniqueid": "w13906838:a67111579", "current_trial": 191, "dateTime": 1664555544483, "trialdata": {"rt": 1022, "stimulus": "<p id='stroop-text' class='stroop-blue'>GREEN</p>", "response": "b", "stimulus-type": "incongruent", "word": "green", "color": "blue", "correct_response": "b", "trial_id": "stroop-trial-1-incongruent-5", "trial_type": "html-keyboard-response", "trial_index": 191, "time_elapsed": 432737, "internal_node_id": "0.0-8.0-5.0"}}, {"uniqueid": "w13906838:a67111579", "current_trial": 192, "dateTime": 1664555545879, "trialdata": {"rt": 883, "stimulus": "<p id='stroop-text' class='stroop-green'>GREEN</p>", "response": "g", "stimulus-type": "congruent", "word": "green", "color": "green", "correct_response": "g", "trial_id": "stroop-trial-1-congruent-24", "trial_type": "html-keyboard-response", "trial_index": 192, "time_elapsed": 434135, "internal_node_id": "0.0-8.0-6.0"}}, {"uniqueid": "w13906838:a67111579", "current_trial": 193, "dateTime": 1664555547635, "trialdata": {"rt": 1241, "stimulus": "<p id='stroop-text' class='stroop-green'>BLUE</p>", "response": "g", "stimulus-type": "incongruent", "word": "blue", "color": "green", "correct_response": "g", "trial_id": "stroop-trial-1-incongruent-22", "trial_type": "html-keyboard-response", "trial_index": 193, "time_elapsed": 435891, "internal_node_id": "0.0-8.0-7.0"}}, {"uniqueid": "w13906838:a67111579", "current_trial": 194, "dateTime": 1664555549689, "trialdata": {"rt": 1545, "stimulus": "<p id='stroop-text' class='stroop-red'>RED</p>", "response": "r", "stimulus-type": "congruent", "word": "red", "color": "red", "correct_response": "r", "trial_id": "stroop-trial-1-congruent-12", "trial_type": "html-keyboard-response", "trial_index": 194, "time_elapsed": 437945, "internal_node_id": "0.0-8.0-8.0"}}, {"uniqueid": "w13906838:a67111579", "current_trial": 195, "dateTime": 1664555551350, "trialdata": {"rt": 1140, "stimulus": "<p id='stroop-text' class='stroop-blue'>BLUE</p>", "response": "b", "stimulus-type": "congruent", "word": "blue", "color": "blue", "correct_response": "b", "trial_id": "stroop-trial-1-congruent-29", "trial_type": "html-keyboard-response", "trial_index": 195, "time_elapsed": 439606, "internal_node_id": "0.0-8.0-9.0"}}, {"uniqueid": "w13906838:a67111579", "current_trial": 196, "dateTime": 1664555553118, "trialdata": {"rt": 1254, "stimulus": "<p id='stroop-text' class='stroop-red'>BLUE</p>", "response": "r", "stimulus-type": "incongruent", "word": "blue", "color": "red", "correct_response": "r", "trial_id": "stroop-trial-1-incongruent-3", "trial_type": "html-keyboard-response", "trial_index": 196, "time_elapsed": 441374, "internal_node_id": "0.0-8.0-10.0"}}, {"uniqueid": "w13906838:a67111579", "current_trial": 197, "dateTime": 1664555554659, "trialdata": {"rt": 1023, "stimulus": "<p id='stroop-text' class='stroop-red'>FORK</p>", "response": "r", "stimulus-type": "unrelated", "word": "FORK", "color": "red", "correct_response": "r", "trial_id": "stroop-trial-1-unrelated-28", "trial_type": "html-keyboard-response", "trial_index": 197, "time_elapsed": 442914, "internal_node_id": "0.0-8.0-11.0"}}, {"uniqueid": "w13906838:a67111579", "current_trial": 198, "dateTime": 1664555555942, "trialdata": {"rt": 763, "stimulus": "<p id='stroop-text' class='stroop-yellow'>WINDOW</p>", "response": "y", "stimulus-type": "unrelated", "word": "WINDOW", "color": "yellow", "correct_response": "y", "trial_id": "stroop-trial-1-unrelated-10", "trial_type": "html-keyboard-response", "trial_index": 198, "time_elapsed": 444198, "internal_node_id": "0.0-8.0-12.0"}}, {"uniqueid": "w13906838:a67111579", "current_trial": 199, "dateTime": 1664555557156, "trialdata": {"rt": 699, "stimulus": "<p id='stroop-text' class='stroop-red'>BOTTLE</p>", "response": "r", "stimulus-type": "unrelated", "word": "BOTTLE", "color": "red", "correct_response": "r", "trial_id": "stroop-trial-1-unrelated-3", "trial_type": "html-keyboard-response", "trial_index": 199, "time_elapsed": 445412, "internal_node_id": "0.0-8.0-13.0"}}, {"uniqueid": "w13906838:a67111579", "current_trial": 200, "dateTime": 1664555558420, "trialdata": {"rt": 748, "stimulus": "<p id='stroop-text' class='stroop-yellow'>SHIP</p>", "response": "y", "stimulus-type": "unrelated", "word": "SHIP", "color": "yellow", "correct_response": "y", "trial_id": "stroop-trial-1-unrelated-13", "trial_type": "html-keyboard-response", "trial_index": 200, "time_elapsed": 446676, "internal_node_id": "0.0-8.0-14.0"}}, {"uniqueid": "w13906838:a67111579", "current_trial": 201, "dateTime": 1664555559718, "trialdata": {"rt": 784, "stimulus": "<p id='stroop-text' class='stroop-red'>SHIP</p>", "response": "r", "stimulus-type": "unrelated", "word": "SHIP", "color": "red", "correct_response": "r", "trial_id": "stroop-trial-1-unrelated-27", "trial_type": "html-keyboard-response", "trial_index": 201, "time_elapsed": 447974, "internal_node_id": "0.0-8.0-15.0"}}, {"uniqueid": "w13906838:a67111579", "current_trial": 202, "dateTime": 1664555560886, "trialdata": {"rt": 654, "stimulus": "<p id='stroop-text' class='stroop-red'>GREEN</p>", "response": "r", "stimulus-type": "incongruent", "word": "green", "color": "red", "correct_response": "r", "trial_id": "stroop-trial-1-incongruent-1", "trial_type": "html-keyboard-response", "trial_index": 202, "time_elapsed": 449142, "internal_node_id": "0.0-8.0-16.0"}}, {"uniqueid": "w13906838:a67111579", "current_trial": 203, "dateTime": 1664555562229, "trialdata": {"rt": 812, "stimulus": "<p id='stroop-text' class='stroop-green'>STONE</p>", "response": "g", "stimulus-type": "unrelated", "word": "STONE", "color": "green", "correct_response": "g", "trial_id": "stroop-trial-1-unrelated-4", "trial_type": "html-keyboard-response", "trial_index": 203, "time_elapsed": 450485, "internal_node_id": "0.0-8.0-17.0"}}, {"uniqueid": "w13906838:a67111579", "current_trial": 204, "dateTime": 1664555563417, "trialdata": {"rt": 673, "stimulus": "<p id='stroop-text' class='stroop-red'>RED</p>", "response": "r", "stimulus-type": "congruent", "word": "red", "color": "red", "correct_response": "r", "trial_id": "stroop-trial-1-congruent-17", "trial_type": "html-keyboard-response", "trial_index": 204, "time_elapsed": 451673, "internal_node_id": "0.0-8.0-18.0"}}, {"uniqueid": "w13906838:a67111579", "current_trial": 205, "dateTime": 1664555564660, "trialdata": {"rt": 730, "stimulus": "<p id='stroop-text' class='stroop-blue'>BLUE</p>", "response": "b", "stimulus-type": "congruent", "word": "blue", "color": "blue", "correct_response": "b", "trial_id": "stroop-trial-1-congruent-25", "trial_type": "html-keyboard-response", "trial_index": 205, "time_elapsed": 452916, "internal_node_id": "0.0-8.0-19.0"}}, {"uniqueid": "w13906838:a67111579", "current_trial": 206, "dateTime": 1664555566399, "trialdata": {"rt": 1223, "stimulus": "<p id='stroop-text' class='stroop-red'>FORK</p>", "response": "r", "stimulus-type": "unrelated", "word": "FORK", "color": "red", "correct_response": "r", "trial_id": "stroop-trial-1-unrelated-9", "trial_type": "html-keyboard-response", "trial_index": 206, "time_elapsed": 454653, "internal_node_id": "0.0-8.0-20.0"}}, {"uniqueid": "w13906838:a67111579", "current_trial": 207, "dateTime": 1664555568099, "trialdata": {"rt": 1183, "stimulus": "<p id='stroop-text' class='stroop-blue'>BLUE</p>", "response": "b", "stimulus-type": "congruent", "word": "blue", "color": "blue", "correct_response": "b", "trial_id": "stroop-trial-1-congruent-8", "trial_type": "html-keyboard-response", "trial_index": 207, "time_elapsed": 456355, "internal_node_id": "0.0-8.0-21.0"}}, {"uniqueid": "w13906838:a67111579", "current_trial": 208, "dateTime": 1664555569425, "trialdata": {"rt": 812, "stimulus": "<p id='stroop-text' class='stroop-green'>BLUE</p>", "response": "g", "stimulus-type": "incongruent", "word": "blue", "color": "green", "correct_response": "g", "trial_id": "stroop-trial-1-incongruent-23", "trial_type": "html-keyboard-response", "trial_index": 208, "time_elapsed": 457681, "internal_node_id": "0.0-8.0-22.0"}}, {"uniqueid": "w13906838:a67111579", "current_trial": 209, "dateTime": 1664555570610, "trialdata": {"rt": 670, "stimulus": "<p id='stroop-text' class='stroop-red'>CHAIR</p>", "response": "r", "stimulus-type": "unrelated", "word": "CHAIR", "color": "red", "correct_response": "r", "trial_id": "stroop-trial-1-unrelated-17", "trial_type": "html-keyboard-response", "trial_index": 209, "time_elapsed": 458866, "internal_node_id": "0.0-8.0-23.0"}}, {"uniqueid": "w13906838:a67111579", "current_trial": 210, "dateTime": 1664555572792, "trialdata": {"rt": 1673, "stimulus": "<p id='stroop-text' class='stroop-blue'>RED</p>", "response": "b", "stimulus-type": "incongruent", "word": "red", "color": "blue", "correct_response": "b", "trial_id": "stroop-trial-1-incongruent-13", "trial_type": "html-keyboard-response", "trial_index": 210, "time_elapsed": 461049, "internal_node_id": "0.0-8.0-24.0"}}, {"uniqueid": "w13906838:a67111579", "current_trial": 211, "dateTime": 1664555575290, "trialdata": {"rt": 1990, "stimulus": "<p id='stroop-text' class='stroop-red'>GREEN</p>", "response": "r", "stimulus-type": "incongruent", "word": "green", "color": "red", "correct_response": "r", "trial_id": "stroop-trial-1-incongruent-6", "trial_type": "html-keyboard-response", "trial_index": 211, "time_elapsed": 463546, "internal_node_id": "0.0-8.0-25.0"}}, {"uniqueid": "w13906838:a67111579", "current_trial": 212, "dateTime": 1664555576621, "trialdata": {"rt": 811, "stimulus": "<p id='stroop-text' class='stroop-green'>GREEN</p>", "response": "g", "stimulus-type": "congruent", "word": "green", "color": "green", "correct_response": "g", "trial_id": "stroop-trial-1-congruent-1", "trial_type": "html-keyboard-response", "trial_index": 212, "time_elapsed": 464877, "internal_node_id": "0.0-8.0-26.0"}}, {"uniqueid": "w13906838:a67111579", "current_trial": 213, "dateTime": 1664555577779, "trialdata": {"rt": 641, "stimulus": "<p id='stroop-text' class='stroop-red'>RED</p>", "response": "r", "stimulus-type": "congruent", "word": "red", "color": "red", "correct_response": "r", "trial_id": "stroop-trial-1-congruent-11", "trial_type": "html-keyboard-response", "trial_index": 213, "time_elapsed": 466035, "internal_node_id": "0.0-8.0-27.0"}}, {"uniqueid": "w13906838:a67111579", "current_trial": 214, "dateTime": 1664555579046, "trialdata": {"rt": 752, "stimulus": "<p id='stroop-text' class='stroop-yellow'>RED</p>", "response": "y", "stimulus-type": "incongruent", "word": "red", "color": "yellow", "correct_response": "y", "trial_id": "stroop-trial-1-incongruent-20", "trial_type": "html-keyboard-response", "trial_index": 214, "time_elapsed": 467302, "internal_node_id": "0.0-8.0-28.0"}}, {"uniqueid": "w13906838:a67111579", "current_trial": 215, "dateTime": 1664555580316, "trialdata": {"rt": 751, "stimulus": "<p id='stroop-text' class='stroop-yellow'>YELLOW</p>", "response": "y", "stimulus-type": "congruent", "word": "yellow", "color": "yellow", "correct_response": "y", "trial_id": "stroop-trial-1-congruent-2", "trial_type": "html-keyboard-response", "trial_index": 215, "time_elapsed": 468570, "internal_node_id": "0.0-8.0-29.0"}}, {"uniqueid": "w13906838:a67111579", "current_trial": 216, "dateTime": 1664555581727, "trialdata": {"rt": 899, "stimulus": "<p id='stroop-text' class='stroop-red'>RED</p>", "response": "r", "stimulus-type": "congruent", "word": "red", "color": "red", "correct_response": "r", "trial_id": "stroop-trial-1-congruent-9", "trial_type": "html-keyboard-response", "trial_index": 216, "time_elapsed": 469984, "internal_node_id": "0.0-8.0-30.0"}}, {"uniqueid": "w13906838:a67111579", "current_trial": 217, "dateTime": 1664555583003, "trialdata": {"rt": 764, "stimulus": "<p id='stroop-text' class='stroop-yellow'>YELLOW</p>", "response": "y", "stimulus-type": "congruent", "word": "yellow", "color": "yellow", "correct_response": "y", "trial_id": "stroop-trial-1-congruent-16", "trial_type": "html-keyboard-response", "trial_index": 217, "time_elapsed": 471259, "internal_node_id": "0.0-8.0-31.0"}}, {"uniqueid": "w13906838:a67111579", "current_trial": 218, "dateTime": 1664555584557, "trialdata": {"rt": 1039, "stimulus": "<p id='stroop-text' class='stroop-green'>WINDOW</p>", "response": "g", "stimulus-type": "unrelated", "word": "WINDOW", "color": "green", "correct_response": "g", "trial_id": "stroop-trial-1-unrelated-11", "trial_type": "html-keyboard-response", "trial_index": 218, "time_elapsed": 472813, "internal_node_id": "0.0-8.0-32.0"}}, {"uniqueid": "w13906838:a67111579", "current_trial": 219, "dateTime": 1664555586200, "trialdata": {"rt": 1127, "stimulus": "<p id='stroop-text' class='stroop-yellow'>RED</p>", "response": "y", "stimulus-type": "incongruent", "word": "red", "color": "yellow", "correct_response": "y", "trial_id": "stroop-trial-1-incongruent-8", "trial_type": "html-keyboard-response", "trial_index": 219, "time_elapsed": 474456, "internal_node_id": "0.0-8.0-33.0"}}, {"uniqueid": "w13906838:a67111579", "current_trial": 220, "dateTime": 1664555588368, "trialdata": {"rt": 1654, "stimulus": "<p id='stroop-text' class='stroop-red'>GREEN</p>", "response": "r", "stimulus-type": "incongruent", "word": "green", "color": "red", "correct_response": "r", "trial_id": "stroop-trial-1-incongruent-19", "trial_type": "html-keyboard-response", "trial_index": 220, "time_elapsed": 476623, "internal_node_id": "0.0-8.0-34.0"}}, {"uniqueid": "w13906838:a67111579", "current_trial": 221, "dateTime": 1664555589862, "trialdata": {"rt": 972, "stimulus": "<p id='stroop-text' class='stroop-yellow'>MONKEY</p>", "response": "y", "stimulus-type": "unrelated", "word": "MONKEY", "color": "yellow", "correct_response": "y", "trial_id": "stroop-trial-1-unrelated-7", "trial_type": "html-keyboard-response", "trial_index": 221, "time_elapsed": 478117, "internal_node_id": "0.0-8.0-35.0"}}, {"uniqueid": "w13906838:a67111579", "current_trial": 222, "dateTime": 1664555593081, "trialdata": {"rt": 2702, "stimulus": "<p id='stroop-text' class='stroop-red'>CHAIR</p>", "response": "r", "stimulus-type": "unrelated", "word": "CHAIR", "color": "red", "correct_response": "r", "