{"condition": 0, "counterbalance": 0, "assignmentId": "a78420238", "workerId": "w47105932", "hitId": "h22104779", "currenttrial": 959, "bonus": 0, "data": [{"uniqueid": "w47105932:a78420238", "current_trial": 0, "dateTime": 1664873297155, "trialdata": {"success": true, "trial_type": "fullscreen", "trial_index": 0, "time_elapsed": 3142, "internal_node_id": "0.0-0.0"}}, {"uniqueid": "w47105932:a78420238", "current_trial": 1, "dateTime": 1664873317096, "trialdata": {"view_history": [{"page_index": 0, "viewing_time": 19934}], "rt": 19937, "trial_id": "exp_instructions_distractor", "trial_type": "instructions", "trial_index": 1, "time_elapsed": 23084, "internal_node_id": "0.0-1.0"}}, {"uniqueid": "w47105932:a78420238", "current_trial": 2, "dateTime": 1664873360498, "trialdata": {"view_history": [{"page_index": 0, "viewing_time": 43399}], "rt": 43400, "trial_id": "color_game_instructions", "trial_type": "instructions", "trial_index": 2, "time_elapsed": 66486, "internal_node_id": "0.0-2.0"}}, {"uniqueid": "w47105932:a78420238", "current_trial": 3, "dateTime": 1664873377759, "trialdata": {"rt": 17257, "stimulus": "<h1> Get ready to start the game! </h1>\n\nThank you for reading the instructions. Get ready start with the first of 5 block(s) of this game.\n<br><br>\nIn this first block, you will complete 90 rounds of this game before moving on.\n<br><br>\nRemember, the better you perform, the bigger your bonus will be!\n<br><br>\n<div style='text-align: center;'>Press <code>space</code> to begin.</div>", "response": " ", "trial_id": "stroop_1_ready_1", "trial_type": "html-keyboard-response", "trial_index": 3, "time_elapsed": 83747, "internal_node_id": "0.0-3.0"}}, {"uniqueid": "w47105932:a78420238", "current_trial": 4, "dateTime": 1664873379750, "trialdata": {"rt": 1975, "stimulus": "<p id='stroop-text' class='stroop-red'>BRIDGE</p>", "response": "r", "stimulus-type": "unrelated", "word": "BRIDGE", "color": "red", "correct_response": "r", "trial_id": "stroop-trial-1-unrelated-29", "trial_type": "html-keyboard-response", "trial_index": 4, "time_elapsed": 85736, "internal_node_id": "0.0-4.0-0.0"}}, {"uniqueid": "w47105932:a78420238", "current_trial": 5, "dateTime": 1664873381661, "trialdata": {"rt": 1408, "stimulus": "<p id='stroop-text' class='stroop-blue'>BLUE</p>", "response": "b", "stimulus-type": "congruent", "word": "blue", "color": "blue", "correct_response": "b", "trial_id": "stroop-trial-1-congruent-30", "trial_type": "html-keyboard-response", "trial_index": 5, "time_elapsed": 87648, "internal_node_id": "0.0-4.0-1.0"}}, {"uniqueid": "w47105932:a78420238", "current_trial": 6, "dateTime": 1664873383901, "trialdata": {"rt": 1735, "stimulus": "<p id='stroop-text' class='stroop-green'>SHIP</p>", "response": "g", "stimulus-type": "unrelated", "word": "SHIP", "color": "green", "correct_response": "g", "trial_id": "stroop-trial-1-unrelated-7", "trial_type": "html-keyboard-response", "trial_index": 6, "time_elapsed": 89888, "internal_node_id": "0.0-4.0-2.0"}}, {"uniqueid": "w47105932:a78420238", "current_trial": 7, "dateTime": 1664873387909, "trialdata": {"rt": 3505, "stimulus": "<p id='stroop-text' class='stroop-red'>BRIDGE</p>", "response": "r", "stimulus-type": "unrelated", "word": "BRIDGE", "color": "red", "correct_response": "r", "trial_id": "stroop-trial-1-unrelated-13", "trial_type": "html-keyboard-response", "trial_index": 7, "time_elapsed": 93896, "internal_node_id": "0.0-4.0-3.0"}}, {"uniqueid": "w47105932:a78420238", "current_trial": 8, "dateTime": 1664873389325, "trialdata": {"rt": 912, "stimulus": "<p id='stroop-text' class='stroop-yellow'>YELLOW</p>", "response": "y", "stimulus-type": "congruent", "word": "yellow", "color": "yellow", "correct_response": "y", "trial_id": "stroop-trial-1-congruent-19", "trial_type": "html-keyboard-response", "trial_index": 8, "time_elapsed": 95312, "internal_node_id": "0.0-4.0-4.0"}}, {"uniqueid": "w47105932:a78420238", "current_trial": 9, "dateTime": 1664873391053, "trialdata": {"rt": 1224, "stimulus": "<p id='stroop-text' class='stroop-green'>GREEN</p>", "response": "g", "stimulus-type": "congruent", "word": "green", "color": "green", "correct_response": "g", "trial_id": "stroop-trial-1-congruent-24", "trial_type": "html-keyboard-response", "trial_index": 9, "time_elapsed": 97040, "internal_node_id": "0.0-4.0-5.0"}}, {"uniqueid": "w47105932:a78420238", "current_trial": 10, "dateTime": 1664873392301, "trialdata": {"rt": 744, "stimulus": "<p id='stroop-text' class='stroop-green'>GREEN</p>", "response": "g", "stimulus-type": "congruent", "word": "green", "color": "green", "correct_response": "g", "trial_id": "stroop-trial-1-congruent-15", "trial_type": "html-keyboard-response", "trial_index": 10, "time_elapsed": 98288, "internal_node_id": "0.0-4.0-6.0"}}, {"uniqueid": "w47105932:a78420238", "current_trial": 11, "dateTime": 1664873393413, "trialdata": {"rt": 605, "stimulus": "<p id='stroop-text' class='stroop-green'>BLUE</p>", "response": "g", "stimulus-type": "incongruent", "word": "blue", "color": "green", "correct_response": "g", "trial_id": "stroop-trial-1-incongruent-21", "trial_type": "html-keyboard-response", "trial_index": 11, "time_elapsed": 99400, "internal_node_id": "0.0-4.0-7.0"}}, {"uniqueid": "w47105932:a78420238", "current_trial": 12, "dateTime": 1664873394637, "trialdata": {"rt": 721, "stimulus": "<p id='stroop-text' class='stroop-blue'>BLUE</p>", "response": "b", "stimulus-type": "congruent", "word": "blue", "color": "blue", "correct_response": "b", "trial_id": "stroop-trial-1-congruent-21", "trial_type": "html-keyboard-response", "trial_index": 12, "time_elapsed": 100624, "internal_node_id": "0.0-4.0-8.0"}}, {"uniqueid": "w47105932:a78420238", "current_trial": 13, "dateTime": 1664873396093, "trialdata": {"rt": 952, "stimulus": "<p id='stroop-text' class='stroop-yellow'>BOTTLE</p>", "response": "y", "stimulus-type": "unrelated", "word": "BOTTLE", "color": "yellow", "correct_response": "y", "trial_id": "stroop-trial-1-unrelated-3", "trial_type": "html-keyboard-response", "trial_index": 13, "time_elapsed": 102081, "internal_node_id": "0.0-4.0-9.0"}}, {"uniqueid": "w47105932:a78420238", "current_trial": 14, "dateTime": 1664873397381, "trialdata": {"rt": 784, "stimulus": "<p id='stroop-text' class='stroop-green'>GREEN</p>", "response": "g", "stimulus-type": "congruent", "word": "green", "color": "green", "correct_response": "g", "trial_id": "stroop-trial-1-congruent-9", "trial_type": "html-keyboard-response", "trial_index": 14, "time_elapsed": 103368, "internal_node_id": "0.0-4.0-10.0"}}, {"uniqueid": "w47105932:a78420238", "current_trial": 15, "dateTime": 1664873400052, "trialdata": {"rt": 2169, "stimulus": "<p id='stroop-text' class='stroop-green'>SHIP</p>", "response": "g", "stimulus-type": "unrelated", "word": "SHIP", "color": "green", "correct_response": "g", "trial_id": "stroop-trial-1-unrelated-28", "trial_type": "html-keyboard-response", "trial_index": 15, "time_elapsed": 106040, "internal_node_id": "0.0-4.0-11.0"}}, {"uniqueid": "w47105932:a78420238", "current_trial": 16, "dateTime": 1664873401173, "trialdata": {"rt": 618, "stimulus": "<p id='stroop-text' class='stroop-green'>GREEN</p>", "response": "g", "stimulus-type": "congruent", "word": "green", "color": "green", "correct_response": "g", "trial_id": "stroop-trial-1-congruent-20", "trial_type": "html-keyboard-response", "trial_index": 16, "time_elapsed": 107160, "internal_node_id": "0.0-4.0-12.0"}}, {"uniqueid": "w47105932:a78420238", "current_trial": 17, "dateTime": 1664873402429, "trialdata": {"rt": 752, "stimulus": "<p id='stroop-text' class='stroop-yellow'>GREEN</p>", "response": "y", "stimulus-type": "incongruent", "word": "green", "color": "yellow", "correct_response": "y", "trial_id": "stroop-trial-1-incongruent-25", "trial_type": "html-keyboard-response", "trial_index": 17, "time_elapsed": 108416, "internal_node_id": "0.0-4.0-13.0"}}, {"uniqueid": "w47105932:a78420238", "current_trial": 18, "dateTime": 1664873403789, "trialdata": {"rt": 856, "stimulus": "<p id='stroop-text' class='stroop-red'>BLUE</p>", "response": "r", "stimulus-type": "incongruent", "word": "blue", "color": "red", "correct_response": "r", "trial_id": "stroop-trial-1-incongruent-23", "trial_type": "html-keyboard-response", "trial_index": 18, "time_elapsed": 109776, "internal_node_id": "0.0-4.0-14.0"}}, {"uniqueid": "w47105932:a78420238", "current_trial": 19, "dateTime": 1664873406141, "trialdata": {"rt": 1848, "stimulus": "<p id='stroop-text' class='stroop-green'>BLUE</p>", "response": "g", "stimulus-type": "incongruent", "word": "blue", "color": "green", "correct_response": "g", "trial_id": "stroop-trial-1-incongruent-8", "trial_type": "html-keyboard-response", "trial_index": 19, "time_elapsed": 112129, "internal_node_id": "0.0-4.0-15.0"}}, {"uniqueid": "w47105932:a78420238", "current_trial": 20, "dateTime": 1664873408221, "trialdata": {"rt": 1577, "stimulus": "<p id='stroop-text' class='stroop-blue'>BLUE</p>", "response": "b", "stimulus-type": "congruent", "word": "blue", "color": "blue", "correct_response": "b", "trial_id": "stroop-trial-1-congruent-25", "trial_type": "html-keyboard-response", "trial_index": 20, "time_elapsed": 114208, "internal_node_id": "0.0-4.0-16.0"}}, {"uniqueid": "w47105932:a78420238", "current_trial": 21, "dateTime": 1664873409413, "trialdata": {"rt": 688, "stimulus": "<p id='stroop-text' class='stroop-yellow'>BOAT</p>", "response": "y", "stimulus-type": "unrelated", "word": "BOAT", "color": "yellow", "correct_response": "y", "trial_id": "stroop-trial-1-unrelated-10", "trial_type": "html-keyboard-response", "trial_index": 21, "time_elapsed": 115400, "internal_node_id": "0.0-4.0-17.0"}}, {"uniqueid": "w47105932:a78420238", "current_trial": 22, "dateTime": 1664873410853, "trialdata": {"rt": 937, "stimulus": "<p id='stroop-text' class='stroop-red'>GREEN</p>", "response": "r", "stimulus-type": "incongruent", "word": "green", "color": "red", "correct_response": "r", "trial_id": "stroop-trial-1-incongruent-14", "trial_type": "html-keyboard-response", "trial_index": 22, "time_elapsed": 116840, "internal_node_id": "0.0-4.0-18.0"}}, {"uniqueid": "w47105932:a78420238", "current_trial": 23, "dateTime": 1664873411925, "trialdata": {"rt": 568, "stimulus": "<p id='stroop-text' class='stroop-red'>RED</p>", "response": "r", "stimulus-type": "congruent", "word": "red", "color": "red", "correct_response": "r", "trial_id": "stroop-trial-1-congruent-3", "trial_type": "html-keyboard-response", "trial_index": 23, "time_elapsed": 117912, "internal_node_id": "0.0-4.0-19.0"}}, {"uniqueid": "w47105932:a78420238", "current_trial": 24, "dateTime": 1664873413021, "trialdata": {"rt": 591, "stimulus": "<p id='stroop-text' class='stroop-yellow'>YELLOW</p>", "response": "y", "stimulus-type": "congruent", "word": "yellow", "color": "yellow", "correct_response": "y", "trial_id": "stroop-trial-1-congruent-17", "trial_type": "html-keyboard-response", "trial_index": 24, "time_elapsed": 119008, "internal_node_id": "0.0-4.0-20.0"}}, {"uniqueid": "w47105932:a78420238", "current_trial": 25, "dateTime": 1664873414141, "trialdata": {"rt": 617, "stimulus": "<p id='stroop-text' class='stroop-red'>RED</p>", "response": "y", "stimulus-type": "congruent", "word": "red", "color": "red", "correct_response": "r", "trial_id": "stroop-trial-1-congruent-5", "trial_type": "html-keyboard-response", "trial_index": 25, "time_elapsed": 120129, "internal_node_id": "0.0-4.0-21.0"}}, {"uniqueid": "w47105932:a78420238", "current_trial": 26, "dateTime": 1664873415612, "trialdata": {"rt": 968, "stimulus": "<p id='stroop-text' class='stroop-yellow'>YELLOW</p>", "response": "y", "stimulus-type": "congruent", "word": "yellow", "color": "yellow", "correct_response": "y", "trial_id": "stroop-trial-1-congruent-10", "trial_type": "html-keyboard-response", "trial_index": 26, "time_elapsed": 121600, "internal_node_id": "0.0-4.0-22.0"}}, {"uniqueid": "w47105932:a78420238", "current_trial": 27, "dateTime": 1664873416837, "trialdata": {"rt": 719, "stimulus": "<p id='stroop-text' class='stroop-yellow'>WINDOW</p>", "response": "y", "stimulus-type": "unrelated", "word": "WINDOW", "color": "yellow", "correct_response": "y", "trial_id": "stroop-trial-1-unrelated-14", "trial_type": "html-keyboard-response", "trial_index": 27, "time_elapsed": 122824, "internal_node_id": "0.0-4.0-23.0"}}, {"uniqueid": "w47105932:a78420238", "current_trial": 28, "dateTime": 1664873419373, "trialdata": {"rt": 2033, "stimulus": "<p id='stroop-text' class='stroop-green'>RED</p>", "response": "g", "stimulus-type": "incongruent", "word": "red", "color": "green", "correct_response": "g", "trial_id": "stroop-trial-1-incongruent-19", "trial_type": "html-keyboard-response", "trial_index": 28, "time_elapsed": 125360, "internal_node_id": "0.0-4.0-24.0"}}, {"uniqueid": "w47105932:a78420238", "current_trial": 29, "dateTime": 1664873421101, "trialdata": {"rt": 1224, "stimulus": "<p id='stroop-text' class='stroop-blue'>BLUE</p>", "response": "b", "stimulus-type": "congruent", "word": "blue", "color": "blue", "correct_response": "b", "trial_id": "stroop-trial-1-congruent-16", "trial_type": "html-keyboard-response", "trial_index": 29, "time_elapsed": 127088, "internal_node_id": "0.0-4.0-25.0"}}, {"uniqueid": "w47105932:a78420238", "current_trial": 30, "dateTime": 1664873422221, "trialdata": {"rt": 615, "stimulus": "<p id='stroop-text' class='stroop-blue'>BOAT</p>", "response": "b", "stimulus-type": "unrelated", "word": "BOAT", "color": "blue", "correct_response": "b", "trial_id": "stroop-trial-1-unrelated-17", "trial_type": "html-keyboard-response", "trial_index": 30, "time_elapsed": 128208, "internal_node_id": "0.0-4.0-26.0"}}, {"uniqueid": "w47105932:a78420238", "current_trial": 31, "dateTime": 1664873423638, "trialdata": {"rt": 913, "stimulus": "<p id='stroop-text' class='stroop-green'>BLUE</p>", "response": "g", "stimulus-type": "incongruent", "word": "blue", "color": "green", "correct_response": "g", "trial_id": "stroop-trial-1-incongruent-5", "trial_type": "html-keyboard-response", "trial_index": 31, "time_elapsed": 129625, "internal_node_id": "0.0-4.0-27.0"}}, {"uniqueid": "w47105932:a78420238", "current_trial": 32, "dateTime": 1664873427500, "trialdata": {"rt": 3359, "stimulus": "<p id='stroop-text' class='stroop-red'>GREEN</p>", "response": "r", "stimulus-type": "incongruent", "word": "green", "color": "red", "correct_response": "r", "trial_id": "stroop-trial-1-incongruent-20", "trial_type": "html-keyboard-response", "trial_index": 32, "time_elapsed": 133488, "internal_node_id": "0.0-4.0-28.0"}}, {"uniqueid": "w47105932:a78420238", "current_trial": 33, "dateTime": 1664873430252, "trialdata": {"rt": 2248, "stimulus": "<p id='stroop-text' class='stroop-blue'>WINDOW</p>", "response": "b", "stimulus-type": "unrelated", "word": "WINDOW", "color": "blue", "correct_response": "b", "trial_id": "stroop-trial-1-unrelated-12", "trial_type": "html-keyboard-response", "trial_index": 33, "time_elapsed": 136240, "internal_node_id": "0.0-4.0-29.0"}}, {"uniqueid": "w47105932:a78420238", "current_trial": 34, "dateTime": 1664873431445, "trialdata": {"rt": 689, "stimulus": "<p id='stroop-text' class='stroop-red'>WINDOW</p>", "response": "r", "stimulus-type": "unrelated", "word": "WINDOW", "color": "red", "correct_response": "r", "trial_id": "stroop-trial-1-unrelated-1", "trial_type": "html-keyboard-response", "trial_index": 34, "time_elapsed": 137432, "internal_node_id": "0.0-4.0-30.0"}}, {"uniqueid": "w47105932:a78420238", "current_trial": 35, "dateTime": 1664873432790, "trialdata": {"rt": 841, "stimulus": "<p id='stroop-text' class='stroop-red'>RED</p>", "response": "r", "stimulus-type": "congruent", "word": "red", "color": "red", "correct_response": "r", "trial_id": "stroop-trial-1-congruent-1", "trial_type": "html-keyboard-response", "trial_index": 35, "time_elapsed": 138776, "internal_node_id": "0.0-4.0-31.0"}}, {"uniqueid": "w47105932:a78420238", "current_trial": 36, "dateTime": 1664873433900, "trialdata": {"rt": 607, "stimulus": "<p id='stroop-text' class='stroop-green'>RED</p>", "response": "g", "stimulus-type": "incongruent", "word": "red", "color": "green", "correct_response": "g", "trial_id": "stroop-trial-1-incongruent-6", "trial_type": "html-keyboard-response", "trial_index": 36, "time_elapsed": 139888, "internal_node_id": "0.0-4.0-32.0"}}, {"uniqueid": "w47105932:a78420238", "current_trial": 37, "dateTime": 1664873435388, "trialdata": {"rt": 980, "stimulus": "<p id='stroop-text' class='stroop-yellow'>YELLOW</p>", "response": "y", "stimulus-type": "congruent", "word": "yellow", "color": "yellow", "correct_response": "y", "trial_id": "stroop-trial-1-congruent-11", "trial_type": "html-keyboard-response", "trial_index": 37, "time_elapsed": 141376, "internal_node_id": "0.0-4.0-33.0"}}, {"uniqueid": "w47105932:a78420238", "current_trial": 38, "dateTime": 1664873437612, "trialdata": {"rt": 1720, "stimulus": "<p id='stroop-text' class='stroop-green'>BLUE</p>", "response": "r", "stimulus-type": "incongruent", "word": "blue", "color": "green", "correct_response": "g", "trial_id": "stroop-trial-1-incongruent-24", "trial_type": "html-keyboard-response", "trial_index": 38, "time_elapsed": 143600, "internal_node_id": "0.0-4.0-34.0"}}, {"uniqueid": "w47105932:a78420238", "current_trial": 39, "dateTime": 1664873439726, "trialdata": {"rt": 1610, "stimulus": "<p id='stroop-text' class='stroop-red'>RED</p>", "response": "r", "stimulus-type": "congruent", "word": "red", "color": "red", "correct_response": "r", "trial_id": "stroop-trial-1-congruent-23", "trial_type": "html-keyboard-response", "trial_index": 39, "time_elapsed": 145713, "internal_node_id": "0.0-4.0-35.0"}}, {"uniqueid": "w47105932:a78420238", "current_trial": 40, "dateTime": 1664873441453, "trialdata": {"rt": 1224, "stimulus": "<p id='stroop-text' class='stroop-blue'>BLUE</p>", "response": "b", "stimulus-type": "congruent", "word": "blue", "color": "blue", "correct_response": "b", "trial_id": "stroop-trial-1-congruent-7", "trial_type": "html-keyboard-response", "trial_index": 40, "time_elapsed": 147440, "internal_node_id": "0.0-4.0-36.0"}}, {"uniqueid": "w47105932:a78420238", "current_trial": 41, "dateTime": 1664873442572, "trialdata": {"rt": 616, "stimulus": "<p id='stroop-text' class='stroop-blue'>RED</p>", "response": "b", "stimulus-type": "incongruent", "word": "red", "color": "blue", "correct_response": "b", "trial_id": "stroop-trial-1-incongruent-30", "trial_type": "html-keyboard-response", "trial_index": 41, "time_elapsed": 148560, "internal_node_id": "0.0-4.0-37.0"}}, {"uniqueid": "w47105932:a78420238", "current_trial": 42, "dateTime": 1664873443780, "trialdata": {"rt": 705, "stimulus": "<p id='stroop-text' class='stroop-yellow'>BOAT</p>", "response": "y", "stimulus-type": "unrelated", "word": "BOAT", "color": "yellow", "correct_response": "y", "trial_id": "stroop-trial-1-unrelated-18", "trial_type": "html-keyboard-response", "trial_index": 42, "time_elapsed": 149768, "internal_node_id": "0.0-4.0-38.0"}}, {"uniqueid": "w47105932:a78420238", "current_trial": 43, "dateTime": 1664873446212, "trialdata": {"rt": 1928, "stimulus": "<p id='stroop-text' class='stroop-blue'>GREEN</p>", "response": "b", "stimulus-type": "incongruent", "word": "green", "color": "blue", "correct_response": "b", "trial_id": "stroop-trial-1-incongruent-12", "trial_type": "html-keyboard-response", "trial_index": 43, "time_elapsed": 152200, "internal_node_id": "0.0-4.0-39.0"}}, {"uniqueid": "w47105932:a78420238", "current_trial": 44, "dateTime": 1664873447701, "trialdata": {"rt": 984, "stimulus": "<p id='stroop-text' class='stroop-red'>RED</p>", "response": "r", "stimulus-type": "congruent", "word": "red", "color": "red", "correct_response": "r", "trial_id": "stroop-trial-1-congruent-14", "trial_type": "html-keyboard-response", "trial_index": 44, "time_elapsed": 153688, "internal_node_id": "0.0-4.0-40.0"}}, {"uniqueid": "w47105932:a78420238", "current_trial": 45, "dateTime": 1664873448709, "trialdata": {"rt": 504, "stimulus": "<p id='stroop-text' class='stroop-red'>DOG</p>", "response": "r", "stimulus-type": "unrelated", "word": "DOG", "color": "red", "correct_response": "r", "trial_id": "stroop-trial-1-unrelated-15", "trial_type": "html-keyboard-response", "trial_index": 45, "time_elapsed": 154697, "internal_node_id": "0.0-4.0-41.0"}}, {"uniqueid": "w47105932:a78420238", "current_trial": 46, "dateTime": 1664873449884, "trialdata": {"rt": 671, "stimulus": "<p id='stroop-text' class='stroop-yellow'>FORK</p>", "response": "y", "stimulus-type": "unrelated", "word": "FORK", "color": "yellow", "correct_response": "y", "trial_id": "stroop-trial-1-unrelated-9", "trial_type": "html-keyboard-response", "trial_index": 46, "time_elapsed": 155872, "internal_node_id": "0.0-4.0-42.0"}}, {"uniqueid": "w47105932:a78420238", "current_trial": 47, "dateTime": 1664873451188, "trialdata": {"rt": 800, "stimulus": "<p id='stroop-text' class='stroop-green'>RED</p>", "response": "g", "stimulus-type": "incongruent", "word": "red", "color": "green", "correct_response": "g", "trial_id": "stroop-trial-1-incongruent-13", "trial_type": "html-keyboard-response", "trial_index": 47, "time_elapsed": 157176, "internal_node_id": "0.0-4.0-43.0"}}, {"uniqueid": "w47105932:a78420238", "current_trial": 48, "dateTime": 1664873453285, "trialdata": {"rt": 1592, "stimulus": "<p id='stroop-text' class='stroop-red'>GREEN</p>", "response": "r", "stimulus-type": "incongruent", "word": "green", "color": "red", "correct_response": "r", "trial_id": "stroop-trial-1-incongruent-27", "trial_type": "html-keyboard-response", "trial_index": 48, "time_elapsed": 159272, "internal_node_id": "0.0-4.0-44.0"}}, {"uniqueid": "w47105932:a78420238", "current_trial": 49, "dateTime": 1664873454244, "trialdata": {"rt": 456, "stimulus": "<p id='stroop-text' class='stroop-red'>RED</p>", "response": "r", "stimulus-type": "congruent", "word": "red", "color": "red", "correct_response": "r", "trial_id": "stroop-trial-1-congruent-12", "trial_type": "html-keyboard-response", "trial_index": 49, "time_elapsed": 160232, "internal_node_id": "0.0-4.0-45.0"}}, {"uniqueid": "w47105932:a78420238", "current_trial": 50, "dateTime": 1664873455709, "trialdata": {"rt": 961, "stimulus": "<p id='stroop-text' class='stroop-blue'>YELLOW</p>", "response": "b", "stimulus-type": "incongruent", "word": "yellow", "color": "blue", "correct_response": "b", "trial_id": "stroop-trial-1-incongruent-26", "trial_type": "html-keyboard-response", "trial_index": 50, "time_elapsed": 161697, "internal_node_id": "0.0-4.0-46.0"}}, {"uniqueid": "w47105932:a78420238", "current_trial": 51, "dateTime": 1664873458101, "trialdata": {"rt": 1888, "stimulus": "<p id='stroop-text' class='stroop-red'>BOTTLE</p>", "response": "r", "stimulus-type": "unrelated", "word": "BOTTLE", "color": "red", "correct_response": "r", "trial_id": "stroop-trial-1-unrelated-16", "trial_type": "html-keyboard-response", "trial_index": 51, "time_elapsed": 164089, "internal_node_id": "0.0-4.0-47.0"}}, {"uniqueid": "w47105932:a78420238", "current_trial": 52, "dateTime": 1664873459812, "trialdata": {"rt": 1207, "stimulus": "<p id='stroop-text' class='stroop-red'>BLUE</p>", "response": "r", "stimulus-type": "incongruent", "word": "blue", "color": "red", "correct_response": "r", "trial_id": "stroop-trial-1-incongruent-3", "trial_type": "html-keyboard-response", "trial_index": 52, "time_elapsed": 165800, "internal_node_id": "0.0-4.0-48.0"}}, {"uniqueid": "w47105932:a78420238", "current_trial": 53, "dateTime": 1664873461572, "trialdata": {"rt": 1257, "stimulus": "<p id='stroop-text' class='stroop-blue'>YELLOW</p>", "response": "g", "stimulus-type": "incongruent", "word": "yellow", "color": "blue", "correct_response": "b", "trial_id": "stroop-trial-1-incongruent-7", "trial_type": "html-keyboard-response", "trial_index": 53, "time_elapsed": 167560, "internal_node_id": "0.0-4.0-49.0"}}, {"uniqueid": "w47105932:a78420238", "current_trial": 54, "dateTime": 1664873463941, "trialdata": {"rt": 1864, "stimulus": "<p id='stroop-text' class='stroop-yellow'>RED</p>", "response": "y", "stimulus-type": "incongruent", "word": "red", "color": "yellow", "correct_response": "y", "trial_id": "stroop-trial-1-incongruent-4", "trial_type": "html-keyboard-response", "trial_index": 54, "time_elapsed": 169928, "internal_node_id": "0.0-4.0-50.0"}}, {"uniqueid": "w47105932:a78420238", "current_trial": 55, "dateTime": 1664873465916, "trialdata": {"rt": 1472, "stimulus": "<p id='stroop-text' class='stroop-red'>CHAIR</p>", "response": "r", "stimulus-type": "unrelated", "word": "CHAIR", "color": "red", "correct_response": "r", "trial_id": "stroop-trial-1-unrelated-23", "trial_type": "html-keyboard-response", "trial_index": 55, "time_elapsed": 171904, "internal_node_id": "0.0-4.0-51.0"}}, {"uniqueid": "w47105932:a78420238", "current_trial": 56, "dateTime": 1664873467677, "trialdata": {"rt": 1257, "stimulus": "<p id='stroop-text' class='stroop-blue'>YELLOW</p>", "response": "b", "stimulus-type": "incongruent", "word": "yellow", "color": "blue", "correct_response": "b", "trial_id": "stroop-trial-1-incongruent-22", "trial_type": "html-keyboard-response", "trial_index": 56, "time_elapsed": 173664, "internal_node_id": "0.0-4.0-52.0"}}, {"uniqueid": "w47105932:a78420238", "current_trial": 57, "dateTime": 1664873469580, "trialdata": {"rt": 1400, "stimulus": "<p id='stroop-text' class='stroop-red'>RED</p>", "response": "r", "stimulus-type": "congruent", "word": "red", "color": "red", "correct_response": "r", "trial_id": "stroop-trial-1-congruent-13", "trial_type": "html-keyboard-response", "trial_index": 57, "time_elapsed": 175568, "internal_node_id": "0.0-4.0-53.0"}}, {"uniqueid": "w47105932:a78420238", "current_trial": 58, "dateTime": 1664873471060, "trialdata": {"rt": 975, "stimulus": "<p id='stroop-text' class='stroop-green'>BLUE</p>", "response": "g", "stimulus-type": "incongruent", "word": "blue", "color": "green", "correct_response": "g", "trial_id": "stroop-trial-1-incongruent-2", "trial_type": "html-keyboard-response", "trial_index": 58, "time_elapsed": 177048, "internal_node_id": "0.0-4.0-54.0"}}, {"uniqueid": "w47105932:a78420238", "current_trial": 59, "dateTime": 1664873472148, "trialdata": {"rt": 580, "stimulus": "<p id='stroop-text' class='stroop-green'>GREEN</p>", "response": "g", "stimulus-type": "congruent", "word": "green", "color": "green", "correct_response": "g", "trial_id": "stroop-trial-1-congruent-28", "trial_type": "html-keyboard-response", "trial_index": 59, "time_elapsed": 178136, "internal_node_id": "0.0-4.0-55.0"}}, {"uniqueid": "w47105932:a78420238", "current_trial": 60, "dateTime": 1664873473468, "trialdata": {"rt": 817, "stimulus": "<p id='stroop-text' class='stroop-yellow'>GREEN</p>", "response": "y", "stimulus-type": "incongruent", "word": "green", "color": "yellow", "correct_response": "y", "trial_id": "stroop-trial-1-incongruent-11", "trial_type": "html-keyboard-response", "trial_index": 60, "time_elapsed": 179456, "internal_node_id": "0.0-4.0-56.0"}}, {"uniqueid": "w47105932:a78420238", "current_trial": 61, "dateTime": 1664873474804, "trialdata": {"rt": 832, "stimulus": "<p id='stroop-text' class='stroop-blue'>BOAT</p>", "response": "b", "stimulus-type": "unrelated", "word": "BOAT", "color": "blue", "correct_response": "b", "trial_id": "stroop-trial-1-unrelated-22", "trial_type": "html-keyboard-response", "trial_index": 61, "time_elapsed": 180792, "internal_node_id": "0.0-4.0-57.0"}}, {"uniqueid": "w47105932:a78420238", "current_trial": 62, "dateTime": 1664873476060, "trialdata": {"rt": 753, "stimulus": "<p id='stroop-text' class='stroop-blue'>YELLOW</p>", "response": "b", "stimulus-type": "incongruent", "word": "yellow", "color": "blue", "correct_response": "b", "trial_id": "stroop-trial-1-incongruent-18", "trial_type": "html-keyboard-response", "trial_index": 62, "time_elapsed": 182048, "internal_node_id": "0.0-4.0-58.0"}}, {"uniqueid": "w47105932:a78420238", "current_trial": 63, "dateTime": 1664873477118, "trialdata": {"rt": 548, "stimulus": "<p id='stroop-text' class='stroop-blue'>BLUE</p>", "response": "b", "stimulus-type": "congruent", "word": "blue", "color": "blue", "correct_response": "b", "trial_id": "stroop-trial-1-congruent-27", "trial_type": "html-keyboard-response", "trial_index": 63, "time_elapsed": 183103, "internal_node_id": "0.0-4.0-59.0"}}, {"uniqueid": "w47105932:a78420238", "current_trial": 64, "dateTime": 1664873478292, "trialdata": {"rt": 671, "stimulus": "<p id='stroop-text' class='stroop-yellow'>BLUE</p>", "response": "y", "stimulus-type": "incongruent", "word": "blue", "color": "yellow", "correct_response": "y", "trial_id": "stroop-trial-1-incongruent-9", "trial_type": "html-keyboard-response", "trial_index": 64, "time_elapsed": 184280, "internal_node_id": "0.0-4.0-60.0"}}, {"uniqueid": "w47105932:a78420238", "current_trial": 65, "dateTime": 1664873479493, "trialdata": {"rt": 696, "stimulus": "<p id='stroop-text' class='stroop-red'>RED</p>", "response": "r", "stimulus-type": "congruent", "word": "red", "color": "red", "correct_response": "r", "trial_id": "stroop-trial-1-congruent-22", "trial_type": "html-keyboard-response", "trial_index": 65, "time_elapsed": 185480, "internal_node_id": "0.0-4.0-61.0"}}, {"uniqueid": "w47105932:a78420238", "current_trial": 66, "dateTime": 1664873481164, "trialdata": {"rt": 1167, "stimulus": "<p id='stroop-text' class='stroop-blue'>CHAIR</p>", "response": "b", "stimulus-type": "unrelated", "word": "CHAIR", "color": "blue", "correct_response": "b", "trial_id": "stroop-trial-1-unrelated-4", "trial_type": "html-keyboard-response", "trial_index": 66, "time_elapsed": 187151, "internal_node_id": "0.0-4.0-62.0"}}, {"uniqueid": "w47105932:a78420238", "current_trial": 67, "dateTime": 1664873482716, "trialdata": {"rt": 1049, "stimulus": "<p id='stroop-text' class='stroop-red'>BRAIN</p>", "response": "r", "stimulus-type": "unrelated", "word": "BRAIN", "color": "red", "correct_response": "r", "trial_id": "stroop-trial-1-unrelated-8", "trial_type": "html-keyboard-response", "trial_index": 67, "time_elapsed": 188703, "internal_node_id": "0.0-4.0-63.0"}}, {"uniqueid": "w47105932:a78420238", "current_trial": 68, "dateTime": 1664873483757, "trialdata": {"rt": 536, "stimulus": "<p id='stroop-text' class='stroop-red'>BOTTLE</p>", "response": "r", "stimulus-type": "unrelated", "word": "BOTTLE", "color": "red", "correct_response": "r", "trial_id": "stroop-trial-1-unrelated-26", "trial_type": "html-keyboard-response", "trial_index": 68, "time_elapsed": 189743, "internal_node_id": "0.0-4.0-64.0"}}, {"uniqueid": "w47105932:a78420238", "current_trial": 69, "dateTime": 1664873485020, "trialdata": {"rt": 758, "stimulus": "<p id='stroop-text' class='stroop-yellow'>GREEN</p>", "response": "y", "stimulus-type": "incongruent", "word": "green", "color": "yellow", "correct_response": "y", "trial_id": "stroop-trial-1-incongruent-28", "trial_type": "html-keyboard-response", "trial_index": 69, "time_elapsed": 191008, "internal_node_id": "0.0-4.0-65.0"}}, {"uniqueid": "w47105932:a78420238", "current_trial": 70, "dateTime": 1664873486364, "trialdata": {"rt": 841, "stimulus": "<p id='stroop-text' class='stroop-blue'>BOAT</p>", "response": "b", "stimulus-type": "unrelated", "word": "BOAT", "color": "blue", "correct_response": "b", "trial_id": "stroop-trial-1-unrelated-24", "trial_type": "html-keyboard-response", "trial_index": 70, "time_elapsed": 192351, "internal_node_id": "0.0-4.0-66.0"}}, {"uniqueid": "w47105932:a78420238", "current_trial": 71, "dateTime": 1664873487756, "trialdata": {"rt": 887, "stimulus": "<p id='stroop-text' class='stroop-green'>YELLOW</p>", "response": "g", "stimulus-type": "incongruent", "word": "yellow", "color": "green", "correct_response": "g", "trial_id": "stroop-trial-1-incongruent-17", "trial_type": "html-keyboard-response", "trial_index": 71, "time_elapsed": 193743, "internal_node_id": "0.0-4.0-67.0"}}, {"uniqueid": "w47105932:a78420238", "current_trial": 72, "dateTime": 1664873489476, "trialdata": {"rt": 1217, "stimulus": "<p id='stroop-text' class='stroop-blue'>RED</p>", "response": "b", "stimulus-type": "incongruent", "word": "red", "color": "blue", "correct_response": "b", "trial_id": "stroop-trial-1-incongruent-15", "trial_type": "html-keyboard-response", "trial_index": 72, "time_elapsed": 195464, "internal_node_id": "0.0-4.0-68.0"}}, {"uniqueid": "w47105932:a78420238", "current_trial": 73, "dateTime": 1664873491732, "trialdata": {"rt": 1752, "stimulus": "<p id='stroop-text' class='stroop-yellow'>FORK</p>", "response": "y", "stimulus-type": "unrelated", "word": "FORK", "color": "yellow", "correct_response": "y", "trial_id": "stroop-trial-1-unrelated-2", "trial_type": "html-keyboard-response", "trial_index": 73, "time_elapsed": 197719, "internal_node_id": "0.0-4.0-69.0"}}, {"uniqueid": "w47105932:a78420238", "current_trial": 74, "dateTime": 1664873493124, "trialdata": {"rt": 888, "stimulus": "<p id='stroop-text' class='stroop-green'>FORK</p>", "response": "g", "stimulus-type": "unrelated", "word": "FORK", "color": "green", "correct_response": "g", "trial_id": "stroop-trial-1-unrelated-5", "trial_type": "html-keyboard-response", "trial_index": 74, "time_elapsed": 199111, "internal_node_id": "0.0-4.0-70.0"}}, {"uniqueid": "w47105932:a78420238", "current_trial": 75, "dateTime": 1664873494244, "trialdata": {"rt": 615, "stimulus": "<p id='stroop-text' class='stroop-green'>BOTTLE</p>", "response": "g", "stimulus-type": "unrelated", "word": "BOTTLE", "color": "green", "correct_response": "g", "trial_id": "stroop-trial-1-unrelated-30", "trial_type": "html-keyboard-response", "trial_index": 75, "time_elapsed": 200231, "internal_node_id": "0.0-4.0-71.0"}}, {"uniqueid": "w47105932:a78420238", "current_trial": 76, "dateTime": 1664873495692, "trialdata": {"rt": 944, "stimulus": "<p id='stroop-text' class='stroop-blue'>SHIP</p>", "response": "b", "stimulus-type": "unrelated", "word": "SHIP", "color": "blue", "correct_response": "b", "trial_id": "stroop-trial-1-unrelated-20", "trial_type": "html-keyboard-response", "trial_index": 76, "time_elapsed": 201680, "internal_node_id": "0.0-4.0-72.0"}}, {"uniqueid": "w47105932:a78420238", "current_trial": 77, "dateTime": 1664873496884, "trialdata": {"rt": 688, "stimulus": "<p id='stroop-text' class='stroop-red'>RED</p>", "response": "r", "stimulus-type": "congruent", "word": "red", "color": "red", "correct_response": "r", "trial_id": "stroop-trial-1-congruent-8", "trial_type": "html-keyboard-response", "trial_index": 77, "time_elapsed": 202871, "internal_node_id": "0.0-4.0-73.0"}}, {"uniqueid": "w47105932:a78420238", "current_trial": 78, "dateTime": 1664873498356, "trialdata": {"rt": 968, "stimulus": "<p id='stroop-text' class='stroop-blue'>YELLOW</p>", "response": "b", "stimulus-type": "incongruent", "word": "yellow", "color": "blue", "correct_response": "b", "trial_id": "stroop-trial-1-incongruent-16", "trial_type": "html-keyboard-response", "trial_index": 78, "time_elapsed": 204343, "internal_node_id": "0.0-4.0-74.0"}}, {"uniqueid": "w47105932:a78420238", "current_trial": 79, "dateTime": 1664873499324, "trialdata": {"rt": 464, "stimulus": "<p id='stroop-text' class='stroop-blue'>MONKEY</p>", "response": "b", "stimulus-type": "unrelated", "word": "MONKEY", "color": "blue", "correct_response": "b", "trial_id": "stroop-trial-1-unrelated-27", "trial_type": "html-keyboard-response", "trial_index": 79, "time_elapsed": 205311, "internal_node_id": "0.0-4.0-75.0"}}, {"uniqueid": "w47105932:a78420238", "current_trial": 80, "dateTime": 1664873500436, "trialdata": {"rt": 608, "stimulus": "<p id='stroop-text' class='stroop-green'>GREEN</p>", "response": "g", "stimulus-type": "congruent", "word": "green", "color": "green", "correct_response": "g", "trial_id": "stroop-trial-1-congruent-29", "trial_type": "html-keyboard-response", "trial_index": 80, "time_elapsed": 206423, "internal_node_id": "0.0-4.0-76.0"}}, {"uniqueid": "w47105932:a78420238", "current_trial": 81, "dateTime": 1664873501772, "trialdata": {"rt": 832, "stimulus": "<p id='stroop-text' class='stroop-red'>RED</p>", "response": "r", "stimulus-type": "congruent", "word": "red", "color": "red", "correct_response": "r", "trial_id": "stroop-trial-1-congruent-2", "trial_type": "html-keyboard-response", "trial_index": 81, "time_elapsed": 207759, "internal_node_id": "0.0-4.0-77.0"}}, {"uniqueid": "w47105932:a78420238", "current_trial": 82, "dateTime": 1664873502724, "trialdata": {"rt": 448, "stimulus": "<p id='stroop-text' class='stroop-red'>CHAIR</p>", "response": "r", "stimulus-type": "unrelated", "word": "CHAIR", "color": "red", "correct_response": "r", "trial_id": "stroop-trial-1-unrelated-6", "trial_type": "html-keyboard-response", "trial_index": 82, "time_elapsed": 208711, "internal_node_id": "0.0-4.0-78.0"}}, {"uniqueid": "w47105932:a78420238", "current_trial": 83, "dateTime": 1664873503756, "trialdata": {"rt": 528, "stimulus": "<p id='stroop-text' class='stroop-red'>SHIP</p>", "response": "r", "stimulus-type": "unrelated", "word": "SHIP", "color": "red", "correct_response": "r", "trial_id": "stroop-trial-1-unrelated-19", "trial_type": "html-keyboard-response", "trial_index": 83, "time_elapsed": 209743, "internal_node_id": "0.0-4.0-79.0"}}, {"uniqueid": "w47105932:a78420238", "current_trial": 84, "dateTime": 1664873504956, "trialdata": {"rt": 696, "stimulus": "<p id='stroop-text' class='stroop-blue'>BOAT</p>", "response": "b", "stimulus-type": "unrelated", "word": "BOAT", "color": "blue", "correct_response": "b", "trial_id": "stroop-trial-1-unrelated-21", "trial_type": "html-keyboard-response", "trial_index": 84, "time_elapsed": 210943, "internal_node_id": "0.0-4.0-80.0"}}, {"uniqueid": "w47105932:a78420238", "current_trial": 85, "dateTime": 1664873506292, "trialdata": {"rt": 833, "stimulus": "<p id='stroop-text' class='stroop-green'>YELLOW</p>", "response": "g", "stimulus-type": "incongruent", "word": "yellow", "color": "green", "correct_response": "g", "trial_id": "stroop-trial-1-incongruent-1", "trial_type": "html-keyboard-response", "trial_index": 85, "time_elapsed": 212280, "internal_node_id": "0.0-4.0-81.0"}}, {"uniqueid": "w47105932:a78420238", "current_trial": 86, "dateTime": 1664873507620, "trialdata": {"rt": 823, "stimulus": "<p id='stroop-text' class='stroop-blue'>BLUE</p>", "response": "b", "stimulus-type": "congruent", "word": "blue", "color": "blue", "correct_response": "b", "trial_id": "stroop-trial-1-congruent-6", "trial_type": "html-keyboard-response", "trial_index": 86, "time_elapsed": 213607, "internal_node_id": "0.0-4.0-82.0"}}, {"uniqueid": "w47105932:a78420238", "current_trial": 87, "dateTime": 1664873508660, "trialdata": {"rt": 536, "stimulus": "<p id='stroop-text' class='stroop-green'>GREEN</p>", "response": "g", "stimulus-type": "congruent", "word": "green", "color": "green", "correct_response": "g", "trial_id": "stroop-trial-1-congruent-4", "trial_type": "html-keyboard-response", "trial_index": 87, "time_elapsed": 214647, "internal_node_id": "0.0-4.0-83.0"}}, {"uniqueid": "w47105932:a78420238", "current_trial": 88, "dateTime": 1664873509708, "trialdata": {"rt": 543, "stimulus": "<p id='stroop-text' class='stroop-red'>BLUE</p>", "response": "y", "stimulus-type": "incongruent", "word": "blue", "color": "red", "correct_response": "r", "trial_id": "stroop-trial-1-incongruent-29", "trial_type": "html-keyboard-response", "trial_index": 88, "time_elapsed": 215695, "internal_node_id": "0.0-4.0-84.0"}}, {"uniqueid": "w47105932:a78420238", "current_trial": 89, "dateTime": 1664873510788, "trialdata": {"rt": 576, "stimulus": "<p id='stroop-text' class='stroop-red'>WINDOW</p>", "response": "r", "stimulus-type": "unrelated", "word": "WINDOW", "color": "red", "correct_response": "r", "trial_id": "stroop-trial-1-unrelated-11", "trial_type": "html-keyboard-response", "trial_index": 89, "time_elapsed": 216775, "internal_node_id": "0.0-4.0-85.0"}}, {"uniqueid": "w47105932:a78420238", "current_trial": 90, "dateTime": 1664873512060, "trialdata": {"rt": 767, "stimulus": "<p id='stroop-text' class='stroop-green'>GREEN</p>", "response": "g", "stimulus-type": "congruent", "word": "green", "color": "green", "correct_response": "g", "trial_id": "stroop-trial-1-congruent-18", "trial_type": "html-keyboard-response", "trial_index": 90, "time_elapsed": 218047, "internal_node_id": "0.0-4.0-86.0"}}, {"uniqueid": "w47105932:a78420238", "current_trial": 91, "dateTime": 1664873513140, "trialdata": {"rt": 576, "stimulus": "<p id='stroop-text' class='stroop-red'>RED</p>", "response": "r", "stimulus-type": "congruent", "word": "red", "color": "red", "correct_response": "r", "trial_id": "stroop-trial-1-congruent-26", "trial_type": "html-keyboard-response", "trial_index": 91, "time_elapsed": 219127, "internal_node_id": "0.0-4.0-87.0"}}, {"uniqueid": "w47105932:a78420238", "current_trial": 92, "dateTime": 1664873515916, "trialdata": {"rt": 2271, "stimulus": "<p id='stroop-text' class='stroop-green'>DOG</p>", "response": "g", "stimulus-type": "unrelated", "word": "DOG", "color": "green", "correct_response": "g", "trial_id": "stroop-trial-1-unrelated-25", "trial_type": "html-keyboard-response", "trial_index": 92, "time_elapsed": 221903, "internal_node_id": "0.0-4.0-88.0"}}, {"uniqueid": "w47105932:a78420238", "current_trial": 93, "dateTime": 1664873516892, "trialdata": {"rt": 473, "stimulus": "<p id='stroop-text' class='stroop-green'>RED</p>", "response": "g", "stimulus-type": "incongruent", "word": "red", "color": "green", "correct_response": "g", "trial_id": "stroop-trial-1-incongruent-10", "trial_type": "html-keyboard-response", "trial_index": 93, "time_elapsed": 222879, "internal_node_id": "0.0-4.0-89.0"}}, {"uniqueid": "w47105932:a78420238", "current_trial": 94, "dateTime": 1664873538707, "trialdata": {"rt": 21308, "stimulus": "  <h1> End of block! </h1>\n\n  You have reached the end of the block 1/5. If you need a short break, feel free to take one now before moving on.\n\n  <br><br>\n  In the next block, you will complete another 90 rounds of this game.\n\n  <br><br>\n  <div style='text-align: center;'>Press <code>space</code> to begin.</div>\n  <br><br>\n<div style='text-align: center;'>(If the experiment doesn't continue, try clicking on the text and then pressing <code>space</code>.)</div>", "response": " ", "trial_id": "stroop_1_ready_2", "trial_type": "html-keyboard-response", "trial_index": 94, "time_elapsed": 244695, "internal_node_id": "0.0-5.0"}}, {"uniqueid": "w47105932:a78420238", "current_trial": 95, "dateTime": 1664873539675, "trialdata": {"rt": 961, "stimulus": "<p id='stroop-text' class='stroop-red'>BRAIN</p>", "response": "r", "stimulus-type": "unrelated", "word": "BRAIN", "color": "red", "correct_response": "r", "trial_id": "stroop-trial-1-unrelated-26", "trial_type": "html-keyboard-response", "trial_index": 95, "time_elapsed": 245663, "internal_node_id": "0.0-6.0-0.0"}}, {"uniqueid": "w47105932:a78420238", "current_trial": 96, "dateTime": 1664873540931, "trialdata": {"rt": 753, "stimulus": "<p id='stroop-text' class='stroop-yellow'>YELLOW</p>", "response": "y", "stimulus-type": "congruent", "word": "yellow", "color": "yellow", "correct_response": "y", "trial_id": "stroop-trial-1-congruent-5", "trial_type": "html-keyboard-response", "trial_index": 96, "time_elapsed": 246919, "internal_node_id": "0.0-6.0-1.0"}}, {"uniqueid": "w47105932:a78420238", "current_trial": 97, "dateTime": 1664873542307, "trialdata": {"rt": 872, "stimulus": "<p id='stroop-text' class='stroop-blue'>BLUE</p>", "response": "b", "stimulus-type": "congruent", "word": "blue", "color": "blue", "correct_response": "b", "trial_id": "stroop-trial-1-congruent-19", "trial_type": "html-keyboard-response", "trial_index": 97, "time_elapsed": 248295, "internal_node_id": "0.0-6.0-2.0"}}, {"uniqueid": "w47105932:a78420238", "current_trial": 98, "dateTime": 1664873544163, "trialdata": {"rt": 1351, "stimulus": "<p id='stroop-text' class='stroop-red'>BOTTLE</p>", "response": "r", "stimulus-type": "unrelated", "word": "BOTTLE", "color": "red", "correct_response": "r", "trial_id": "stroop-trial-1-unrelated-6", "trial_type": "html-keyboard-response", "trial_index": 98, "time_elapsed": 250151, "internal_node_id": "0.0-6.0-3.0"}}, {"uniqueid": "w47105932:a78420238", "current_trial": 99, "dateTime": 1664873545315, "trialdata": {"rt": 648, "stimulus": "<p id='stroop-text' class='stroop-green'>BRIDGE</p>", "response": "g", "stimulus-type": "unrelated", "word": "BRIDGE", "color": "green", "correct_response": "g", "trial_id": "stroop-trial-1-unrelated-7", "trial_type": "html-keyboard-response", "trial_index": 99, "time_elapsed": 251303, "internal_node_id": "0.0-6.0-4.0"}}, {"uniqueid": "w47105932:a78420238", "current_trial": 100, "dateTime": 1664873546867, "trialdata": {"rt": 1047, "stimulus": "<p id='stroop-text' class='stroop-blue'>BOAT</p>", "response": "b", "stimulus-type": "unrelated", "word": "BOAT", "color": "blue", "correct_response": "b", "trial_id": "stroop-trial-1-unrelated-18", "trial_type": "html-keyboard-response", "trial_index": 100, "time_elapsed": 252855, "internal_node_id": "0.0-6.0-5.0"}}, {"uniqueid": "w47105932:a78420238", "current_trial": 101, "dateTime": 1664873547859, "trialdata": {"rt": 489, "stimulus": "<p id='stroop-text' class='stroop-yellow'>YELLOW</p>", "response": "y", "stimulus-type": "congruent", "word": "yellow", "color": "yellow", "correct_response": "y", "trial_id": "stroop-trial-1-congruent-17", "trial_type": "html-keyboard-response", "trial_index": 101, "time_elapsed": 253847, "internal_node_id": "0.0-6.0-6.0"}}, {"uniqueid": "w47105932:a78420238", "current_trial": 102, "dateTime": 1664873548923, "trialdata": {"rt": 560, "stimulus": "<p id='stroop-text' class='stroop-blue'>YELLOW</p>", "response": "y", "stimulus-type": "incongruent", "word": "yellow", "color": "blue", "correct_response": "b", "trial_id": "stroop-trial-1-incongruent-22", "trial_type": "html-keyboard-response", "trial_index": 102, "time_elapsed": 254911, "internal_node_id": "0.0-6.0-7.0"}}, {"uniqueid": "w47105932:a78420238", "current_trial": 103, "dateTime": 1664873550179, "trialdata": {"rt": 750, "stimulus": "<p id='stroop-text' class='stroop-blue'>BLUE</p>", "response": "b", "stimulus-type": "congruent", "word": "blue", "color": "blue", "correct_response": "b", "trial_id": "stroop-trial-1-congruent-4", "trial_type": "html-keyboard-response", "trial_index": 103, "time_elapsed": 256167, "internal_node_id": "0.0-6.0-8.0"}}, {"uniqueid": "w47105932:a78420238", "current_trial": 104, "dateTime": 1664873551579, "trialdata": {"rt": 896, "stimulus": "<p id='stroop-text' class='stroop-yellow'>MONKEY</p>", "response": "y", "stimulus-type": "unrelated", "word": "MONKEY", "color": "yellow", "correct_response": "y", "trial_id": "stroop-trial-1-unrelated-4", "trial_type": "html-keyboard-response", "trial_index": 104, "time_elapsed": 257567, "internal_node_id": "0.0-6.0-9.0"}}, {"uniqueid": "w47105932:a78420238", "current_trial": 105, "dateTime": 1664873552483, "trialdata": {"rt": 398, "stimulus": "<p id='stroop-text' class='stroop-yellow'>WINDOW</p>", "response": "y", "stimulus-type": "unrelated", "word": "WINDOW", "color": "yellow", "correct_response": "y", "trial_id": "stroop-trial-1-unrelated-10", "trial_type": "html-keyboard-response", "trial_index": 105, "time_elapsed": 258471, "internal_node_id": "0.0-6.0-10.0"}}, {"uniqueid": "w47105932:a78420238", "current_trial": 106, "dateTime": 1664873553755, "trialdata": {"rt": 768, "stimulus": "<p id='stroop-text' class='stroop-blue'>RED</p>", "response": "b", "stimulus-type": "incongruent", "word": "red", "color": "blue", "correct_response": "b", "trial_id": "stroop-trial-1-incongruent-14", "trial_type": "html-keyboard-response", "trial_index": 106, "time_elapsed": 259743, "internal_node_id": "0.0-6.0-11.0"}}, {"uniqueid": "w47105932:a78420238", "current_trial": 107, "dateTime": 1664873554851, "trialdata": {"rt": 592, "stimulus": "<p id='stroop-text' class='stroop-green'>GREEN</p>", "response": "g", "stimulus-type": "congruent", "word": "green", "color": "green", "correct_response": "g", "trial_id": "stroop-trial-1-congruent-2", "trial_type": "html-keyboard-response", "trial_index": 107, "time_elapsed": 260839, "internal_node_id": "0.0-6.0-12.0"}}, {"uniqueid": "w47105932:a78420238", "current_trial": 108, "dateTime": 1664873556643, "trialdata": {"rt": 1287, "stimulus": "<p id='stroop-text' class='stroop-blue'>FORK</p>", "response": "b", "stimulus-type": "unrelated", "word": "FORK", "color": "blue", "correct_response": "b", "trial_id": "stroop-trial-1-unrelated-14", "trial_type": "html-keyboard-response", "trial_index": 108, "time_elapsed": 262631, "internal_node_id": "0.0-6.0-13.0"}}, {"uniqueid": "w47105932:a78420238", "current_trial": 109, "dateTime": 1664873558315, "trialdata": {"rt": 1168, "stimulus": "<p id='stroop-text' class='stroop-blue'>CHAIR</p>", "response": "b", "stimulus-type": "unrelated", "word": "CHAIR", "color": "blue", "correct_response": "b", "trial_id": "stroop-trial-1-unrelated-23", "trial_type": "html-keyboard-response", "trial_index": 109, "time_elapsed": 264303, "internal_node_id": "0.0-6.0-14.0"}}, {"uniqueid": "w47105932:a78420238", "current_trial": 110, "dateTime": 1664873559579, "trialdata": {"rt": 758, "stimulus": "<p id='stroop-text' class='stroop-green'>RED</p>", "response": "g", "stimulus-type": "incongruent", "word": "red", "color": "green", "correct_response": "g", "trial_id": "stroop-trial-1-incongruent-15", "trial_type": "html-keyboard-response", "trial_index": 110, "time_elapsed": 265567, "internal_node_id": "0.0-6.0-15.0"}}, {"uniqueid": "w47105932:a78420238", "current_trial": 111, "dateTime": 1664873560667, "trialdata": {"rt": 579, "stimulus": "<p id='stroop-text' class='stroop-green'>GREEN</p>", "response": "g", "stimulus-type": "congruent", "word": "green", "color": "green", "correct_response": "g", "trial_id": "stroop-trial-1-congruent-11", "trial_type": "html-keyboard-response", "trial_index": 111, "time_elapsed": 266654, "internal_node_id": "0.0-6.0-16.0"}}, {"uniqueid": "w47105932:a78420238", "current_trial": 112, "dateTime": 1664873562779, "trialdata": {"rt": 1608, "stimulus": "<p id='stroop-text' class='stroop-red'>YELLOW</p>", "response": "r", "stimulus-type": "incongruent", "word": "yellow", "color": "red", "correct_response": "r", "trial_id": "stroop-trial-1-incongruent-10", "trial_type": "html-keyboard-response", "trial_index": 112, "time_elapsed": 268767, "internal_node_id": "0.0-6.0-17.0"}}, {"uniqueid": "w47105932:a78420238", "current_trial": 113, "dateTime": 1664873564467, "trialdata": {"rt": 1179, "stimulus": "<p id='stroop-text' class='stroop-yellow'>RED</p>", "response": "y", "stimulus-type": "incongruent", "word": "red", "color": "yellow", "correct_response": "y", "trial_id": "stroop-trial-1-incongruent-25", "trial_type": "html-keyboard-response", "trial_index": 113, "time_elapsed": 270454, "internal_node_id": "0.0-6.0-18.0"}}, {"uniqueid": "w47105932:a78420238", "current_trial": 114, "dateTime": 1664873566275, "trialdata": {"rt": 1304, "stimulus": "<p id='stroop-text' class='stroop-yellow'>BOAT</p>", "response": "y", "stimulus-type": "unrelated", "word": "BOAT", "color": "yellow", "correct_response": "y", "trial_id": "stroop-trial-1-unrelated-1", "trial_type": "html-keyboard-response", "trial_index": 114, "time_elapsed": 272262, "internal_node_id": "0.0-6.0-19.0"}}, {"uniqueid": "w47105932:a78420238", "current_trial": 115, "dateTime": 1664873568266, "trialdata": {"rt": 1487, "stimulus": "<p id='stroop-text' class='stroop-blue'>BLUE</p>", "response": "b", "stimulus-type": "congruent", "word": "blue", "color": "blue", "correct_response": "b", "trial_id": "stroop-trial-1-congruent-14", "trial_type": "html-keyboard-response", "trial_index": 115, "time_elapsed": 274254, "internal_node_id": "0.0-6.0-20.0"}}, {"uniqueid": "w47105932:a78420238", "current_trial": 116, "dateTime": 1664873569483, "trialdata": {"rt": 712, "stimulus": "<p id='stroop-text' class='stroop-red'>RED</p>", "response": "r", "stimulus-type": "congruent", "word": "red", "color": "red", "correct_response": "r", "trial_id": "stroop-trial-1-congruent-28", "trial_type": "html-keyboard-response", "trial_index": 116, "time_elapsed": 275470, "internal_node_id": "0.0-6.0-21.0"}}, {"uniqueid": "w47105932:a78420238", "current_trial": 117, "dateTime": 1664873571419, "trialdata": {"rt": 1433, "stimulus": "<p id='stroop-text' class='stroop-blue'>BLUE</p>", "response": "b", "stimulus-type": "congruent", "word": "blue", "color": "blue", "correct_response": "b", "trial_id": "stroop-trial-1-congruent-16", "trial_type": "html-keyboard-response", "trial_index": 117, "time_elapsed": 277407, "internal_node_id": "0.0-6.0-22.0"}}, {"uniqueid": "w47105932:a78420238", "current_trial": 118, "dateTime": 1664873572883, "trialdata": {"rt": 955, "stimulus": "<p id='stroop-text' class='stroop-red'>RED</p>", "response": "r", "stimulus-type": "congruent", "word": "red", "color": "red", "correct_response": "r", "trial_id": "stroop-trial-1-congruent-15", "trial_type": "html-keyboard-response", "trial_index": 118, "time_elapsed": 278870, "internal_node_id": "0.0-6.0-23.0"}}, {"uniqueid": "w47105932:a78420238", "current_trial": 119, "dateTime": 1664873575019, "trialdata": {"rt": 1631, "stimulus": "<p id='stroop-text' class='stroop-blue'>DOG</p>", "response": "b", "stimulus-type": "unrelated", "word": "DOG", "color": "blue", "correct_response": "b", "trial_id": "stroop-trial-1-unrelated-20", "trial_type": "html-keyboard-response", "trial_index": 119, "time_elapsed": 281006, "internal_node_id": "0.0-6.0-24.0"}}, {"uniqueid": "w47105932:a78420238", "current_trial": 120, "dateTime": 1664873576467, "trialdata": {"rt": 943, "stimulus": "<p id='stroop-text' class='stroop-red'>BLUE</p>", "response": "r", "stimulus-type": "incongruent", "word": "blue", "color": "red", "correct_response": "r", "trial_id": "stroop-trial-1-incongruent-16", "trial_type": "html-keyboard-response", "trial_index": 120, "time_elapsed": 282454, "internal_node_id": "0.0-6.0-25.0"}}, {"uniqueid": "w47105932:a78420238", "current_trial": 121, "dateTime": 1664873577787, "trialdata": {"rt": 815, "stimulus": "<p id='stroop-text' class='stroop-yellow'>BOAT</p>", "response": "y", "stimulus-type": "unrelated", "word": "BOAT", "color": "yellow", "correct_response": "y", "trial_id": "stroop-trial-1-unrelated-13", "trial_type": "html-keyboard-response", "trial_index": 121, "time_elapsed": 283774, "internal_node_id": "0.0-6.0-26.0"}}, {"uniqueid": "w47105932:a78420238", "current_trial": 122, "dateTime": 1664873580419, "trialdata": {"rt": 2128, "stimulus": "<p id='stroop-text' class='stroop-blue'>BOAT</p>", "response": "b", "stimulus-type": "unrelated", "word": "BOAT", "color": "blue", "correct_response": "b", "trial_id": "stroop-trial-1-unrelated-2", "trial_type": "html-keyboard-response", "trial_index": 122, "time_elapsed": 286406, "internal_node_id": "0.0-6.0-27.0"}}, {"uniqueid": "w47105932:a78420238", "current_trial": 123, "dateTime": 1664873581627, "trialdata": {"rt": 703, "stimulus": "<p id='stroop-text' class='stroop-blue'>BOAT</p>", "response": "b", "stimulus-type": "unrelated", "word": "BOAT", "color": "blue", "correct_response": "b", "trial_id": "stroop-trial-1-unrelated-11", "trial_type": "html-keyboard-response", "trial_index": 123, "time_elapsed": 287614, "internal_node_id": "0.0-6.0-28.0"}}, {"uniqueid": "w47105932:a78420238", "current_trial": 124, "dateTime": 1664873582675, "trialdata": {"rt": 543, "stimulus": "<p id='stroop-text' class='stroop-red'>RED</p>", "response": "r", "stimulus-type": "congruent", "word": "red", "color": "red", "correct_response": "r", "trial_id": "stroop-trial-1-congruent-21", "trial_type": "html-keyboard-response", "trial_index": 124, "time_elapsed": 288662, "internal_node_id": "0.0-6.0-29.0"}}, {"uniqueid": "w47105932:a78420238", "current_trial": 125, "dateTime": 1664873584083, "trialdata": {"rt": 903, "stimulus": "<p id='stroop-text' class='stroop-yellow'>GREEN</p>", "response": "y", "stimulus-type": "incongruent", "word": "green", "color": "yellow", "correct_response": "y", "trial_id": "stroop-trial-1-incongruent-21", "trial_type": "html-keyboard-response", "trial_index": 125, "time_elapsed": 290070, "internal_node_id": "0.0-6.0-30.0"}}, {"uniqueid": "w47105932:a78420238", "current_trial": 126, "dateTime": 1664873585451, "trialdata": {"rt": 863, "stimulus": "<p id='stroop-text' class='stroop-blue'>BLUE</p>", "response": "b", "stimulus-type": "congruent", "word": "blue", "color": "blue", "correct_response": "b", "trial_id": "stroop-trial-1-congruent-29", "trial_type": "html-keyboard-response", "trial_index": 126, "time_elapsed": 291438, "internal_node_id": "0.0-6.0-31.0"}}, {"uniqueid": "w47105932:a78420238", "current_trial": 127, "dateTime": 1664873586538, "trialdata": {"rt": 584, "stimulus": "<p id='stroop-text' class='stroop-blue'>BLUE</p>", "response": "b", "stimulus-type": "congruent", "word": "blue", "color": "blue", "correct_response": "b", "trial_id": "stroop-trial-1-congruent-6", "trial_type": "html-keyboard-response", "trial_index": 127, "time_elapsed": 292526, "internal_node_id": "0.0-6.0-32.0"}}, {"uniqueid": "w47105932:a78420238", "current_trial": 128, "dateTime": 1664873587635, "trialdata": {"rt": 592, "stimulus": "<p id='stroop-text' class='stroop-green'>BLUE</p>", "response": "g", "stimulus-type": "incongruent", "word": "blue", "color": "green", "correct_response": "g", "trial_id": "stroop-trial-1-incongruent-7", "trial_type": "html-keyboard-response", "trial_index": 128, "time_elapsed": 293622, "internal_node_id": "0.0-6.0-33.0"}}, {"uniqueid": "w47105932:a78420238", "current_trial": 129, "dateTime": 1664873588691, "trialdata": {"rt": 552, "stimulus": "<p id='stroop-text' class='stroop-green'>BOAT</p>", "response": "g", "stimulus-type": "unrelated", "word": "BOAT", "color": "green", "correct_response": "g", "trial_id": "stroop-trial-1-unrelated-22", "trial_type": "html-keyboard-response", "trial_index": 129, "time_elapsed": 294678, "internal_node_id": "0.0-6.0-34.0"}}, {"uniqueid": "w47105932:a78420238", "current_trial": 130, "dateTime": 1664873590003, "trialdata": {"rt": 808, "stimulus": "<p id='stroop-text' class='stroop-red'>WINDOW</p>", "response": "r", "stimulus-type": "unrelated", "word": "WINDOW", "color": "red", "correct_response": "r", "trial_id": "stroop-trial-1-unrelated-3", "trial_type": "html-keyboard-response", "trial_index": 130, "time_elapsed": 295990, "internal_node_id": "0.0-6.0-35.0"}}, {"uniqueid": "w47105932:a78420238", "current_trial": 131, "dateTime": 1664873592059, "trialdata": {"rt": 1552, "stimulus": "<p id='stroop-text' class='stroop-yellow'>RED</p>", "response": "y", "stimulus-type": "incongruent", "word": "red", "color": "yellow", "correct_response": "y", "trial_id": "stroop-trial-1-incongruent-19", "trial_type": "html-keyboard-response", "trial_index": 131, "time_elapsed": 298046, "internal_node_id": "0.0-6.0-36.0"}}, {"uniqueid": "w47105932:a78420238", "current_trial": 132, "dateTime": 1664873594059, "trialdata": {"rt": 1495, "stimulus": "<p id='stroop-text' class='stroop-red'>BOAT</p>", "response": "r", "stimulus-type": "unrelated", "word": "BOAT", "color": "red", "correct_response": "r", "trial_id": "stroop-trial-1-unrelated-17", "trial_type": "html-keyboard-response", "trial_index": 132, "time_elapsed": 300046, "internal_node_id": "0.0-6.0-37.0"}}, {"uniqueid": "w47105932:a78420238", "current_trial": 133, "dateTime": 1664873595035, "trialdata": {"rt": 471, "stimulus": "<p id='stroop-text' class='stroop-red'>RED</p>", "response": "r", "stimulus-type": "congruent", "word": "red", "color": "red", "correct_response": "r", "trial_id": "stroop-trial-1-congruent-13", "trial_type": "html-keyboard-response", "trial_index": 133, "time_elapsed": 301022, "internal_node_id": "0.0-6.0-38.0"}}, {"uniqueid": "w47105932:a78420238", "current_trial": 134, "dateTime": 1664873596203, "trialdata": {"rt": 664, "stimulus": "<p id='stroop-text' class='stroop-green'>DOG</p>", "response": "g", "stimulus-type": "unrelated", "word": "DOG", "color": "green", "correct_response": "g", "trial_id": "stroop-trial-1-unrelated-24", "trial_type": "html-keyboard-response", "trial_index": 134, "time_elapsed": 302190, "internal_node_id": "0.0-6.0-39.0"}}, {"uniqueid": "w47105932:a78420238", "current_trial": 135, "dateTime": 1664873597356, "trialdata": {"rt": 649, "stimulus": "<p id='stroop-text' class='stroop-red'>RED</p>", "response": "r", "stimulus-type": "congruent", "word": "red", "color": "red", "correct_response": "r", "trial_id": "stroop-trial-1-congruent-7", "trial_type": "html-keyboard-response", "trial_index": 135, "time_elapsed": 303343, "internal_node_id": "0.0-6.0-40.0"}}, {"uniqueid": "w47105932:a78420238", "current_trial": 136, "dateTime": 1664873598555, "trialdata": {"rt": 696, "stimulus": "<p id='stroop-text' class='stroop-blue'>GREEN</p>", "response": "b", "stimulus-type": "incongruent", "word": "green", "color": "blue", "correct_response": "b", "trial_id": "stroop-trial-1-incongruent-9", "trial_type": "html-keyboard-response", "trial_index": 136, "time_elapsed": 304543, "internal_node_id": "0.0-6.0-41.0"}}, {"uniqueid": "w47105932:a78420238", "current_trial": 137, "dateTime": 1664873599642, "trialdata": {"rt": 582, "stimulus": "<p id='stroop-text' class='stroop-yellow'>YELLOW</p>", "response": "y", "stimulus-type": "congruent", "word": "yellow", "color": "yellow", "correct_response": "y", "trial_id": "stroop-trial-1-congruent-24", "trial_type": "html-keyboard-response", "trial_index": 137, "time_elapsed": 305630, "internal_node_id": "0.0-6.0-42.0"}}, {"uniqueid": "w47105932:a78420238", "current_trial": 138, "dateTime": 1664873600779, "trialdata": {"rt": 631, "stimulus": "<p id='stroop-text' class='stroop-blue'>BOAT</p>", "response": "b", "stimulus-type": "unrelated", "word": "BOAT", "color": "blue", "correct_response": "b", "trial_id": "stroop-trial-1-unrelated-19", "trial_type": "html-keyboard-response", "trial_index": 138, "time_elapsed": 306766, "internal_node_id": "0.0-6.0-43.0"}}, {"uniqueid": "w47105932:a78420238", "current_trial": 139, "dateTime": 1664873601979, "trialdata": {"rt": 694, "stimulus": "<p id='stroop-text' class='stroop-red'>BLUE</p>", "response": "r", "stimulus-type": "incongruent", "word": "blue", "color": "red", "correct_response": "r", "trial_id": "stroop-trial-1-incongruent-5", "trial_type": "html-keyboard-response", "trial_index": 139, "time_elapsed": 307966, "internal_node_id": "0.0-6.0-44.0"}}, {"uniqueid": "w47105932:a78420238", "current_trial": 140, "dateTime": 1664873603091, "trialdata": {"rt": 608, "stimulus": "<p id='stroop-text' class='stroop-green'>GREEN</p>", "response": "g", "stimulus-type": "congruent", "word": "green", "color": "green", "correct_response": "g", "trial_id": "stroop-trial-1-congruent-27", "trial_type": "html-keyboard-response", "trial_index": 140, "time_elapsed": 309078, "internal_node_id": "0.0-6.0-45.0"}}, {"uniqueid": "w47105932:a78420238", "current_trial": 141, "dateTime": 1664873604234, "trialdata": {"rt": 640, "stimulus": "<p id='stroop-text' class='stroop-green'>BLUE</p>", "response": "g", "stimulus-type": "incongruent", "word": "blue", "color": "green", "correct_response": "g", "trial_id": "stroop-trial-1-incongruent-20", "trial_type": "html-keyboard-response", "trial_index": 141, "time_elapsed": 310222, "internal_node_id": "0.0-6.0-46.0"}}, {"uniqueid": "w47105932:a78420238", "current_trial": 142, "dateTime": 1664873605114, "trialdata": {"rt": 376, "stimulus": "<p id='stroop-text' class='stroop-green'>RED</p>", "response": "g", "stimulus-type": "incongruent", "word": "red", "color": "green", "correct_response": "g", "trial_id": "stroop-trial-1-incongruent-1", "trial_type": "html-keyboard-response", "trial_index": 142, "time_elapsed": 311102, "internal_node_id": "0.0-6.0-47.0"}}, {"uniqueid": "w47105932:a78420238", "current_trial": 143, "dateTime": 1664873606211, "trialdata": {"rt": 591, "stimulus": "<p id='stroop-text' class='stroop-blue'>BLUE</p>", "response": "b", "stimulus-type": "congruent", "word": "blue", "color": "blue", "correct_response": "b", "trial_id": "stroop-trial-1-congruent-26", "trial_type": "html-keyboard-response", "trial_index": 143, "time_elapsed": 312198, "internal_node_id": "0.0-6.0-48.0"}}, {"uniqueid": "w47105932:a78420238", "current_trial": 144, "dateTime": 1664873607074, "trialdata": {"rt": 358, "stimulus": "<p id='stroop-text' class='stroop-blue'>BLUE</p>", "response": "b", "stimulus-type": "congruent", "word": "blue", "color": "blue", "correct_response": "b", "trial_id": "stroop-trial-1-congruent-22", "trial_type": "html-keyboard-response", "trial_index": 144, "time_elapsed": 313062, "internal_node_id": "0.0-6.0-49.0"}}, {"uniqueid": "w47105932:a78420238", "current_trial": 145, "dateTime": 1664873608002, "trialdata": {"rt": 425, "stimulus": "<p id='stroop-text' class='stroop-blue'>YELLOW</p>", "response": "b", "stimulus-type": "incongruent", "word": "yellow", "color": "blue", "correct_response": "b", "trial_id": "stroop-trial-1-incongruent-3", "trial_type": "html-keyboard-response", "trial_index": 145, "time_elapsed": 313990, "internal_node_id": "0.0-6.0-50.0"}}, {"uniqueid": "w47105932:a78420238", "current_trial": 146, "dateTime": 1664873609234, "trialdata": {"rt": 727, "stimulus": "<p id='stroop-text' class='stroop-red'>GREEN</p>", "response": "r", "stimulus-type": "incongruent", "word": "green", "color": "red", "correct_response": "r", "trial_id": "stroop-trial-1-incongruent-18", "trial_type": "html-keyboard-response", "trial_index": 146, "time_elapsed": 315222, "internal_node_id": "0.0-6.0-51.0"}}, {"uniqueid": "w47105932:a78420238", "current_trial": 147, "dateTime": 1664873610202, "trialdata": {"rt": 463, "stimulus": "<p id='stroop-text' class='stroop-red'>STONE</p>", "response": "r", "stimulus-type": "unrelated", "word": "STONE", "color": "red", "correct_response": "r", "trial_id": "stroop-trial-1-unrelated-30", "trial_type": "html-keyboard-response", "trial_index": 147, "time_elapsed": 316190, "internal_node_id": "0.0-6.0-52.0"}}, {"uniqueid": "w47105932:a78420238", "current_trial": 148, "dateTime": 1664873611443, "trialdata": {"rt": 735, "stimulus": "<p id='stroop-text' class='stroop-yellow'>YELLOW</p>", "response": "y", "stimulus-type": "congruent", "word": "yellow", "color": "yellow", "correct_response": "y", "trial_id": "stroop-trial-1-congruent-25", "trial_type": "html-keyboard-response", "trial_index": 148, "time_elapsed": 317430, "internal_node_id": "0.0-6.0-53.0"}}, {"uniqueid": "w47105932:a78420238", "current_trial": 149, "dateTime": 1664873612354, "trialdata": {"rt": 407, "stimulus": "<p id='stroop-text' class='stroop-yellow'>MONKEY</p>", "response": "y", "stimulus-type": "unrelated", "word": "MONKEY", "color": "yellow", "correct_response": "y", "trial_id": "stroop-trial-1-unrelated-28", "trial_type": "html-keyboard-response", "trial_index": 149, "time_elapsed": 318342, "internal_node_id": "0.0-6.0-54.0"}}, {"uniqueid": "w47105932:a78420238", "current_trial": 150, "dateTime": 1664873613267, "trialdata": {"rt": 408, "stimulus": "<p id='stroop-text' class='stroop-yellow'>YELLOW</p>", "response": "y", "stimulus-type": "congruent", "word": "yellow", "color": "yellow", "correct_response": "y", "trial_id": "stroop-trial-1-congruent-10", "trial_type": "html-keyboard-response", "trial_index": 150, "time_elapsed": 319254, "internal_node_id": "0.0-6.0-55.0"}}, {"uniqueid": "w47105932:a78420238", "current_trial": 151, "dateTime": 1664873614290, "trialdata": {"rt": 519, "stimulus": "<p id='stroop-text' class='stroop-yellow'>MONKEY</p>", "response": "y", "stimulus-type": "unrelated", "word": "MONKEY", "color": "yellow", "correct_response": "y", "trial_id": "stroop-trial-1-unrelated-12", "trial_type": "html-keyboard-response", "trial_index": 151, "time_elapsed": 320278, "internal_node_id": "0.0-6.0-56.0"}}, {"uniqueid": "w47105932:a78420238", "current_trial": 152, "dateTime": 1664873615490, "trialdata": {"rt": 696, "stimulus": "<p id='stroop-text' class='stroop-red'>GREEN</p>", "response": "r", "stimulus-type": "incongruent", "word": "green", "color": "red", "correct_response": "r", "trial_id": "stroop-trial-1-incongruent-30", "trial_type": "html-keyboard-response", "trial_index": 152, "time_elapsed": 321478, "internal_node_id": "0.0-6.0-57.0"}}, {"uniqueid": "w47105932:a78420238", "current_trial": 153, "dateTime": 1664873616602, "trialdata": {"rt": 605, "stimulus": "<p id='stroop-text' class='stroop-yellow'>YELLOW</p>", "response": "y", "stimulus-type": "congruent", "word": "yellow", "color": "yellow", "correct_response": "y", "trial_id": "stroop-trial-1-congruent-8", "trial_type": "html-keyboard-response", "trial_index": 153, "time_elapsed": 322590, "internal_node_id": "0.0-6.0-58.0"}}, {"uniqueid": "w47105932:a78420238", "current_trial": 154, "dateTime": 1664873617586, "trialdata": {"rt": 479, "stimulus": "<p id='stroop-text' class='stroop-blue'>BLUE</p>", "response": "b", "stimulus-type": "congruent", "word": "blue", "color": "blue", "correct_response": "b", "trial_id": "stroop-trial-1-congruent-30", "trial_type": "html-keyboard-response", "trial_index": 154, "time_elapsed": 323574, "internal_node_id": "0.0-6.0-59.0"}}, {"uniqueid": "w47105932:a78420238", "current_trial": 155, "dateTime": 1664873618531, "trialdata": {"rt": 440, "stimulus": "<p id='stroop-text' class='stroop-blue'>BLUE</p>", "response": "y", "stimulus-type": "congruent", "word": "blue", "color": "blue", "correct_response": "b", "trial_id": "stroop-trial-1-congruent-3", "trial_type": "html-keyboard-response", "trial_index": 155, "time_elapsed": 324519, "internal_node_id": "0.0-6.0-60.0"}}, {"uniqueid": "w47105932:a78420238", "current_trial": 156, "dateTime": 1664873620170, "trialdata": {"rt": 1134, "stimulus": "<p id='stroop-text' class='stroop-green'>YELLOW</p>", "response": "g", "stimulus-type": "incongruent", "word": "yellow", "color": "green", "correct_response": "g", "trial_id": "stroop-trial-1-incongruent-12", "trial_type": "html-keyboard-response", "trial_index": 156, "time_elapsed": 326158, "internal_node_id": "0.0-6.0-61.0"}}, {"uniqueid": "w47105932:a78420238", "current_trial": 157, "dateTime": 1664873621274, "trialdata": {"rt": 600, "stimulus": "<p id='stroop-text' class='stroop-red'>YELLOW</p>", "response": "r", "stimulus-type": "incongruent", "word": "yellow", "color": "red", "correct_response": "r", "trial_id": "stroop-trial-1-incongruent-4", "trial_type": "html-keyboard-response", "trial_index": 157, "time_elapsed": 327262, "internal_node_id": "0.0-6.0-62.0"}}, {"uniqueid": "w47105932:a78420238", "current_trial": 158, "dateTime": 1664873622731, "trialdata": {"rt": 953, "stimulus": "<p id='stroop-text' class='stroop-blue'>MONKEY</p>", "response": "b", "stimulus-type": "unrelated", "word": "MONKEY", "color": "blue", "correct_response": "b", "trial_id": "stroop-trial-1-unrelated-25", "trial_type": "html-keyboard-response", "trial_index": 158, "time_elapsed": 328719, "internal_node_id": "0.0-6.0-63.0"}}, {"uniqueid": "w47105932:a78420238", "current_trial": 159, "dateTime": 1664873623595, "trialdata": {"rt": 357, "stimulus": "<p id='stroop-text' class='stroop-blue'>GREEN</p>", "response": "b", "stimulus-type": "incongruent", "word": "green", "color": "blue", "correct_response": "b", "trial_id": "stroop-trial-1-incongruent-24", "trial_type": "html-keyboard-response", "trial_index": 159, "time_elapsed": 329582, "internal_node_id": "0.0-6.0-64.0"}}, {"uniqueid": "w47105932:a78420238", "current_trial": 160, "dateTime": 1664873624482, "trialdata": {"rt": 384, "stimulus": "<p id='stroop-text' class='stroop-blue'>BOTTLE</p>", "response": "b", "stimulus-type": "unrelated", "word": "BOTTLE", "color": "blue", "correct_response": "b", "trial_id": "stroop-trial-1-unrelated-8", "trial_type": "html-keyboard-response", "trial_index": 160, "time_elapsed": 330470, "internal_node_id": "0.0-6.0-65.0"}}, {"uniqueid": "w47105932:a78420238", "current_trial": 161, "dateTime": 1664873625978, "trialdata": {"rt": 992, "stimulus": "<p id='stroop-text' class='stroop-yellow'>BLUE</p>", "response": "y", "stimulus-type": "incongruent", "word": "blue", "color": "yellow", "correct_response": "y", "trial_id": "stroop-trial-1-incongruent-28", "trial_type": "html-keyboard-response", "trial_index": 161, "time_elapsed": 331966, "internal_node_id": "0.0-6.0-66.0"}}, {"uniqueid": "w47105932:a78420238", "current_trial": 162, "dateTime": 1664873627058, "trialdata": {"rt": 575, "stimulus": "<p id='stroop-text' class='stroop-red'>STONE</p>", "response": "r", "stimulus-type": "unrelated", "word": "STONE", "color": "red", "correct_response": "r", "trial_id": "stroop-trial-1-unrelated-5", "trial_type": "html-keyboard-response", "trial_index": 162, "time_elapsed": 333046, "internal_node_id": "0.0-6.0-67.0"}}, {"uniqueid": "w47105932:a78420238", "current_trial": 163, "dateTime": 1664873628715, "trialdata": {"rt": 1152, "stimulus": "<p id='stroop-text' class='stroop-yellow'>BOAT</p>", "response": "y", "stimulus-type": "unrelated", "word": "BOAT", "color": "yellow", "correct_response": "y", "trial_id": "stroop-trial-1-unrelated-9", "trial_type": "html-keyboard-response", "trial_index": 163, "time_elapsed": 334703, "internal_node_id": "0.0-6.0-68.0"}}, {"uniqueid": "w47105932:a78420238", "current_trial": 164, "dateTime": 1664873630546, "trialdata": {"rt": 1327, "stimulus": "<p id='stroop-text' class='stroop-blue'>GREEN</p>", "response": "r", "stimulus-type": "incongruent", "word": "green", "color": "blue", "correct_response": "b", "trial_id": "stroop-trial-1-incongruent-11", "trial_type": "html-keyboard-response", "trial_index": 164, "time_elapsed": 336534, "internal_node_id": "0.0-6.0-69.0"}}, {"uniqueid": "w47105932:a78420238", "current_trial": 165, "dateTime": 1664873632362, "trialdata": {"rt": 1311, "stimulus": "<p id='stroop-text' class='stroop-red'>BLUE</p>", "response": "r", "stimulus-type": "incongruent", "word": "blue", "color": "red", "correct_response": "r", "trial_id": "stroop-trial-1-incongruent-2", "trial_type": "html-keyboard-response", "trial_index": 165, "time_elapsed": 338350, "internal_node_id": "0.0-6.0-70.0"}}, {"uniqueid": "w47105932:a78420238", "current_trial": 166, "dateTime": 1664873633474, "trialdata": {"rt": 608, "stimulus": "<p id='stroop-text' class='stroop-yellow'>YELLOW</p>", "response": "y", "stimulus-type": "congruent", "word": "yellow", "color": "yellow", "correct_response": "y", "trial_id": "stroop-trial-1-congruent-23", "trial_type": "html-keyboard-response", "trial_index": 166, "time_elapsed": 339462, "internal_node_id": "0.0-6.0-71.0"}}, {"uniqueid": "w47105932:a78420238", "current_trial": 167, "dateTime": 1664873635410, "trialdata": {"rt": 1431, "stimulus": "<p id='stroop-text' class='stroop-yellow'>BLUE</p>", "response": "y", "stimulus-type": "incongruent", "word": "blue", "color": "yellow", "correct_response": "y", "trial_id": "stroop-trial-1-incongruent-6", "trial_type": "html-keyboard-response", "trial_index": 167, "time_elapsed": 341398, "internal_node_id": "0.0-6.0-72.0"}}, {"uniqueid": "w47105932:a78420238", "current_trial": 168, "dateTime": 1664873636482, "trialdata": {"rt": 565, "stimulus": "<p id='stroop-text' class='stroop-blue'>BLUE</p>", "response": "b", "stimulus-type": "congruent", "word": "blue", "color": "blue", "correct_response": "b", "trial_id": "stroop-trial-1-congruent-1", "trial_type": "html-keyboard-response", "trial_index": 168, "time_elapsed": 342470, "internal_node_id": "0.0-6.0-73.0"}}, {"uniqueid": "w47105932:a78420238", "current_trial": 169, "dateTime": 1664873637650, "trialdata": {"rt": 663, "stimulus": "<p id='stroop-text' class='stroop-red'>YELLOW</p>", "response": "r", "stimulus-type": "incongruent", "word": "yellow", "color": "red", "correct_response": "r", "trial_id": "stroop-trial-1-incongruent-13", "trial_type": "html-keyboard-response", "trial_index": 169, "time_elapsed": 343638, "internal_node_id": "0.0-6.0-74.0"}}, {"uniqueid": "w47105932:a78420238", "current_trial": 170, "dateTime": 1664873638866, "trialdata": {"rt": 710, "stimulus": "<p id='stroop-text' class='stroop-yellow'>BOTTLE</p>", "response": "y", "stimulus-type": "unrelated", "word": "BOTTLE", "color": "yellow", "correct_response": "y", "trial_id": "stroop-trial-1-unrelated-27", "trial_type": "html-keyboard-response", "trial_index": 170, "time_elapsed": 344854, "internal_node_id": "0.0-6.0-75.0"}}, {"uniqueid": "w47105932:a78420238", "current_trial": 171, "dateTime": 1664873639810, "trialdata": {"rt": 439, "stimulus": "<p id='stroop-text' class='stroop-red'>YELLOW</p>", "response": "r", "stimulus-type": "incongruent", "word": "yellow", "color": "red", "correct_response": "r", "trial_id": "stroop-trial-1-incongruent-8", "trial_type": "html-keyboard-response", "trial_index": 171, "time_elapsed": 345798, "internal_node_id": "0.0-6.0-76.0"}}, {"uniqueid": "w47105932:a78420238", "current_trial": 172, "dateTime": 1664873640930, "trialdata": {"rt": 615, "stimulus": "<p id='stroop-text' class='stroop-green'>GREEN</p>", "response": "g", "stimulus-type": "congruent", "word": "green", "color": "green", "correct_response": "g", "trial_id": "stroop-trial-1-congruent-20", "trial_type": "html-keyboard-response", "trial_index": 172, "time_elapsed": 346918, "internal_node_id": "0.0-6.0-77.0"}}, {"uniqueid": "w47105932:a78420238", "current_trial": 173, "dateTime": 1664873641907, "trialdata": {"rt": 473, "stimulus": "<p id='stroop-text' class='stroop-green'>YELLOW</p>", "response": "g", "stimulus-type": "incongruent", "word": "yellow", "color": "green", "correct_response": "g", "trial_id": "stroop-trial-1-incongruent-17", "trial_type": "html-keyboard-response", "trial_index": 173, "time_elapsed": 347895, "internal_node_id": "0.0-6.0-78.0"}}, {"uniqueid": "w47105932:a78420238", "current_trial": 174, "dateTime": 1664873642978, "trialdata": {"rt": 566, "stimulus": "<p id='stroop-text' class='stroop-blue'>BLUE</p>", "response": "b", "stimulus-type": "congruent", "word": "blue", "color": "blue", "correct_response": "b", "trial_id": "stroop-trial-1-congruent-18", "trial_type": "html-keyboard-response", "trial_index": 174, "time_elapsed": 348966, "internal_node_id": "0.0-6.0-79.0"}}, {"uniqueid": "w47105932:a78420238", "current_trial": 175, "dateTime": 1664873644194, "trialdata": {"rt": 712, "stimulus": "<p id='stroop-text' class='stroop-blue'>GREEN</p>", "response": "b", "stimulus-type": "incongruent", "word": "green", "color": "blue", "correct_response": "b", "trial_id": "stroop-trial-1-incongruent-29", "trial_type": "html-keyboard-response", "trial_index": 175, "time_elapsed": 350182, "internal_node_id": "0.0-6.0-80.0"}}, {"uniqueid": "w47105932:a78420238", "current_trial": 176, "dateTime": 1664873645746, "trialdata": {"rt": 1048, "stimulus": "<p id='stroop-text' class='stroop-red'>WINDOW</p>", "response": "r", "stimulus-type": "unrelated", "word": "WINDOW", "color": "red", "correct_response": "r", "trial_id": "stroop-trial-1-unrelated-21", "trial_type": "html-keyboard-response", "trial_index": 176, "time_elapsed": 351734, "internal_node_id": "0.0-6.0-81.0"}}, {"uniqueid": "w47105932:a78420238", "current_trial": 177, "dateTime": 1664873647394, "trialdata": {"rt": 1143, "stimulus": "<p id='stroop-text' class='stroop-blue'>SHIP</p>", "response": "b", "stimulus-type": "unrelated", "word": "SHIP", "color": "blue", "correct_response": "b", "trial_id": "stroop-trial-1-unrelated-15", "trial_type": "html-keyboard-response", "trial_index": 177, "time_elapsed": 353382, "internal_node_id": "0.0-6.0-82.0"}}, {"uniqueid": "w47105932:a78420238", "current_trial": 178, "dateTime": 1664873648442, "trialdata": {"rt": 542, "stimulus": "<p id='stroop-text' class='stroop-blue'>GREEN</p>", "response": "b", "stimulus-type": "incongruent", "word": "green", "color": "blue", "correct_response": "b", "trial_id": "stroop-trial-1-incongruent-26", "trial_type": "html-keyboard-response", "trial_index": 178, "time_elapsed": 354430, "internal_node_id": "0.0-6.0-83.0"}}, {"uniqueid": "w47105932:a78420238", "current_trial": 179, "dateTime": 1664873649594, "trialdata": {"rt": 647, "stimulus": "<p id='stroop-text' class='stroop-red'>RED</p>", "response": "r", "stimulus-type": "congruent", "word": "red", "color": "red", "correct_response": "r", "trial_id": "stroop-trial-1-congruent-12", "trial_type": "html-keyboard-response", "trial_index": 179, "time_elapsed": 355582, "internal_node_id": "0.0-6.0-84.0"}}, {"uniqueid": "w47105932:a78420238", "current_trial": 180, "dateTime": 1664873651243, "trialdata": {"rt": 1143, "stimulus": "<p id='stroop-text' class='stroop-red'>BOTTLE</p>", "response": "r", "stimulus-type": "unrelated", "word": "BOTTLE", "color": "red", "correct_response": "r", "trial_id": "stroop-trial-1-unrelated-29", "trial_type": "html-keyboard-response", "trial_index": 180, "time_elapsed": 357230, "internal_node_id": "0.0-6.0-85.0"}}, {"uniqueid": "w47105932:a78420238", "current_trial": 181, "dateTime": 1664873652459, "trialdata": {"rt": 712, "stimulus": "<p id='stroop-text' class='stroop-blue'>STONE</p>", "response": "b", "stimulus-type": "unrelated", "word": "STONE", "color": "blue", "correct_response": "b", "trial_id": "stroop-trial-1-unrelated-16", "trial_type": "html-keyboard-response", "trial_index": 181, "time_elapsed": 358446, "internal_node_id": "0.0-6.0-86.0"}}, {"uniqueid": "w47105932:a78420238", "current_trial": 182, "dateTime": 1664873653579, "trialdata": {"rt": 616, "stimulus": "<p id='stroop-text' class='stroop-red'>GREEN</p>", "response": "r", "stimulus-type": "incongruent", "word": "green", "color": "red", "correct_response": "r", "trial_id": "stroop-trial-1-incongruent-23", "trial_type": "html-keyboard-response", "trial_index": 182, "time_elapsed": 359566, "internal_node_id": "0.0-6.0-87.0"}}, {"uniqueid": "w47105932:a78420238", "current_trial": 183, "dateTime": 1664873654819, "trialdata": {"rt": 735, "stimulus": "<p id='stroop-text' class='stroop-yellow'>RED</p>", "response": "y", "stimulus-type": "incongruent", "word": "red", "color": "yellow", "correct_response": "y", "trial_id": "stroop-trial-1-incongruent-27", "trial_type": "html-keyboard-response", "trial_index": 183, "time_elapsed": 360806, "internal_node_id": "0.0-6.0-88.0"}}, {"uniqueid": "w47105932:a78420238", "current_trial": 184, "dateTime": 1664873655939, "trialdata": {"rt": 616, "stimulus": "<p id='stroop-text' class='stroop-blue'>BLUE</p>", "response": "b", "stimulus-type": "congruent", "word": "blue", "color": "blue", "correct_response": "b", "trial_id": "stroop-trial-1-congruent-9", "trial_type": "html-keyboard-response", "trial_index": 184, "time_elapsed": 361926, "internal_node_id": "0.0-6.0-89.0"}}, {"uniqueid": "w47105932:a78420238", "current_trial": 185, "dateTime": 1664873669267, "trialdata": {"rt": 12821, "stimulus": "  <h1> End of block! </h1>\n\n  You have reached the end of the block 2/5. If you need a short break, feel free to take one now before moving on.\n\n  <br><br>\n  In the next block, you will complete another 90 rounds of this game.\n\n  <br><br>\n  <div style='text-align: center;'>Press <code>space</code> to begin.</div>\n  <br><br>\n<div style='text-align: center;'>(If the experiment doesn't continue, try clicking on the text and then pressing <code>space</code>.)</div>", "response": " ", "trial_id": "stroop_1_ready_3", "trial_type": "html-keyboard-response", "trial_index": 185, "time_elapsed": 375255, "internal_node_id": "0.0-7.0"}}, {"uniqueid": "w47105932:a78420238", "current_trial": 186, "dateTime": 1664873670627, "trialdata": {"rt": 1352, "stimulus": "<p id='stroop-text' class='stroop-red'>RED</p>", "response": "r", "stimulus-type": "congruent", "word": "red", "color": "red", "correct_response": "r", "trial_id": "stroop-trial-1-congruent-22", "trial_type": "html-keyboard-response", "trial_index": 186, "time_elapsed": 376614, "internal_node_id": "0.0-8.0-0.0"}}, {"uniqueid": "w47105932:a78420238", "current_trial": 187, "dateTime": 1664873671930, "trialdata": {"rt": 797, "stimulus": "<p id='stroop-text' class='stroop-blue'>GREEN</p>", "response": "y", "stimulus-type": "incongruent", "word": "green", "color": "blue", "correct_response": "b", "trial_id": "stroop-trial-1-incongruent-7", "trial_type": "html-keyboard-response", "trial_index": 187, "time_elapsed": 377918, "internal_node_id": "0.0-8.0-1.0"}}, {"uniqueid": "w47105932:a78420238", "current_trial": 188, "dateTime": 1664873673242, "trialdata": {"rt": 807, "stimulus": "<p id='stroop-text' class='stroop-yellow'>BOAT</p>", "response": "y", "stimulus-type": "unrelated", "word": "BOAT", "color": "yellow", "correct_response": "y", "trial_id": "stroop-trial-1-unrelated-3", "trial_type": "html-keyboard-response", "trial_index": 188, "time_elapsed": 379230, "internal_node_id": "0.0-8.0-2.0"}}, {"uniqueid": "w47105932:a78420238", "current_trial": 189, "dateTime": 1664873674602, "trialdata": {"rt": 855, "stimulus": "<p id='stroop-text' class='stroop-yellow'>GREEN</p>", "response": "y", "stimulus-type": "incongruent", "word": "green", "color": "yellow", "correct_response": "y", "trial_id": "stroop-trial-1-incongruent-19", "trial_type": "html-keyboard-response", "trial_index": 189, "time_elapsed": 380590, "internal_node_id": "0.0-8.0-3.0"}}, {"uniqueid": "w47105932:a78420238", "current_trial": 190, "dateTime": 1664873675611, "trialdata": {"rt": 503, "stimulus": "<p id='stroop-text' class='stroop-red'>RED</p>", "response": "r", "stimulus-type": "congruent", "word": "red", "color": "red", "correct_response": "r", "trial_id": "stroop-trial-1-congruent-14", "trial_type": "html-keyboard-response", "trial_index": 190, "time_elapsed": 381598, "internal_node_id": "0.0-8.0-4.0"}}, {"uniqueid": "w47105932:a78420238", "current_trial": 191, "dateTime": 1664873676746, "trialdata": {"rt": 631, "stimulus": "<p id='stroop-text' class='stroop-yellow'>GREEN</p>", "response": "y", "stimulus-type": "incongruent", "word": "green", "color": "yellow", "correct_response": "y", "trial_id": "stroop-trial-1-incongruent-1", "trial_type": "html-keyboard-response", "trial_index": 191, "time_elapsed": 382734, "internal_node_id": "0.0-8.0-5.0"}}, {"uniqueid": "w47105932:a78420238", "current_trial": 192, "dateTime": 1664873678187, "trialdata": {"rt": 935, "stimulus": "<p id='stroop-text' class='stroop-blue'>GREEN</p>", "response": "b", "stimulus-type": "incongruent", "word": "green", "color": "blue", "correct_response": "b", "trial_id": "stroop-trial-1-incongruent-3", "trial_type": "html-keyboard-response", "trial_index": 192, "time_elapsed": 384174, "internal_node_id": "0.0-8.0-6.0"}}, {"uniqueid": "w47105932:a78420238", "current_trial": 193, "dateTime": 1664873679811, "trialdata": {"rt": 1119, "stimulus": "<p id='stroop-text' class='stroop-yellow'>BLUE</p>", "response": "y", "stimulus-type": "incongruent", "word": "blue", "color": "yellow", "correct_response": "y", "trial_id": "stroop-trial-1-incongruent-28", "trial_type": "html-keyboard-response", "trial_index": 193, "time_elapsed": 385798, "internal_node_id": "0.0-8.0-7.0"}}, {"uniqueid": "w47105932:a78420238", "current_trial": 194, "dateTime": 1664873681059, "trialdata": {"rt": 744, "stimulus": "<p id='stroop-text' class='stroop-yellow'>YELLOW</p>", "response": "y", "stimulus-type": "congruent", "word": "yellow", "color": "yellow", "correct_response": "y", "trial_id": "stroop-trial-1-congruent-16", "trial_type": "html-keyboard-response", "trial_index": 194, "time_elapsed": 387046, "internal_node_id": "0.0-8.0-8.0"}}, {"uniqueid": "w47105932:a78420238", "current_trial": 195, "dateTime": 1664873682178, "trialdata": {"rt": 615, "stimulus": "<p id='stroop-text' class='stroop-yellow'>RED</p>", "response": "y", "stimulus-type": "incongruent", "word": "red", "color": "yellow", "correct_response": "y", "trial_id": "stroop-trial-1-incongruent-4", "trial_type": "html-keyboard-response", "trial_index": 195, "time_elapsed": 388166, "internal_node_id": "0.0-8.0-9.0"}}, {"uniqueid": "w47105932:a78420238", "current_trial": 196, "dateTime": 1664873683106, "trialdata": {"rt": 423, "stimulus": "<p id='stroop-text' class='stroop-yellow'>BOAT</p>", "response": "y", "stimulus-type": "unrelated", "word": "BOAT", "color": "yellow", "correct_response": "y", "trial_id": "stroop-trial-1-unrelated-19", "trial_type": "html-keyboard-response", "trial_index": 196, "time_elapsed": 389094, "internal_node_id": "0.0-8.0-10.0"}}, {"uniqueid": "w47105932:a78420238", "current_trial": 197, "dateTime": 1664873684530, "trialdata": {"rt": 918, "stimulus": "<p id='stroop-text' class='stroop-blue'>MONKEY</p>", "response": "b", "stimulus-type": "unrelated", "word": "MONKEY", "color": "blue", "correct_response": "b", "trial_id": "stroop-trial-1-unrelated-20", "trial_type": "html-keyboard-response", "trial_index": 197, "time_elapsed": 390518, "internal_node_id": "0.0-8.0-11.0"}}, {"uniqueid": "w47105932:a78420238", "current_trial": 198, "dateTime": 1664873685578, "trialdata": {"rt": 543, "stimulus": "<p id='stroop-text' class='stroop-yellow'>YELLOW</p>", "response": "y", "stimulus-type": "congruent", "word": "yellow", "color": "yellow", "correct_response": "y", "trial_id": "stroop-trial-1-congruent-9", "trial_type": "html-keyboard-response", "trial_index": 198, "time_elapsed": 391566, "internal_node_id": "0.0-8.0-12.0"}}, {"uniqueid": "w47105932:a78420238", "current_trial": 199, "dateTime": 1664873686922, "trialdata": {"rt": 838, "stimulus": "<p id='stroop-text' class='stroop-blue'>BLUE</p>", "response": "b", "stimulus-type": "congruent", "word": "blue", "color": "blue", "correct_response": "b", "trial_id": "stroop-trial-1-congruent-17", "trial_type": "html-keyboard-response", "trial_index": 199, "time_elapsed": 392910, "internal_node_id": "0.0-8.0-13.0"}}, {"uniqueid": "w47105932:a78420238", "current_trial": 200, "dateTime": 1664873687906, "trialdata": {"rt": 479, "stimulus": "<p id='stroop-text' class='stroop-yellow'>YELLOW</p>", "response": "y", "stimulus-type": "congruent", "word": "yellow", "color": "yellow", "correct_response": "y", "trial_id": "stroop-trial-1-congruent-25", "trial_type": "html-keyboard-response", "trial_index": 200, "time_elapsed": 393894, "internal_node_id": "0.0-8.0-14.0"}}, {"uniqueid": "w47105932:a78420238", "current_trial": 201, "dateTime": 1664873689282, "trialdata": {"rt": 871, "stimulus": "<p id='stroop-text' class='stroop-red'>BLUE</p>", "response": "b", "stimulus-type": "incongruent", "word": "blue", "color": "red", "correct_response": "r", "trial_id": "stroop-trial-1-incongruent-16", "trial_type": "html-keyboard-response", "trial_index": 201, "time_elapsed": 395270, "internal_node_id": "0.0-8.0-15.0"}}, {"uniqueid": "w47105932:a78420238", "current_trial": 202, "dateTime": 1664873691235, "trialdata": {"rt": 1447, "stimulus": "<p id='stroop-text' class='stroop-blue'>BLUE</p>", "response": "b", "stimulus-type": "congruent", "word": "blue", "color": "blue", "correct_response": "b", "trial_id": "stroop-trial-1-congruent-13", "trial_type": "html-keyboard-response", "trial_index": 202, "time_elapsed": 397222, "internal_node_id": "0.0-8.0-16.0"}}, {"uniqueid": "w47105932:a78420238", "current_trial": 203, "dateTime": 1664873692410, "trialdata": {"rt": 670, "stimulus": "<p id='stroop-text' class='stroop-blue'>STONE</p>", "response": "b", "stimulus-type": "unrelated", "word": "STONE", "color": "blue", "correct_response": "b", "trial_id": "stroop-trial-1-unrelated-29", "trial_type": "html-keyboard-response", "trial_index": 203, "time_elapsed": 398398, "internal_node_id": "0.0-8.0-17.0"}}, {"uniqueid": "w47105932:a78420238", "current_trial": 204, "dateTime": 1664873693467, "trialdata": {"rt": 552, "stimulus": "<p id='stroop-text' class='stroop-blue'>BRAIN</p>", "response": "b", "stimulus-type": "unrelated", "word": "BRAIN", "color": "blue", "correct_response": "b", "trial_id": "stroop-trial-1-unrelated-27", "trial_type": "html-keyboard-response", "trial_index": 204, "time_elapsed": 399454, "internal_node_id": "0.0-8.0-18.0"}}, {"uniqueid": "w47105932:a78420238", "current_trial": 205, "dateTime": 1664873695027, "trialdata": {"rt": 1056, "stimulus": "<p id='stroop-text' class='stroop-green'>YELLOW</p>", "response": "g", "stimulus-type": "incongruent", "word": "yellow", "color": "green", "correct_response": "g", "trial_id": "stroop-trial-1-incongruent-2", "trial_type": "html-keyboard-response", "trial_index": 205, "time_elapsed": 401014, "internal_node_id": "0.0-8.0-19.0"}}, {"uniqueid": "w47105932:a78420238", "current_trial": 206, "dateTime": 1664873696178, "trialdata": {"rt": 647, "stimulus": "<p id='stroop-text' class='stroop-yellow'>YELLOW</p>", "response": "y", "stimulus-type": "congruent", "word": "yellow", "color": "yellow", "correct_response": "y", "trial_id": "stroop-trial-1-congruent-6", "trial_type": "html-keyboard-response", "trial_index": 206, "time_elapsed": 402166, "internal_node_id": "0.0-8.0-20.0"}}, {"uniqueid": "w47105932:a78420238", "current_trial": 207, "dateTime": 1664873697138, "trialdata": {"rt": 454, "stimulus": "<p id='stroop-text' class='stroop-yellow'>YELLOW</p>", "response": "y", "stimulus-type": "congruent", "word": "yellow", "color": "yellow", "correct_response": "y", "trial_id": "stroop-trial-1-congruent-18", "trial_type": "html-keyboard-response", "trial_index": 207, "time_elapsed": 403126, "internal_node_id": "0.0-8.0-21.0"}}, {"uniqueid": "w47105932:a78420238", "current_trial": 208, "dateTime": 1664873698658, "trialdata": {"rt": 1016, "stimulus": "<p id='stroop-text' class='stroop-red'>DOG</p>", "response": "r", "stimulus-type": "unrelated", "word": "DOG", "color": "red", "correct_response": "r", "trial_id": "stroop-trial-1-unrelated-14", "trial_type": "html-keyboard-response", "trial_index": 208, "time_elapsed": 404646, "internal_node_id": "0.0-8.0-22.0"}}, {"uniqueid": "w47105932:a78420238", "current_trial": 209, "dateTime": 1664873700058, "trialdata": {"rt": 894, "stimulus": "<p id='stroop-text' class='stroop-green'>CHAIR</p>", "response": "g", "stimulus-type": "unrelated", "word": "CHAIR", "color": "green", "correct_response": "g", "trial_id": "stroop-trial-1-unrelated-10", "trial_type": "html-keyboard-response", "trial_index": 209, "time_elapsed": 406046, "internal_node_id": "0.0-8.0-23.0"}}, {"uniqueid": "w47105932:a78420238", "current_trial": 210, "dateTime": 1664873701178, "trialdata": {"rt": 616, "stimulus": "<p id='stroop-text' class='stroop-yellow'>YELLOW</p>", "response": "y", "stimulus-type": "congruent", "word": "yellow", "color": "yellow", "correct_response": "y", "trial_id": "stroop-trial-1-congruent-2", "trial_type": "html-keyboard-response", "trial_index": 210, "time_elapsed": 407166, "internal_node_id": "0.0-8.0-24.0"}}, {"uniqueid": "w47105932:a78420238", "current_trial": 211, "dateTime": 1664873702379, "trialdata": {"rt": 696, "stimulus": "<p id='stroop-text' class='stroop-green'>MONKEY</p>", "response": "g", "stimulus-type": "unrelated", "word": "MONKEY", "color": "green", "correct_response": "g", "trial_id": "stroop-trial-1-unrelated-21", "trial_type": "html-keyboard-response", "trial_index": 211, "time_elapsed": 408366, "internal_node_id": "0.0-8.0-25.0"}}, {"uniqueid": "w47105932:a78420238", "current_trial": 212, "dateTime": 1664873703490, "trialdata": {"rt": 606, "stimulus": "<p id='stroop-text' class='stroop-green'>GREEN</p>", "response": "g", "stimulus-type": "congruent", "word": "green", "color": "green", "correct_response": "g", "trial_id": "stroop-trial-1-congruent-21", "trial_type": "html-keyboard-response", "trial_index": 212, "time_elapsed": 409478, "internal_node_id": "0.0-8.0-26.0"}}, {"uniqueid": "w47105932:a78420238", "current_trial": 213, "dateTime": 1664873705459, "trialdata": {"rt": 1463, "stimulus": "<p id='stroop-text' class='stroop-yellow'>GREEN</p>", "response": "y", "stimulus-type": "incongruent", "word": "green", "color": "yellow", "correct_response": "y", "trial_id": "stroop-trial-1-incongruent-15", "trial_type": "html-keyboard-response", "trial_index": 213, "time_elapsed": 411446, "internal_node_id": "0.0-8.0-27.0"}}, {"uniqueid": "w47105932:a78420238", "current_trial": 214, "dateTime": 1664873706538, "trialdata": {"rt": 575, "stimulus": "<p id='stroop-text' class='stroop-green'>GREEN</p>", "response": "g", "stimulus-type": "congruent", "word": "green", "color": "green", "correct_response": "g", "trial_id": "stroop-trial-1-congruent-29", "trial_type": "html-keyboard-response", "trial_index": 214, "time_elapsed": 412526, "internal_node_id": "0.0-8.0-28.0"}}, {"uniqueid": "w47105932:a78420238", "current_trial": 215, "dateTime": 1664873707994, "trialdata": {"rt": 951, "stimulus": "<p id='stroop-text' class='stroop-green'>RED</p>", "response": "g", "stimulus-type": "incongruent", "word": "red", "color": "green", "correct_response": "g", "trial_id": "stroop-trial-1-incongruent-21", "trial_type": "html-keyboard-response", "trial_index": 215, "time_elapsed": 413982, "internal_node_id": "0.0-8.0-29.0"}}, {"uniqueid": "w47105932:a78420238", "current_trial": 216, "dateTime": 1664873709546, "trialdata": {"rt": 1045, "stimulus": "<p id='stroop-text' class='stroop-yellow'>BOTTLE</p>", "response": "y", "stimulus-type": "unrelated", "word": "BOTTLE", "color": "yellow", "correct_response": "y", "trial_id": "stroop-trial-1-unrelated-18", "trial_type": "html-keyboard-response", "trial_index": 216, "time_elapsed": 415534, "internal_node_id": "0.0-8.0-30.0"}}, {"uniqueid": "w47105932:a78420238", "current_trial": 217, "dateTime": 1664873710514, "trialdata": {"rt": 463, "stimulus": "<p id='stroop-text' class='stroop-yellow'>GREEN</p>", "response": "y", "stimulus-type": "incongruent", "word": "green", "color": "yellow", "correct_response": "y", "trial_id": "stroop-trial-1-incongruent-14", "trial_type": "html-keyboard-response", "trial_index": 217, "time_elapsed": 416502, "internal_node_id": "0.0-8.0-31.0"}}, {"uniqueid": "w47105932:a78420238", "current_trial": 218, "dateTime": 1664873711402, "trialdata": {"rt": 382, "stimulus": "<p id='stroop-text' class='stroop-yellow'>GREEN</p>", "response": "y", "stimulus-type": "incongruent", "word": "green", "color": "yellow", "correct_response": "y", "trial_id": "stroop-trial-1-incongruent-5", "trial_type": "html-keyboard-response", "trial_index": 218, "time_elapsed": 417390, "internal_node_id": "0.0-8.0-32.0"}}, {"uniqueid": "w47105932:a78420238", "current_trial": 219, "dateTime": 1664873712427, "trialdata": {"rt": 520, "stimulus": "<p id='stroop-text' class='stroop-red'>GREEN</p>", "response": "r", "stimulus-type": "incongruent", "word": "green", "color": "red", "correct_response": "r", "trial_id": "stroop-trial-1-incongruent-27", "trial_type": "html-keyboard-response", "trial_index": 219, "time_elapsed": 418415, "internal_node_id": "0.0-8.0-33.0"}}, {"uniqueid": "w47105932:a78420238", "current_trial": 220, "dateTime": 1664873713506, "trialdata": {"rt": 573, "stimulus": "<p id='stroop-text' class='stroop-blue'>BLUE</p>", "response": "b", "stimulus-type": "congruent", "word": "blue", "color": "blue", "correct_response": "b", "trial_id": "stroop-trial-1-congruent-15", "trial_type": "html-keyboard-response", "trial_index": 220, "time_elapsed": 419494, "internal_node_id": "0.0-8.0-34.0"}}, {"uniqueid": "w47105932:a78420238", "current_trial": 221, "dateTime": 1664873714970, "trialdata": {"rt": 958, "stimulus": "<p id='stroop-text' class='stroop-red'>CHAIR</p>", "response": "r", "stimulus-type": "unrelated", "word": "CHAIR", "color": "red", "correct_response": "r", "trial_id": "stroop-trial-1-unrelated-30", "trial_type": "html-keyboard-response", "trial_index": 221, "time_elapsed": 420958, "internal_node_id": "0.0-8.0-35.0"}}, {"uniqueid": "w47105932:a78420238", "current_trial": 222, "dateTime": 1664873716162, "trialdata": {"rt": 687, "stimulus": "<p id='stroop-text' class='stroop-green'>GREEN</p>", "response": "g", "stimulus-type": "congruent", "word": "green", "color": "green", "correct_response": "g", "trial_id": "stroop-trial-1-congruent-3", "trial_type": "html-keyboard-response", "trial_index": 222, "time_ela