{"condition": 0, "counterbalance": 0, "assignmentId": "a83927831", "workerId": "w80083182", "hitId": "h93709252", "currenttrial": 959, "bonus": 0, "data": [{"uniqueid": "w80083182:a83927831", "current_trial": 0, "dateTime": 1664368152641, "trialdata": {"success": true, "trial_type": "fullscreen", "trial_index": 0, "time_elapsed": 7086, "internal_node_id": "0.0-0.0"}}, {"uniqueid": "w80083182:a83927831", "current_trial": 1, "dateTime": 1664368171112, "trialdata": {"view_history": [{"page_index": 0, "viewing_time": 18465}], "rt": 18467, "trial_id": "exp_instructions_distractor", "trial_type": "instructions", "trial_index": 1, "time_elapsed": 25558, "internal_node_id": "0.0-1.0"}}, {"uniqueid": "w80083182:a83927831", "current_trial": 2, "dateTime": 1664368210435, "trialdata": {"view_history": [{"page_index": 0, "viewing_time": 39317}], "rt": 39319, "trial_id": "color_game_instructions", "trial_type": "instructions", "trial_index": 2, "time_elapsed": 64881, "internal_node_id": "0.0-2.0"}}, {"uniqueid": "w80083182:a83927831", "current_trial": 3, "dateTime": 1664368225644, "trialdata": {"rt": 15203, "stimulus": "<h1> Get ready to start the game! </h1>\n\nThank you for reading the instructions. Get ready start with the first of 5 block(s) of this game.\n<br><br>\nIn this first block, you will complete 90 rounds of this game before moving on.\n<br><br>\nRemember, the better you perform, the bigger your bonus will be!\n<br><br>\n<div style='text-align: center;'>Press <code>space</code> to begin.</div>", "response": " ", "trial_id": "stroop_1_ready_1", "trial_type": "html-keyboard-response", "trial_index": 3, "time_elapsed": 80090, "internal_node_id": "0.0-3.0"}}, {"uniqueid": "w80083182:a83927831", "current_trial": 4, "dateTime": 1664368227437, "trialdata": {"rt": 1775, "stimulus": "<p id='stroop-text' class='stroop-blue'>BLUE</p>", "response": "b", "stimulus-type": "congruent", "word": "blue", "color": "blue", "correct_response": "b", "trial_id": "stroop-trial-1-congruent-16", "trial_type": "html-keyboard-response", "trial_index": 4, "time_elapsed": 81881, "internal_node_id": "0.0-4.0-0.0"}}, {"uniqueid": "w80083182:a83927831", "current_trial": 5, "dateTime": 1664368229331, "trialdata": {"rt": 1390, "stimulus": "<p id='stroop-text' class='stroop-yellow'>BRIDGE</p>", "response": "y", "stimulus-type": "unrelated", "word": "BRIDGE", "color": "yellow", "correct_response": "y", "trial_id": "stroop-trial-1-unrelated-13", "trial_type": "html-keyboard-response", "trial_index": 5, "time_elapsed": 83777, "internal_node_id": "0.0-4.0-1.0"}}, {"uniqueid": "w80083182:a83927831", "current_trial": 6, "dateTime": 1664368230474, "trialdata": {"rt": 639, "stimulus": "<p id='stroop-text' class='stroop-yellow'>MONKEY</p>", "response": "y", "stimulus-type": "unrelated", "word": "MONKEY", "color": "yellow", "correct_response": "y", "trial_id": "stroop-trial-1-unrelated-16", "trial_type": "html-keyboard-response", "trial_index": 6, "time_elapsed": 84919, "internal_node_id": "0.0-4.0-2.0"}}, {"uniqueid": "w80083182:a83927831", "current_trial": 7, "dateTime": 1664368231972, "trialdata": {"rt": 995, "stimulus": "<p id='stroop-text' class='stroop-red'>BRIDGE</p>", "response": "r", "stimulus-type": "unrelated", "word": "BRIDGE", "color": "red", "correct_response": "r", "trial_id": "stroop-trial-1-unrelated-29", "trial_type": "html-keyboard-response", "trial_index": 7, "time_elapsed": 86418, "internal_node_id": "0.0-4.0-3.0"}}, {"uniqueid": "w80083182:a83927831", "current_trial": 8, "dateTime": 1664368233161, "trialdata": {"rt": 687, "stimulus": "<p id='stroop-text' class='stroop-green'>CHAIR</p>", "response": "g", "stimulus-type": "unrelated", "word": "CHAIR", "color": "green", "correct_response": "g", "trial_id": "stroop-trial-1-unrelated-27", "trial_type": "html-keyboard-response", "trial_index": 8, "time_elapsed": 87606, "internal_node_id": "0.0-4.0-4.0"}}, {"uniqueid": "w80083182:a83927831", "current_trial": 9, "dateTime": 1664368234294, "trialdata": {"rt": 629, "stimulus": "<p id='stroop-text' class='stroop-yellow'>SHIP</p>", "response": "y", "stimulus-type": "unrelated", "word": "SHIP", "color": "yellow", "correct_response": "y", "trial_id": "stroop-trial-1-unrelated-14", "trial_type": "html-keyboard-response", "trial_index": 9, "time_elapsed": 88739, "internal_node_id": "0.0-4.0-5.0"}}, {"uniqueid": "w80083182:a83927831", "current_trial": 10, "dateTime": 1664368235227, "trialdata": {"rt": 429, "stimulus": "<p id='stroop-text' class='stroop-blue'>BLUE</p>", "response": "b", "stimulus-type": "congruent", "word": "blue", "color": "blue", "correct_response": "b", "trial_id": "stroop-trial-1-congruent-28", "trial_type": "html-keyboard-response", "trial_index": 10, "time_elapsed": 89672, "internal_node_id": "0.0-4.0-6.0"}}, {"uniqueid": "w80083182:a83927831", "current_trial": 11, "dateTime": 1664368237083, "trialdata": {"rt": 1350, "stimulus": "<p id='stroop-text' class='stroop-red'>BLUE</p>", "response": "r", "stimulus-type": "incongruent", "word": "blue", "color": "red", "correct_response": "r", "trial_id": "stroop-trial-1-incongruent-4", "trial_type": "html-keyboard-response", "trial_index": 11, "time_elapsed": 91529, "internal_node_id": "0.0-4.0-7.0"}}, {"uniqueid": "w80083182:a83927831", "current_trial": 12, "dateTime": 1664368238527, "trialdata": {"rt": 940, "stimulus": "<p id='stroop-text' class='stroop-yellow'>GREEN</p>", "response": "y", "stimulus-type": "incongruent", "word": "green", "color": "yellow", "correct_response": "y", "trial_id": "stroop-trial-1-incongruent-11", "trial_type": "html-keyboard-response", "trial_index": 12, "time_elapsed": 92972, "internal_node_id": "0.0-4.0-8.0"}}, {"uniqueid": "w80083182:a83927831", "current_trial": 13, "dateTime": 1664368239509, "trialdata": {"rt": 478, "stimulus": "<p id='stroop-text' class='stroop-green'>BLUE</p>", "response": "g", "stimulus-type": "incongruent", "word": "blue", "color": "green", "correct_response": "g", "trial_id": "stroop-trial-1-incongruent-23", "trial_type": "html-keyboard-response", "trial_index": 13, "time_elapsed": 93954, "internal_node_id": "0.0-4.0-9.0"}}, {"uniqueid": "w80083182:a83927831", "current_trial": 14, "dateTime": 1664368240918, "trialdata": {"rt": 905, "stimulus": "<p id='stroop-text' class='stroop-yellow'>YELLOW</p>", "response": "y", "stimulus-type": "congruent", "word": "yellow", "color": "yellow", "correct_response": "y", "trial_id": "stroop-trial-1-congruent-30", "trial_type": "html-keyboard-response", "trial_index": 14, "time_elapsed": 95363, "internal_node_id": "0.0-4.0-10.0"}}, {"uniqueid": "w80083182:a83927831", "current_trial": 15, "dateTime": 1664368241956, "trialdata": {"rt": 534, "stimulus": "<p id='stroop-text' class='stroop-blue'>BLUE</p>", "response": "b", "stimulus-type": "congruent", "word": "blue", "color": "blue", "correct_response": "b", "trial_id": "stroop-trial-1-congruent-14", "trial_type": "html-keyboard-response", "trial_index": 15, "time_elapsed": 96401, "internal_node_id": "0.0-4.0-11.0"}}, {"uniqueid": "w80083182:a83927831", "current_trial": 16, "dateTime": 1664368243048, "trialdata": {"rt": 586, "stimulus": "<p id='stroop-text' class='stroop-blue'>YELLOW</p>", "response": "b", "stimulus-type": "incongruent", "word": "yellow", "color": "blue", "correct_response": "b", "trial_id": "stroop-trial-1-incongruent-25", "trial_type": "html-keyboard-response", "trial_index": 16, "time_elapsed": 97494, "internal_node_id": "0.0-4.0-12.0"}}, {"uniqueid": "w80083182:a83927831", "current_trial": 17, "dateTime": 1664368244226, "trialdata": {"rt": 674, "stimulus": "<p id='stroop-text' class='stroop-green'>BLUE</p>", "response": "g", "stimulus-type": "incongruent", "word": "blue", "color": "green", "correct_response": "g", "trial_id": "stroop-trial-1-incongruent-21", "trial_type": "html-keyboard-response", "trial_index": 17, "time_elapsed": 98672, "internal_node_id": "0.0-4.0-13.0"}}, {"uniqueid": "w80083182:a83927831", "current_trial": 18, "dateTime": 1664368245581, "trialdata": {"rt": 852, "stimulus": "<p id='stroop-text' class='stroop-blue'>BRIDGE</p>", "response": "b", "stimulus-type": "unrelated", "word": "BRIDGE", "color": "blue", "correct_response": "b", "trial_id": "stroop-trial-1-unrelated-3", "trial_type": "html-keyboard-response", "trial_index": 18, "time_elapsed": 100026, "internal_node_id": "0.0-4.0-14.0"}}, {"uniqueid": "w80083182:a83927831", "current_trial": 19, "dateTime": 1664368246513, "trialdata": {"rt": 427, "stimulus": "<p id='stroop-text' class='stroop-yellow'>STONE</p>", "response": "y", "stimulus-type": "unrelated", "word": "STONE", "color": "yellow", "correct_response": "y", "trial_id": "stroop-trial-1-unrelated-1", "trial_type": "html-keyboard-response", "trial_index": 19, "time_elapsed": 100958, "internal_node_id": "0.0-4.0-15.0"}}, {"uniqueid": "w80083182:a83927831", "current_trial": 20, "dateTime": 1664368248047, "trialdata": {"rt": 1030, "stimulus": "<p id='stroop-text' class='stroop-blue'>BLUE</p>", "response": "b", "stimulus-type": "congruent", "word": "blue", "color": "blue", "correct_response": "b", "trial_id": "stroop-trial-1-congruent-6", "trial_type": "html-keyboard-response", "trial_index": 20, "time_elapsed": 102492, "internal_node_id": "0.0-4.0-16.0"}}, {"uniqueid": "w80083182:a83927831", "current_trial": 21, "dateTime": 1664368249296, "trialdata": {"rt": 744, "stimulus": "<p id='stroop-text' class='stroop-red'>BRIDGE</p>", "response": "r", "stimulus-type": "unrelated", "word": "BRIDGE", "color": "red", "correct_response": "r", "trial_id": "stroop-trial-1-unrelated-24", "trial_type": "html-keyboard-response", "trial_index": 21, "time_elapsed": 103741, "internal_node_id": "0.0-4.0-17.0"}}, {"uniqueid": "w80083182:a83927831", "current_trial": 22, "dateTime": 1664368250463, "trialdata": {"rt": 661, "stimulus": "<p id='stroop-text' class='stroop-red'>RED</p>", "response": "r", "stimulus-type": "congruent", "word": "red", "color": "red", "correct_response": "r", "trial_id": "stroop-trial-1-congruent-10", "trial_type": "html-keyboard-response", "trial_index": 22, "time_elapsed": 104909, "internal_node_id": "0.0-4.0-18.0"}}, {"uniqueid": "w80083182:a83927831", "current_trial": 23, "dateTime": 1664368251456, "trialdata": {"rt": 488, "stimulus": "<p id='stroop-text' class='stroop-red'>WINDOW</p>", "response": "r", "stimulus-type": "unrelated", "word": "WINDOW", "color": "red", "correct_response": "r", "trial_id": "stroop-trial-1-unrelated-30", "trial_type": "html-keyboard-response", "trial_index": 23, "time_elapsed": 105901, "internal_node_id": "0.0-4.0-19.0"}}, {"uniqueid": "w80083182:a83927831", "current_trial": 24, "dateTime": 1664368252534, "trialdata": {"rt": 574, "stimulus": "<p id='stroop-text' class='stroop-yellow'>BOAT</p>", "response": "y", "stimulus-type": "unrelated", "word": "BOAT", "color": "yellow", "correct_response": "y", "trial_id": "stroop-trial-1-unrelated-22", "trial_type": "html-keyboard-response", "trial_index": 24, "time_elapsed": 106979, "internal_node_id": "0.0-4.0-20.0"}}, {"uniqueid": "w80083182:a83927831", "current_trial": 25, "dateTime": 1664368253626, "trialdata": {"rt": 589, "stimulus": "<p id='stroop-text' class='stroop-red'>RED</p>", "response": "r", "stimulus-type": "congruent", "word": "red", "color": "red", "correct_response": "r", "trial_id": "stroop-trial-1-congruent-27", "trial_type": "html-keyboard-response", "trial_index": 25, "time_elapsed": 108072, "internal_node_id": "0.0-4.0-21.0"}}, {"uniqueid": "w80083182:a83927831", "current_trial": 26, "dateTime": 1664368254680, "trialdata": {"rt": 549, "stimulus": "<p id='stroop-text' class='stroop-green'>GREEN</p>", "response": "g", "stimulus-type": "congruent", "word": "green", "color": "green", "correct_response": "g", "trial_id": "stroop-trial-1-congruent-26", "trial_type": "html-keyboard-response", "trial_index": 26, "time_elapsed": 109125, "internal_node_id": "0.0-4.0-22.0"}}, {"uniqueid": "w80083182:a83927831", "current_trial": 27, "dateTime": 1664368255738, "trialdata": {"rt": 554, "stimulus": "<p id='stroop-text' class='stroop-blue'>BLUE</p>", "response": "b", "stimulus-type": "congruent", "word": "blue", "color": "blue", "correct_response": "b", "trial_id": "stroop-trial-1-congruent-18", "trial_type": "html-keyboard-response", "trial_index": 27, "time_elapsed": 110183, "internal_node_id": "0.0-4.0-23.0"}}, {"uniqueid": "w80083182:a83927831", "current_trial": 28, "dateTime": 1664368256890, "trialdata": {"rt": 648, "stimulus": "<p id='stroop-text' class='stroop-red'>RED</p>", "response": "r", "stimulus-type": "congruent", "word": "red", "color": "red", "correct_response": "r", "trial_id": "stroop-trial-1-congruent-4", "trial_type": "html-keyboard-response", "trial_index": 28, "time_elapsed": 111336, "internal_node_id": "0.0-4.0-24.0"}}, {"uniqueid": "w80083182:a83927831", "current_trial": 29, "dateTime": 1664368257938, "trialdata": {"rt": 544, "stimulus": "<p id='stroop-text' class='stroop-red'>RED</p>", "response": "r", "stimulus-type": "congruent", "word": "red", "color": "red", "correct_response": "r", "trial_id": "stroop-trial-1-congruent-9", "trial_type": "html-keyboard-response", "trial_index": 29, "time_elapsed": 112384, "internal_node_id": "0.0-4.0-25.0"}}, {"uniqueid": "w80083182:a83927831", "current_trial": 30, "dateTime": 1664368259193, "trialdata": {"rt": 750, "stimulus": "<p id='stroop-text' class='stroop-green'>BOTTLE</p>", "response": "g", "stimulus-type": "unrelated", "word": "BOTTLE", "color": "green", "correct_response": "g", "trial_id": "stroop-trial-1-unrelated-25", "trial_type": "html-keyboard-response", "trial_index": 30, "time_elapsed": 113638, "internal_node_id": "0.0-4.0-26.0"}}, {"uniqueid": "w80083182:a83927831", "current_trial": 31, "dateTime": 1664368260164, "trialdata": {"rt": 468, "stimulus": "<p id='stroop-text' class='stroop-green'>GREEN</p>", "response": "g", "stimulus-type": "congruent", "word": "green", "color": "green", "correct_response": "g", "trial_id": "stroop-trial-1-congruent-7", "trial_type": "html-keyboard-response", "trial_index": 31, "time_elapsed": 114610, "internal_node_id": "0.0-4.0-27.0"}}, {"uniqueid": "w80083182:a83927831", "current_trial": 32, "dateTime": 1664368261242, "trialdata": {"rt": 575, "stimulus": "<p id='stroop-text' class='stroop-red'>RED</p>", "response": "r", "stimulus-type": "congruent", "word": "red", "color": "red", "correct_response": "r", "trial_id": "stroop-trial-1-congruent-13", "trial_type": "html-keyboard-response", "trial_index": 32, "time_elapsed": 115688, "internal_node_id": "0.0-4.0-28.0"}}, {"uniqueid": "w80083182:a83927831", "current_trial": 33, "dateTime": 1664368262179, "trialdata": {"rt": 433, "stimulus": "<p id='stroop-text' class='stroop-yellow'>YELLOW</p>", "response": "y", "stimulus-type": "congruent", "word": "yellow", "color": "yellow", "correct_response": "y", "trial_id": "stroop-trial-1-congruent-22", "trial_type": "html-keyboard-response", "trial_index": 33, "time_elapsed": 116625, "internal_node_id": "0.0-4.0-29.0"}}, {"uniqueid": "w80083182:a83927831", "current_trial": 34, "dateTime": 1664368263177, "trialdata": {"rt": 495, "stimulus": "<p id='stroop-text' class='stroop-blue'>BLUE</p>", "response": "b", "stimulus-type": "congruent", "word": "blue", "color": "blue", "correct_response": "b", "trial_id": "stroop-trial-1-congruent-23", "trial_type": "html-keyboard-response", "trial_index": 34, "time_elapsed": 117623, "internal_node_id": "0.0-4.0-30.0"}}, {"uniqueid": "w80083182:a83927831", "current_trial": 35, "dateTime": 1664368264375, "trialdata": {"rt": 693, "stimulus": "<p id='stroop-text' class='stroop-blue'>GREEN</p>", "response": "b", "stimulus-type": "incongruent", "word": "green", "color": "blue", "correct_response": "b", "trial_id": "stroop-trial-1-incongruent-12", "trial_type": "html-keyboard-response", "trial_index": 35, "time_elapsed": 118821, "internal_node_id": "0.0-4.0-31.0"}}, {"uniqueid": "w80083182:a83927831", "current_trial": 36, "dateTime": 1664368265543, "trialdata": {"rt": 664, "stimulus": "<p id='stroop-text' class='stroop-green'>RED</p>", "response": "g", "stimulus-type": "incongruent", "word": "red", "color": "green", "correct_response": "g", "trial_id": "stroop-trial-1-incongruent-18", "trial_type": "html-keyboard-response", "trial_index": 36, "time_elapsed": 119989, "internal_node_id": "0.0-4.0-32.0"}}, {"uniqueid": "w80083182:a83927831", "current_trial": 37, "dateTime": 1664368266450, "trialdata": {"rt": 403, "stimulus": "<p id='stroop-text' class='stroop-yellow'>YELLOW</p>", "response": "y", "stimulus-type": "congruent", "word": "yellow", "color": "yellow", "correct_response": "y", "trial_id": "stroop-trial-1-congruent-15", "trial_type": "html-keyboard-response", "trial_index": 37, "time_elapsed": 120896, "internal_node_id": "0.0-4.0-33.0"}}, {"uniqueid": "w80083182:a83927831", "current_trial": 38, "dateTime": 1664368267293, "trialdata": {"rt": 339, "stimulus": "<p id='stroop-text' class='stroop-red'>GREEN</p>", "response": "r", "stimulus-type": "incongruent", "word": "green", "color": "red", "correct_response": "r", "trial_id": "stroop-trial-1-incongruent-22", "trial_type": "html-keyboard-response", "trial_index": 38, "time_elapsed": 121739, "internal_node_id": "0.0-4.0-34.0"}}, {"uniqueid": "w80083182:a83927831", "current_trial": 39, "dateTime": 1664368268346, "trialdata": {"rt": 549, "stimulus": "<p id='stroop-text' class='stroop-green'>GREEN</p>", "response": "r", "stimulus-type": "congruent", "word": "green", "color": "green", "correct_response": "g", "trial_id": "stroop-trial-1-congruent-3", "trial_type": "html-keyboard-response", "trial_index": 39, "time_elapsed": 122792, "internal_node_id": "0.0-4.0-35.0"}}, {"uniqueid": "w80083182:a83927831", "current_trial": 40, "dateTime": 1664368269500, "trialdata": {"rt": 650, "stimulus": "<p id='stroop-text' class='stroop-yellow'>YELLOW</p>", "response": "y", "stimulus-type": "congruent", "word": "yellow", "color": "yellow", "correct_response": "y", "trial_id": "stroop-trial-1-congruent-29", "trial_type": "html-keyboard-response", "trial_index": 40, "time_elapsed": 123945, "internal_node_id": "0.0-4.0-36.0"}}, {"uniqueid": "w80083182:a83927831", "current_trial": 41, "dateTime": 1664368271023, "trialdata": {"rt": 1019, "stimulus": "<p id='stroop-text' class='stroop-yellow'>RED</p>", "response": "y", "stimulus-type": "incongruent", "word": "red", "color": "yellow", "correct_response": "y", "trial_id": "stroop-trial-1-incongruent-15", "trial_type": "html-keyboard-response", "trial_index": 41, "time_elapsed": 125469, "internal_node_id": "0.0-4.0-37.0"}}, {"uniqueid": "w80083182:a83927831", "current_trial": 42, "dateTime": 1664368272191, "trialdata": {"rt": 664, "stimulus": "<p id='stroop-text' class='stroop-red'>BLUE</p>", "response": "r", "stimulus-type": "incongruent", "word": "blue", "color": "red", "correct_response": "r", "trial_id": "stroop-trial-1-incongruent-16", "trial_type": "html-keyboard-response", "trial_index": 42, "time_elapsed": 126637, "internal_node_id": "0.0-4.0-38.0"}}, {"uniqueid": "w80083182:a83927831", "current_trial": 43, "dateTime": 1664368273424, "trialdata": {"rt": 729, "stimulus": "<p id='stroop-text' class='stroop-red'>CHAIR</p>", "response": "r", "stimulus-type": "unrelated", "word": "CHAIR", "color": "red", "correct_response": "r", "trial_id": "stroop-trial-1-unrelated-8", "trial_type": "html-keyboard-response", "trial_index": 43, "time_elapsed": 127870, "internal_node_id": "0.0-4.0-39.0"}}, {"uniqueid": "w80083182:a83927831", "current_trial": 44, "dateTime": 1664368274542, "trialdata": {"rt": 612, "stimulus": "<p id='stroop-text' class='stroop-blue'>BLUE</p>", "response": "b", "stimulus-type": "congruent", "word": "blue", "color": "blue", "correct_response": "b", "trial_id": "stroop-trial-1-congruent-17", "trial_type": "html-keyboard-response", "trial_index": 44, "time_elapsed": 128988, "internal_node_id": "0.0-4.0-40.0"}}, {"uniqueid": "w80083182:a83927831", "current_trial": 45, "dateTime": 1664368275806, "trialdata": {"rt": 760, "stimulus": "<p id='stroop-text' class='stroop-blue'>YELLOW</p>", "response": "b", "stimulus-type": "incongruent", "word": "yellow", "color": "blue", "correct_response": "b", "trial_id": "stroop-trial-1-incongruent-13", "trial_type": "html-keyboard-response", "trial_index": 45, "time_elapsed": 130252, "internal_node_id": "0.0-4.0-41.0"}}, {"uniqueid": "w80083182:a83927831", "current_trial": 46, "dateTime": 1664368276898, "trialdata": {"rt": 588, "stimulus": "<p id='stroop-text' class='stroop-green'>YELLOW</p>", "response": "g", "stimulus-type": "incongruent", "word": "yellow", "color": "green", "correct_response": "g", "trial_id": "stroop-trial-1-incongruent-19", "trial_type": "html-keyboard-response", "trial_index": 46, "time_elapsed": 131344, "internal_node_id": "0.0-4.0-42.0"}}, {"uniqueid": "w80083182:a83927831", "current_trial": 47, "dateTime": 1664368278016, "trialdata": {"rt": 614, "stimulus": "<p id='stroop-text' class='stroop-yellow'>BLUE</p>", "response": "y", "stimulus-type": "incongruent", "word": "blue", "color": "yellow", "correct_response": "y", "trial_id": "stroop-trial-1-incongruent-7", "trial_type": "html-keyboard-response", "trial_index": 47, "time_elapsed": 132462, "internal_node_id": "0.0-4.0-43.0"}}, {"uniqueid": "w80083182:a83927831", "current_trial": 48, "dateTime": 1664368279630, "trialdata": {"rt": 1108, "stimulus": "<p id='stroop-text' class='stroop-blue'>BOAT</p>", "response": "b", "stimulus-type": "unrelated", "word": "BOAT", "color": "blue", "correct_response": "b", "trial_id": "stroop-trial-1-unrelated-19", "trial_type": "html-keyboard-response", "trial_index": 48, "time_elapsed": 134076, "internal_node_id": "0.0-4.0-44.0"}}, {"uniqueid": "w80083182:a83927831", "current_trial": 49, "dateTime": 1664368280734, "trialdata": {"rt": 602, "stimulus": "<p id='stroop-text' class='stroop-green'>GREEN</p>", "response": "g", "stimulus-type": "congruent", "word": "green", "color": "green", "correct_response": "g", "trial_id": "stroop-trial-1-congruent-5", "trial_type": "html-keyboard-response", "trial_index": 49, "time_elapsed": 135180, "internal_node_id": "0.0-4.0-45.0"}}, {"uniqueid": "w80083182:a83927831", "current_trial": 50, "dateTime": 1664368281706, "trialdata": {"rt": 468, "stimulus": "<p id='stroop-text' class='stroop-green'>GREEN</p>", "response": "g", "stimulus-type": "congruent", "word": "green", "color": "green", "correct_response": "g", "trial_id": "stroop-trial-1-congruent-24", "trial_type": "html-keyboard-response", "trial_index": 50, "time_elapsed": 136152, "internal_node_id": "0.0-4.0-46.0"}}, {"uniqueid": "w80083182:a83927831", "current_trial": 51, "dateTime": 1664368282679, "trialdata": {"rt": 468, "stimulus": "<p id='stroop-text' class='stroop-green'>BLUE</p>", "response": "g", "stimulus-type": "incongruent", "word": "blue", "color": "green", "correct_response": "g", "trial_id": "stroop-trial-1-incongruent-24", "trial_type": "html-keyboard-response", "trial_index": 51, "time_elapsed": 137125, "internal_node_id": "0.0-4.0-47.0"}}, {"uniqueid": "w80083182:a83927831", "current_trial": 52, "dateTime": 1664368283747, "trialdata": {"rt": 562, "stimulus": "<p id='stroop-text' class='stroop-red'>RED</p>", "response": "r", "stimulus-type": "congruent", "word": "red", "color": "red", "correct_response": "r", "trial_id": "stroop-trial-1-congruent-12", "trial_type": "html-keyboard-response", "trial_index": 52, "time_elapsed": 138193, "internal_node_id": "0.0-4.0-48.0"}}, {"uniqueid": "w80083182:a83927831", "current_trial": 53, "dateTime": 1664368285426, "trialdata": {"rt": 1174, "stimulus": "<p id='stroop-text' class='stroop-green'>BLUE</p>", "response": "g", "stimulus-type": "incongruent", "word": "blue", "color": "green", "correct_response": "g", "trial_id": "stroop-trial-1-incongruent-27", "trial_type": "html-keyboard-response", "trial_index": 53, "time_elapsed": 139872, "internal_node_id": "0.0-4.0-49.0"}}, {"uniqueid": "w80083182:a83927831", "current_trial": 54, "dateTime": 1664368286890, "trialdata": {"rt": 959, "stimulus": "<p id='stroop-text' class='stroop-blue'>RED</p>", "response": "b", "stimulus-type": "incongruent", "word": "red", "color": "blue", "correct_response": "b", "trial_id": "stroop-trial-1-incongruent-5", "trial_type": "html-keyboard-response", "trial_index": 54, "time_elapsed": 141336, "internal_node_id": "0.0-4.0-50.0"}}, {"uniqueid": "w80083182:a83927831", "current_trial": 55, "dateTime": 1664368287783, "trialdata": {"rt": 389, "stimulus": "<p id='stroop-text' class='stroop-yellow'>YELLOW</p>", "response": "y", "stimulus-type": "congruent", "word": "yellow", "color": "yellow", "correct_response": "y", "trial_id": "stroop-trial-1-congruent-1", "trial_type": "html-keyboard-response", "trial_index": 55, "time_elapsed": 142229, "internal_node_id": "0.0-4.0-51.0"}}, {"uniqueid": "w80083182:a83927831", "current_trial": 56, "dateTime": 1664368289021, "trialdata": {"rt": 734, "stimulus": "<p id='stroop-text' class='stroop-green'>STONE</p>", "response": "g", "stimulus-type": "unrelated", "word": "STONE", "color": "green", "correct_response": "g", "trial_id": "stroop-trial-1-unrelated-26", "trial_type": "html-keyboard-response", "trial_index": 56, "time_elapsed": 143467, "internal_node_id": "0.0-4.0-52.0"}}, {"uniqueid": "w80083182:a83927831", "current_trial": 57, "dateTime": 1664368290605, "trialdata": {"rt": 1079, "stimulus": "<p id='stroop-text' class='stroop-blue'>RED</p>", "response": "b", "stimulus-type": "incongruent", "word": "red", "color": "blue", "correct_response": "b", "trial_id": "stroop-trial-1-incongruent-29", "trial_type": "html-keyboard-response", "trial_index": 57, "time_elapsed": 145051, "internal_node_id": "0.0-4.0-53.0"}}, {"uniqueid": "w80083182:a83927831", "current_trial": 58, "dateTime": 1664368291909, "trialdata": {"rt": 800, "stimulus": "<p id='stroop-text' class='stroop-yellow'>GREEN</p>", "response": "y", "stimulus-type": "incongruent", "word": "green", "color": "yellow", "correct_response": "y", "trial_id": "stroop-trial-1-incongruent-3", "trial_type": "html-keyboard-response", "trial_index": 58, "time_elapsed": 146355, "internal_node_id": "0.0-4.0-54.0"}}, {"uniqueid": "w80083182:a83927831", "current_trial": 59, "dateTime": 1664368293067, "trialdata": {"rt": 654, "stimulus": "<p id='stroop-text' class='stroop-yellow'>YELLOW</p>", "response": "y", "stimulus-type": "congruent", "word": "yellow", "color": "yellow", "correct_response": "y", "trial_id": "stroop-trial-1-congruent-8", "trial_type": "html-keyboard-response", "trial_index": 59, "time_elapsed": 147513, "internal_node_id": "0.0-4.0-55.0"}}, {"uniqueid": "w80083182:a83927831", "current_trial": 60, "dateTime": 1664368294285, "trialdata": {"rt": 712, "stimulus": "<p id='stroop-text' class='stroop-yellow'>BLUE</p>", "response": "y", "stimulus-type": "incongruent", "word": "blue", "color": "yellow", "correct_response": "y", "trial_id": "stroop-trial-1-incongruent-20", "trial_type": "html-keyboard-response", "trial_index": 60, "time_elapsed": 148731, "internal_node_id": "0.0-4.0-56.0"}}, {"uniqueid": "w80083182:a83927831", "current_trial": 61, "dateTime": 1664368295167, "trialdata": {"rt": 378, "stimulus": "<p id='stroop-text' class='stroop-yellow'>BLUE</p>", "response": "y", "stimulus-type": "incongruent", "word": "blue", "color": "yellow", "correct_response": "y", "trial_id": "stroop-trial-1-incongruent-14", "trial_type": "html-keyboard-response", "trial_index": 61, "time_elapsed": 149613, "internal_node_id": "0.0-4.0-57.0"}}, {"uniqueid": "w80083182:a83927831", "current_trial": 62, "dateTime": 1664368296762, "trialdata": {"rt": 1091, "stimulus": "<p id='stroop-text' class='stroop-blue'>BOTTLE</p>", "response": "b", "stimulus-type": "unrelated", "word": "BOTTLE", "color": "blue", "correct_response": "b", "trial_id": "stroop-trial-1-unrelated-17", "trial_type": "html-keyboard-response", "trial_index": 62, "time_elapsed": 151208, "internal_node_id": "0.0-4.0-58.0"}}, {"uniqueid": "w80083182:a83927831", "current_trial": 63, "dateTime": 1664368298262, "trialdata": {"rt": 995, "stimulus": "<p id='stroop-text' class='stroop-red'>MONKEY</p>", "response": "r", "stimulus-type": "unrelated", "word": "MONKEY", "color": "red", "correct_response": "r", "trial_id": "stroop-trial-1-unrelated-21", "trial_type": "html-keyboard-response", "trial_index": 63, "time_elapsed": 152707, "internal_node_id": "0.0-4.0-59.0"}}, {"uniqueid": "w80083182:a83927831", "current_trial": 64, "dateTime": 1664368299460, "trialdata": {"rt": 694, "stimulus": "<p id='stroop-text' class='stroop-yellow'>RED</p>", "response": "y", "stimulus-type": "incongruent", "word": "red", "color": "yellow", "correct_response": "y", "trial_id": "stroop-trial-1-incongruent-1", "trial_type": "html-keyboard-response", "trial_index": 64, "time_elapsed": 153905, "internal_node_id": "0.0-4.0-60.0"}}, {"uniqueid": "w80083182:a83927831", "current_trial": 65, "dateTime": 1664368300588, "trialdata": {"rt": 624, "stimulus": "<p id='stroop-text' class='stroop-blue'>BLUE</p>", "response": "b", "stimulus-type": "congruent", "word": "blue", "color": "blue", "correct_response": "b", "trial_id": "stroop-trial-1-congruent-19", "trial_type": "html-keyboard-response", "trial_index": 65, "time_elapsed": 155033, "internal_node_id": "0.0-4.0-61.0"}}, {"uniqueid": "w80083182:a83927831", "current_trial": 66, "dateTime": 1664368301881, "trialdata": {"rt": 789, "stimulus": "<p id='stroop-text' class='stroop-yellow'>BLUE</p>", "response": "y", "stimulus-type": "incongruent", "word": "blue", "color": "yellow", "correct_response": "y", "trial_id": "stroop-trial-1-incongruent-30", "trial_type": "html-keyboard-response", "trial_index": 66, "time_elapsed": 156327, "internal_node_id": "0.0-4.0-62.0"}}, {"uniqueid": "w80083182:a83927831", "current_trial": 67, "dateTime": 1664368303094, "trialdata": {"rt": 707, "stimulus": "<p id='stroop-text' class='stroop-blue'>DOG</p>", "response": "b", "stimulus-type": "unrelated", "word": "DOG", "color": "blue", "correct_response": "b", "trial_id": "stroop-trial-1-unrelated-11", "trial_type": "html-keyboard-response", "trial_index": 67, "time_elapsed": 157540, "internal_node_id": "0.0-4.0-63.0"}}, {"uniqueid": "w80083182:a83927831", "current_trial": 68, "dateTime": 1664368304183, "trialdata": {"rt": 586, "stimulus": "<p id='stroop-text' class='stroop-yellow'>YELLOW</p>", "response": "y", "stimulus-type": "congruent", "word": "yellow", "color": "yellow", "correct_response": "y", "trial_id": "stroop-trial-1-congruent-21", "trial_type": "html-keyboard-response", "trial_index": 68, "time_elapsed": 158628, "internal_node_id": "0.0-4.0-64.0"}}, {"uniqueid": "w80083182:a83927831", "current_trial": 69, "dateTime": 1664368305175, "trialdata": {"rt": 487, "stimulus": "<p id='stroop-text' class='stroop-yellow'>RED</p>", "response": "y", "stimulus-type": "incongruent", "word": "red", "color": "yellow", "correct_response": "y", "trial_id": "stroop-trial-1-incongruent-9", "trial_type": "html-keyboard-response", "trial_index": 69, "time_elapsed": 159620, "internal_node_id": "0.0-4.0-65.0"}}, {"uniqueid": "w80083182:a83927831", "current_trial": 70, "dateTime": 1664368306023, "trialdata": {"rt": 344, "stimulus": "<p id='stroop-text' class='stroop-yellow'>GREEN</p>", "response": "y", "stimulus-type": "incongruent", "word": "green", "color": "yellow", "correct_response": "y", "trial_id": "stroop-trial-1-incongruent-26", "trial_type": "html-keyboard-response", "trial_index": 70, "time_elapsed": 160468, "internal_node_id": "0.0-4.0-66.0"}}, {"uniqueid": "w80083182:a83927831", "current_trial": 71, "dateTime": 1664368307270, "trialdata": {"rt": 742, "stimulus": "<p id='stroop-text' class='stroop-green'>WINDOW</p>", "response": "g", "stimulus-type": "unrelated", "word": "WINDOW", "color": "green", "correct_response": "g", "trial_id": "stroop-trial-1-unrelated-20", "trial_type": "html-keyboard-response", "trial_index": 71, "time_elapsed": 161716, "internal_node_id": "0.0-4.0-67.0"}}, {"uniqueid": "w80083182:a83927831", "current_trial": 72, "dateTime": 1664368308304, "trialdata": {"rt": 531, "stimulus": "<p id='stroop-text' class='stroop-yellow'>WINDOW</p>", "response": "y", "stimulus-type": "unrelated", "word": "WINDOW", "color": "yellow", "correct_response": "y", "trial_id": "stroop-trial-1-unrelated-10", "trial_type": "html-keyboard-response", "trial_index": 72, "time_elapsed": 162749, "internal_node_id": "0.0-4.0-68.0"}}, {"uniqueid": "w80083182:a83927831", "current_trial": 73, "dateTime": 1664368309351, "trialdata": {"rt": 542, "stimulus": "<p id='stroop-text' class='stroop-red'>WINDOW</p>", "response": "r", "stimulus-type": "unrelated", "word": "WINDOW", "color": "red", "correct_response": "r", "trial_id": "stroop-trial-1-unrelated-6", "trial_type": "html-keyboard-response", "trial_index": 73, "time_elapsed": 163796, "internal_node_id": "0.0-4.0-69.0"}}, {"uniqueid": "w80083182:a83927831", "current_trial": 74, "dateTime": 1664368310394, "trialdata": {"rt": 537, "stimulus": "<p id='stroop-text' class='stroop-red'>DOG</p>", "response": "r", "stimulus-type": "unrelated", "word": "DOG", "color": "red", "correct_response": "r", "trial_id": "stroop-trial-1-unrelated-28", "trial_type": "html-keyboard-response", "trial_index": 74, "time_elapsed": 164839, "internal_node_id": "0.0-4.0-70.0"}}, {"uniqueid": "w80083182:a83927831", "current_trial": 75, "dateTime": 1664368311527, "trialdata": {"rt": 629, "stimulus": "<p id='stroop-text' class='stroop-green'>STONE</p>", "response": "g", "stimulus-type": "unrelated", "word": "STONE", "color": "green", "correct_response": "g", "trial_id": "stroop-trial-1-unrelated-23", "trial_type": "html-keyboard-response", "trial_index": 75, "time_elapsed": 165972, "internal_node_id": "0.0-4.0-71.0"}}, {"uniqueid": "w80083182:a83927831", "current_trial": 76, "dateTime": 1664368312665, "trialdata": {"rt": 633, "stimulus": "<p id='stroop-text' class='stroop-red'>SHIP</p>", "response": "r", "stimulus-type": "unrelated", "word": "SHIP", "color": "red", "correct_response": "r", "trial_id": "stroop-trial-1-unrelated-18", "trial_type": "html-keyboard-response", "trial_index": 76, "time_elapsed": 167111, "internal_node_id": "0.0-4.0-72.0"}}, {"uniqueid": "w80083182:a83927831", "current_trial": 77, "dateTime": 1664368313673, "trialdata": {"rt": 502, "stimulus": "<p id='stroop-text' class='stroop-red'>RED</p>", "response": "r", "stimulus-type": "congruent", "word": "red", "color": "red", "correct_response": "r", "trial_id": "stroop-trial-1-congruent-2", "trial_type": "html-keyboard-response", "trial_index": 77, "time_elapsed": 168118, "internal_node_id": "0.0-4.0-73.0"}}, {"uniqueid": "w80083182:a83927831", "current_trial": 78, "dateTime": 1664368314735, "trialdata": {"rt": 559, "stimulus": "<p id='stroop-text' class='stroop-green'>GREEN</p>", "response": "y", "stimulus-type": "congruent", "word": "green", "color": "green", "correct_response": "g", "trial_id": "stroop-trial-1-congruent-11", "trial_type": "html-keyboard-response", "trial_index": 78, "time_elapsed": 169181, "internal_node_id": "0.0-4.0-74.0"}}, {"uniqueid": "w80083182:a83927831", "current_trial": 79, "dateTime": 1664368316711, "trialdata": {"rt": 1473, "stimulus": "<p id='stroop-text' class='stroop-green'>BLUE</p>", "response": "g", "stimulus-type": "incongruent", "word": "blue", "color": "green", "correct_response": "g", "trial_id": "stroop-trial-1-incongruent-17", "trial_type": "html-keyboard-response", "trial_index": 79, "time_elapsed": 171156, "internal_node_id": "0.0-4.0-75.0"}}, {"uniqueid": "w80083182:a83927831", "current_trial": 80, "dateTime": 1664368317813, "trialdata": {"rt": 596, "stimulus": "<p id='stroop-text' class='stroop-red'>RED</p>", "response": "r", "stimulus-type": "congruent", "word": "red", "color": "red", "correct_response": "r", "trial_id": "stroop-trial-1-congruent-20", "trial_type": "html-keyboard-response", "trial_index": 80, "time_elapsed": 172259, "internal_node_id": "0.0-4.0-76.0"}}, {"uniqueid": "w80083182:a83927831", "current_trial": 81, "dateTime": 1664368318937, "trialdata": {"rt": 621, "stimulus": "<p id='stroop-text' class='stroop-blue'>YELLOW</p>", "response": "b", "stimulus-type": "incongruent", "word": "yellow", "color": "blue", "correct_response": "b", "trial_id": "stroop-trial-1-incongruent-6", "trial_type": "html-keyboard-response", "trial_index": 81, "time_elapsed": 173382, "internal_node_id": "0.0-4.0-77.0"}}, {"uniqueid": "w80083182:a83927831", "current_trial": 82, "dateTime": 1664368320231, "trialdata": {"rt": 789, "stimulus": "<p id='stroop-text' class='stroop-green'>YELLOW</p>", "response": "g", "stimulus-type": "incongruent", "word": "yellow", "color": "green", "correct_response": "g", "trial_id": "stroop-trial-1-incongruent-10", "trial_type": "html-keyboard-response", "trial_index": 82, "time_elapsed": 174676, "internal_node_id": "0.0-4.0-78.0"}}, {"uniqueid": "w80083182:a83927831", "current_trial": 83, "dateTime": 1664368321379, "trialdata": {"rt": 641, "stimulus": "<p id='stroop-text' class='stroop-green'>BRIDGE</p>", "response": "g", "stimulus-type": "unrelated", "word": "BRIDGE", "color": "green", "correct_response": "g", "trial_id": "stroop-trial-1-unrelated-2", "trial_type": "html-keyboard-response", "trial_index": 83, "time_elapsed": 175824, "internal_node_id": "0.0-4.0-79.0"}}, {"uniqueid": "w80083182:a83927831", "current_trial": 84, "dateTime": 1664368322442, "trialdata": {"rt": 558, "stimulus": "<p id='stroop-text' class='stroop-yellow'>YELLOW</p>", "response": "y", "stimulus-type": "congruent", "word": "yellow", "color": "yellow", "correct_response": "y", "trial_id": "stroop-trial-1-congruent-25", "trial_type": "html-keyboard-response", "trial_index": 84, "time_elapsed": 176887, "internal_node_id": "0.0-4.0-80.0"}}, {"uniqueid": "w80083182:a83927831", "current_trial": 85, "dateTime": 1664368323645, "trialdata": {"rt": 699, "stimulus": "<p id='stroop-text' class='stroop-green'>WINDOW</p>", "response": "g", "stimulus-type": "unrelated", "word": "WINDOW", "color": "green", "correct_response": "g", "trial_id": "stroop-trial-1-unrelated-5", "trial_type": "html-keyboard-response", "trial_index": 85, "time_elapsed": 178090, "internal_node_id": "0.0-4.0-81.0"}}, {"uniqueid": "w80083182:a83927831", "current_trial": 86, "dateTime": 1664368325008, "trialdata": {"rt": 856, "stimulus": "<p id='stroop-text' class='stroop-red'>BOTTLE</p>", "response": "r", "stimulus-type": "unrelated", "word": "BOTTLE", "color": "red", "correct_response": "r", "trial_id": "stroop-trial-1-unrelated-15", "trial_type": "html-keyboard-response", "trial_index": 86, "time_elapsed": 179453, "internal_node_id": "0.0-4.0-82.0"}}, {"uniqueid": "w80083182:a83927831", "current_trial": 87, "dateTime": 1664368326548, "trialdata": {"rt": 1035, "stimulus": "<p id='stroop-text' class='stroop-green'>RED</p>", "response": "g", "stimulus-type": "incongruent", "word": "red", "color": "green", "correct_response": "g", "trial_id": "stroop-trial-1-incongruent-28", "trial_type": "html-keyboard-response", "trial_index": 87, "time_elapsed": 180993, "internal_node_id": "0.0-4.0-83.0"}}, {"uniqueid": "w80083182:a83927831", "current_trial": 88, "dateTime": 1664368327670, "trialdata": {"rt": 618, "stimulus": "<p id='stroop-text' class='stroop-green'>FORK</p>", "response": "g", "stimulus-type": "unrelated", "word": "FORK", "color": "green", "correct_response": "g", "trial_id": "stroop-trial-1-unrelated-4", "trial_type": "html-keyboard-response", "trial_index": 88, "time_elapsed": 182116, "internal_node_id": "0.0-4.0-84.0"}}, {"uniqueid": "w80083182:a83927831", "current_trial": 89, "dateTime": 1664368328748, "trialdata": {"rt": 571, "stimulus": "<p id='stroop-text' class='stroop-red'>YELLOW</p>", "response": "r", "stimulus-type": "incongruent", "word": "yellow", "color": "red", "correct_response": "r", "trial_id": "stroop-trial-1-incongruent-8", "trial_type": "html-keyboard-response", "trial_index": 89, "time_elapsed": 183193, "internal_node_id": "0.0-4.0-85.0"}}, {"uniqueid": "w80083182:a83927831", "current_trial": 90, "dateTime": 1664368329977, "trialdata": {"rt": 725, "stimulus": "<p id='stroop-text' class='stroop-red'>BLUE</p>", "response": "r", "stimulus-type": "incongruent", "word": "blue", "color": "red", "correct_response": "r", "trial_id": "stroop-trial-1-incongruent-2", "trial_type": "html-keyboard-response", "trial_index": 90, "time_elapsed": 184422, "internal_node_id": "0.0-4.0-86.0"}}, {"uniqueid": "w80083182:a83927831", "current_trial": 91, "dateTime": 1664368331245, "trialdata": {"rt": 764, "stimulus": "<p id='stroop-text' class='stroop-blue'>DOG</p>", "response": "b", "stimulus-type": "unrelated", "word": "DOG", "color": "blue", "correct_response": "b", "trial_id": "stroop-trial-1-unrelated-7", "trial_type": "html-keyboard-response", "trial_index": 91, "time_elapsed": 185690, "internal_node_id": "0.0-4.0-87.0"}}, {"uniqueid": "w80083182:a83927831", "current_trial": 92, "dateTime": 1664368332433, "trialdata": {"rt": 682, "stimulus": "<p id='stroop-text' class='stroop-green'>CHAIR</p>", "response": "g", "stimulus-type": "unrelated", "word": "CHAIR", "color": "green", "correct_response": "g", "trial_id": "stroop-trial-1-unrelated-9", "trial_type": "html-keyboard-response", "trial_index": 92, "time_elapsed": 186878, "internal_node_id": "0.0-4.0-88.0"}}, {"uniqueid": "w80083182:a83927831", "current_trial": 93, "dateTime": 1664368333456, "trialdata": {"rt": 518, "stimulus": "<p id='stroop-text' class='stroop-green'>MONKEY</p>", "response": "g", "stimulus-type": "unrelated", "word": "MONKEY", "color": "green", "correct_response": "g", "trial_id": "stroop-trial-1-unrelated-12", "trial_type": "html-keyboard-response", "trial_index": 93, "time_elapsed": 187901, "internal_node_id": "0.0-4.0-89.0"}}, {"uniqueid": "w80083182:a83927831", "current_trial": 94, "dateTime": 1664368340976, "trialdata": {"rt": 7010, "stimulus": "  <h1> End of block! </h1>\n\n  You have reached the end of the block 1/5. If you need a short break, feel free to take one now before moving on.\n\n  <br><br>\n  In the next block, you will complete another 90 rounds of this game.\n\n  <br><br>\n  <div style='text-align: center;'>Press <code>space</code> to begin.</div>\n  <br><br>\n<div style='text-align: center;'>(If the experiment doesn't continue, try clicking on the text and then pressing <code>space</code>.)</div>", "response": " ", "trial_id": "stroop_1_ready_2", "trial_type": "html-keyboard-response", "trial_index": 94, "time_elapsed": 195422, "internal_node_id": "0.0-5.0"}}, {"uniqueid": "w80083182:a83927831", "current_trial": 95, "dateTime": 1664368341844, "trialdata": {"rt": 862, "stimulus": "<p id='stroop-text' class='stroop-green'>STONE</p>", "response": "g", "stimulus-type": "unrelated", "word": "STONE", "color": "green", "correct_response": "g", "trial_id": "stroop-trial-1-unrelated-9", "trial_type": "html-keyboard-response", "trial_index": 95, "time_elapsed": 196289, "internal_node_id": "0.0-6.0-0.0"}}, {"uniqueid": "w80083182:a83927831", "current_trial": 96, "dateTime": 1664368343333, "trialdata": {"rt": 984, "stimulus": "<p id='stroop-text' class='stroop-red'>GREEN</p>", "response": "r", "stimulus-type": "incongruent", "word": "green", "color": "red", "correct_response": "r", "trial_id": "stroop-trial-1-incongruent-15", "trial_type": "html-keyboard-response", "trial_index": 96, "time_elapsed": 197778, "internal_node_id": "0.0-6.0-1.0"}}, {"uniqueid": "w80083182:a83927831", "current_trial": 97, "dateTime": 1664368344339, "trialdata": {"rt": 500, "stimulus": "<p id='stroop-text' class='stroop-red'>RED</p>", "response": "r", "stimulus-type": "congruent", "word": "red", "color": "red", "correct_response": "r", "trial_id": "stroop-trial-1-congruent-10", "trial_type": "html-keyboard-response", "trial_index": 97, "time_elapsed": 198785, "internal_node_id": "0.0-6.0-2.0"}}, {"uniqueid": "w80083182:a83927831", "current_trial": 98, "dateTime": 1664368345307, "trialdata": {"rt": 463, "stimulus": "<p id='stroop-text' class='stroop-red'>RED</p>", "response": "r", "stimulus-type": "congruent", "word": "red", "color": "red", "correct_response": "r", "trial_id": "stroop-trial-1-congruent-13", "trial_type": "html-keyboard-response", "trial_index": 98, "time_elapsed": 199753, "internal_node_id": "0.0-6.0-3.0"}}, {"uniqueid": "w80083182:a83927831", "current_trial": 99, "dateTime": 1664368346235, "trialdata": {"rt": 421, "stimulus": "<p id='stroop-text' class='stroop-red'>BRAIN</p>", "response": "r", "stimulus-type": "unrelated", "word": "BRAIN", "color": "red", "correct_response": "r", "trial_id": "stroop-trial-1-unrelated-24", "trial_type": "html-keyboard-response", "trial_index": 99, "time_elapsed": 200680, "internal_node_id": "0.0-6.0-4.0"}}, {"uniqueid": "w80083182:a83927831", "current_trial": 100, "dateTime": 1664368347262, "trialdata": {"rt": 523, "stimulus": "<p id='stroop-text' class='stroop-blue'>BLUE</p>", "response": "b", "stimulus-type": "congruent", "word": "blue", "color": "blue", "correct_response": "b", "trial_id": "stroop-trial-1-congruent-2", "trial_type": "html-keyboard-response", "trial_index": 100, "time_elapsed": 201708, "internal_node_id": "0.0-6.0-5.0"}}, {"uniqueid": "w80083182:a83927831", "current_trial": 101, "dateTime": 1664368348320, "trialdata": {"rt": 554, "stimulus": "<p id='stroop-text' class='stroop-red'>GREEN</p>", "response": "r", "stimulus-type": "incongruent", "word": "green", "color": "red", "correct_response": "r", "trial_id": "stroop-trial-1-incongruent-25", "trial_type": "html-keyboard-response", "trial_index": 101, "time_elapsed": 202766, "internal_node_id": "0.0-6.0-6.0"}}, {"uniqueid": "w80083182:a83927831", "current_trial": 102, "dateTime": 1664368349272, "trialdata": {"rt": 447, "stimulus": "<p id='stroop-text' class='stroop-yellow'>BLUE</p>", "response": "y", "stimulus-type": "incongruent", "word": "blue", "color": "yellow", "correct_response": "y", "trial_id": "stroop-trial-1-incongruent-7", "trial_type": "html-keyboard-response", "trial_index": 102, "time_elapsed": 203718, "internal_node_id": "0.0-6.0-7.0"}}, {"uniqueid": "w80083182:a83927831", "current_trial": 103, "dateTime": 1664368350691, "trialdata": {"rt": 915, "stimulus": "<p id='stroop-text' class='stroop-blue'>RED</p>", "response": "b", "stimulus-type": "incongruent", "word": "red", "color": "blue", "correct_response": "b", "trial_id": "stroop-trial-1-incongruent-20", "trial_type": "html-keyboard-response", "trial_index": 103, "time_elapsed": 205137, "internal_node_id": "0.0-6.0-8.0"}}, {"uniqueid": "w80083182:a83927831", "current_trial": 104, "dateTime": 1664368351926, "trialdata": {"rt": 729, "stimulus": "<p id='stroop-text' class='stroop-green'>YELLOW</p>", "response": "g", "stimulus-type": "incongruent", "word": "yellow", "color": "green", "correct_response": "g", "trial_id": "stroop-trial-1-incongruent-6", "trial_type": "html-keyboard-response", "trial_index": 104, "time_elapsed": 206371, "internal_node_id": "0.0-6.0-9.0"}}, {"uniqueid": "w80083182:a83927831", "current_trial": 105, "dateTime": 1664368353199, "trialdata": {"rt": 768, "stimulus": "<p id='stroop-text' class='stroop-blue'>BRIDGE</p>", "response": "b", "stimulus-type": "unrelated", "word": "BRIDGE", "color": "blue", "correct_response": "b", "trial_id": "stroop-trial-1-unrelated-14", "trial_type": "html-keyboard-response", "trial_index": 105, "time_elapsed": 207644, "internal_node_id": "0.0-6.0-10.0"}}, {"uniqueid": "w80083182:a83927831", "current_trial": 106, "dateTime": 1664368354231, "trialdata": {"rt": 525, "stimulus": "<p id='stroop-text' class='stroop-yellow'>WINDOW</p>", "response": "y", "stimulus-type": "unrelated", "word": "WINDOW", "color": "yellow", "correct_response": "y", "trial_id": "stroop-trial-1-unrelated-30", "trial_type": "html-keyboard-response", "trial_index": 106, "time_elapsed": 208677, "internal_node_id": "0.0-6.0-11.0"}}, {"uniqueid": "w80083182:a83927831", "current_trial": 107, "dateTime": 1664368355173, "trialdata": {"rt": 437, "stimulus": "<p id='stroop-text' class='stroop-yellow'>SHIP</p>", "response": "y", "stimulus-type": "unrelated", "word": "SHIP", "color": "yellow", "correct_response": "y", "trial_id": "stroop-trial-1-unrelated-10", "trial_type": "html-keyboard-response", "trial_index": 107, "time_elapsed": 209619, "internal_node_id": "0.0-6.0-12.0"}}, {"uniqueid": "w80083182:a83927831", "current_trial": 108, "dateTime": 1664368356326, "trialdata": {"rt": 646, "stimulus": "<p id='stroop-text' class='stroop-red'>YELLOW</p>", "response": "r", "stimulus-type": "incongruent", "word": "yellow", "color": "red", "correct_response": "r", "trial_id": "stroop-trial-1-incongruent-19", "trial_type": "html-keyboard-response", "trial_index": 108, "time_elapsed": 210772, "internal_node_id": "0.0-6.0-13.0"}}, {"uniqueid": "w80083182:a83927831", "current_trial": 109, "dateTime": 1664368358333, "trialdata": {"rt": 1501, "stimulus": "<p id='stroop-text' class='stroop-green'>BLUE</p>", "response": "g", "stimulus-type": "incongruent", "word": "blue", "color": "green", "correct_response": "g", "trial_id": "stroop-trial-1-incongruent-21", "trial_type": "html-keyboard-response", "trial_index": 109, "time_elapsed": 212779, "internal_node_id": "0.0-6.0-14.0"}}, {"uniqueid": "w80083182:a83927831", "current_trial": 110, "dateTime": 1664368359295, "trialdata": {"rt": 457, "stimulus": "<p id='stroop-text' class='stroop-green'>BRAIN</p>", "response": "g", "stimulus-type": "unrelated", "word": "BRAIN", "color": "green", "correct_response": "g", "trial_id": "stroop-trial-1-unrelated-27", "trial_type": "html-keyboard-response", "trial_index": 110, "time_elapsed": 213741, "internal_node_id": "0.0-6.0-15.0"}}, {"uniqueid": "w80083182:a83927831", "current_trial": 111, "dateTime": 1664368360403, "trialdata": {"rt": 603, "stimulus": "<p id='stroop-text' class='stroop-yellow'>DOG</p>", "response": "y", "stimulus-type": "unrelated", "word": "DOG", "color": "yellow", "correct_response": "y", "trial_id": "stroop-trial-1-unrelated-22", "trial_type": "html-keyboard-response", "trial_index": 111, "time_elapsed": 214849, "internal_node_id": "0.0-6.0-16.0"}}, {"uniqueid": "w80083182:a83927831", "current_trial": 112, "dateTime": 1664368361476, "trialdata": {"rt": 568, "stimulus": "<p id='stroop-text' class='stroop-blue'>BLUE</p>", "response": "b", "stimulus-type": "congruent", "word": "blue", "color": "blue", "correct_response": "b", "trial_id": "stroop-trial-1-congruent-12", "trial_type": "html-keyboard-response", "trial_index": 112, "time_elapsed": 215921, "internal_node_id": "0.0-6.0-17.0"}}, {"uniqueid": "w80083182:a83927831", "current_trial": 113, "dateTime": 1664368362590, "trialdata": {"rt": 607, "stimulus": "<p id='stroop-text' class='stroop-red'>GREEN</p>", "response": "r", "stimulus-type": "incongruent", "word": "green", "color": "red", "correct_response": "r", "trial_id": "stroop-trial-1-incongruent-10", "trial_type": "html-keyboard-response", "trial_index": 113, "time_elapsed": 217035, "internal_node_id": "0.0-6.0-18.0"}}, {"uniqueid": "w80083182:a83927831", "current_trial": 114, "dateTime": 1664368363767, "trialdata": {"rt": 672, "stimulus": "<p id='stroop-text' class='stroop-green'>GREEN</p>", "response": "g", "stimulus-type": "congruent", "word": "green", "color": "green", "correct_response": "g", "trial_id": "stroop-trial-1-congruent-22", "trial_type": "html-keyboard-response", "trial_index": 114, "time_elapsed": 218212, "internal_node_id": "0.0-6.0-19.0"}}, {"uniqueid": "w80083182:a83927831", "current_trial": 115, "dateTime": 1664368365041, "trialdata": {"rt": 768, "stimulus": "<p id='stroop-text' class='stroop-yellow'>CHAIR</p>", "response": "y", "stimulus-type": "unrelated", "word": "CHAIR", "color": "yellow", "correct_response": "y", "trial_id": "stroop-trial-1-unrelated-3", "trial_type": "html-keyboard-response", "trial_index": 115, "time_elapsed": 219486, "internal_node_id": "0.0-6.0-20.0"}}, {"uniqueid": "w80083182:a83927831", "current_trial": 116, "dateTime": 1664368366404, "trialdata": {"rt": 858, "stimulus": "<p id='stroop-text' class='stroop-red'>YELLOW</p>", "response": "r", "stimulus-type": "incongruent", "word": "yellow", "color": "red", "correct_response": "r", "trial_id": "stroop-trial-1-incongruent-8", "trial_type": "html-keyboard-response", "trial_index": 116, "time_elapsed": 220849, "internal_node_id": "0.0-6.0-21.0"}}, {"uniqueid": "w80083182:a83927831", "current_trial": 117, "dateTime": 1664368367437, "trialdata": {"rt": 528, "stimulus": "<p id='stroop-text' class='stroop-green'>STONE</p>", "response": "g", "stimulus-type": "unrelated", "word": "STONE", "color": "green", "correct_response": "g", "trial_id": "stroop-trial-1-unrelated-5", "trial_type": "html-keyboard-response", "trial_index": 117, "time_elapsed": 221882, "internal_node_id": "0.0-6.0-22.0"}}, {"uniqueid": "w80083182:a83927831", "current_trial": 118, "dateTime": 1664368368454, "trialdata": {"rt": 512, "stimulus": "<p id='stroop-text' class='stroop-green'>CHAIR</p>", "response": "g", "stimulus-type": "unrelated", "word": "CHAIR", "color": "green", "correct_response": "g", "trial_id": "stroop-trial-1-unrelated-15", "trial_type": "html-keyboard-response", "trial_index": 118, "time_elapsed": 222900, "internal_node_id": "0.0-6.0-23.0"}}, {"uniqueid": "w80083182:a83927831", "current_trial": 119, "dateTime": 1664368369332, "trialdata": {"rt": 374, "stimulus": "<p id='stroop-text' class='stroop-green'>BOAT</p>", "response": "g", "stimulus-type": "unrelated", "word": "BOAT", "color": "green", "correct_response": "g", "trial_id": "stroop-trial-1-unrelated-7", "trial_type": "html-keyboard-response", "trial_index": 119, "time_elapsed": 223777, "internal_node_id": "0.0-6.0-24.0"}}, {"uniqueid": "w80083182:a83927831", "current_trial": 120, "dateTime": 1664368370410, "trialdata": {"rt": 572, "stimulus": "<p id='stroop-text' class='stroop-red'>YELLOW</p>", "response": "r", "stimulus-type": "incongruent", "word": "yellow", "color": "red", "correct_response": "r", "trial_id": "stroop-trial-1-incongruent-14", "trial_type": "html-keyboard-response", "trial_index": 120, "time_elapsed": 224856, "internal_node_id": "0.0-6.0-25.0"}}, {"uniqueid": "w80083182:a83927831", "current_trial": 121, "dateTime": 1664368371418, "trialdata": {"rt": 503, "stimulus": "<p id='stroop-text' class='stroop-yellow'>YELLOW</p>", "response": "y", "stimulus-type": "congruent", "word": "yellow", "color": "yellow", "correct_response": "y", "trial_id": "stroop-trial-1-congruent-27", "trial_type": "html-keyboard-response", "trial_index": 121, "time_elapsed": 225863, "internal_node_id": "0.0-6.0-26.0"}}, {"uniqueid": "w80083182:a83927831", "current_trial": 122, "dateTime": 1664368372646, "trialdata": {"rt": 722, "stimulus": "<p id='stroop-text' class='stroop-blue'>GREEN</p>", "response": "b", "stimulus-type": "incongruent", "word": "green", "color": "blue", "correct_response": "b", "trial_id": "stroop-trial-1-incongruent-9", "trial_type": "html-keyboard-response", "trial_index": 122, "time_elapsed": 227092, "internal_node_id": "0.0-6.0-27.0"}}, {"uniqueid": "w80083182:a83927831", "current_trial": 123, "dateTime": 1664368373839, "trialdata": {"rt": 688, "stimulus": "<p id='stroop-text' class='stroop-yellow'>RED</p>", "response": "y", "stimulus-type": "incongruent", "word": "red", "color": "yellow", "correct_response": "y", "trial_id": "stroop-trial-1-incongruent-13", "trial_type": "html-keyboard-response", "trial_index": 123, "time_elapsed": 228284, "internal_node_id": "0.0-6.0-28.0"}}, {"uniqueid": "w80083182:a83927831", "current_trial": 124, "dateTime": 1664368375188, "trialdata": {"rt": 845, "stimulus": "<p id='stroop-text' class='stroop-blue'>YELLOW</p>", "response": "b", "stimulus-type": "incongruent", "word": "yellow", "color": "blue", "correct_response": "b", "trial_id": "stroop-trial-1-incongruent-11", "trial_type": "html-keyboard-response", "trial_index": 124, "time_elapsed": 229634, "internal_node_id": "0.0-6.0-29.0"}}, {"uniqueid": "w80083182:a83927831", "current_trial": 125, "dateTime": 1664368376251, "trialdata": {"rt": 557, "stimulus": "<p id='stroop-text' class='stroop-yellow'>YELLOW</p>", "response": "y", "stimulus-type": "congruent", "word": "yellow", "color": "yellow", "correct_response": "y", "trial_id": "stroop-trial-1-congruent-24", "trial_type": "html-keyboard-response", "trial_index": 125, "time_elapsed": 230696, "internal_node_id": "0.0-6.0-30.0"}}, {"uniqueid": "w80083182:a83927831", "current_trial": 126, "dateTime": 1664368377419, "trialdata": {"rt": 662, "stimulus": "<p id='stroop-text' class='stroop-green'>YELLOW</p>", "response": "g", "stimulus-type": "incongruent", "word": "yellow", "color": "green", "correct_response": "g", "trial_id": "stroop-trial-1-incongruent-24", "trial_type": "html-keyboard-response", "trial_index": 126, "time_elapsed": 231864, "internal_node_id": "0.0-6.0-31.0"}}, {"uniqueid": "w80083182:a83927831", "current_trial": 127, "dateTime": 1664368378898, "trialdata": {"rt": 974, "stimulus": "<p id='stroop-text' class='stroop-blue'>RED</p>", "response": "b", "stimulus-type": "incongruent", "word": "red", "color": "blue", "correct_response": "b", "trial_id": "stroop-trial-1-incongruent-27", "trial_type": "html-keyboard-response", "trial_index": 127, "time_elapsed": 233343, "internal_node_id": "0.0-6.0-32.0"}}, {"uniqueid": "w80083182:a83927831", "current_trial": 128, "dateTime": 1664368379981, "trialdata": {"rt": 578, "stimulus": "<p id='stroop-text' class='stroop-green'>CHAIR</p>", "response": "g", "stimulus-type": "unrelated", "word": "CHAIR", "color": "green", "correct_response": "g", "trial_id": "stroop-trial-1-unrelated-20", "trial_type": "html-keyboard-response", "trial_index": 128, "time_elapsed": 234426, "internal_node_id": "0.0-6.0-33.0"}}, {"uniqueid": "w80083182:a83927831", "current_trial": 129, "dateTime": 1664368381029, "trialdata": {"rt": 541, "stimulus": "<p id='stroop-text' class='stroop-yellow'>DOG</p>", "response": "y", "stimulus-type": "unrelated", "word": "DOG", "color": "yellow", "correct_response": "y", "trial_id": "stroop-trial-1-unrelated-17", "trial_type": "html-keyboard-response", "trial_index": 129, "time_elapsed": 235474, "internal_node_id": "0.0-6.0-34.0"}}, {"uniqueid": "w80083182:a83927831", "current_trial": 130, "dateTime": 1664368382162, "trialdata": {"rt": 628, "stimulus": "<p id='stroop-text' class='stroop-blue'>BLUE</p>", "response": "b", "stimulus-type": "congruent", "word": "blue", "color": "blue", "correct_response": "b", "trial_id": "stroop-trial-1-congruent-6", "trial_type": "html-keyboard-response", "trial_index": 130, "time_elapsed": 236607, "internal_node_id": "0.0-6.0-35.0"}}, {"uniqueid": "w80083182:a83927831", "current_trial": 131, "dateTime": 1664368383184, "trialdata": {"rt": 515, "stimulus": "<p id='stroop-text' class='stroop-blue'>BRIDGE</p>", "response": "b", "stimulus-type": "unrelated", "word": "BRIDGE", "color": "blue", "correct_response": "b", "trial_id": "stroop-trial-1-unrelated-29", "trial_type": "html-keyboard-response", "trial_index": 131, "time_elapsed": 237630, "internal_node_id": "0.0-6.0-36.0"}}, {"uniqueid": "w80083182:a83927831", "current_trial": 132, "dateTime": 1664368384092, "trialdata": {"rt": 403, "stimulus": "<p id='stroop-text' class='stroop-blue'>BLUE</p>", "response": "b", "stimulus-type": "congruent", "word": "blue", "color": "blue", "correct_response": "b", "trial_id": "stroop-trial-1-congruent-28", "trial_type": "html-keyboard-response", "trial_index": 132, "time_elapsed": 238537, "internal_node_id": "0.0-6.0-37.0"}}, {"uniqueid": "w80083182:a83927831", "current_trial": 133, "dateTime": 1664368385260, "trialdata": {"rt": 662, "stimulus": "<p id='stroop-text' class='stroop-red'>RED</p>", "response": "r", "stimulus-type": "congruent", "word": "red", "color": "red", "correct_response": "r", "trial_id": "stroop-trial-1-congruent-29", "trial_type": "html-keyboard-response", "trial_index": 133, "time_elapsed": 239705, "internal_node_id": "0.0-6.0-38.0"}}, {"uniqueid": "w80083182:a83927831", "current_trial": 134, "dateTime": 1664368386348, "trialdata": {"rt": 583, "stimulus": "<p id='stroop-text' class='stroop-green'>GREEN</p>", "response": "g", "stimulus-type": "congruent", "word": "green", "color": "green", "correct_response": "g", "trial_id": "stroop-trial-1-congruent-8", "trial_type": "html-keyboard-response", "trial_index": 134, "time_elapsed": 240793, "internal_node_id": "0.0-6.0-39.0"}}, {"uniqueid": "w80083182:a83927831", "current_trial": 135, "dateTime": 1664368387521, "trialdata": {"rt": 666, "stimulus": "<p id='stroop-text' class='stroop-red'>YELLOW</p>", "response": "r", "stimulus-type": "incongruent", "word": "yellow", "color": "red", "correct_response": "r", "trial_id": "stroop-trial-1-incongruent-5", "trial_type": "html-keyboard-response", "trial_index": 135, "time_elapsed": 241966, "internal_node_id": "0.0-6.0-40.0"}}, {"uniqueid": "w80083182:a83927831", "current_trial": 136, "dateTime": 1664368388504, "trialdata": {"rt": 477, "stimulus": "<p id='stroop-text' class='stroop-red'>STONE</p>", "response": "r", "stimulus-type": "unrelated", "word": "STONE", "color": "red", "correct_response": "r", "trial_id": "stroop-trial-1-unrelated-23", "trial_type": "html-keyboard-response", "trial_index": 136, "time_elapsed": 242949, "internal_node_id": "0.0-6.0-41.0"}}, {"uniqueid": "w80083182:a83927831", "current_trial": 137, "dateTime": 1664368389817, "trialdata": {"rt": 805, "stimulus": "<p id='stroop-text' class='stroop-blue'>BRAIN</p>", "response": "b", "stimulus-type": "unrelated", "word": "BRAIN", "color": "blue", "correct_response": "b", "trial_id": "stroop-trial-1-unrelated-12", "trial_type": "html-keyboard-response", "trial_index": 137, "time_elapsed": 244262, "internal_node_id": "0.0-6.0-42.0"}}, {"uniqueid": "w80083182:a83927831", "current_trial": 138, "dateTime": 1664368390940, "trialdata": {"rt": 617, "stimulus": "<p id='stroop-text' class='stroop-green'>GREEN</p>", "response": "g", "stimulus-type": "congruent", "word": "green", "color": "green", "correct_response": "g", "trial_id": "stroop-trial-1-congruent-30", "trial_type": "html-keyboard-response", "trial_index": 138, "time_elapsed": 245385, "internal_node_id": "0.0-6.0-43.0"}}, {"uniqueid": "w80083182:a83927831", "current_trial": 139, "dateTime": 1664368392324, "trialdata": {"rt": 877, "stimulus": "<p id='stroop-text' class='stroop-blue'>RED</p>", "response": "b", "stimulus-type": "incongruent", "word": "red", "color": "blue", "correct_response": "b", "trial_id": "stroop-trial-1-incongruent-4", "trial_type": "html-keyboard-response", "trial_index": 139, "time_elapsed": 246769, "internal_node_id": "0.0-6.0-44.0"}}, {"uniqueid": "w80083182:a83927831", "current_trial": 140, "dateTime": 1664368393226, "trialdata": {"rt": 397, "stimulus": "<p id='stroop-text' class='stroop-blue'>RED</p>", "response": "b", "stimulus-type": "incongruent", "word": "red", "color": "blue", "correct_response": "b", "trial_id": "stroop-trial-1-incongruent-22", "trial_type": "html-keyboard-response", "trial_index": 140, "time_elapsed": 247672, "internal_node_id": "0.0-6.0-45.0"}}, {"uniqueid": "w80083182:a83927831", "current_trial": 141, "dateTime": 1664368394409, "trialdata": {"rt": 675, "stimulus": "<p id='stroop-text' class='stroop-blue'>YELLOW</p>", "response": "b", "stimulus-type": "incongruent", "word": "yellow", "color": "blue", "correct_response": "b", "trial_id": "stroop-trial-1-incongruent-28", "trial_type": "html-keyboard-response", "trial_index": 141, "time_elapsed": 248854, "internal_node_id": "0.0-6.0-46.0"}}, {"uniqueid": "w80083182:a83927831", "current_trial": 142, "dateTime": 1664368395502, "trialdata": {"rt": 587, "stimulus": "<p id='stroop-text' class='stroop-blue'>BRIDGE</p>", "response": "b", "stimulus-type": "unrelated", "word": "BRIDGE", "color": "blue", "correct_response": "b", "trial_id": "stroop-trial-1-unrelated-16", "trial_type": "html-keyboard-response", "trial_index": 142, "time_elapsed": 249947, "internal_node_id": "0.0-6.0-47.0"}}, {"uniqueid": "w80083182:a83927831", "current_trial": 143, "dateTime": 1664368396600, "trialdata": {"rt": 591, "stimulus": "<p id='stroop-text' class='stroop-green'>GREEN</p>", "response": "g", "stimulus-type": "congruent", "word": "green", "color": "green", "correct_response": "g", "trial_id": "stroop-trial-1-congruent-3", "trial_type": "html-keyboard-response", "trial_index": 143, "time_elapsed": 251045, "internal_node_id": "0.0-6.0-48.0"}}, {"uniqueid": "w80083182:a83927831", "current_trial": 144, "dateTime": 1664368397553, "trialdata": {"rt": 448, "stimulus": "<p id='stroop-text' class='stroop-green'>GREEN</p>", "response": "g", "stimulus-type": "congruent", "word": "green", "color": "green", "correct_response": "g", "trial_id": "stroop-trial-1-congruent-4", "trial_type": "html-keyboard-response", "trial_index": 144, "time_elapsed": 251998, "internal_node_id": "0.0-6.0-49.0"}}, {"uniqueid": "w80083182:a83927831", "current_trial": 145, "dateTime": 1664368398656, "trialdata": {"rt": 596, "stimulus": "<p id='stroop-text' class='stroop-red'>BLUE</p>", "response": "r", "stimulus-type": "incongruent", "word": "blue", "color": "red", "correct_response": "r", "trial_id": "stroop-trial-1-incongruent-2", "trial_type": "html-keyboard-response", "trial_index": 145, "time_elapsed": 253101, "internal_node_id": "0.0-6.0-50.0"}}, {"uniqueid": "w80083182:a83927831", "current_trial": 146, "dateTime": 1664368399849, "trialdata": {"rt": 687, "stimulus": "<p id='stroop-text' class='stroop-blue'>MONKEY</p>", "response": "b", "stimulus-type": "unrelated", "word": "MONKEY", "color": "blue", "correct_response": "b", "trial_id": "stroop-trial-1-unrelated-8", "trial_type": "html-keyboard-response", "trial_index": 146, "time_elapsed": 254294, "internal_node_id": "0.0-6.0-51.0"}}, {"uniqueid": "w80083182:a83927831", "current_trial": 147, "dateTime": 1664368401313, "trialdata": {"rt": 958, "stimulus": "<p id='stroop-text' class='stroop-green'>BLUE</p>", "response": "g", "stimulus-type": "incongruent", "word": "blue", "color": "green", "correct_response": "g", "trial_id": "stroop-trial-1-incongruent-17", "trial_type": "html-keyboard-response", "trial_index": 147, "time_elapsed": 255758, "internal_node_id": "0.0-6.0-52.0"}}, {"uniqueid": "w80083182:a83927831", "current_trial": 148, "dateTime": 1664368402697, "trialdata": {"rt": 878, "stimulus": "<p id='stroop-text' class='stroop-blue'>RED</p>", "response": "b", "stimulus-type": "incongruent", "word": "red", "color": "blue", "correct_response": "b", "trial_id": "stroop-trial-1-incongruent-16", "trial_type": "html-keyboard-response", "trial_index": 148, "time_elapsed": 257142, "internal_node_id": "0.0-6.0-53.0"}}, {"uniqueid": "w80083182:a83927831", "current_trial": 149, "dateTime": 1664368404055, "trialdata": {"rt": 851, "stimulus": "<p id='stroop-text' class='stroop-green'>GREEN</p>", "response": "g", "stimulus-type": "congruent", "word": "green", "color": "green", "correct_response": "g", "trial_id": "stroop-trial-1-congruent-19", "trial_type": "html-keyboard-response", "trial_index": 149, "time_elapsed": 258501, "internal_node_id": "0.0-6.0-54.0"}}, {"uniqueid": "w80083182:a83927831", "current_trial": 150, "dateTime": 1664368404993, "trialdata": {"rt": 432, "stimulus": "<p id='stroop-text' class='stroop-green'>RED</p>", "response": "g", "stimulus-type": "incongruent", "word": "red", "color": "green", "correct_response": "g", "trial_id": "stroop-trial-1-incongruent-29", "trial_type": "html-keyboard-response", "trial_index": 150, "time_elapsed": 259438, "internal_node_id": "0.0-6.0-55.0"}}, {"uniqueid": "w80083182:a83927831", "current_trial": 151, "dateTime": 1664368406046, "trialdata": {"rt": 547, "stimulus": "<p id='stroop-text' class='stroop-yellow'>YELLOW</p>", "response": "y", "stimulus-type": "congruent", "word": "yellow", "color": "yellow", "correct_response": "y", "trial_id": "stroop-trial-1-congruent-16", "trial_type": "html-keyboard-response", "trial_index": 151, "time_elapsed": 260491, "internal_node_id": "0.0-6.0-56.0"}}, {"uniqueid": "w80083182:a83927831", "current_trial": 152, "dateTime": 1664368407118, "trialdata": {"rt": 565, "stimulus": "<p id='stroop-text' class='stroop-blue'>RED</p>", "response": "b", "stimulus-type": "incongruent", "word": "red", "color": "blue", "correct_response": "b", "trial_id": "stroop-trial-1-incongruent-26", "trial_type": "html-keyboard-response", "trial_index": 152, "time_elapsed": 261563, "internal_node_id": "0.0-6.0-57.0"}}, {"uniqueid": "w80083182:a83927831", "current_trial": 153, "dateTime": 1664368408151, "trialdata": {"rt": 527, "stimulus": "<p id='stroop-text' class='stroop-blue'>GREEN</p>", "response": "b", "stimulus-type": "incongruent", "word": "green", "color": "blue", "correct_response": "b", "trial_id": "stroop-trial-1-incongruent-1", "trial_type": "html-keyboard-response", "trial_index": 153, "time_elapsed": 262596, "internal_node_id": "0.0-6.0-58.0"}}, {"uniqueid": "w80083182:a83927831", "current_trial": 154, "dateTime": 1664368409184, "trialdata": {"rt": 525, "stimulus": "<p id='stroop-text' class='stroop-yellow'>FORK</p>", "response": "y", "stimulus-type": "unrelated", "word": "FORK", "color": "yellow", "correct_response": "y", "trial_id": "stroop-trial-1-unrelated-21", "trial_type": "html-keyboard-response", "trial_index": 154, "time_elapsed": 263629, "internal_node_id": "0.0-6.0-59.0"}}, {"uniqueid": "w80083182:a83927831", "current_trial": 155, "dateTime": 1664368410332, "trialdata": {"rt": 640, "stimulus": "<p id='stroop-text' class='stroop-blue'>BLUE</p>", "response": "b", "stimulus-type": "congruent", "word": "blue", "color": "blue", "correct_response": "b", "trial_id": "stroop-trial-1-congruent-26", "trial_type": "html-keyboard-response", "trial_index": 155, "time_elapsed": 264777, "internal_node_id": "0.0-6.0-60.0"}}, {"uniqueid": "w80083182:a83927831", "current_trial": 156, "dateTime": 1664368411305, "trialdata": {"rt": 466, "stimulus": "<p id='stroop-text' class='stroop-red'>DOG</p>", "response": "r", "stimulus-type": "unrelated", "word": "DOG", "color": "red", "correct_response": "r", "trial_id": "stroop-trial-1-unrelated-19", "trial_type": "html-keyboard-response", "trial_index": 156, "time_elapsed": 265750, "internal_node_id": "0.0-6.0-61.0"}}, {"uniqueid": "w80083182:a83927831", "current_trial": 157, "dateTime": 1664368412267, "trialdata": {"rt": 455, "stimulus": "<p id='stroop-text' class='stroop-green'>GREEN</p>", "response": "g", "stimulus-type": "congruent", "word": "green", "color": "green", "correct_response": "g", "trial_id": "stroop-trial-1-congruent-9", "trial_type": "html-keyboard-response", "trial_index": 157, "time_elapsed": 266712, "internal_node_id": "0.0-6.0-62.0"}}, {"uniqueid": "w80083182:a83927831", "current_trial": 158, "dateTime": 1664368413415, "trialdata": {"rt": 642, "stimulus": "<p id='stroop-text' class='stroop-red'>BOAT</p>", "response": "r", "stimulus-type": "unrelated", "word": "BOAT", "color": "red", "correct_response": "r", "trial_id": "stroop-trial-1-unrelated-11", "trial_type": "html-keyboard-response", "trial_index": 158, "time_elapsed": 267860, "internal_node_id": "0.0-6.0-63.0"}}, {"uniqueid": "w80083182:a83927831", "current_trial": 159, "dateTime": 1664368414393, "trialdata": {"rt": 472, "stimulus": "<p id='stroop-text' class='stroop-red'>WINDOW</p>", "response": "r", "stimulus-type": "unrelated", "word": "WINDOW", "color": "red", "correct_response": "r", "trial_id": "stroop-trial-1-unrelated-18", "trial_type": "html-keyboard-response", "trial_index": 159, "time_elapsed": 268838, "internal_node_id": "0.0-6.0-64.0"}}, {"uniqueid": "w80083182:a83927831", "current_trial": 160, "dateTime": 1664368416026, "trialdata": {"rt": 1126, "stimulus": "<p id='stroop-text' class='stroop-blue'>BLUE</p>", "response": "b", "stimulus-type": "congruent", "word": "blue", "color": "blue", "correct_response": "b", "trial_id": "stroop-trial-1-congruent-18", "trial_type": "html-keyboard-response", "trial_index": 160, "time_elapsed": 270472, "internal_node_id": "0.0-6.0-65.0"}}, {"uniqueid": "w80083182:a83927831", "current_trial": 161, "dateTime": 1664368417060, "trialdata": {"rt": 530, "stimulus": "<p id='stroop-text' class='stroop-yellow'>BLUE</p>", "response": "y", "stimulus-type": "incongruent", "word": "blue", "color": "yellow", "correct_response": "y", "trial_id": "stroop-trial-1-incongruent-12", "trial_type": "html-keyboard-response", "trial_index": 161, "time_elapsed": 271505, "internal_node_id": "0.0-6.0-66.0"}}, {"uniqueid": "w80083182:a83927831", "current_trial": 162, "dateTime": 1664368418143, "trialdata": {"rt": 577, "stimulus": "<p id='stroop-text' class='stroop-yellow'>SHIP</p>", "response": "y", "stimulus-type": "unrelated", "word": "SHIP", "color": "yellow", "correct_response": "y", "trial_id": "stroop-trial-1-unrelated-4", "trial_type": "html-keyboard-response", "trial_index": 162, "time_elapsed": 272588, "internal_node_id": "0.0-6.0-67.0"}}, {"uniqueid": "w80083182:a83927831", "current_trial": 163, "dateTime": 1664368419115, "trialdata": {"rt": 467, "stimulus": "<p id='stroop-text' class='stroop-yellow'>YELLOW</p>", "response": "y", "stimulus-type": "congruent", "word": "yellow", "color": "yellow", "correct_response": "y", "trial_id": "stroop-trial-1-congruent-7", "trial_type": "html-keyboard-response", "trial_index": 163, "time_elapsed": 273560, "internal_node_id": "0.0-6.0-68.0"}}, {"uniqueid": "w80083182:a83927831", "current_trial": 164, "dateTime": 1664368420162, "trialdata": {"rt": 543, "stimulus": "<p id='stroop-text' class='stroop-green'>BRAIN</p>", "response": "g", "stimulus-type": "unrelated", "word": "BRAIN", "color": "green", "correct_response": "g", "trial_id": "stroop-trial-1-unrelated-28", "trial_type": "html-keyboard-response", "trial_index": 164, "time_elapsed": 274608, "internal_node_id": "0.0-6.0-69.0"}}, {"uniqueid": "w80083182:a83927831", "current_trial": 165, "dateTime": 1664368421140, "trialdata": {"rt": 470, "stimulus": "<p id='stroop-text' class='stroop-green'>GREEN</p>", "response": "g", "stimulus-type": "congruent", "word": "green", "color": "green", "correct_response": "g", "trial_id": "stroop-trial-1-congruent-14", "trial_type": "html-keyboard-response", "trial_index": 165, "time_elapsed": 275586, "internal_node_id": "0.0-6.0-70.0"}}, {"uniqueid": "w80083182:a83927831", "current_trial": 166, "dateTime": 1664368422042, "trialdata": {"rt": 396, "stimulus": "<p id='stroop-text' class='stroop-green'>GREEN</p>", "response": "g", "stimulus-type": "congruent", "word": "green", "color": "green", "correct_response": "g", "trial_id": "stroop-trial-1-congruent-5", "trial_type": "html-keyboard-response", "trial_index": 166, "time_elapsed": 276488, "internal_node_id": "0.0-6.0-71.0"}}, {"uniqueid": "w80083182:a83927831", "current_trial": 167, "dateTime": 1664368423080, "trialdata": {"rt": 532, "stimulus": "<p id='stroop-text' class='stroop-blue'>BLUE</p>", "response": "b", "stimulus-type": "congruent", "word": "blue", "color": "blue", "correct_response": "b", "trial_id": "stroop-trial-1-congruent-11", "trial_type": "html-keyboard-response", "trial_index": 167, "time_elapsed": 277526, "internal_node_id": "0.0-6.0-72.0"}}, {"uniqueid": "w80083182:a83927831", "current_trial": 168, "dateTime": 1664368424154, "trialdata": {"rt": 567, "stimulus": "<p id='stroop-text' class='stroop-green'>BLUE</p>", "response": "b", "stimulus-type": "incongruent", "word": "blue", "color": "green", "correct_response": "g", "trial_id": "stroop-trial-1-incongruent-23", "trial_type": "html-keyboard-response", "trial_index": 168, "time_elapsed": 278599, "internal_node_id": "0.0-6.0-73.0"}}, {"uniqueid": "w80083182:a83927831", "current_trial": 169, "dateTime": 1664368425251, "trialdata": {"rt": 592, "stimulus": "<p id='stroop-text' class='stroop-green'>GREEN</p>", "response": "g", "stimulus-type": "congruent", "word": "green", "color": "green", "correct_response": "g", "trial_id": "stroop-trial-1-congruent-23", "trial_type": "html-keyboard-response", "trial_index": 169, "time_elapsed": 279697, "internal_node_id": "0.0-6.0-74.0"}}, {"uniqueid": "w80083182:a83927831", "current_trial": 170, "dateTime": 1664368426299, "trialdata": {"rt": 541, "stimulus": "<p id='stroop-text' class='stroop-yellow'>YELLOW</p>", "response": "y", "stimulus-type": "congruent", "word": "yellow", "color": "yellow", "correct_response": "y", "trial_id": "stroop-trial-1-congruent-25", "trial_type": "html-keyboard-response", "trial_index": 170, "time_elapsed": 280745, "internal_node_id": "0.0-6.0-75.0"}}, {"uniqueid": "w80083182:a83927831", "current_trial": 171, "dateTime": 1664368427492, "trialdata": {"rt": 687, "stimulus": "<p id='stroop-text' class='stroop-yellow'>MONKEY</p>", "response": "y", "stimulus-type": "unrelated", "word": "MONKEY", "color": "yellow", "correct_response": "y", "trial_id": "stroop-trial-1-unrelated-13", "trial_type": "html-keyboard-response", "trial_index": 171, "time_elapsed": 281938, "internal_node_id": "0.0-6.0-76.0"}}, {"uniqueid": "w80083182:a83927831", "current_trial": 172, "dateTime": 1664368428495, "trialdata": {"rt": 496, "stimulus": "<p id='stroop-text' class='stroop-red'>RED</p>", "response": "r", "stimulus-type": "congruent", "word": "red", "color": "red", "correct_response": "r", "trial_id": "stroop-trial-1-congruent-20", "trial_type": "html-keyboard-response", "trial_index": 172, "time_elapsed": 282941, "internal_node_id": "0.0-6.0-77.0"}}, {"uniqueid": "w80083182:a83927831", "current_trial": 173, "dateTime": 1664368429653, "trialdata": {"rt": 651, "stimulus": "<p id='stroop-text' class='stroop-yellow'>YELLOW</p>", "response": "y", "stimulus-type": "congruent", "word": "yellow", "color": "yellow", "correct_response": "y", "trial_id": "stroop-trial-1-congruent-21", "trial_type": "html-keyboard-response", "trial_index": 173, "time_elapsed": 284099, "internal_node_id": "0.0-6.0-78.0"}}, {"uniqueid": "w80083182:a83927831", "current_trial": 174, "dateTime": 1664368430891, "trialdata": {"rt": 731, "stimulus": "<p id='stroop-text' class='stroop-blue'>STONE</p>", "response": "b", "stimulus-type": "unrelated", "word": "STONE", "color": "blue", "correct_response": "b", "trial_id": "stroop-trial-1-unrelated-6", "trial_type": "html-keyboard-response", "trial_index": 174, "time_elapsed": 285337, "internal_node_id": "0.0-6.0-79.0"}}, {"uniqueid": "w80083182:a83927831", "current_trial": 175, "dateTime": 1664368431939, "trialdata": {"rt": 540, "stimulus": "<p id='stroop-text' class='stroop-blue'>RED</p>", "response": "b", "stimulus-type": "incongruent", "word": "red", "color": "blue", "correct_response": "b", "trial_id": "stroop-trial-1-incongruent-18", "trial_type": "html-keyboard-response", "trial_index": 175, "time_elapsed": 286385, "internal_node_id": "0.0-6.0-80.0"}}, {"uniqueid": "w80083182:a83927831", "current_trial": 176, "dateTime": 1664368432988, "trialdata": {"rt": 542, "stimulus": "<p id='stroop-text' class='stroop-yellow'>YELLOW</p>", "response": "y", "stimulus-type": "congruent", "word": "yellow", "color": "yellow", "correct_response": "y", "trial_id": "stroop-trial-1-congruent-15", "trial_type": "html-keyboard-response", "trial_index": 176, "time_elapsed": 287433, "internal_node_id": "0.0-6.0-81.0"}}, {"uniqueid": "w80083182:a83927831", "current_trial": 177, "dateTime": 1664368434175, "trialdata": {"rt": 681, "stimulus": "<p id='stroop-text' class='stroop-red'>GREEN</p>", "response": "r", "stimulus-type": "incongruent", "word": "green", "color": "red", "correct_response": "r", "trial_id": "stroop-trial-1-incongruent-30", "trial_type": "html-keyboard-response", "trial_index": 177, "time_elapsed": 288621, "internal_node_id": "0.0-6.0-82.0"}}, {"uniqueid": "w80083182:a83927831", "current_trial": 178, "dateTime": 1664368435409, "trialdata": {"rt": 726, "stimulus": "<p id='stroop-text' class='stroop-yellow'>GREEN</p>", "response": "y", "stimulus-type": "incongruent", "word": "green", "color": "yellow", "correct_response": "y", "trial_id": "stroop-trial-1-incongruent-3", "trial_type": "html-keyboard-response", "trial_index": 178, "time_elapsed": 289854, "internal_node_id": "0.0-6.0-83.0"}}, {"uniqueid": "w80083182:a83927831", "current_trial": 179, "dateTime": 1664368436647, "trialdata": {"rt": 732, "stimulus": "<p id='stroop-text' class='stroop-red'>RED</p>", "response": "r", "stimulus-type": "congruent", "word": "red", "color": "red", "correct_response": "r", "trial_id": "stroop-trial-1-congruent-17", "trial_type": "html-keyboard-response", "trial_index": 179, "time_elapsed": 291093, "internal_node_id": "0.0-6.0-84.0"}}, {"uniqueid": "w80083182:a83927831", "current_trial": 180, "dateTime": 1664368437860, "trialdata": {"rt": 705, "stimulus": "<p id='stroop-text' class='stroop-yellow'>BRAIN</p>", "response": "y", "stimulus-type": "unrelated", "word": "BRAIN", "color": "yellow", "correct_response": "y", "trial_id": "stroop-trial-1-unrelated-25", "trial_type": "html-keyboard-response", "trial_index": 180, "time_elapsed": 292306, "internal_node_id": "0.0-6.0-85.0"}}, {"uniqueid": "w80083182:a83927831", "current_trial": 181, "dateTime": 1664368438993, "trialdata": {"rt": 627, "stimulus": "<p id='stroop-text' class='stroop-green'>GREEN</p>", "response": "g", "stimulus-type": "congruent", "word": "green", "color": "green", "correct_response": "g", "trial_id": "stroop-trial-1-congruent-1", "trial_type": "html-keyboard-response", "trial_index": 181, "time_elapsed": 293439, "internal_node_id": "0.0-6.0-86.0"}}, {"uniqueid": "w80083182:a83927831", "current_trial": 182, "dateTime": 1664368439880, "trialdata": {"rt": 380, "stimulus": "<p id='stroop-text' class='stroop-blue'>DOG</p>", "response": "b", "stimulus-type": "unrelated", "word": "DOG", "color": "blue", "correct_response": "b", "trial_id": "stroop-trial-1-unrelated-26", "trial_type": "html-keyboard-response", "trial_index": 182, "time_elapsed": 294326, "internal_node_id": "0.0-6.0-87.0"}}, {"uniqueid": "w80083182:a83927831", "current_trial": 183, "dateTime": 1664368440948, "trialdata": {"rt": 561, "stimulus": "<p id='stroop-text' class='stroop-blue'>BRAIN</p>", "response": "b", "stimulus-type": "unrelated", "word": "BRAIN", "color": "blue", "correct_response": "b", "trial_id": "stroop-trial-1-unrelated-2", "trial_type": "html-keyboard-response", "trial_index": 183, "time_elapsed": 295394, "internal_node_id": "0.0-6.0-88.0"}}, {"uniqueid": "w80083182:a83927831", "current_trial": 184, "dateTime": 1664368441986, "trialdata": {"rt": 532, "stimulus": "<p id='stroop-text' class='stroop-green'>BOTTLE</p>", "response": "g", "stimulus-type": "unrelated", "word": "BOTTLE", "color": "green", "correct_response": "g", "trial_id": "stroop-trial-1-unrelated-1", "trial_type": "html-keyboard-response", "trial_index": 184, "time_elapsed": 296432, "internal_node_id": "0.0-6.0-89.0"}}, {"uniqueid": "w80083182:a83927831", "current_trial": 185, "dateTime": 1664368447325, "trialdata": {"rt": 4830, "stimulus": "  <h1> End of block! </h1>\n\n  You have reached the end of the block 2/5. If you need a short break, feel free to take one now before moving on.\n\n  <br><br>\n  In the next block, you will complete another 90 rounds of this game.\n\n  <br><br>\n  <div style='text-align: center;'>Press <code>space</code> to begin.</div>\n  <br><br>\n<div style='text-align: center;'>(If the experiment doesn't continue, try clicking on the text and then pressing <code>space</code>.)</div>", "response": " ", "trial_id": "stroop_1_ready_3", "trial_type": "html-keyboard-response", "trial_index": 185, "time_elapsed": 301771, "internal_node_id": "0.0-7.0"}}, {"uniqueid": "w80083182:a83927831", "current_trial": 186, "dateTime": 1664368448087, "trialdata": {"rt": 754, "stimulus": "<p id='stroop-text' class='stroop-blue'>BLUE</p>", "response": "b", "stimulus-type": "congruent", "word": "blue", "color": "blue", "correct_response": "b", "trial_id": "stroop-trial-1-congruent-2", "trial_type": "html-keyboard-response", "trial_index": 186, "time_elapsed": 302533, "internal_node_id": "0.0-8.0-0.0"}}, {"uniqueid": "w80083182:a83927831", "current_trial": 187, "dateTime": 1664368449376, "trialdata": {"rt": 782, "stimulus": "<p id='stroop-text' class='stroop-green'>STONE</p>", "response": "g", "stimulus-type": "unrelated", "word": "STONE", "color": "green", "correct_response": "g", "trial_id": "stroop-trial-1-unrelated-7", "trial_type": "html-keyboard-response", "trial_index": 187, "time_elapsed": 303822, "internal_node_id": "0.0-8.0-1.0"}}, {"uniqueid": "w80083182:a83927831", "current_trial": 188, "dateTime": 1664368450514, "trialdata": {"rt": 631, "stimulus": "<p id='stroop-text' class='stroop-red'>WINDOW</p>", "response": "r", "stimulus-type": "unrelated", "word": "WINDOW", "color": "red", "correct_response": "r", "trial_id": "stroop-trial-1-unrelated-27", "trial_type": "html-keyboard-response", "trial_index": 188, "time_elapsed": 304960, "internal_node_id": "0.0-8.0-2.0"}}, {"uniqueid": "w80083182:a83927831", "current_trial": 189, "dateTime": 1664368452365, "trialdata": {"rt": 1343, "stimulus": "<p id='stroop-text' class='stroop-blue'>BLUE</p>", "response": "b", "stimulus-type": "congruent", "word": "blue", "color": "blue", "correct_response": "b", "trial_id": "stroop-trial-1-congruent-25", "trial_type": "html-keyboard-response", "trial_index": 189, "time_elapsed": 306810, "internal_node_id": "0.0-8.0-3.0"}}, {"uniqueid": "w80083182:a83927831", "current_trial": 190, "dateTime": 1664368453391, "trialdata": {"rt": 519, "stimulus": "<p id='stroop-text' class='stroop-blue'>BLUE</p>", "response": "b", "stimulus-type": "congruent", "word": "blue", "color": "blue", "correct_response": "b", "trial_id": "stroop-trial-1-congruent-4", "trial_type": "html-keyboard-response", "trial_index": 190, "time_elapsed": 307837, "internal_node_id": "0.0-8.0-4.0"}}, {"uniqueid": "w80083182:a83927831", "current_trial": 191, "dateTime": 1664368454645, "trialdata": {"rt": 747, "stimulus": "<p id='stroop-text' class='stroop-green'>BLUE</p>", "response": "g", "stimulus-type": "incongruent", "word": "blue", "color": "green", "correct_response": "g", "trial_id": "stroop-trial-1-incongruent-2", "trial_type": "html-keyboard-response", "trial_index": 191, "time_elapsed": 309091, "internal_node_id": "0.0-8.0-5.0"}}, {"uniqueid": "w80083182:a83927831", "current_trial": 192, "dateTime": 1664368455898, "trialdata": {"rt": 746, "stimulus": "<p id='stroop-text' class='stroop-red'>BRAIN</p>", "response": "r", "stimulus-type": "unrelated", "word": "BRAIN", "color": "red", "correct_response": "r", "trial_id": "stroop-trial-1-unrelated-26", "trial_type": "html-keyboard-response", "trial_index": 192, "time_elapsed": 310343, "internal_node_id": "0.0-8.0-6.0"}}, {"uniqueid": "w80083182:a83927831", "current_trial": 193, "dateTime": 1664368457624, "trialdata": {"rt": 1221, "stimulus": "<p id='stroop-text' class='stroop-blue'>BOAT</p>", "response": "b", "stimulus-type": "unrelated", "word": "BOAT", "color": "blue", "correct_response": "b", "trial_id": "stroop-trial-1-unrelated-5", "trial_type": "html-keyboard-response", "trial_index": 193, "time_elapsed": 312069, "internal_node_id": "0.0-8.0-7.0"}}, {"uniqueid": "w80083182:a83927831", "current_trial": 194, "dateTime": 1664368458791, "trialdata": {"rt": 661, "stimulus": "<p id='stroop-text' class='stroop-red'>RED</p>", "response": "r", "stimulus-type": "congruent", "word": "red", "color": "red", "correct_response": "r", "trial_id": "stroop-trial-1-congruent-17", "trial_type": "html-keyboard-response", "trial_index": 194, "time_elapsed": 313237, "internal_node_id": "0.0-8.0-8.0"}}, {"uniqueid": "w80083182:a83927831", "current_trial": 195, "dateTime": 1664368459804, "trialdata": {"rt": 506, "stimulus": "<p id='stroop-text' class='stroop-green'>BOTTLE</p>", "response": "g", "stimulus-type": "unrelated", "word": "BOTTLE", "color": "green", "correct_response": "g", "trial_id": "stroop-trial-1-unrelated-3", "trial_type": "html-keyboard-response", "trial_index": 195, "time_elapsed": 314250, "internal_node_id": "0.0-8.0-9.0"}}, {"uniqueid": "w80083182:a83927831", "current_trial": 196, "dateTime": 1664368460962, "trialdata": {"rt": 651, "stimulus": "<p id='stroop-text' class='stroop-blue'>RED</p>", "response": "b", "stimulus-type": "incongruent", "word": "red", "color": "blue", "correct_response": "b", "trial_id": "stroop-trial-1-incongruent-26", "trial_type": "html-keyboard-response", "trial_index": 196, "time_elapsed": 315407, "internal_node_id": "0.0-8.0-10.0"}}, {"uniqueid": "w80083182:a83927831", "current_trial": 197, "dateTime": 1664368462020, "trialdata": {"rt": 551, "stimulus": "<p id='stroop-text' class='stroop-yellow'>BLUE</p>", "response": "y", "stimulus-type": "incongruent", "word": "blue", "color": "yellow", "correct_response": "y", "trial_id": "stroop-trial-1-incongruent-9", "trial_type": "html-keyboard-response", "trial_index": 197, "time_elapsed": 316466, "internal_node_id": "0.0-8.0-11.0"}}, {"uniqueid": "w80083182:a83927831", "current_trial": 198, "dateTime": 1664368463163, "trialdata": {"rt": 636, "stimulus": "<p id='stroop-text' class='stroop-blue'>MONKEY</p>", "response": "b", "stimulus-type": "unrelated", "word": "MONKEY", "color": "blue", "correct_response": "b", "trial_id": "stroop-trial-1-unrelated-30", "trial_type": "html-keyboard-response", "trial_index": 198, "time_elapsed": 317609, "internal_node_id": "0.0-8.0-12.0"}}, {"uniqueid": "w80083182:a83927831", "current_trial": 199, "dateTime": 1664368464204, "trialdata": {"rt": 535, "stimulus": "<p id='stroop-text' class='stroop-blue'>BLUE</p>", "response": "b", "stimulus-type": "congruent", "word": "blue", "color": "blue", "correct_response": "b", "trial_id": "stroop-trial-1-congruent-28", "trial_type": "html-keyboard-response", "trial_index": 199, "time_elapsed": 318650, "internal_node_id": "0.0-8.0-13.0"}}, {"uniqueid": "w80083182:a83927831", "current_trial": 200, "dateTime": 1664368465083, "trialdata": {"rt": 375, "stimulus": "<p id='stroop-text' class='stroop-blue'>RED</p>", "response": "b", "stimulus-type": "incongruent", "word": "red", "color": "blue", "correct_response": "b", "trial_id": "stroop-trial-1-incongruent-14", "trial_type": "html-keyboard-response", "trial_index": 200, "time_elapsed": 319529, "internal_node_id": "0.0-8.0-14.0"}}, {"uniqueid": "w80083182:a83927831", "current_trial": 201, "dateTime": 1664368466060, "trialdata": {"rt": 470, "stimulus": "<p id='stroop-text' class='stroop-green'>GREEN</p>", "response": "g", "stimulus-type": "congruent", "word": "green", "color": "green", "correct_response": "g", "trial_id": "stroop-trial-1-congruent-18", "trial_type": "html-keyboard-response", "trial_index": 201, "time_elapsed": 320506, "internal_node_id": "0.0-8.0-15.0"}}, {"uniqueid": "w80083182:a83927831", "current_trial": 202, "dateTime": 1664368467053, "trialdata": {"rt": 486, "stimulus": "<p id='stroop-text' class='stroop-green'>YELLOW</p>", "response": "g", "stimulus-type": "incongruent", "word": "yellow", "color": "green", "correct_response": "g", "trial_id": "stroop-trial-1-incongruent-6", "trial_type": "html-keyboard-response", "trial_index": 202, "time_elapsed": 321499, "internal_node_id": "0.0-8.0-16.0"}}, {"uniqueid": "w80083182:a83927831", "current_trial": 203, "dateTime": 1664368468046, "trialdata": {"rt": 487, "stimulus": "<p id='stroop-text' class='stroop-yellow'>SHIP</p>", "response": "y", "stimulus-type": "unrelated", "word": "SHIP", "color": "yellow", "correct_response": "y", "trial_id": "stroop-trial-1-unrelated-25", "trial_type": "html-keyboard-response", "trial_index": 203, "time_elapsed": 322492, "internal_node_id": "0.0-8.0-17.0"}}, {"uniqueid": "w80083182:a83927831", "current_trial": 204, "dateTime": 1664368468913, "trialdata": {"rt": 360, "stimulus": "<p id='stroop-text' class='stroop-yellow'>BRAIN</p>", "response": "y", "stimulus-type": "unrelated", "word": "BRAIN", "color": "yellow", "correct_response": "y", "trial_id": "stroop-trial-1-unrelated-22", "trial_type": "html-keyboard-response", "trial_index": 204, "time_elapsed": 323358, "internal_node_id": "0.0-8.0-18.0"}}, {"uniqueid": "w80083182:a83927831", "current_trial": 205, "dateTime": 1664368470016, "trialdata": {"rt": 596, "stimulus": "<p id='stroop-text' class='stroop-blue'>BLUE</p>", "response": "b", "stimulus-type": "congruent", "word": "blue", "color": "blue", "correct_response": "b", "trial_id": "stroop-trial-1-congruent-6", "trial_type": "html-keyboard-response", "trial_index": 205, "time_elapsed": 324462, "internal_node_id": "0.0-8.0-19.0"}}, {"uniqueid": "w80083182:a83927831", "current_trial": 206, "dateTime": 1664368470908, "trialdata": {"rt": 385, "stimulus": "<p id='stroop-text' class='stroop-blue'>BLUE</p>", "response": "b", "stimulus-type": "congruent", "word": "blue", "color": "blue", "correct_response": "b", "trial_id": "stroop-trial-1-congruent-3", "trial_type": "html-keyboard-response", "trial_index": 206, "time_elapsed": 325353, "internal_node_id": "0.0-8.0-20.0"}}, {"uniqueid": "w80083182:a83927831", "current_trial": 207, "dateTime": 1664368471936, "trialdata": {"rt": 521, "stimulus": "<p id='stroop-text' class='stroop-yellow'>BOTTLE</p>", "response": "y", "stimulus-type": "unrelated", "word": "BOTTLE", "color": "yellow", "correct_response": "y", "trial_id": "stroop-trial-1-unrelated-18", "trial_type": "html-keyboard-response", "trial_index": 207, "time_elapsed": 326381, "internal_node_id": "0.0-8.0-21.0"}}, {"uniqueid": "w80083182:a83927831", "current_trial": 208, "dateTime": 1664368473024, "trialdata": {"rt": 581, "stimulus": "<p id='stroop-text' class='stroop-red'>BLUE</p>", "response": "r", "stimulus-type": "incongruent", "word": "blue", "color": "red", "correct_response": "r", "trial_id": "stroop-trial-1-incongruent-16", "trial_type": "html-keyboard-response", "trial_index": 208, "time_elapsed": 327470, "internal_node_id": "0.0-8.0-22.0"}}, {"uniqueid": "w80083182:a83927831", "current_trial": 209, "dateTime": 1664368474112, "trialdata": {"rt": 580, "stimulus": "<p id='stroop-text' class='stroop-red'>RED</p>", "response": "r", "stimulus-type": "congruent", "word": "red", "color": "red", "correct_response": "r", "trial_id": "stroop-trial-1-congruent-27", "trial_type": "html-keyboard-response", "trial_index": 209, "time_elapsed": 328557, "internal_node_id": "0.0-8.0-23.0"}}, {"uniqueid": "w80083182:a83927831", "current_trial": 210, "dateTime": 1664368475040, "trialdata": {"rt": 421, "stimulus": "<p id='stroop-text' class='stroop-green'>WINDOW</p>", "response": "g", "stimulus-type": "unrelated", "word": "WINDOW", "color": "green", "correct_response": "g", "trial_id": "stroop-trial-1-unrelated-19", "trial_type": "html-keyboard-response", "trial_index": 210, "time_elapsed": 329485, "internal_node_id": "0.0-8.0-24.0"}}, {"uniqueid": "w80083182:a83927831", "current_trial": 211, "dateTime": 1664368476188, "trialdata": {"rt": 642, "stimulus": "<p id='stroop-text' class='stroop-red'>YELLOW</p>", "response": "r", "stimulus-type": "incongruent", "word": "yellow", "color": "red", "correct_response": "r", "trial_id": "stroop-trial-1-incongruent-5", "trial_type": "html-keyboard-response", "trial_index": 211, "time_elapsed": 330633, "internal_node_id": "0.0-8.0-25.0"}}, {"uniqueid": "w80083182:a83927831", "current_trial": 212, "dateTime": 1664368477210, "trialdata": {"rt": 514, "stimulus": "<p id='stroop-text' class='stroop-red'>SHIP</p>", "response": "r", "stimulus-type": "unrelated", "word": "SHIP", "color": "red", "correct_response": "r", "trial_id": "stroop-trial-1-unrelated-8", "trial_type": "html-keyboard-response", "trial_index": 212, "time_elapsed": 331655, "internal_node_id": "0.0-8.0-26.0"}}, {"uniqueid": "w80083182:a83927831", "current_trial": 213, "dateTime": 1664368478095, "trialdata": {"rt": 377, "stimulus": "<p id='stroop-text' class='stroop-yellow'>SHIP</p>", "response": "y", "stimulus-type": "unrelated", "word": "SHIP", "color": "yellow", "correct_response": "y", "trial_id": "stroop-trial-1-unrelated-16", "trial_type": "html-keyboard-response", "trial_index": 213, "time_elapsed": 332539, "internal_node_id": "0.0-8.0-27.0"}}, {"uniqueid": "w80083182:a83927831", "current_trial": 214, "dateTime": 1664368479366, "trialdata": {"rt": 764, "stimulus": "<p id='stroop-text' class='stroop-green'>BLUE</p>", "response": "g", "stimulus-type": "incongruent", "word": "blue", "color": "green", "correct_response": "g", "trial_id": "stroop-trial-1-incongruent-20", "trial_type": "html-keyboard-response", "trial_index": 214, "time_elapsed": 333812, "internal_node_id": "0.0-8.0-28.0"}}, {"uniqueid": "w80083182:a83927831", "current_trial": 215, "dateTime": 1664368480439, "trialdata": {"rt": 567, "stimulus": "<p id='stroop-text' class='stroop-red'>RED</p>", "response": "r", "stimulus-type": "congruent", "word": "red", "color": "red", "correct_response": "r", "trial_id": "stroop-trial-1-congruent-24", "trial_type": "html-keyboard-response", "trial_index": 215, "time_elapsed": 334885, "internal_node_id": "0.0-8.0-29.0"}}, {"uniqueid": "w80083182:a83927831", "current_trial": 216, "dateTime": 1664368481417, "trialdata": {"rt": 470, "stimulus": "<p id='stroop-text' class='stroop-red'>FORK</p>", "response": "r", "stimulus-type": "unrelated", "word": "FORK", "color": "red", "correct_response": "r", "trial_id": "stroop-trial-1-unrelated-4", "trial_type": "html-keyboard-response", "trial_index": 216, "time_elapsed": 335863, "internal_node_id": "0.0-8.0-30.0"}}, {"uniqueid": "w80083182:a83927831", "current_trial": 217, "dateTime": 1664368482494, "trialdata": {"rt": 570, "stimulus": "<p id='stroop-text' class='stroop-blue'>STONE</p>", "response": "b", "stimulus-type": "unrelated", "word": "STONE", "color": "blue", "correct_response": "b", "trial_id": "stroop-trial-1-unrelated-15", "trial_type": "html-keyboard-response", "trial_index": 217, "time_elapsed": 336940, "internal_node_id": "0.0-8.0-31.0"}}, {"uniqueid": "w80083182:a83927831", "current_trial": 218, "dateTime": 1664368483576, "trialdata": {"rt": 575, "stimulus": "<p id='stroop-text' class='stroop-yellow'>YELLOW</p>", "response": "y", "stimulus-type": "congruent", "word": "yellow", "color": "yellow", "correct_response": "y", "trial_id": "stroop-trial-1-congruent-1", "trial_type": "html-keyboard-response", "trial_index": 218, "time_elapsed": 338022, "internal_node_id": "0.0-8.0-32.0"}}, {"uniqueid": "w80083182:a83927831", "current_trial": 219, "dateTime": 1664368484540, "trialdata": {"rt": 459, "stimulus": "<p id='stroop-text' class='stroop-green'>GREEN</p>", "response": "g", "stimulus-type": "congruent", "word": "green", "color": "green", "correct_response": "g", "trial_id": "stroop-trial-1-congruent-13", "trial_type": "html-keyboard-response", "trial_index": 219, "time_elapsed": 338986, "internal_node_id": "0.0-8.0-33.0"}}, {"uniqueid": "w80083182:a83927831", "current_trial": 220, "dateTime": 1664368485543, "trialdata": {"rt": 495, "stimulus": "<p id='stroop-text' class='stroop-green'>GREEN</p>", "response": "g", "stimulus-type": "congruent", "word": "green", "color": "green", "correct_response": "g", "trial_id": "stroop-trial-1-congruent-11", "trial_type": "html-keyboard-response", "trial_index": 220, "time_elapsed": 339989, "internal_node_id": "0.0-8.0-34.0"}}, {"uniqueid": "w80083182:a83927831", "current_trial": 221, "dateTime": 1664368486550, "trialdata": {"rt": 500, "stimulus": "<p id='stroop-text' class='stroop-red'>RED</p>", "response": "r", "stimulus-type": "congruent", "word": "red", "color": "red", "correct_response": "r", "trial_id": "stroop-trial-1-congruent-7", "trial_type": "html-keyboard-response", "trial_index": 221, "time_elapsed": 340996, "internal_node_id": "0.0-8.0-35.0"}}, {"uniqueid": "w80083182:a83927831", "current_trial": 222, "dateTime": 1664368487443, "trialdata": {"rt": 386, "stimulus": "<p id='stroop-text' class='stroop-green'>RED</p>", "response": "r", "stimulus-type": "incongruent", "word": "red", "color": "green", "correct_response": "g", "trial_id": "stroop-trial-1-incongruent-10", "trial_type": "html-keyboard-response", "trial_index": 222, "time_elapsed": 341889, "internal_n