{"condition": 0, "counterbalance": 0, "assignmentId": "a56113410", "workerId": "w36067480", "hitId": "h48838824", "currenttrial": 959, "bonus": 0, "data": [{"uniqueid": "w36067480:a56113410", "current_trial": 0, "dateTime": 1664463919526, "trialdata": {"success": true, "trial_type": "fullscreen", "trial_index": 0, "time_elapsed": 5055, "internal_node_id": "0.0-0.0"}}, {"uniqueid": "w36067480:a56113410", "current_trial": 1, "dateTime": 1664463935961, "trialdata": {"view_history": [{"page_index": 0, "viewing_time": 16428}], "rt": 16429, "trial_id": "exp_instructions_distractor", "trial_type": "instructions", "trial_index": 1, "time_elapsed": 21489, "internal_node_id": "0.0-1.0"}}, {"uniqueid": "w36067480:a56113410", "current_trial": 2, "dateTime": 1664463966971, "trialdata": {"view_history": [{"page_index": 0, "viewing_time": 30989}], "rt": 30989, "trial_id": "color_game_instructions", "trial_type": "instructions", "trial_index": 2, "time_elapsed": 52500, "internal_node_id": "0.0-2.0"}}, {"uniqueid": "w36067480:a56113410", "current_trial": 3, "dateTime": 1664463984498, "trialdata": {"rt": 17520, "stimulus": "<h1> Get ready to start the game! </h1>\n\nThank you for reading the instructions. Get ready start with the first of 5 block(s) of this game.\n<br><br>\nIn this first block, you will complete 90 rounds of this game before moving on.\n<br><br>\nRemember, the better you perform, the bigger your bonus will be!\n<br><br>\n<div style='text-align: center;'>Press <code>space</code> to begin.</div>", "response": " ", "trial_id": "stroop_1_ready_1", "trial_type": "html-keyboard-response", "trial_index": 3, "time_elapsed": 70026, "internal_node_id": "0.0-3.0"}}, {"uniqueid": "w36067480:a56113410", "current_trial": 4, "dateTime": 1664463986119, "trialdata": {"rt": 1614, "stimulus": "<p id='stroop-text' class='stroop-green'>MONKEY</p>", "response": "g", "stimulus-type": "unrelated", "word": "MONKEY", "color": "green", "correct_response": "g", "trial_id": "stroop-trial-1-unrelated-13", "trial_type": "html-keyboard-response", "trial_index": 4, "time_elapsed": 71647, "internal_node_id": "0.0-4.0-0.0"}}, {"uniqueid": "w36067480:a56113410", "current_trial": 5, "dateTime": 1664463987425, "trialdata": {"rt": 800, "stimulus": "<p id='stroop-text' class='stroop-green'>WINDOW</p>", "response": "g", "stimulus-type": "unrelated", "word": "WINDOW", "color": "green", "correct_response": "g", "trial_id": "stroop-trial-1-unrelated-3", "trial_type": "html-keyboard-response", "trial_index": 5, "time_elapsed": 72953, "internal_node_id": "0.0-4.0-1.0"}}, {"uniqueid": "w36067480:a56113410", "current_trial": 6, "dateTime": 1664463989226, "trialdata": {"rt": 1295, "stimulus": "<p id='stroop-text' class='stroop-blue'>BLUE</p>", "response": "b", "stimulus-type": "congruent", "word": "blue", "color": "blue", "correct_response": "b", "trial_id": "stroop-trial-1-congruent-13", "trial_type": "html-keyboard-response", "trial_index": 6, "time_elapsed": 74755, "internal_node_id": "0.0-4.0-2.0"}}, {"uniqueid": "w36067480:a56113410", "current_trial": 7, "dateTime": 1664463992338, "trialdata": {"rt": 2606, "stimulus": "<p id='stroop-text' class='stroop-yellow'>BOAT</p>", "response": "y", "stimulus-type": "unrelated", "word": "BOAT", "color": "yellow", "correct_response": "y", "trial_id": "stroop-trial-1-unrelated-6", "trial_type": "html-keyboard-response", "trial_index": 7, "time_elapsed": 77867, "internal_node_id": "0.0-4.0-3.0"}}, {"uniqueid": "w36067480:a56113410", "current_trial": 8, "dateTime": 1664463996257, "trialdata": {"rt": 3411, "stimulus": "<p id='stroop-text' class='stroop-yellow'>BLUE</p>", "response": "y", "stimulus-type": "incongruent", "word": "blue", "color": "yellow", "correct_response": "y", "trial_id": "stroop-trial-1-incongruent-18", "trial_type": "html-keyboard-response", "trial_index": 8, "time_elapsed": 81785, "internal_node_id": "0.0-4.0-4.0"}}, {"uniqueid": "w36067480:a56113410", "current_trial": 9, "dateTime": 1664463997922, "trialdata": {"rt": 1152, "stimulus": "<p id='stroop-text' class='stroop-red'>STONE</p>", "response": "r", "stimulus-type": "unrelated", "word": "STONE", "color": "red", "correct_response": "r", "trial_id": "stroop-trial-1-unrelated-14", "trial_type": "html-keyboard-response", "trial_index": 9, "time_elapsed": 83451, "internal_node_id": "0.0-4.0-5.0"}}, {"uniqueid": "w36067480:a56113410", "current_trial": 10, "dateTime": 1664464001388, "trialdata": {"rt": 2952, "stimulus": "<p id='stroop-text' class='stroop-yellow'>GREEN</p>", "response": "y", "stimulus-type": "incongruent", "word": "green", "color": "yellow", "correct_response": "y", "trial_id": "stroop-trial-1-incongruent-14", "trial_type": "html-keyboard-response", "trial_index": 10, "time_elapsed": 86916, "internal_node_id": "0.0-4.0-6.0"}}, {"uniqueid": "w36067480:a56113410", "current_trial": 11, "dateTime": 1664464002605, "trialdata": {"rt": 710, "stimulus": "<p id='stroop-text' class='stroop-yellow'>WINDOW</p>", "response": "y", "stimulus-type": "unrelated", "word": "WINDOW", "color": "yellow", "correct_response": "y", "trial_id": "stroop-trial-1-unrelated-24", "trial_type": "html-keyboard-response", "trial_index": 11, "time_elapsed": 88134, "internal_node_id": "0.0-4.0-7.0"}}, {"uniqueid": "w36067480:a56113410", "current_trial": 12, "dateTime": 1664464004811, "trialdata": {"rt": 1703, "stimulus": "<p id='stroop-text' class='stroop-blue'>YELLOW</p>", "response": "b", "stimulus-type": "incongruent", "word": "yellow", "color": "blue", "correct_response": "b", "trial_id": "stroop-trial-1-incongruent-2", "trial_type": "html-keyboard-response", "trial_index": 12, "time_elapsed": 90340, "internal_node_id": "0.0-4.0-8.0"}}, {"uniqueid": "w36067480:a56113410", "current_trial": 13, "dateTime": 1664464006163, "trialdata": {"rt": 839, "stimulus": "<p id='stroop-text' class='stroop-yellow'>YELLOW</p>", "response": "y", "stimulus-type": "congruent", "word": "yellow", "color": "yellow", "correct_response": "y", "trial_id": "stroop-trial-1-congruent-15", "trial_type": "html-keyboard-response", "trial_index": 13, "time_elapsed": 91691, "internal_node_id": "0.0-4.0-9.0"}}, {"uniqueid": "w36067480:a56113410", "current_trial": 14, "dateTime": 1664464007879, "trialdata": {"rt": 1201, "stimulus": "<p id='stroop-text' class='stroop-blue'>MONKEY</p>", "response": "b", "stimulus-type": "unrelated", "word": "MONKEY", "color": "blue", "correct_response": "b", "trial_id": "stroop-trial-1-unrelated-18", "trial_type": "html-keyboard-response", "trial_index": 14, "time_elapsed": 93408, "internal_node_id": "0.0-4.0-10.0"}}, {"uniqueid": "w36067480:a56113410", "current_trial": 15, "dateTime": 1664464009241, "trialdata": {"rt": 860, "stimulus": "<p id='stroop-text' class='stroop-red'>RED</p>", "response": "r", "stimulus-type": "congruent", "word": "red", "color": "red", "correct_response": "r", "trial_id": "stroop-trial-1-congruent-30", "trial_type": "html-keyboard-response", "trial_index": 15, "time_elapsed": 94769, "internal_node_id": "0.0-4.0-11.0"}}, {"uniqueid": "w36067480:a56113410", "current_trial": 16, "dateTime": 1664464011087, "trialdata": {"rt": 1340, "stimulus": "<p id='stroop-text' class='stroop-blue'>GREEN</p>", "response": "b", "stimulus-type": "incongruent", "word": "green", "color": "blue", "correct_response": "b", "trial_id": "stroop-trial-1-incongruent-28", "trial_type": "html-keyboard-response", "trial_index": 16, "time_elapsed": 96614, "internal_node_id": "0.0-4.0-12.0"}}, {"uniqueid": "w36067480:a56113410", "current_trial": 17, "dateTime": 1664464012707, "trialdata": {"rt": 1098, "stimulus": "<p id='stroop-text' class='stroop-yellow'>MONKEY</p>", "response": "y", "stimulus-type": "unrelated", "word": "MONKEY", "color": "yellow", "correct_response": "y", "trial_id": "stroop-trial-1-unrelated-25", "trial_type": "html-keyboard-response", "trial_index": 17, "time_elapsed": 98236, "internal_node_id": "0.0-4.0-13.0"}}, {"uniqueid": "w36067480:a56113410", "current_trial": 18, "dateTime": 1664464013879, "trialdata": {"rt": 668, "stimulus": "<p id='stroop-text' class='stroop-yellow'>YELLOW</p>", "response": "y", "stimulus-type": "congruent", "word": "yellow", "color": "yellow", "correct_response": "y", "trial_id": "stroop-trial-1-congruent-6", "trial_type": "html-keyboard-response", "trial_index": 18, "time_elapsed": 99408, "internal_node_id": "0.0-4.0-14.0"}}, {"uniqueid": "w36067480:a56113410", "current_trial": 19, "dateTime": 1664464015635, "trialdata": {"rt": 1252, "stimulus": "<p id='stroop-text' class='stroop-red'>BRIDGE</p>", "response": "r", "stimulus-type": "unrelated", "word": "BRIDGE", "color": "red", "correct_response": "r", "trial_id": "stroop-trial-1-unrelated-23", "trial_type": "html-keyboard-response", "trial_index": 19, "time_elapsed": 101164, "internal_node_id": "0.0-4.0-15.0"}}, {"uniqueid": "w36067480:a56113410", "current_trial": 20, "dateTime": 1664464016732, "trialdata": {"rt": 570, "stimulus": "<p id='stroop-text' class='stroop-red'>RED</p>", "response": "r", "stimulus-type": "congruent", "word": "red", "color": "red", "correct_response": "r", "trial_id": "stroop-trial-1-congruent-23", "trial_type": "html-keyboard-response", "trial_index": 20, "time_elapsed": 102261, "internal_node_id": "0.0-4.0-16.0"}}, {"uniqueid": "w36067480:a56113410", "current_trial": 21, "dateTime": 1664464017798, "trialdata": {"rt": 542, "stimulus": "<p id='stroop-text' class='stroop-red'>RED</p>", "response": "r", "stimulus-type": "congruent", "word": "red", "color": "red", "correct_response": "r", "trial_id": "stroop-trial-1-congruent-27", "trial_type": "html-keyboard-response", "trial_index": 21, "time_elapsed": 103327, "internal_node_id": "0.0-4.0-17.0"}}, {"uniqueid": "w36067480:a56113410", "current_trial": 22, "dateTime": 1664464019611, "trialdata": {"rt": 1303, "stimulus": "<p id='stroop-text' class='stroop-green'>BOAT</p>", "response": "g", "stimulus-type": "unrelated", "word": "BOAT", "color": "green", "correct_response": "g", "trial_id": "stroop-trial-1-unrelated-8", "trial_type": "html-keyboard-response", "trial_index": 22, "time_elapsed": 105140, "internal_node_id": "0.0-4.0-18.0"}}, {"uniqueid": "w36067480:a56113410", "current_trial": 23, "dateTime": 1664464021322, "trialdata": {"rt": 1206, "stimulus": "<p id='stroop-text' class='stroop-blue'>CHAIR</p>", "response": "b", "stimulus-type": "unrelated", "word": "CHAIR", "color": "blue", "correct_response": "b", "trial_id": "stroop-trial-1-unrelated-9", "trial_type": "html-keyboard-response", "trial_index": 23, "time_elapsed": 106851, "internal_node_id": "0.0-4.0-19.0"}}, {"uniqueid": "w36067480:a56113410", "current_trial": 24, "dateTime": 1664464022583, "trialdata": {"rt": 749, "stimulus": "<p id='stroop-text' class='stroop-yellow'>YELLOW</p>", "response": "y", "stimulus-type": "congruent", "word": "yellow", "color": "yellow", "correct_response": "y", "trial_id": "stroop-trial-1-congruent-25", "trial_type": "html-keyboard-response", "trial_index": 24, "time_elapsed": 108112, "internal_node_id": "0.0-4.0-20.0"}}, {"uniqueid": "w36067480:a56113410", "current_trial": 25, "dateTime": 1664464024386, "trialdata": {"rt": 1289, "stimulus": "<p id='stroop-text' class='stroop-green'>SHIP</p>", "response": "g", "stimulus-type": "unrelated", "word": "SHIP", "color": "green", "correct_response": "g", "trial_id": "stroop-trial-1-unrelated-27", "trial_type": "html-keyboard-response", "trial_index": 25, "time_elapsed": 109914, "internal_node_id": "0.0-4.0-21.0"}}, {"uniqueid": "w36067480:a56113410", "current_trial": 26, "dateTime": 1664464026007, "trialdata": {"rt": 1107, "stimulus": "<p id='stroop-text' class='stroop-yellow'>YELLOW</p>", "response": "y", "stimulus-type": "congruent", "word": "yellow", "color": "yellow", "correct_response": "y", "trial_id": "stroop-trial-1-congruent-3", "trial_type": "html-keyboard-response", "trial_index": 26, "time_elapsed": 111535, "internal_node_id": "0.0-4.0-22.0"}}, {"uniqueid": "w36067480:a56113410", "current_trial": 27, "dateTime": 1664464027088, "trialdata": {"rt": 571, "stimulus": "<p id='stroop-text' class='stroop-red'>MONKEY</p>", "response": "r", "stimulus-type": "unrelated", "word": "MONKEY", "color": "red", "correct_response": "r", "trial_id": "stroop-trial-1-unrelated-26", "trial_type": "html-keyboard-response", "trial_index": 27, "time_elapsed": 112617, "internal_node_id": "0.0-4.0-23.0"}}, {"uniqueid": "w36067480:a56113410", "current_trial": 28, "dateTime": 1664464028890, "trialdata": {"rt": 1295, "stimulus": "<p id='stroop-text' class='stroop-green'>SHIP</p>", "response": "g", "stimulus-type": "unrelated", "word": "SHIP", "color": "green", "correct_response": "g", "trial_id": "stroop-trial-1-unrelated-7", "trial_type": "html-keyboard-response", "trial_index": 28, "time_elapsed": 114419, "internal_node_id": "0.0-4.0-24.0"}}, {"uniqueid": "w36067480:a56113410", "current_trial": 29, "dateTime": 1664464030118, "trialdata": {"rt": 724, "stimulus": "<p id='stroop-text' class='stroop-blue'>GREEN</p>", "response": "b", "stimulus-type": "incongruent", "word": "green", "color": "blue", "correct_response": "b", "trial_id": "stroop-trial-1-incongruent-16", "trial_type": "html-keyboard-response", "trial_index": 29, "time_elapsed": 115646, "internal_node_id": "0.0-4.0-25.0"}}, {"uniqueid": "w36067480:a56113410", "current_trial": 30, "dateTime": 1664464032054, "trialdata": {"rt": 1429, "stimulus": "<p id='stroop-text' class='stroop-red'>BLUE</p>", "response": "r", "stimulus-type": "incongruent", "word": "blue", "color": "red", "correct_response": "r", "trial_id": "stroop-trial-1-incongruent-21", "trial_type": "html-keyboard-response", "trial_index": 30, "time_elapsed": 117583, "internal_node_id": "0.0-4.0-26.0"}}, {"uniqueid": "w36067480:a56113410", "current_trial": 31, "dateTime": 1664464034487, "trialdata": {"rt": 1918, "stimulus": "<p id='stroop-text' class='stroop-blue'>RED</p>", "response": "b", "stimulus-type": "incongruent", "word": "red", "color": "blue", "correct_response": "b", "trial_id": "stroop-trial-1-incongruent-27", "trial_type": "html-keyboard-response", "trial_index": 31, "time_elapsed": 120016, "internal_node_id": "0.0-4.0-27.0"}}, {"uniqueid": "w36067480:a56113410", "current_trial": 32, "dateTime": 1664464036154, "trialdata": {"rt": 1161, "stimulus": "<p id='stroop-text' class='stroop-green'>FORK</p>", "response": "g", "stimulus-type": "unrelated", "word": "FORK", "color": "green", "correct_response": "g", "trial_id": "stroop-trial-1-unrelated-20", "trial_type": "html-keyboard-response", "trial_index": 32, "time_elapsed": 121683, "internal_node_id": "0.0-4.0-28.0"}}, {"uniqueid": "w36067480:a56113410", "current_trial": 33, "dateTime": 1664464037369, "trialdata": {"rt": 704, "stimulus": "<p id='stroop-text' class='stroop-red'>BLUE</p>", "response": "r", "stimulus-type": "incongruent", "word": "blue", "color": "red", "correct_response": "r", "trial_id": "stroop-trial-1-incongruent-10", "trial_type": "html-keyboard-response", "trial_index": 33, "time_elapsed": 122898, "internal_node_id": "0.0-4.0-29.0"}}, {"uniqueid": "w36067480:a56113410", "current_trial": 34, "dateTime": 1664464038631, "trialdata": {"rt": 746, "stimulus": "<p id='stroop-text' class='stroop-yellow'>YELLOW</p>", "response": "y", "stimulus-type": "congruent", "word": "yellow", "color": "yellow", "correct_response": "y", "trial_id": "stroop-trial-1-congruent-10", "trial_type": "html-keyboard-response", "trial_index": 34, "time_elapsed": 124159, "internal_node_id": "0.0-4.0-30.0"}}, {"uniqueid": "w36067480:a56113410", "current_trial": 35, "dateTime": 1664464040027, "trialdata": {"rt": 872, "stimulus": "<p id='stroop-text' class='stroop-green'>WINDOW</p>", "response": "g", "stimulus-type": "unrelated", "word": "WINDOW", "color": "green", "correct_response": "g", "trial_id": "stroop-trial-1-unrelated-15", "trial_type": "html-keyboard-response", "trial_index": 35, "time_elapsed": 125556, "internal_node_id": "0.0-4.0-31.0"}}, {"uniqueid": "w36067480:a56113410", "current_trial": 36, "dateTime": 1664464041334, "trialdata": {"rt": 772, "stimulus": "<p id='stroop-text' class='stroop-red'>BOTTLE</p>", "response": "r", "stimulus-type": "unrelated", "word": "BOTTLE", "color": "red", "correct_response": "r", "trial_id": "stroop-trial-1-unrelated-28", "trial_type": "html-keyboard-response", "trial_index": 36, "time_elapsed": 126862, "internal_node_id": "0.0-4.0-32.0"}}, {"uniqueid": "w36067480:a56113410", "current_trial": 37, "dateTime": 1664464042685, "trialdata": {"rt": 839, "stimulus": "<p id='stroop-text' class='stroop-blue'>YELLOW</p>", "response": "b", "stimulus-type": "incongruent", "word": "yellow", "color": "blue", "correct_response": "b", "trial_id": "stroop-trial-1-incongruent-23", "trial_type": "html-keyboard-response", "trial_index": 37, "time_elapsed": 128214, "internal_node_id": "0.0-4.0-33.0"}}, {"uniqueid": "w36067480:a56113410", "current_trial": 38, "dateTime": 1664464043902, "trialdata": {"rt": 702, "stimulus": "<p id='stroop-text' class='stroop-blue'>BLUE</p>", "response": "b", "stimulus-type": "congruent", "word": "blue", "color": "blue", "correct_response": "b", "trial_id": "stroop-trial-1-congruent-20", "trial_type": "html-keyboard-response", "trial_index": 38, "time_elapsed": 129431, "internal_node_id": "0.0-4.0-34.0"}}, {"uniqueid": "w36067480:a56113410", "current_trial": 39, "dateTime": 1664464044985, "trialdata": {"rt": 565, "stimulus": "<p id='stroop-text' class='stroop-blue'>BOAT</p>", "response": "b", "stimulus-type": "unrelated", "word": "BOAT", "color": "blue", "correct_response": "b", "trial_id": "stroop-trial-1-unrelated-11", "trial_type": "html-keyboard-response", "trial_index": 39, "time_elapsed": 130513, "internal_node_id": "0.0-4.0-35.0"}}, {"uniqueid": "w36067480:a56113410", "current_trial": 40, "dateTime": 1664464046696, "trialdata": {"rt": 1198, "stimulus": "<p id='stroop-text' class='stroop-yellow'>RED</p>", "response": "y", "stimulus-type": "incongruent", "word": "red", "color": "yellow", "correct_response": "y", "trial_id": "stroop-trial-1-incongruent-29", "trial_type": "html-keyboard-response", "trial_index": 40, "time_elapsed": 132224, "internal_node_id": "0.0-4.0-36.0"}}, {"uniqueid": "w36067480:a56113410", "current_trial": 41, "dateTime": 1664464048497, "trialdata": {"rt": 1293, "stimulus": "<p id='stroop-text' class='stroop-green'>RED</p>", "response": "g", "stimulus-type": "incongruent", "word": "red", "color": "green", "correct_response": "g", "trial_id": "stroop-trial-1-incongruent-6", "trial_type": "html-keyboard-response", "trial_index": 41, "time_elapsed": 134026, "internal_node_id": "0.0-4.0-37.0"}}, {"uniqueid": "w36067480:a56113410", "current_trial": 42, "dateTime": 1664464049849, "trialdata": {"rt": 850, "stimulus": "<p id='stroop-text' class='stroop-yellow'>GREEN</p>", "response": "y", "stimulus-type": "incongruent", "word": "green", "color": "yellow", "correct_response": "y", "trial_id": "stroop-trial-1-incongruent-7", "trial_type": "html-keyboard-response", "trial_index": 42, "time_elapsed": 135378, "internal_node_id": "0.0-4.0-38.0"}}, {"uniqueid": "w36067480:a56113410", "current_trial": 43, "dateTime": 1664464051290, "trialdata": {"rt": 930, "stimulus": "<p id='stroop-text' class='stroop-blue'>YELLOW</p>", "response": "r", "stimulus-type": "incongruent", "word": "yellow", "color": "blue", "correct_response": "b", "trial_id": "stroop-trial-1-incongruent-8", "trial_type": "html-keyboard-response", "trial_index": 43, "time_elapsed": 136818, "internal_node_id": "0.0-4.0-39.0"}}, {"uniqueid": "w36067480:a56113410", "current_trial": 44, "dateTime": 1664464053047, "trialdata": {"rt": 1250, "stimulus": "<p id='stroop-text' class='stroop-green'>YELLOW</p>", "response": "g", "stimulus-type": "incongruent", "word": "yellow", "color": "green", "correct_response": "g", "trial_id": "stroop-trial-1-incongruent-5", "trial_type": "html-keyboard-response", "trial_index": 44, "time_elapsed": 138576, "internal_node_id": "0.0-4.0-40.0"}}, {"uniqueid": "w36067480:a56113410", "current_trial": 45, "dateTime": 1664464054893, "trialdata": {"rt": 1336, "stimulus": "<p id='stroop-text' class='stroop-blue'>BLUE</p>", "response": "b", "stimulus-type": "congruent", "word": "blue", "color": "blue", "correct_response": "b", "trial_id": "stroop-trial-1-congruent-8", "trial_type": "html-keyboard-response", "trial_index": 45, "time_elapsed": 140421, "internal_node_id": "0.0-4.0-41.0"}}, {"uniqueid": "w36067480:a56113410", "current_trial": 46, "dateTime": 1664464056334, "trialdata": {"rt": 924, "stimulus": "<p id='stroop-text' class='stroop-red'>RED</p>", "response": "r", "stimulus-type": "congruent", "word": "red", "color": "red", "correct_response": "r", "trial_id": "stroop-trial-1-congruent-17", "trial_type": "html-keyboard-response", "trial_index": 46, "time_elapsed": 141863, "internal_node_id": "0.0-4.0-42.0"}}, {"uniqueid": "w36067480:a56113410", "current_trial": 47, "dateTime": 1664464057867, "trialdata": {"rt": 1026, "stimulus": "<p id='stroop-text' class='stroop-blue'>BOAT</p>", "response": "b", "stimulus-type": "unrelated", "word": "BOAT", "color": "blue", "correct_response": "b", "trial_id": "stroop-trial-1-unrelated-1", "trial_type": "html-keyboard-response", "trial_index": 47, "time_elapsed": 143395, "internal_node_id": "0.0-4.0-43.0"}}, {"uniqueid": "w36067480:a56113410", "current_trial": 48, "dateTime": 1664464059443, "trialdata": {"rt": 1058, "stimulus": "<p id='stroop-text' class='stroop-blue'>BLUE</p>", "response": "b", "stimulus-type": "congruent", "word": "blue", "color": "blue", "correct_response": "b", "trial_id": "stroop-trial-1-congruent-12", "trial_type": "html-keyboard-response", "trial_index": 48, "time_elapsed": 144972, "internal_node_id": "0.0-4.0-44.0"}}, {"uniqueid": "w36067480:a56113410", "current_trial": 49, "dateTime": 1664464060749, "trialdata": {"rt": 752, "stimulus": "<p id='stroop-text' class='stroop-yellow'>STONE</p>", "response": "y", "stimulus-type": "unrelated", "word": "STONE", "color": "yellow", "correct_response": "y", "trial_id": "stroop-trial-1-unrelated-30", "trial_type": "html-keyboard-response", "trial_index": 49, "time_elapsed": 146278, "internal_node_id": "0.0-4.0-45.0"}}, {"uniqueid": "w36067480:a56113410", "current_trial": 50, "dateTime": 1664464061966, "trialdata": {"rt": 707, "stimulus": "<p id='stroop-text' class='stroop-blue'>BLUE</p>", "response": "b", "stimulus-type": "congruent", "word": "blue", "color": "blue", "correct_response": "b", "trial_id": "stroop-trial-1-congruent-5", "trial_type": "html-keyboard-response", "trial_index": 50, "time_elapsed": 147495, "internal_node_id": "0.0-4.0-46.0"}}, {"uniqueid": "w36067480:a56113410", "current_trial": 51, "dateTime": 1664464063047, "trialdata": {"rt": 577, "stimulus": "<p id='stroop-text' class='stroop-green'>GREEN</p>", "response": "g", "stimulus-type": "congruent", "word": "green", "color": "green", "correct_response": "g", "trial_id": "stroop-trial-1-congruent-24", "trial_type": "html-keyboard-response", "trial_index": 51, "time_elapsed": 148576, "internal_node_id": "0.0-4.0-47.0"}}, {"uniqueid": "w36067480:a56113410", "current_trial": 52, "dateTime": 1664464064488, "trialdata": {"rt": 927, "stimulus": "<p id='stroop-text' class='stroop-green'>GREEN</p>", "response": "g", "stimulus-type": "congruent", "word": "green", "color": "green", "correct_response": "g", "trial_id": "stroop-trial-1-congruent-22", "trial_type": "html-keyboard-response", "trial_index": 52, "time_elapsed": 150017, "internal_node_id": "0.0-4.0-48.0"}}, {"uniqueid": "w36067480:a56113410", "current_trial": 53, "dateTime": 1664464065705, "trialdata": {"rt": 701, "stimulus": "<p id='stroop-text' class='stroop-red'>RED</p>", "response": "r", "stimulus-type": "congruent", "word": "red", "color": "red", "correct_response": "r", "trial_id": "stroop-trial-1-congruent-21", "trial_type": "html-keyboard-response", "trial_index": 53, "time_elapsed": 151234, "internal_node_id": "0.0-4.0-49.0"}}, {"uniqueid": "w36067480:a56113410", "current_trial": 54, "dateTime": 1664464067732, "trialdata": {"rt": 1512, "stimulus": "<p id='stroop-text' class='stroop-blue'>SHIP</p>", "response": "b", "stimulus-type": "unrelated", "word": "SHIP", "color": "blue", "correct_response": "b", "trial_id": "stroop-trial-1-unrelated-4", "trial_type": "html-keyboard-response", "trial_index": 54, "time_elapsed": 153260, "internal_node_id": "0.0-4.0-50.0"}}, {"uniqueid": "w36067480:a56113410", "current_trial": 55, "dateTime": 1664464069848, "trialdata": {"rt": 1609, "stimulus": "<p id='stroop-text' class='stroop-yellow'>YELLOW</p>", "response": "y", "stimulus-type": "congruent", "word": "yellow", "color": "yellow", "correct_response": "y", "trial_id": "stroop-trial-1-congruent-9", "trial_type": "html-keyboard-response", "trial_index": 55, "time_elapsed": 155376, "internal_node_id": "0.0-4.0-51.0"}}, {"uniqueid": "w36067480:a56113410", "current_trial": 56, "dateTime": 1664464071650, "trialdata": {"rt": 1279, "stimulus": "<p id='stroop-text' class='stroop-green'>YELLOW</p>", "response": "g", "stimulus-type": "incongruent", "word": "yellow", "color": "green", "correct_response": "g", "trial_id": "stroop-trial-1-incongruent-11", "trial_type": "html-keyboard-response", "trial_index": 56, "time_elapsed": 157178, "internal_node_id": "0.0-4.0-52.0"}}, {"uniqueid": "w36067480:a56113410", "current_trial": 57, "dateTime": 1664464073047, "trialdata": {"rt": 891, "stimulus": "<p id='stroop-text' class='stroop-yellow'>BLUE</p>", "response": "y", "stimulus-type": "incongruent", "word": "blue", "color": "yellow", "correct_response": "y", "trial_id": "stroop-trial-1-incongruent-20", "trial_type": "html-keyboard-response", "trial_index": 57, "time_elapsed": 158576, "internal_node_id": "0.0-4.0-53.0"}}, {"uniqueid": "w36067480:a56113410", "current_trial": 58, "dateTime": 1664464075162, "trialdata": {"rt": 1597, "stimulus": "<p id='stroop-text' class='stroop-green'>BLUE</p>", "response": "g", "stimulus-type": "incongruent", "word": "blue", "color": "green", "correct_response": "g", "trial_id": "stroop-trial-1-incongruent-4", "trial_type": "html-keyboard-response", "trial_index": 58, "time_elapsed": 160690, "internal_node_id": "0.0-4.0-54.0"}}, {"uniqueid": "w36067480:a56113410", "current_trial": 59, "dateTime": 1664464077101, "trialdata": {"rt": 1425, "stimulus": "<p id='stroop-text' class='stroop-blue'>BLUE</p>", "response": "b", "stimulus-type": "congruent", "word": "blue", "color": "blue", "correct_response": "b", "trial_id": "stroop-trial-1-congruent-1", "trial_type": "html-keyboard-response", "trial_index": 59, "time_elapsed": 162630, "internal_node_id": "0.0-4.0-55.0"}}, {"uniqueid": "w36067480:a56113410", "current_trial": 60, "dateTime": 1664464078497, "trialdata": {"rt": 883, "stimulus": "<p id='stroop-text' class='stroop-yellow'>YELLOW</p>", "response": "y", "stimulus-type": "congruent", "word": "yellow", "color": "yellow", "correct_response": "y", "trial_id": "stroop-trial-1-congruent-7", "trial_type": "html-keyboard-response", "trial_index": 60, "time_elapsed": 164025, "internal_node_id": "0.0-4.0-56.0"}}, {"uniqueid": "w36067480:a56113410", "current_trial": 61, "dateTime": 1664464079668, "trialdata": {"rt": 645, "stimulus": "<p id='stroop-text' class='stroop-yellow'>BRIDGE</p>", "response": "y", "stimulus-type": "unrelated", "word": "BRIDGE", "color": "yellow", "correct_response": "y", "trial_id": "stroop-trial-1-unrelated-19", "trial_type": "html-keyboard-response", "trial_index": 61, "time_elapsed": 165196, "internal_node_id": "0.0-4.0-57.0"}}, {"uniqueid": "w36067480:a56113410", "current_trial": 62, "dateTime": 1664464081424, "trialdata": {"rt": 1233, "stimulus": "<p id='stroop-text' class='stroop-blue'>BLUE</p>", "response": "b", "stimulus-type": "congruent", "word": "blue", "color": "blue", "correct_response": "b", "trial_id": "stroop-trial-1-congruent-28", "trial_type": "html-keyboard-response", "trial_index": 62, "time_elapsed": 166952, "internal_node_id": "0.0-4.0-58.0"}}, {"uniqueid": "w36067480:a56113410", "current_trial": 63, "dateTime": 1664464082685, "trialdata": {"rt": 748, "stimulus": "<p id='stroop-text' class='stroop-green'>GREEN</p>", "response": "g", "stimulus-type": "congruent", "word": "green", "color": "green", "correct_response": "g", "trial_id": "stroop-trial-1-congruent-19", "trial_type": "html-keyboard-response", "trial_index": 63, "time_elapsed": 168213, "internal_node_id": "0.0-4.0-59.0"}}, {"uniqueid": "w36067480:a56113410", "current_trial": 64, "dateTime": 1664464083901, "trialdata": {"rt": 710, "stimulus": "<p id='stroop-text' class='stroop-red'>GREEN</p>", "response": "r", "stimulus-type": "incongruent", "word": "green", "color": "red", "correct_response": "r", "trial_id": "stroop-trial-1-incongruent-3", "trial_type": "html-keyboard-response", "trial_index": 64, "time_elapsed": 169430, "internal_node_id": "0.0-4.0-60.0"}}, {"uniqueid": "w36067480:a56113410", "current_trial": 65, "dateTime": 1664464085163, "trialdata": {"rt": 746, "stimulus": "<p id='stroop-text' class='stroop-blue'>GREEN</p>", "response": "b", "stimulus-type": "incongruent", "word": "green", "color": "blue", "correct_response": "b", "trial_id": "stroop-trial-1-incongruent-17", "trial_type": "html-keyboard-response", "trial_index": 65, "time_elapsed": 170692, "internal_node_id": "0.0-4.0-61.0"}}, {"uniqueid": "w36067480:a56113410", "current_trial": 66, "dateTime": 1664464086340, "trialdata": {"rt": 665, "stimulus": "<p id='stroop-text' class='stroop-green'>FORK</p>", "response": "g", "stimulus-type": "unrelated", "word": "FORK", "color": "green", "correct_response": "g", "trial_id": "stroop-trial-1-unrelated-5", "trial_type": "html-keyboard-response", "trial_index": 66, "time_elapsed": 171867, "internal_node_id": "0.0-4.0-62.0"}}, {"uniqueid": "w36067480:a56113410", "current_trial": 67, "dateTime": 1664464087462, "trialdata": {"rt": 617, "stimulus": "<p id='stroop-text' class='stroop-green'>RED</p>", "response": "g", "stimulus-type": "incongruent", "word": "red", "color": "green", "correct_response": "g", "trial_id": "stroop-trial-1-incongruent-22", "trial_type": "html-keyboard-response", "trial_index": 67, "time_elapsed": 172990, "internal_node_id": "0.0-4.0-63.0"}}, {"uniqueid": "w36067480:a56113410", "current_trial": 68, "dateTime": 1664464088993, "trialdata": {"rt": 1020, "stimulus": "<p id='stroop-text' class='stroop-blue'>BLUE</p>", "response": "b", "stimulus-type": "congruent", "word": "blue", "color": "blue", "correct_response": "b", "trial_id": "stroop-trial-1-congruent-4", "trial_type": "html-keyboard-response", "trial_index": 68, "time_elapsed": 174522, "internal_node_id": "0.0-4.0-64.0"}}, {"uniqueid": "w36067480:a56113410", "current_trial": 69, "dateTime": 1664464090491, "trialdata": {"rt": 983, "stimulus": "<p id='stroop-text' class='stroop-green'>RED</p>", "response": "g", "stimulus-type": "incongruent", "word": "red", "color": "green", "correct_response": "g", "trial_id": "stroop-trial-1-incongruent-30", "trial_type": "html-keyboard-response", "trial_index": 69, "time_elapsed": 176020, "internal_node_id": "0.0-4.0-65.0"}}, {"uniqueid": "w36067480:a56113410", "current_trial": 70, "dateTime": 1664464091528, "trialdata": {"rt": 527, "stimulus": "<p id='stroop-text' class='stroop-green'>STONE</p>", "response": "g", "stimulus-type": "unrelated", "word": "STONE", "color": "green", "correct_response": "g", "trial_id": "stroop-trial-1-unrelated-10", "trial_type": "html-keyboard-response", "trial_index": 70, "time_elapsed": 177057, "internal_node_id": "0.0-4.0-66.0"}}, {"uniqueid": "w36067480:a56113410", "current_trial": 71, "dateTime": 1664464092655, "trialdata": {"rt": 610, "stimulus": "<p id='stroop-text' class='stroop-blue'>BLUE</p>", "response": "b", "stimulus-type": "congruent", "word": "blue", "color": "blue", "correct_response": "b", "trial_id": "stroop-trial-1-congruent-18", "trial_type": "html-keyboard-response", "trial_index": 71, "time_elapsed": 178184, "internal_node_id": "0.0-4.0-67.0"}}, {"uniqueid": "w36067480:a56113410", "current_trial": 72, "dateTime": 1664464093782, "trialdata": {"rt": 618, "stimulus": "<p id='stroop-text' class='stroop-green'>CHAIR</p>", "response": "g", "stimulus-type": "unrelated", "word": "CHAIR", "color": "green", "correct_response": "g", "trial_id": "stroop-trial-1-unrelated-17", "trial_type": "html-keyboard-response", "trial_index": 72, "time_elapsed": 179311, "internal_node_id": "0.0-4.0-68.0"}}, {"uniqueid": "w36067480:a56113410", "current_trial": 73, "dateTime": 1664464094864, "trialdata": {"rt": 576, "stimulus": "<p id='stroop-text' class='stroop-red'>RED</p>", "response": "r", "stimulus-type": "congruent", "word": "red", "color": "red", "correct_response": "r", "trial_id": "stroop-trial-1-congruent-2", "trial_type": "html-keyboard-response", "trial_index": 73, "time_elapsed": 180393, "internal_node_id": "0.0-4.0-69.0"}}, {"uniqueid": "w36067480:a56113410", "current_trial": 74, "dateTime": 1664464096351, "trialdata": {"rt": 969, "stimulus": "<p id='stroop-text' class='stroop-blue'>SHIP</p>", "response": "b", "stimulus-type": "unrelated", "word": "SHIP", "color": "blue", "correct_response": "b", "trial_id": "stroop-trial-1-unrelated-12", "trial_type": "html-keyboard-response", "trial_index": 74, "time_elapsed": 181879, "internal_node_id": "0.0-4.0-70.0"}}, {"uniqueid": "w36067480:a56113410", "current_trial": 75, "dateTime": 1664464097342, "trialdata": {"rt": 480, "stimulus": "<p id='stroop-text' class='stroop-blue'>RED</p>", "response": "b", "stimulus-type": "incongruent", "word": "red", "color": "blue", "correct_response": "b", "trial_id": "stroop-trial-1-incongruent-15", "trial_type": "html-keyboard-response", "trial_index": 75, "time_elapsed": 182871, "internal_node_id": "0.0-4.0-71.0"}}, {"uniqueid": "w36067480:a56113410", "current_trial": 76, "dateTime": 1664464098739, "trialdata": {"rt": 882, "stimulus": "<p id='stroop-text' class='stroop-red'>RED</p>", "response": "r", "stimulus-type": "congruent", "word": "red", "color": "red", "correct_response": "r", "trial_id": "stroop-trial-1-congruent-14", "trial_type": "html-keyboard-response", "trial_index": 76, "time_elapsed": 184268, "internal_node_id": "0.0-4.0-72.0"}}, {"uniqueid": "w36067480:a56113410", "current_trial": 77, "dateTime": 1664464099831, "trialdata": {"rt": 587, "stimulus": "<p id='stroop-text' class='stroop-red'>YELLOW</p>", "response": "r", "stimulus-type": "incongruent", "word": "yellow", "color": "red", "correct_response": "r", "trial_id": "stroop-trial-1-incongruent-24", "trial_type": "html-keyboard-response", "trial_index": 77, "time_elapsed": 185360, "internal_node_id": "0.0-4.0-73.0"}}, {"uniqueid": "w36067480:a56113410", "current_trial": 78, "dateTime": 1664464101139, "trialdata": {"rt": 804, "stimulus": "<p id='stroop-text' class='stroop-yellow'>BLUE</p>", "response": "y", "stimulus-type": "incongruent", "word": "blue", "color": "yellow", "correct_response": "y", "trial_id": "stroop-trial-1-incongruent-9", "trial_type": "html-keyboard-response", "trial_index": 78, "time_elapsed": 186667, "internal_node_id": "0.0-4.0-74.0"}}, {"uniqueid": "w36067480:a56113410", "current_trial": 79, "dateTime": 1664464102264, "trialdata": {"rt": 613, "stimulus": "<p id='stroop-text' class='stroop-yellow'>BOAT</p>", "response": "y", "stimulus-type": "unrelated", "word": "BOAT", "color": "yellow", "correct_response": "y", "trial_id": "stroop-trial-1-unrelated-16", "trial_type": "html-keyboard-response", "trial_index": 79, "time_elapsed": 187793, "internal_node_id": "0.0-4.0-75.0"}}, {"uniqueid": "w36067480:a56113410", "current_trial": 80, "dateTime": 1664464103256, "trialdata": {"rt": 485, "stimulus": "<p id='stroop-text' class='stroop-yellow'>YELLOW</p>", "response": "y", "stimulus-type": "congruent", "word": "yellow", "color": "yellow", "correct_response": "y", "trial_id": "stroop-trial-1-congruent-11", "trial_type": "html-keyboard-response", "trial_index": 80, "time_elapsed": 188785, "internal_node_id": "0.0-4.0-76.0"}}, {"uniqueid": "w36067480:a56113410", "current_trial": 81, "dateTime": 1664464104832, "trialdata": {"rt": 1061, "stimulus": "<p id='stroop-text' class='stroop-red'>GREEN</p>", "response": "r", "stimulus-type": "incongruent", "word": "green", "color": "red", "correct_response": "r", "trial_id": "stroop-trial-1-incongruent-12", "trial_type": "html-keyboard-response", "trial_index": 81, "time_elapsed": 190360, "internal_node_id": "0.0-4.0-77.0"}}, {"uniqueid": "w36067480:a56113410", "current_trial": 82, "dateTime": 1664464106052, "trialdata": {"rt": 715, "stimulus": "<p id='stroop-text' class='stroop-green'>GREEN</p>", "response": "g", "stimulus-type": "congruent", "word": "green", "color": "green", "correct_response": "g", "trial_id": "stroop-trial-1-congruent-26", "trial_type": "html-keyboard-response", "trial_index": 82, "time_elapsed": 191580, "internal_node_id": "0.0-4.0-78.0"}}, {"uniqueid": "w36067480:a56113410", "current_trial": 83, "dateTime": 1664464107266, "trialdata": {"rt": 699, "stimulus": "<p id='stroop-text' class='stroop-red'>BLUE</p>", "response": "r", "stimulus-type": "incongruent", "word": "blue", "color": "red", "correct_response": "r", "trial_id": "stroop-trial-1-incongruent-1", "trial_type": "html-keyboard-response", "trial_index": 83, "time_elapsed": 192795, "internal_node_id": "0.0-4.0-79.0"}}, {"uniqueid": "w36067480:a56113410", "current_trial": 84, "dateTime": 1664464108618, "trialdata": {"rt": 845, "stimulus": "<p id='stroop-text' class='stroop-green'>YELLOW</p>", "response": "g", "stimulus-type": "incongruent", "word": "yellow", "color": "green", "correct_response": "g", "trial_id": "stroop-trial-1-incongruent-19", "trial_type": "html-keyboard-response", "trial_index": 84, "time_elapsed": 194146, "internal_node_id": "0.0-4.0-80.0"}}, {"uniqueid": "w36067480:a56113410", "current_trial": 85, "dateTime": 1664464109655, "trialdata": {"rt": 527, "stimulus": "<p id='stroop-text' class='stroop-green'>GREEN</p>", "response": "g", "stimulus-type": "congruent", "word": "green", "color": "green", "correct_response": "g", "trial_id": "stroop-trial-1-congruent-29", "trial_type": "html-keyboard-response", "trial_index": 85, "time_elapsed": 195184, "internal_node_id": "0.0-4.0-81.0"}}, {"uniqueid": "w36067480:a56113410", "current_trial": 86, "dateTime": 1664464110737, "trialdata": {"rt": 575, "stimulus": "<p id='stroop-text' class='stroop-red'>RED</p>", "response": "r", "stimulus-type": "congruent", "word": "red", "color": "red", "correct_response": "r", "trial_id": "stroop-trial-1-congruent-16", "trial_type": "html-keyboard-response", "trial_index": 86, "time_elapsed": 196265, "internal_node_id": "0.0-4.0-82.0"}}, {"uniqueid": "w36067480:a56113410", "current_trial": 87, "dateTime": 1664464111864, "trialdata": {"rt": 617, "stimulus": "<p id='stroop-text' class='stroop-blue'>YELLOW</p>", "response": "b", "stimulus-type": "incongruent", "word": "yellow", "color": "blue", "correct_response": "b", "trial_id": "stroop-trial-1-incongruent-25", "trial_type": "html-keyboard-response", "trial_index": 87, "time_elapsed": 197392, "internal_node_id": "0.0-4.0-83.0"}}, {"uniqueid": "w36067480:a56113410", "current_trial": 88, "dateTime": 1664464112856, "trialdata": {"rt": 481, "stimulus": "<p id='stroop-text' class='stroop-blue'>RED</p>", "response": "b", "stimulus-type": "incongruent", "word": "red", "color": "blue", "correct_response": "b", "trial_id": "stroop-trial-1-incongruent-13", "trial_type": "html-keyboard-response", "trial_index": 88, "time_elapsed": 198385, "internal_node_id": "0.0-4.0-84.0"}}, {"uniqueid": "w36067480:a56113410", "current_trial": 89, "dateTime": 1664464114027, "trialdata": {"rt": 663, "stimulus": "<p id='stroop-text' class='stroop-yellow'>BRIDGE</p>", "response": "y", "stimulus-type": "unrelated", "word": "BRIDGE", "color": "yellow", "correct_response": "y", "trial_id": "stroop-trial-1-unrelated-21", "trial_type": "html-keyboard-response", "trial_index": 89, "time_elapsed": 199556, "internal_node_id": "0.0-4.0-85.0"}}, {"uniqueid": "w36067480:a56113410", "current_trial": 90, "dateTime": 1664464115289, "trialdata": {"rt": 744, "stimulus": "<p id='stroop-text' class='stroop-red'>SHIP</p>", "response": "r", "stimulus-type": "unrelated", "word": "SHIP", "color": "red", "correct_response": "r", "trial_id": "stroop-trial-1-unrelated-2", "trial_type": "html-keyboard-response", "trial_index": 90, "time_elapsed": 200818, "internal_node_id": "0.0-4.0-86.0"}}, {"uniqueid": "w36067480:a56113410", "current_trial": 91, "dateTime": 1664464116775, "trialdata": {"rt": 982, "stimulus": "<p id='stroop-text' class='stroop-blue'>GREEN</p>", "response": "g", "stimulus-type": "incongruent", "word": "green", "color": "blue", "correct_response": "b", "trial_id": "stroop-trial-1-incongruent-26", "trial_type": "html-keyboard-response", "trial_index": 91, "time_elapsed": 202304, "internal_node_id": "0.0-4.0-87.0"}}, {"uniqueid": "w36067480:a56113410", "current_trial": 92, "dateTime": 1664464120513, "trialdata": {"rt": 3223, "stimulus": "<p id='stroop-text' class='stroop-green'>BOAT</p>", "response": "g", "stimulus-type": "unrelated", "word": "BOAT", "color": "green", "correct_response": "g", "trial_id": "stroop-trial-1-unrelated-29", "trial_type": "html-keyboard-response", "trial_index": 92, "time_elapsed": 206041, "internal_node_id": "0.0-4.0-88.0"}}, {"uniqueid": "w36067480:a56113410", "current_trial": 93, "dateTime": 1664464121774, "trialdata": {"rt": 745, "stimulus": "<p id='stroop-text' class='stroop-red'>DOG</p>", "response": "r", "stimulus-type": "unrelated", "word": "DOG", "color": "red", "correct_response": "r", "trial_id": "stroop-trial-1-unrelated-22", "trial_type": "html-keyboard-response", "trial_index": 93, "time_elapsed": 207302, "internal_node_id": "0.0-4.0-89.0"}}, {"uniqueid": "w36067480:a56113410", "current_trial": 94, "dateTime": 1664464139146, "trialdata": {"rt": 16853, "stimulus": "  <h1> End of block! </h1>\n\n  You have reached the end of the block 1/5. If you need a short break, feel free to take one now before moving on.\n\n  <br><br>\n  In the next block, you will complete another 90 rounds of this game.\n\n  <br><br>\n  <div style='text-align: center;'>Press <code>space</code> to begin.</div>\n  <br><br>\n<div style='text-align: center;'>(If the experiment doesn't continue, try clicking on the text and then pressing <code>space</code>.)</div>", "response": " ", "trial_id": "stroop_1_ready_2", "trial_type": "html-keyboard-response", "trial_index": 94, "time_elapsed": 224675, "internal_node_id": "0.0-5.0"}}, {"uniqueid": "w36067480:a56113410", "current_trial": 95, "dateTime": 1664464140633, "trialdata": {"rt": 1484, "stimulus": "<p id='stroop-text' class='stroop-blue'>BLUE</p>", "response": "b", "stimulus-type": "congruent", "word": "blue", "color": "blue", "correct_response": "b", "trial_id": "stroop-trial-1-congruent-8", "trial_type": "html-keyboard-response", "trial_index": 95, "time_elapsed": 226162, "internal_node_id": "0.0-6.0-0.0"}}, {"uniqueid": "w36067480:a56113410", "current_trial": 96, "dateTime": 1664464141895, "trialdata": {"rt": 743, "stimulus": "<p id='stroop-text' class='stroop-green'>YELLOW</p>", "response": "g", "stimulus-type": "incongruent", "word": "yellow", "color": "green", "correct_response": "g", "trial_id": "stroop-trial-1-incongruent-14", "trial_type": "html-keyboard-response", "trial_index": 96, "time_elapsed": 227423, "internal_node_id": "0.0-6.0-1.0"}}, {"uniqueid": "w36067480:a56113410", "current_trial": 97, "dateTime": 1664464143020, "trialdata": {"rt": 609, "stimulus": "<p id='stroop-text' class='stroop-blue'>BLUE</p>", "response": "b", "stimulus-type": "congruent", "word": "blue", "color": "blue", "correct_response": "b", "trial_id": "stroop-trial-1-congruent-29", "trial_type": "html-keyboard-response", "trial_index": 97, "time_elapsed": 228549, "internal_node_id": "0.0-6.0-2.0"}}, {"uniqueid": "w36067480:a56113410", "current_trial": 98, "dateTime": 1664464144283, "trialdata": {"rt": 758, "stimulus": "<p id='stroop-text' class='stroop-yellow'>STONE</p>", "response": "y", "stimulus-type": "unrelated", "word": "STONE", "color": "yellow", "correct_response": "y", "trial_id": "stroop-trial-1-unrelated-1", "trial_type": "html-keyboard-response", "trial_index": 98, "time_elapsed": 229811, "internal_node_id": "0.0-6.0-3.0"}}, {"uniqueid": "w36067480:a56113410", "current_trial": 99, "dateTime": 1664464145363, "trialdata": {"rt": 565, "stimulus": "<p id='stroop-text' class='stroop-yellow'>YELLOW</p>", "response": "y", "stimulus-type": "congruent", "word": "yellow", "color": "yellow", "correct_response": "y", "trial_id": "stroop-trial-1-congruent-24", "trial_type": "html-keyboard-response", "trial_index": 99, "time_elapsed": 230892, "internal_node_id": "0.0-6.0-4.0"}}, {"uniqueid": "w36067480:a56113410", "current_trial": 100, "dateTime": 1664464147671, "trialdata": {"rt": 1800, "stimulus": "<p id='stroop-text' class='stroop-blue'>GREEN</p>", "response": "b", "stimulus-type": "incongruent", "word": "green", "color": "blue", "correct_response": "b", "trial_id": "stroop-trial-1-incongruent-4", "trial_type": "html-keyboard-response", "trial_index": 100, "time_elapsed": 233199, "internal_node_id": "0.0-6.0-5.0"}}, {"uniqueid": "w36067480:a56113410", "current_trial": 101, "dateTime": 1664464149023, "trialdata": {"rt": 844, "stimulus": "<p id='stroop-text' class='stroop-yellow'>RED</p>", "response": "y", "stimulus-type": "incongruent", "word": "red", "color": "yellow", "correct_response": "y", "trial_id": "stroop-trial-1-incongruent-27", "trial_type": "html-keyboard-response", "trial_index": 101, "time_elapsed": 234552, "internal_node_id": "0.0-6.0-6.0"}}, {"uniqueid": "w36067480:a56113410", "current_trial": 102, "dateTime": 1664464150103, "trialdata": {"rt": 549, "stimulus": "<p id='stroop-text' class='stroop-blue'>BLUE</p>", "response": "b", "stimulus-type": "congruent", "word": "blue", "color": "blue", "correct_response": "b", "trial_id": "stroop-trial-1-congruent-28", "trial_type": "html-keyboard-response", "trial_index": 102, "time_elapsed": 235632, "internal_node_id": "0.0-6.0-7.0"}}, {"uniqueid": "w36067480:a56113410", "current_trial": 103, "dateTime": 1664464151185, "trialdata": {"rt": 575, "stimulus": "<p id='stroop-text' class='stroop-blue'>GREEN</p>", "response": "b", "stimulus-type": "incongruent", "word": "green", "color": "blue", "correct_response": "b", "trial_id": "stroop-trial-1-incongruent-21", "trial_type": "html-keyboard-response", "trial_index": 103, "time_elapsed": 236714, "internal_node_id": "0.0-6.0-8.0"}}, {"uniqueid": "w36067480:a56113410", "current_trial": 104, "dateTime": 1664464152626, "trialdata": {"rt": 925, "stimulus": "<p id='stroop-text' class='stroop-yellow'>RED</p>", "response": "y", "stimulus-type": "incongruent", "word": "red", "color": "yellow", "correct_response": "y", "trial_id": "stroop-trial-1-incongruent-17", "trial_type": "html-keyboard-response", "trial_index": 104, "time_elapsed": 238155, "internal_node_id": "0.0-6.0-9.0"}}, {"uniqueid": "w36067480:a56113410", "current_trial": 105, "dateTime": 1664464154067, "trialdata": {"rt": 936, "stimulus": "<p id='stroop-text' class='stroop-green'>BRIDGE</p>", "response": "g", "stimulus-type": "unrelated", "word": "BRIDGE", "color": "green", "correct_response": "g", "trial_id": "stroop-trial-1-unrelated-9", "trial_type": "html-keyboard-response", "trial_index": 105, "time_elapsed": 239596, "internal_node_id": "0.0-6.0-10.0"}}, {"uniqueid": "w36067480:a56113410", "current_trial": 106, "dateTime": 1664464155509, "trialdata": {"rt": 936, "stimulus": "<p id='stroop-text' class='stroop-yellow'>WINDOW</p>", "response": "y", "stimulus-type": "unrelated", "word": "WINDOW", "color": "yellow", "correct_response": "y", "trial_id": "stroop-trial-1-unrelated-14", "trial_type": "html-keyboard-response", "trial_index": 106, "time_elapsed": 241038, "internal_node_id": "0.0-6.0-11.0"}}, {"uniqueid": "w36067480:a56113410", "current_trial": 107, "dateTime": 1664464157402, "trialdata": {"rt": 1386, "stimulus": "<p id='stroop-text' class='stroop-blue'>GREEN</p>", "response": "b", "stimulus-type": "incongruent", "word": "green", "color": "blue", "correct_response": "b", "trial_id": "stroop-trial-1-incongruent-15", "trial_type": "html-keyboard-response", "trial_index": 107, "time_elapsed": 242930, "internal_node_id": "0.0-6.0-12.0"}}, {"uniqueid": "w36067480:a56113410", "current_trial": 108, "dateTime": 1664464158932, "trialdata": {"rt": 1015, "stimulus": "<p id='stroop-text' class='stroop-yellow'>BRIDGE</p>", "response": "y", "stimulus-type": "unrelated", "word": "BRIDGE", "color": "yellow", "correct_response": "y", "trial_id": "stroop-trial-1-unrelated-17", "trial_type": "html-keyboard-response", "trial_index": 108, "time_elapsed": 244461, "internal_node_id": "0.0-6.0-13.0"}}, {"uniqueid": "w36067480:a56113410", "current_trial": 109, "dateTime": 1664464160508, "trialdata": {"rt": 1073, "stimulus": "<p id='stroop-text' class='stroop-green'>BOTTLE</p>", "response": "g", "stimulus-type": "unrelated", "word": "BOTTLE", "color": "green", "correct_response": "g", "trial_id": "stroop-trial-1-unrelated-10", "trial_type": "html-keyboard-response", "trial_index": 109, "time_elapsed": 246037, "internal_node_id": "0.0-6.0-14.0"}}, {"uniqueid": "w36067480:a56113410", "current_trial": 110, "dateTime": 1664464161680, "trialdata": {"rt": 656, "stimulus": "<p id='stroop-text' class='stroop-green'>MONKEY</p>", "response": "g", "stimulus-type": "unrelated", "word": "MONKEY", "color": "green", "correct_response": "g", "trial_id": "stroop-trial-1-unrelated-26", "trial_type": "html-keyboard-response", "trial_index": 110, "time_elapsed": 247208, "internal_node_id": "0.0-6.0-15.0"}}, {"uniqueid": "w36067480:a56113410", "current_trial": 111, "dateTime": 1664464162717, "trialdata": {"rt": 524, "stimulus": "<p id='stroop-text' class='stroop-green'>BLUE</p>", "response": "g", "stimulus-type": "incongruent", "word": "blue", "color": "green", "correct_response": "g", "trial_id": "stroop-trial-1-incongruent-12", "trial_type": "html-keyboard-response", "trial_index": 111, "time_elapsed": 248246, "internal_node_id": "0.0-6.0-16.0"}}, {"uniqueid": "w36067480:a56113410", "current_trial": 112, "dateTime": 1664464163753, "trialdata": {"rt": 534, "stimulus": "<p id='stroop-text' class='stroop-green'>BOTTLE</p>", "response": "g", "stimulus-type": "unrelated", "word": "BOTTLE", "color": "green", "correct_response": "g", "trial_id": "stroop-trial-1-unrelated-4", "trial_type": "html-keyboard-response", "trial_index": 112, "time_elapsed": 249282, "internal_node_id": "0.0-6.0-17.0"}}, {"uniqueid": "w36067480:a56113410", "current_trial": 113, "dateTime": 1664464164746, "trialdata": {"rt": 484, "stimulus": "<p id='stroop-text' class='stroop-green'>GREEN</p>", "response": "g", "stimulus-type": "congruent", "word": "green", "color": "green", "correct_response": "g", "trial_id": "stroop-trial-1-congruent-16", "trial_type": "html-keyboard-response", "trial_index": 113, "time_elapsed": 250274, "internal_node_id": "0.0-6.0-18.0"}}, {"uniqueid": "w36067480:a56113410", "current_trial": 114, "dateTime": 1664464165783, "trialdata": {"rt": 524, "stimulus": "<p id='stroop-text' class='stroop-green'>YELLOW</p>", "response": "g", "stimulus-type": "incongruent", "word": "yellow", "color": "green", "correct_response": "g", "trial_id": "stroop-trial-1-incongruent-19", "trial_type": "html-keyboard-response", "trial_index": 114, "time_elapsed": 251311, "internal_node_id": "0.0-6.0-19.0"}}, {"uniqueid": "w36067480:a56113410", "current_trial": 115, "dateTime": 1664464166774, "trialdata": {"rt": 481, "stimulus": "<p id='stroop-text' class='stroop-green'>GREEN</p>", "response": "g", "stimulus-type": "congruent", "word": "green", "color": "green", "correct_response": "g", "trial_id": "stroop-trial-1-congruent-14", "trial_type": "html-keyboard-response", "trial_index": 115, "time_elapsed": 252303, "internal_node_id": "0.0-6.0-20.0"}}, {"uniqueid": "w36067480:a56113410", "current_trial": 116, "dateTime": 1664464167721, "trialdata": {"rt": 429, "stimulus": "<p id='stroop-text' class='stroop-green'>MONKEY</p>", "response": "g", "stimulus-type": "unrelated", "word": "MONKEY", "color": "green", "correct_response": "g", "trial_id": "stroop-trial-1-unrelated-28", "trial_type": "html-keyboard-response", "trial_index": 116, "time_elapsed": 253249, "internal_node_id": "0.0-6.0-21.0"}}, {"uniqueid": "w36067480:a56113410", "current_trial": 117, "dateTime": 1664464169028, "trialdata": {"rt": 790, "stimulus": "<p id='stroop-text' class='stroop-yellow'>YELLOW</p>", "response": "y", "stimulus-type": "congruent", "word": "yellow", "color": "yellow", "correct_response": "y", "trial_id": "stroop-trial-1-congruent-18", "trial_type": "html-keyboard-response", "trial_index": 117, "time_elapsed": 254557, "internal_node_id": "0.0-6.0-22.0"}}, {"uniqueid": "w36067480:a56113410", "current_trial": 118, "dateTime": 1664464170288, "trialdata": {"rt": 748, "stimulus": "<p id='stroop-text' class='stroop-green'>GREEN</p>", "response": "g", "stimulus-type": "congruent", "word": "green", "color": "green", "correct_response": "g", "trial_id": "stroop-trial-1-congruent-3", "trial_type": "html-keyboard-response", "trial_index": 118, "time_elapsed": 255817, "internal_node_id": "0.0-6.0-23.0"}}, {"uniqueid": "w36067480:a56113410", "current_trial": 119, "dateTime": 1664464171417, "trialdata": {"rt": 610, "stimulus": "<p id='stroop-text' class='stroop-blue'>YELLOW</p>", "response": "b", "stimulus-type": "incongruent", "word": "yellow", "color": "blue", "correct_response": "b", "trial_id": "stroop-trial-1-incongruent-30", "trial_type": "html-keyboard-response", "trial_index": 119, "time_elapsed": 256946, "internal_node_id": "0.0-6.0-24.0"}}, {"uniqueid": "w36067480:a56113410", "current_trial": 120, "dateTime": 1664464172407, "trialdata": {"rt": 486, "stimulus": "<p id='stroop-text' class='stroop-blue'>BLUE</p>", "response": "b", "stimulus-type": "congruent", "word": "blue", "color": "blue", "correct_response": "b", "trial_id": "stroop-trial-1-congruent-10", "trial_type": "html-keyboard-response", "trial_index": 120, "time_elapsed": 257936, "internal_node_id": "0.0-6.0-25.0"}}, {"uniqueid": "w36067480:a56113410", "current_trial": 121, "dateTime": 1664464173578, "trialdata": {"rt": 661, "stimulus": "<p id='stroop-text' class='stroop-red'>YELLOW</p>", "response": "r", "stimulus-type": "incongruent", "word": "yellow", "color": "red", "correct_response": "r", "trial_id": "stroop-trial-1-incongruent-1", "trial_type": "html-keyboard-response", "trial_index": 121, "time_elapsed": 259107, "internal_node_id": "0.0-6.0-26.0"}}, {"uniqueid": "w36067480:a56113410", "current_trial": 122, "dateTime": 1664464174580, "trialdata": {"rt": 487, "stimulus": "<p id='stroop-text' class='stroop-red'>GREEN</p>", "response": "r", "stimulus-type": "incongruent", "word": "green", "color": "red", "correct_response": "r", "trial_id": "stroop-trial-1-incongruent-9", "trial_type": "html-keyboard-response", "trial_index": 122, "time_elapsed": 260109, "internal_node_id": "0.0-6.0-27.0"}}, {"uniqueid": "w36067480:a56113410", "current_trial": 123, "dateTime": 1664464177597, "trialdata": {"rt": 2508, "stimulus": "<p id='stroop-text' class='stroop-green'>GREEN</p>", "response": "g", "stimulus-type": "congruent", "word": "green", "color": "green", "correct_response": "g", "trial_id": "stroop-trial-1-congruent-9", "trial_type": "html-keyboard-response", "trial_index": 123, "time_elapsed": 263126, "internal_node_id": "0.0-6.0-28.0"}}, {"uniqueid": "w36067480:a56113410", "current_trial": 124, "dateTime": 1664464178595, "trialdata": {"rt": 493, "stimulus": "<p id='stroop-text' class='stroop-green'>GREEN</p>", "response": "g", "stimulus-type": "congruent", "word": "green", "color": "green", "correct_response": "g", "trial_id": "stroop-trial-1-congruent-23", "trial_type": "html-keyboard-response", "trial_index": 124, "time_elapsed": 264124, "internal_node_id": "0.0-6.0-29.0"}}, {"uniqueid": "w36067480:a56113410", "current_trial": 125, "dateTime": 1664464179985, "trialdata": {"rt": 884, "stimulus": "<p id='stroop-text' class='stroop-yellow'>GREEN</p>", "response": "y", "stimulus-type": "incongruent", "word": "green", "color": "yellow", "correct_response": "y", "trial_id": "stroop-trial-1-incongruent-5", "trial_type": "html-keyboard-response", "trial_index": 125, "time_elapsed": 265514, "internal_node_id": "0.0-6.0-30.0"}}, {"uniqueid": "w36067480:a56113410", "current_trial": 126, "dateTime": 1664464181157, "trialdata": {"rt": 661, "stimulus": "<p id='stroop-text' class='stroop-blue'>YELLOW</p>", "response": "b", "stimulus-type": "incongruent", "word": "yellow", "color": "blue", "correct_response": "b", "trial_id": "stroop-trial-1-incongruent-7", "trial_type": "html-keyboard-response", "trial_index": 126, "time_elapsed": 266685, "internal_node_id": "0.0-6.0-31.0"}}, {"uniqueid": "w36067480:a56113410", "current_trial": 127, "dateTime": 1664464182103, "trialdata": {"rt": 438, "stimulus": "<p id='stroop-text' class='stroop-blue'>WINDOW</p>", "response": "b", "stimulus-type": "unrelated", "word": "WINDOW", "color": "blue", "correct_response": "b", "trial_id": "stroop-trial-1-unrelated-16", "trial_type": "html-keyboard-response", "trial_index": 127, "time_elapsed": 267632, "internal_node_id": "0.0-6.0-32.0"}}, {"uniqueid": "w36067480:a56113410", "current_trial": 128, "dateTime": 1664464183276, "trialdata": {"rt": 668, "stimulus": "<p id='stroop-text' class='stroop-red'>BRAIN</p>", "response": "r", "stimulus-type": "unrelated", "word": "BRAIN", "color": "red", "correct_response": "r", "trial_id": "stroop-trial-1-unrelated-30", "trial_type": "html-keyboard-response", "trial_index": 128, "time_elapsed": 268804, "internal_node_id": "0.0-6.0-33.0"}}, {"uniqueid": "w36067480:a56113410", "current_trial": 129, "dateTime": 1664464185211, "trialdata": {"rt": 1417, "stimulus": "<p id='stroop-text' class='stroop-blue'>YELLOW</p>", "response": "b", "stimulus-type": "incongruent", "word": "yellow", "color": "blue", "correct_response": "b", "trial_id": "stroop-trial-1-incongruent-2", "trial_type": "html-keyboard-response", "trial_index": 129, "time_elapsed": 270740, "internal_node_id": "0.0-6.0-34.0"}}, {"uniqueid": "w36067480:a56113410", "current_trial": 130, "dateTime": 1664464186338, "trialdata": {"rt": 623, "stimulus": "<p id='stroop-text' class='stroop-green'>YELLOW</p>", "response": "g", "stimulus-type": "incongruent", "word": "yellow", "color": "green", "correct_response": "g", "trial_id": "stroop-trial-1-incongruent-29", "trial_type": "html-keyboard-response", "trial_index": 130, "time_elapsed": 271866, "internal_node_id": "0.0-6.0-35.0"}}, {"uniqueid": "w36067480:a56113410", "current_trial": 131, "dateTime": 1664464187376, "trialdata": {"rt": 527, "stimulus": "<p id='stroop-text' class='stroop-green'>RED</p>", "response": "g", "stimulus-type": "incongruent", "word": "red", "color": "green", "correct_response": "g", "trial_id": "stroop-trial-1-incongruent-23", "trial_type": "html-keyboard-response", "trial_index": 131, "time_elapsed": 272905, "internal_node_id": "0.0-6.0-36.0"}}, {"uniqueid": "w36067480:a56113410", "current_trial": 132, "dateTime": 1664464188591, "trialdata": {"rt": 698, "stimulus": "<p id='stroop-text' class='stroop-blue'>BLUE</p>", "response": "b", "stimulus-type": "congruent", "word": "blue", "color": "blue", "correct_response": "b", "trial_id": "stroop-trial-1-congruent-12", "trial_type": "html-keyboard-response", "trial_index": 132, "time_elapsed": 274119, "internal_node_id": "0.0-6.0-37.0"}}, {"uniqueid": "w36067480:a56113410", "current_trial": 133, "dateTime": 1664464189582, "trialdata": {"rt": 480, "stimulus": "<p id='stroop-text' class='stroop-blue'>GREEN</p>", "response": "b", "stimulus-type": "incongruent", "word": "green", "color": "blue", "correct_response": "b", "trial_id": "stroop-trial-1-incongruent-16", "trial_type": "html-keyboard-response", "trial_index": 133, "time_elapsed": 275111, "internal_node_id": "0.0-6.0-38.0"}}, {"uniqueid": "w36067480:a56113410", "current_trial": 134, "dateTime": 1664464190530, "trialdata": {"rt": 442, "stimulus": "<p id='stroop-text' class='stroop-blue'>YELLOW</p>", "response": "b", "stimulus-type": "incongruent", "word": "yellow", "color": "blue", "correct_response": "b", "trial_id": "stroop-trial-1-incongruent-6", "trial_type": "html-keyboard-response", "trial_index": 134, "time_elapsed": 276059, "internal_node_id": "0.0-6.0-39.0"}}, {"uniqueid": "w36067480:a56113410", "current_trial": 135, "dateTime": 1664464191701, "trialdata": {"rt": 669, "stimulus": "<p id='stroop-text' class='stroop-red'>BLUE</p>", "response": "r", "stimulus-type": "incongruent", "word": "blue", "color": "red", "correct_response": "r", "trial_id": "stroop-trial-1-incongruent-18", "trial_type": "html-keyboard-response", "trial_index": 135, "time_elapsed": 277230, "internal_node_id": "0.0-6.0-40.0"}}, {"uniqueid": "w36067480:a56113410", "current_trial": 136, "dateTime": 1664464193098, "trialdata": {"rt": 892, "stimulus": "<p id='stroop-text' class='stroop-green'>GREEN</p>", "response": "g", "stimulus-type": "congruent", "word": "green", "color": "green", "correct_response": "g", "trial_id": "stroop-trial-1-congruent-30", "trial_type": "html-keyboard-response", "trial_index": 136, "time_elapsed": 278626, "internal_node_id": "0.0-6.0-41.0"}}, {"uniqueid": "w36067480:a56113410", "current_trial": 137, "dateTime": 1664464194269, "trialdata": {"rt": 653, "stimulus": "<p id='stroop-text' class='stroop-red'>GREEN</p>", "response": "r", "stimulus-type": "incongruent", "word": "green", "color": "red", "correct_response": "r", "trial_id": "stroop-trial-1-incongruent-26", "trial_type": "html-keyboard-response", "trial_index": 137, "time_elapsed": 279798, "internal_node_id": "0.0-6.0-42.0"}}, {"uniqueid": "w36067480:a56113410", "current_trial": 138, "dateTime": 1664464195543, "trialdata": {"rt": 766, "stimulus": "<p id='stroop-text' class='stroop-blue'>BLUE</p>", "response": "b", "stimulus-type": "congruent", "word": "blue", "color": "blue", "correct_response": "b", "trial_id": "stroop-trial-1-congruent-15", "trial_type": "html-keyboard-response", "trial_index": 138, "time_elapsed": 281071, "internal_node_id": "0.0-6.0-43.0"}}, {"uniqueid": "w36067480:a56113410", "current_trial": 139, "dateTime": 1664464196669, "trialdata": {"rt": 613, "stimulus": "<p id='stroop-text' class='stroop-green'>DOG</p>", "response": "g", "stimulus-type": "unrelated", "word": "DOG", "color": "green", "correct_response": "g", "trial_id": "stroop-trial-1-unrelated-8", "trial_type": "html-keyboard-response", "trial_index": 139, "time_elapsed": 282198, "internal_node_id": "0.0-6.0-44.0"}}, {"uniqueid": "w36067480:a56113410", "current_trial": 140, "dateTime": 1664464197977, "trialdata": {"rt": 801, "stimulus": "<p id='stroop-text' class='stroop-yellow'>RED</p>", "response": "y", "stimulus-type": "incongruent", "word": "red", "color": "yellow", "correct_response": "y", "trial_id": "stroop-trial-1-incongruent-25", "trial_type": "html-keyboard-response", "trial_index": 140, "time_elapsed": 283505, "internal_node_id": "0.0-6.0-45.0"}}, {"uniqueid": "w36067480:a56113410", "current_trial": 141, "dateTime": 1664464199237, "trialdata": {"rt": 752, "stimulus": "<p id='stroop-text' class='stroop-green'>RED</p>", "response": "g", "stimulus-type": "incongruent", "word": "red", "color": "green", "correct_response": "g", "trial_id": "stroop-trial-1-incongruent-10", "trial_type": "html-keyboard-response", "trial_index": 141, "time_elapsed": 284766, "internal_node_id": "0.0-6.0-46.0"}}, {"uniqueid": "w36067480:a56113410", "current_trial": 142, "dateTime": 1664464200318, "trialdata": {"rt": 567, "stimulus": "<p id='stroop-text' class='stroop-blue'>BLUE</p>", "response": "b", "stimulus-type": "congruent", "word": "blue", "color": "blue", "correct_response": "b", "trial_id": "stroop-trial-1-congruent-26", "trial_type": "html-keyboard-response", "trial_index": 142, "time_elapsed": 285847, "internal_node_id": "0.0-6.0-47.0"}}, {"uniqueid": "w36067480:a56113410", "current_trial": 143, "dateTime": 1664464201310, "trialdata": {"rt": 481, "stimulus": "<p id='stroop-text' class='stroop-blue'>BOTTLE</p>", "response": "b", "stimulus-type": "unrelated", "word": "BOTTLE", "color": "blue", "correct_response": "b", "trial_id": "stroop-trial-1-unrelated-6", "trial_type": "html-keyboard-response", "trial_index": 143, "time_elapsed": 286838, "internal_node_id": "0.0-6.0-48.0"}}, {"uniqueid": "w36067480:a56113410", "current_trial": 144, "dateTime": 1664464202527, "trialdata": {"rt": 699, "stimulus": "<p id='stroop-text' class='stroop-yellow'>GREEN</p>", "response": "y", "stimulus-type": "incongruent", "word": "green", "color": "yellow", "correct_response": "y", "trial_id": "stroop-trial-1-incongruent-13", "trial_type": "html-keyboard-response", "trial_index": 144, "time_elapsed": 288056, "internal_node_id": "0.0-6.0-49.0"}}, {"uniqueid": "w36067480:a56113410", "current_trial": 145, "dateTime": 1664464203788, "trialdata": {"rt": 750, "stimulus": "<p id='stroop-text' class='stroop-green'>YELLOW</p>", "response": "g", "stimulus-type": "incongruent", "word": "yellow", "color": "green", "correct_response": "g", "trial_id": "stroop-trial-1-incongruent-28", "trial_type": "html-keyboard-response", "trial_index": 145, "time_elapsed": 289316, "internal_node_id": "0.0-6.0-50.0"}}, {"uniqueid": "w36067480:a56113410", "current_trial": 146, "dateTime": 1664464204960, "trialdata": {"rt": 666, "stimulus": "<p id='stroop-text' class='stroop-blue'>BLUE</p>", "response": "b", "stimulus-type": "congruent", "word": "blue", "color": "blue", "correct_response": "b", "trial_id": "stroop-trial-1-congruent-4", "trial_type": "html-keyboard-response", "trial_index": 146, "time_elapsed": 290489, "internal_node_id": "0.0-6.0-51.0"}}, {"uniqueid": "w36067480:a56113410", "current_trial": 147, "dateTime": 1664464206051, "trialdata": {"rt": 574, "stimulus": "<p id='stroop-text' class='stroop-red'>SHIP</p>", "response": "r", "stimulus-type": "unrelated", "word": "SHIP", "color": "red", "correct_response": "r", "trial_id": "stroop-trial-1-unrelated-12", "trial_type": "html-keyboard-response", "trial_index": 147, "time_elapsed": 291580, "internal_node_id": "0.0-6.0-52.0"}}, {"uniqueid": "w36067480:a56113410", "current_trial": 148, "dateTime": 1664464207673, "trialdata": {"rt": 1107, "stimulus": "<p id='stroop-text' class='stroop-blue'>BRAIN</p>", "response": "b", "stimulus-type": "unrelated", "word": "BRAIN", "color": "blue", "correct_response": "b", "trial_id": "stroop-trial-1-unrelated-29", "trial_type": "html-keyboard-response", "trial_index": 148, "time_elapsed": 293202, "internal_node_id": "0.0-6.0-53.0"}}, {"uniqueid": "w36067480:a56113410", "current_trial": 149, "dateTime": 1664464208668, "trialdata": {"rt": 485, "stimulus": "<p id='stroop-text' class='stroop-blue'>BLUE</p>", "response": "b", "stimulus-type": "congruent", "word": "blue", "color": "blue", "correct_response": "b", "trial_id": "stroop-trial-1-congruent-5", "trial_type": "html-keyboard-response", "trial_index": 149, "time_elapsed": 294197, "internal_node_id": "0.0-6.0-54.0"}}, {"uniqueid": "w36067480:a56113410", "current_trial": 150, "dateTime": 1664464209881, "trialdata": {"rt": 698, "stimulus": "<p id='stroop-text' class='stroop-red'>RED</p>", "response": "r", "stimulus-type": "congruent", "word": "red", "color": "red", "correct_response": "r", "trial_id": "stroop-trial-1-congruent-17", "trial_type": "html-keyboard-response", "trial_index": 150, "time_elapsed": 295410, "internal_node_id": "0.0-6.0-55.0"}}, {"uniqueid": "w36067480:a56113410", "current_trial": 151, "dateTime": 1664464211052, "trialdata": {"rt": 667, "stimulus": "<p id='stroop-text' class='stroop-blue'>WINDOW</p>", "response": "b", "stimulus-type": "unrelated", "word": "WINDOW", "color": "blue", "correct_response": "b", "trial_id": "stroop-trial-1-unrelated-20", "trial_type": "html-keyboard-response", "trial_index": 151, "time_elapsed": 296581, "internal_node_id": "0.0-6.0-56.0"}}, {"uniqueid": "w36067480:a56113410", "current_trial": 152, "dateTime": 1664464212268, "trialdata": {"rt": 713, "stimulus": "<p id='stroop-text' class='stroop-red'>RED</p>", "response": "r", "stimulus-type": "congruent", "word": "red", "color": "red", "correct_response": "r", "trial_id": "stroop-trial-1-congruent-27", "trial_type": "html-keyboard-response", "trial_index": 152, "time_elapsed": 297797, "internal_node_id": "0.0-6.0-57.0"}}, {"uniqueid": "w36067480:a56113410", "current_trial": 153, "dateTime": 1664464213396, "trialdata": {"rt": 601, "stimulus": "<p id='stroop-text' class='stroop-blue'>STONE</p>", "response": "b", "stimulus-type": "unrelated", "word": "STONE", "color": "blue", "correct_response": "b", "trial_id": "stroop-trial-1-unrelated-11", "trial_type": "html-keyboard-response", "trial_index": 153, "time_elapsed": 298924, "internal_node_id": "0.0-6.0-58.0"}}, {"uniqueid": "w36067480:a56113410", "current_trial": 154, "dateTime": 1664464214566, "trialdata": {"rt": 664, "stimulus": "<p id='stroop-text' class='stroop-red'>BLUE</p>", "response": "r", "stimulus-type": "incongruent", "word": "blue", "color": "red", "correct_response": "r", "trial_id": "stroop-trial-1-incongruent-8", "trial_type": "html-keyboard-response", "trial_index": 154, "time_elapsed": 300095, "internal_node_id": "0.0-6.0-59.0"}}, {"uniqueid": "w36067480:a56113410", "current_trial": 155, "dateTime": 1664464215782, "trialdata": {"rt": 710, "stimulus": "<p id='stroop-text' class='stroop-yellow'>MONKEY</p>", "response": "y", "stimulus-type": "unrelated", "word": "MONKEY", "color": "yellow", "correct_response": "y", "trial_id": "stroop-trial-1-unrelated-19", "trial_type": "html-keyboard-response", "trial_index": 155, "time_elapsed": 301311, "internal_node_id": "0.0-6.0-60.0"}}, {"uniqueid": "w36067480:a56113410", "current_trial": 156, "dateTime": 1664464217134, "trialdata": {"rt": 830, "stimulus": "<p id='stroop-text' class='stroop-red'>RED</p>", "response": "r", "stimulus-type": "congruent", "word": "red", "color": "red", "correct_response": "r", "trial_id": "stroop-trial-1-congruent-7", "trial_type": "html-keyboard-response", "trial_index": 156, "time_elapsed": 302662, "internal_node_id": "0.0-6.0-61.0"}}, {"uniqueid": "w36067480:a56113410", "current_trial": 157, "dateTime": 1664464218576, "trialdata": {"rt": 922, "stimulus": "<p id='stroop-text' class='stroop-blue'>CHAIR</p>", "response": "b", "stimulus-type": "unrelated", "word": "CHAIR", "color": "blue", "correct_response": "b", "trial_id": "stroop-trial-1-unrelated-5", "trial_type": "html-keyboard-response", "trial_index": 157, "time_elapsed": 304105, "internal_node_id": "0.0-6.0-62.0"}}, {"uniqueid": "w36067480:a56113410", "current_trial": 158, "dateTime": 1664464219833, "trialdata": {"rt": 755, "stimulus": "<p id='stroop-text' class='stroop-yellow'>SHIP</p>", "response": "y", "stimulus-type": "unrelated", "word": "SHIP", "color": "yellow", "correct_response": "y", "trial_id": "stroop-trial-1-unrelated-24", "trial_type": "html-keyboard-response", "trial_index": 158, "time_elapsed": 305362, "internal_node_id": "0.0-6.0-63.0"}}, {"uniqueid": "w36067480:a56113410", "current_trial": 159, "dateTime": 1664464220976, "trialdata": {"rt": 633, "stimulus": "<p id='stroop-text' class='stroop-red'>RED</p>", "response": "r", "stimulus-type": "congruent", "word": "red", "color": "red", "correct_response": "r", "trial_id": "stroop-trial-1-congruent-13", "trial_type": "html-keyboard-response", "trial_index": 159, "time_elapsed": 306505, "internal_node_id": "0.0-6.0-64.0"}}, {"uniqueid": "w36067480:a56113410", "current_trial": 160, "dateTime": 1664464222192, "trialdata": {"rt": 667, "stimulus": "<p id='stroop-text' class='stroop-red'>MONKEY</p>", "response": "r", "stimulus-type": "unrelated", "word": "MONKEY", "color": "red", "correct_response": "r", "trial_id": "stroop-trial-1-unrelated-25", "trial_type": "html-keyboard-response", "trial_index": 160, "time_elapsed": 307720, "internal_node_id": "0.0-6.0-65.0"}}, {"uniqueid": "w36067480:a56113410", "current_trial": 161, "dateTime": 1664464223273, "trialdata": {"rt": 577, "stimulus": "<p id='stroop-text' class='stroop-red'>BOAT</p>", "response": "r", "stimulus-type": "unrelated", "word": "BOAT", "color": "red", "correct_response": "r", "trial_id": "stroop-trial-1-unrelated-21", "trial_type": "html-keyboard-response", "trial_index": 161, "time_elapsed": 308802, "internal_node_id": "0.0-6.0-66.0"}}, {"uniqueid": "w36067480:a56113410", "current_trial": 162, "dateTime": 1664464224986, "trialdata": {"rt": 1204, "stimulus": "<p id='stroop-text' class='stroop-blue'>BLUE</p>", "response": "b", "stimulus-type": "congruent", "word": "blue", "color": "blue", "correct_response": "b", "trial_id": "stroop-trial-1-congruent-22", "trial_type": "html-keyboard-response", "trial_index": 162, "time_elapsed": 310515, "internal_node_id": "0.0-6.0-67.0"}}, {"uniqueid": "w36067480:a56113410", "current_trial": 163, "dateTime": 1664464226067, "trialdata": {"rt": 570, "stimulus": "<p id='stroop-text' class='stroop-green'>FORK</p>", "response": "g", "stimulus-type": "unrelated", "word": "FORK", "color": "green", "correct_response": "g", "trial_id": "stroop-trial-1-unrelated-18", "trial_type": "html-keyboard-response", "trial_index": 163, "time_elapsed": 311596, "internal_node_id": "0.0-6.0-68.0"}}, {"uniqueid": "w36067480:a56113410", "current_trial": 164, "dateTime": 1664464227417, "trialdata": {"rt": 834, "stimulus": "<p id='stroop-text' class='stroop-yellow'>CHAIR</p>", "response": "y", "stimulus-type": "unrelated", "word": "CHAIR", "color": "yellow", "correct_response": "y", "trial_id": "stroop-trial-1-unrelated-23", "trial_type": "html-keyboard-response", "trial_index": 164, "time_elapsed": 312946, "internal_node_id": "0.0-6.0-69.0"}}, {"uniqueid": "w36067480:a56113410", "current_trial": 165, "dateTime": 1664464229220, "trialdata": {"rt": 1293, "stimulus": "<p id='stroop-text' class='stroop-blue'>MONKEY</p>", "response": "b", "stimulus-type": "unrelated", "word": "MONKEY", "color": "blue", "correct_response": "b", "trial_id": "stroop-trial-1-unrelated-13", "trial_type": "html-keyboard-response", "trial_index": 165, "time_elapsed": 314748, "internal_node_id": "0.0-6.0-70.0"}}, {"uniqueid": "w36067480:a56113410", "current_trial": 166, "dateTime": 1664464230256, "trialdata": {"rt": 520, "stimulus": "<p id='stroop-text' class='stroop-blue'>DOG</p>", "response": "b", "stimulus-type": "unrelated", "word": "DOG", "color": "blue", "correct_response": "b", "trial_id": "stroop-trial-1-unrelated-22", "trial_type": "html-keyboard-response", "trial_index": 166, "time_elapsed": 315784, "internal_node_id": "0.0-6.0-71.0"}}, {"uniqueid": "w36067480:a56113410", "current_trial": 167, "dateTime": 1664464231213, "trialdata": {"rt": 446, "stimulus": "<p id='stroop-text' class='stroop-blue'>BLUE</p>", "response": "b", "stimulus-type": "congruent", "word": "blue", "color": "blue", "correct_response": "b", "trial_id": "stroop-trial-1-congruent-2", "trial_type": "html-keyboard-response", "trial_index": 167, "time_elapsed": 316742, "internal_node_id": "0.0-6.0-72.0"}}, {"uniqueid": "w36067480:a56113410", "current_trial": 168, "dateTime": 1664464232340, "trialdata": {"rt": 620, "stimulus": "<p id='stroop-text' class='stroop-red'>RED</p>", "response": "r", "stimulus-type": "congruent", "word": "red", "color": "red", "correct_response": "r", "trial_id": "stroop-trial-1-congruent-11", "trial_type": "html-keyboard-response", "trial_index": 168, "time_elapsed": 317868, "internal_node_id": "0.0-6.0-73.0"}}, {"uniqueid": "w36067480:a56113410", "current_trial": 169, "dateTime": 1664464233330, "trialdata": {"rt": 484, "stimulus": "<p id='stroop-text' class='stroop-red'>SHIP</p>", "response": "r", "stimulus-type": "unrelated", "word": "SHIP", "color": "red", "correct_response": "r", "trial_id": "stroop-trial-1-unrelated-2", "trial_type": "html-keyboard-response", "trial_index": 169, "time_elapsed": 318859, "internal_node_id": "0.0-6.0-74.0"}}, {"uniqueid": "w36067480:a56113410", "current_trial": 170, "dateTime": 1664464234278, "trialdata": {"rt": 438, "stimulus": "<p id='stroop-text' class='stroop-red'>RED</p>", "response": "r", "stimulus-type": "congruent", "word": "red", "color": "red", "correct_response": "r", "trial_id": "stroop-trial-1-congruent-1", "trial_type": "html-keyboard-response", "trial_index": 170, "time_elapsed": 319806, "internal_node_id": "0.0-6.0-75.0"}}, {"uniqueid": "w36067480:a56113410", "current_trial": 171, "dateTime": 1664464235223, "trialdata": {"rt": 440, "stimulus": "<p id='stroop-text' class='stroop-red'>RED</p>", "response": "r", "stimulus-type": "congruent", "word": "red", "color": "red", "correct_response": "r", "trial_id": "stroop-trial-1-congruent-25", "trial_type": "html-keyboard-response", "trial_index": 171, "time_elapsed": 320752, "internal_node_id": "0.0-6.0-76.0"}}, {"uniqueid": "w36067480:a56113410", "current_trial": 172, "dateTime": 1664464236440, "trialdata": {"rt": 713, "stimulus": "<p id='stroop-text' class='stroop-yellow'>GREEN</p>", "response": "y", "stimulus-type": "incongruent", "word": "green", "color": "yellow", "correct_response": "y", "trial_id": "stroop-trial-1-incongruent-20", "trial_type": "html-keyboard-response", "trial_index": 172, "time_elapsed": 321969, "internal_node_id": "0.0-6.0-77.0"}}, {"uniqueid": "w36067480:a56113410", "current_trial": 173, "dateTime": 1664464237477, "trialdata": {"rt": 527, "stimulus": "<p id='stroop-text' class='stroop-yellow'>GREEN</p>", "response": "y", "stimulus-type": "incongruent", "word": "green", "color": "yellow", "correct_response": "y", "trial_id": "stroop-trial-1-incongruent-22", "trial_type": "html-keyboard-response", "trial_index": 173, "time_elapsed": 323004, "internal_node_id": "0.0-6.0-78.0"}}, {"uniqueid": "w36067480:a56113410", "current_trial": 174, "dateTime": 1664464238783, "trialdata": {"rt": 803, "stimulus": "<p id='stroop-text' class='stroop-blue'>GREEN</p>", "response": "g", "stimulus-type": "incongruent", "word": "green", "color": "blue", "correct_response": "b", "trial_id": "stroop-trial-1-incongruent-3", "trial_type": "html-keyboard-response", "trial_index": 174, "time_elapsed": 324311, "internal_node_id": "0.0-6.0-79.0"}}, {"uniqueid": "w36067480:a56113410", "current_trial": 175, "dateTime": 1664464240090, "trialdata": {"rt": 791, "stimulus": "<p id='stroop-text' class='stroop-yellow'>YELLOW</p>", "response": "y", "stimulus-type": "congruent", "word": "yellow", "color": "yellow", "correct_response": "y", "trial_id": "stroop-trial-1-congruent-6", "trial_type": "html-keyboard-response", "trial_index": 175, "time_elapsed": 325618, "internal_node_id": "0.0-6.0-80.0"}}, {"uniqueid": "w36067480:a56113410", "current_trial": 176, "dateTime": 1664464241307, "trialdata": {"rt": 704, "stimulus": "<p id='stroop-text' class='stroop-blue'>FORK</p>", "response": "b", "stimulus-type": "unrelated", "word": "FORK", "color": "blue", "correct_response": "b", "trial_id": "stroop-trial-1-unrelated-7", "trial_type": "html-keyboard-response", "trial_index": 176, "time_elapsed": 326835, "internal_node_id": "0.0-6.0-81.0"}}, {"uniqueid": "w36067480:a56113410", "current_trial": 177, "dateTime": 1664464242523, "trialdata": {"rt": 698, "stimulus": "<p id='stroop-text' class='stroop-green'>CHAIR</p>", "response": "g", "stimulus-type": "unrelated", "word": "CHAIR", "color": "green", "correct_response": "g", "trial_id": "stroop-trial-1-unrelated-27", "trial_type": "html-keyboard-response", "trial_index": 177, "time_elapsed": 328052, "internal_node_id": "0.0-6.0-82.0"}}, {"uniqueid": "w36067480:a56113410", "current_trial": 178, "dateTime": 1664464243650, "trialdata": {"rt": 613, "stimulus": "<p id='stroop-text' class='stroop-blue'>BLUE</p>", "response": "b", "stimulus-type": "congruent", "word": "blue", "color": "blue", "correct_response": "b", "trial_id": "stroop-trial-1-congruent-20", "trial_type": "html-keyboard-response", "trial_index": 178, "time_elapsed": 329179, "internal_node_id": "0.0-6.0-83.0"}}, {"uniqueid": "w36067480:a56113410", "current_trial": 179, "dateTime": 1664464244912, "trialdata": {"rt": 753, "stimulus": "<p id='stroop-text' class='stroop-red'>YELLOW</p>", "response": "r", "stimulus-type": "incongruent", "word": "yellow", "color": "red", "correct_response": "r", "trial_id": "stroop-trial-1-incongruent-11", "trial_type": "html-keyboard-response", "trial_index": 179, "time_elapsed": 330440, "internal_node_id": "0.0-6.0-84.0"}}, {"uniqueid": "w36067480:a56113410", "current_trial": 180, "dateTime": 1664464247132, "trialdata": {"rt": 1703, "stimulus": "<p id='stroop-text' class='stroop-green'>GREEN</p>", "response": "g", "stimulus-type": "congruent", "word": "green", "color": "green", "correct_response": "g", "trial_id": "stroop-trial-1-congruent-19", "trial_type": "html-keyboard-response", "trial_index": 180, "time_elapsed": 332661, "internal_node_id": "0.0-6.0-85.0"}}, {"uniqueid": "w36067480:a56113410", "current_trial": 181, "dateTime": 1664464248257, "trialdata": {"rt": 608, "stimulus": "<p id='stroop-text' class='stroop-green'>GREEN</p>", "response": "g", "stimulus-type": "congruent", "word": "green", "color": "green", "correct_response": "g", "trial_id": "stroop-trial-1-congruent-21", "trial_type": "html-keyboard-response", "trial_index": 181, "time_elapsed": 333785, "internal_node_id": "0.0-6.0-86.0"}}, {"uniqueid": "w36067480:a56113410", "current_trial": 182, "dateTime": 1664464249338, "trialdata": {"rt": 564, "stimulus": "<p id='stroop-text' class='stroop-blue'>CHAIR</p>", "response": "b", "stimulus-type": "unrelated", "word": "CHAIR", "color": "blue", "correct_response": "b", "trial_id": "stroop-trial-1-unrelated-3", "trial_type": "html-keyboard-response", "trial_index": 182, "time_elapsed": 334867, "internal_node_id": "0.0-6.0-87.0"}}, {"uniqueid": "w36067480:a56113410", "current_trial": 183, "dateTime": 1664464250780, "trialdata": {"rt": 929, "stimulus": "<p id='stroop-text' class='stroop-blue'>RED</p>", "response": "b", "stimulus-type": "incongruent", "word": "red", "color": "blue", "correct_response": "b", "trial_id": "stroop-trial-1-incongruent-24", "trial_type": "html-keyboard-response", "trial_index": 183, "time_elapsed": 336308, "internal_node_id": "0.0-6.0-88.0"}}, {"uniqueid": "w36067480:a56113410", "current_trial": 184, "dateTime": 1664464251817, "trialdata": {"rt": 526, "stimulus": "<p id='stroop-text' class='stroop-green'>BRAIN</p>", "response": "g", "stimulus-type": "unrelated", "word": "BRAIN", "color": "green", "correct_response": "g", "trial_id": "stroop-trial-1-unrelated-15", "trial_type": "html-keyboard-response", "trial_index": 184, "time_elapsed": 337346, "internal_node_id": "0.0-6.0-89.0"}}, {"uniqueid": "w36067480:a56113410", "current_trial": 185, "dateTime": 1664464261449, "trialdata": {"rt": 9117, "stimulus": "  <h1> End of block! </h1>\n\n  You have reached the end of the block 2/5. If you need a short break, feel free to take one now before moving on.\n\n  <br><br>\n  In the next block, you will complete another 90 rounds of this game.\n\n  <br><br>\n  <div style='text-align: center;'>Press <code>space</code> to begin.</div>\n  <br><br>\n<div style='text-align: center;'>(If the experiment doesn't continue, try clicking on the text and then pressing <code>space</code>.)</div>", "response": " ", "trial_id": "stroop_1_ready_3", "trial_type": "html-keyboard-response", "trial_index": 185, "time_elapsed": 346978, "internal_node_id": "0.0-7.0"}}, {"uniqueid": "w36067480:a56113410", "current_trial": 186, "dateTime": 1664464262891, "trialdata": {"rt": 1437, "stimulus": "<p id='stroop-text' class='stroop-blue'>GREEN</p>", "response": "b", "stimulus-type": "incongruent", "word": "green", "color": "blue", "correct_response": "b", "trial_id": "stroop-trial-1-incongruent-28", "trial_type": "html-keyboard-response", "trial_index": 186, "time_elapsed": 348419, "internal_node_id": "0.0-8.0-0.0"}}, {"uniqueid": "w36067480:a56113410", "current_trial": 187, "dateTime": 1664464264209, "trialdata": {"rt": 803, "stimulus": "<p id='stroop-text' class='stroop-red'>BLUE</p>", "response": "r", "stimulus-type": "incongruent", "word": "blue", "color": "red", "correct_response": "r", "trial_id": "stroop-trial-1-incongruent-11", "trial_type": "html-keyboard-response", "trial_index": 187, "time_elapsed": 349738, "internal_node_id": "0.0-8.0-1.0"}}, {"uniqueid": "w36067480:a56113410", "current_trial": 188, "dateTime": 1664464265382, "trialdata": {"rt": 668, "stimulus": "<p id='stroop-text' class='stroop-blue'>BLUE</p>", "response": "b", "stimulus-type": "congruent", "word": "blue", "color": "blue", "correct_response": "b", "trial_id": "stroop-trial-1-congruent-14", "trial_type": "html-keyboard-response", "trial_index": 188, "time_elapsed": 350910, "internal_node_id": "0.0-8.0-2.0"}}, {"uniqueid": "w36067480:a56113410", "current_trial": 189, "dateTime": 1664464266429, "trialdata": {"rt": 533, "stimulus": "<p id='stroop-text' class='stroop-yellow'>YELLOW</p>", "response": "y", "stimulus-type": "congruent", "word": "yellow", "color": "yellow", "correct_response": "y", "trial_id": "stroop-trial-1-congruent-12", "trial_type": "html-keyboard-response", "trial_index": 189, "time_elapsed": 351957, "internal_node_id": "0.0-8.0-3.0"}}, {"uniqueid": "w36067480:a56113410", "current_trial": 190, "dateTime": 1664464267419, "trialdata": {"rt": 482, "stimulus": "<p id='stroop-text' class='stroop-yellow'>SHIP</p>", "response": "y", "stimulus-type": "unrelated", "word": "SHIP", "color": "yellow", "correct_response": "y", "trial_id": "stroop-trial-1-unrelated-13", "trial_type": "html-keyboard-response", "trial_index": 190, "time_elapsed": 352948, "internal_node_id": "0.0-8.0-4.0"}}, {"uniqueid": "w36067480:a56113410", "current_trial": 191, "dateTime": 1664464268771, "trialdata": {"rt": 836, "stimulus": "<p id='stroop-text' class='stroop-green'>RED</p>", "response": "g", "stimulus-type": "incongruent", "word": "red", "color": "green", "correct_response": "g", "trial_id": "stroop-trial-1-incongruent-23", "trial_type": "html-keyboard-response", "trial_index": 191, "time_elapsed": 354300, "internal_node_id": "0.0-8.0-5.0"}}, {"uniqueid": "w36067480:a56113410", "current_trial": 192, "dateTime": 1664464269897, "trialdata": {"rt": 624, "stimulus": "<p id='stroop-text' class='stroop-green'>YELLOW</p>", "response": "g", "stimulus-type": "incongruent", "word": "yellow", "color": "green", "correct_response": "g", "trial_id": "stroop-trial-1-incongruent-20", "trial_type": "html-keyboard-response", "trial_index": 192, "time_elapsed": 355426, "internal_node_id": "0.0-8.0-6.0"}}, {"uniqueid": "w36067480:a56113410", "current_trial": 193, "dateTime": 1664464271024, "trialdata": {"rt": 620, "stimulus": "<p id='stroop-text' class='stroop-red'>BLUE</p>", "response": "r", "stimulus-type": "incongruent", "word": "blue", "color": "red", "correct_response": "r", "trial_id": "stroop-trial-1-incongruent-21", "trial_type": "html-keyboard-response", "trial_index": 193, "time_elapsed": 356553, "internal_node_id": "0.0-8.0-7.0"}}, {"uniqueid": "w36067480:a56113410", "current_trial": 194, "dateTime": 1664464272106, "trialdata": {"rt": 573, "stimulus": "<p id='stroop-text' class='stroop-red'>RED</p>", "response": "r", "stimulus-type": "congruent", "word": "red", "color": "red", "correct_response": "r", "trial_id": "stroop-trial-1-congruent-26", "trial_type": "html-keyboard-response", "trial_index": 194, "time_elapsed": 357634, "internal_node_id": "0.0-8.0-8.0"}}, {"uniqueid": "w36067480:a56113410", "current_trial": 195, "dateTime": 1664464273188, "trialdata": {"rt": 576, "stimulus": "<p id='stroop-text' class='stroop-yellow'>YELLOW</p>", "response": "y", "stimulus-type": "congruent", "word": "yellow", "color": "yellow", "correct_response": "y", "trial_id": "stroop-trial-1-congruent-22", "trial_type": "html-keyboard-response", "trial_index": 195, "time_elapsed": 358717, "internal_node_id": "0.0-8.0-9.0"}}, {"uniqueid": "w36067480:a56113410", "current_trial": 196, "dateTime": 1664464274270, "trialdata": {"rt": 567, "stimulus": "<p id='stroop-text' class='stroop-yellow'>FORK</p>", "response": "y", "stimulus-type": "unrelated", "word": "FORK", "color": "yellow", "correct_response": "y", "trial_id": "stroop-trial-1-unrelated-20", "trial_type": "html-keyboard-response", "trial_index": 196, "time_elapsed": 359799, "internal_node_id": "0.0-8.0-10.0"}}, {"uniqueid": "w36067480:a56113410", "current_trial": 197, "dateTime": 1664464275262, "trialdata": {"rt": 479, "stimulus": "<p id='stroop-text' class='stroop-yellow'>DOG</p>", "response": "y", "stimulus-type": "unrelated", "word": "DOG", "color": "yellow", "correct_response": "y", "trial_id": "stroop-trial-1-unrelated-4", "trial_type": "html-keyboard-response", "trial_index": 197, "time_elapsed": 360790, "internal_node_id": "0.0-8.0-11.0"}}, {"uniqueid": "w36067480:a56113410", "current_trial": 198, "dateTime": 1664464276254, "trialdata": {"rt": 489, "stimulus": "<p id='stroop-text' class='stroop-red'>RED</p>", "response": "r", "stimulus-type": "congruent", "word": "red", "color": "red", "correct_response": "r", "trial_id": "stroop-trial-1-congruent-30", "trial_type": "html-keyboard-response", "trial_index": 198, "time_elapsed": 361782, "internal_node_id": "0.0-8.0-12.0"}}, {"uniqueid": "w36067480:a56113410", "current_trial": 199, "dateTime": 1664464277515, "trialdata": {"rt": 750, "stimulus": "<p id='stroop-text' class='stroop-yellow'>MONKEY</p>", "response": "y", "stimulus-type": "unrelated", "word": "MONKEY", "color": "yellow", "correct_response": "y", "trial_id": "stroop-trial-1-unrelated-29", "trial_type": "html-keyboard-response", "trial_index": 199, "time_elapsed": 363043, "internal_node_id": "0.0-8.0-13.0"}}, {"uniqueid": "w36067480:a56113410", "current_trial": 200, "dateTime": 1664464278511, "trialdata": {"rt": 493, "stimulus": "<p id='stroop-text' class='stroop-red'>MONKEY</p>", "response": "r", "stimulus-type": "unrelated", "word": "MONKEY", "color": "red", "correct_response": "r", "trial_id": "stroop-trial-1-unrelated-26", "trial_type": "html-keyboard-response", "trial_index": 200, "time_elapsed": 364040, "internal_node_id": "0.0-8.0-14.0"}}, {"uniqueid": "w36067480:a56113410", "current_trial": 201, "dateTime": 1664464279639, "trialdata": {"rt": 617, "stimulus": "<p id='stroop-text' class='stroop-red'>RED</p>", "response": "r", "stimulus-type": "congruent", "word": "red", "color": "red", "correct_response": "r", "trial_id": "stroop-trial-1-congruent-28", "trial_type": "html-keyboard-response", "trial_index": 201, "time_elapsed": 365167, "internal_node_id": "0.0-8.0-15.0"}}, {"uniqueid": "w36067480:a56113410", "current_trial": 202, "dateTime": 1664464280643, "trialdata": {"rt": 493, "stimulus": "<p id='stroop-text' class='stroop-red'>RED</p>", "response": "r", "stimulus-type": "congruent", "word": "red", "color": "red", "correct_response": "r", "trial_id": "stroop-trial-1-congruent-16", "trial_type": "html-keyboard-response", "trial_index": 202, "time_elapsed": 366171, "internal_node_id": "0.0-8.0-16.0"}}, {"uniqueid": "w36067480:a56113410", "current_trial": 203, "dateTime": 1664464281903, "trialdata": {"rt": 714, "stimulus": "<p id='stroop-text' class='stroop-yellow'>YELLOW</p>", "response": "y", "stimulus-type": "congruent", "word": "yellow", "color": "yellow", "correct_response": "y", "trial_id": "stroop-trial-1-congruent-5", "trial_type": "html-keyboard-response", "trial_index": 203, "time_elapsed": 367432, "internal_node_id": "0.0-8.0-17.0"}}, {"uniqueid": "w36067480:a56113410", "current_trial": 204, "dateTime": 1664464282940, "trialdata": {"rt": 529, "stimulus": "<p id='stroop-text' class='stroop-red'>YELLOW</p>", "response": "y", "stimulus-type": "incongruent", "word": "yellow", "color": "red", "correct_response": "r", "trial_id": "stroop-trial-1-incongruent-8", "trial_type": "html-keyboard-response", "trial_index": 204, "time_elapsed": 368469, "internal_node_id": "0.0-8.0-18.0"}}, {"uniqueid": "w36067480:a56113410", "current_trial": 205, "dateTime": 1664464284517, "trialdata": {"rt": 1070, "stimulus": "<p id='stroop-text' class='stroop-yellow'>BOAT</p>", "response": "y", "stimulus-type": "unrelated", "word": "BOAT", "color": "yellow", "correct_response": "y", "trial_id": "stroop-trial-1-unrelated-21", "trial_type": "html-keyboard-response", "trial_index": 205, "time_elapsed": 370046, "internal_node_id": "0.0-8.0-19.0"}}, {"uniqueid": "w36067480:a56113410", "current_trial": 206, "dateTime": 1664464285778, "trialdata": {"rt": 744, "stimulus": "<p id='stroop-text' class='stroop-red'>YELLOW</p>", "response": "r", "stimulus-type": "incongruent", "word": "yellow", "color": "red", "correct_response": "r", "trial_id": "stroop-trial-1-incongruent-25", "trial_type": "html-keyboard-response", "trial_index": 206, "time_elapsed": 371306, "internal_node_id": "0.0-8.0-20.0"}}, {"uniqueid": "w36067480:a56113410", "current_trial": 207, "dateTime": 1664464287637, "trialdata": {"rt": 1350, "stimulus": "<p id='stroop-text' class='stroop-green'>RED</p>", "response": "g", "stimulus-type": "incongruent", "word": "red", "color": "green", "correct_response": "g", "trial_id": "stroop-trial-1-incongruent-27", "trial_type": "html-keyboard-response", "trial_index": 207, "time_elapsed": 373166, "internal_node_id": "0.0-8.0-21.0"}}, {"uniqueid": "w36067480:a56113410", "current_trial": 208, "dateTime": 1664464289404, "trialdata": {"rt": 1254, "stimulus": "<p id='stroop-text' class='stroop-red'>RED</p>", "response": "r", "stimulus-type": "congruent", "word": "red", "color": "red", "correct_response": "r", "trial_id": "stroop-trial-1-congruent-25", "trial_type": "html-keyboard-response", "trial_index": 208, "time_elapsed": 374933, "internal_node_id": "0.0-8.0-22.0"}}, {"uniqueid": "w36067480:a56113410", "current_trial": 209, "dateTime": 1664464290532, "trialdata": {"rt": 615, "stimulus": "<p id='stroop-text' class='stroop-yellow'>STONE</p>", "response": "y", "stimulus-type": "unrelated", "word": "STONE", "color": "yellow", "correct_response": "y", "trial_id": "stroop-trial-1-unrelated-10", "trial_type": "html-keyboard-response", "trial_index": 209, "time_elapsed": 376061, "internal_node_id": "0.0-8.0-23.0"}}, {"uniqueid": "w36067480:a56113410", "current_trial": 210, "dateTime": 1664464291612, "trialdata": {"rt": 571, "stimulus": "<p id='stroop-text' class='stroop-yellow'>YELLOW</p>", "response": "y", "stimulus-type": "congruent", "word": "yellow", "color": "yellow", "correct_response": "y", "trial_id": "stroop-trial-1-congruent-18", "trial_type": "html-keyboard-response", "trial_index": 210, "time_elapsed": 377141, "internal_node_id": "0.0-8.0-24.0"}}, {"uniqueid": "w36067480:a56113410", "current_trial": 211, "dateTime": 1664464292784, "trialdata": {"rt": 666, "stimulus": "<p id='stroop-text' class='stroop-red'>FORK</p>", "response": "r", "stimulus-type": "unrelated", "word": "FORK", "color": "red", "correct_response": "r", "trial_id": "stroop-trial-1-unrelated-24", "trial_type": "html-keyboard-response", "trial_index": 211, "time_elapsed": 378313, "internal_node_id": "0.0-8.0-25.0"}}, {"uniqueid": "w36067480:a56113410", "current_trial": 212, "dateTime": 1664464293865, "trialdata": {"rt": 577, "stimulus": "<p id='stroop-text' class='stroop-red'>WINDOW</p>", "response": "r", "stimulus-type": "unrelated", "word": "WINDOW", "color": "red", "correct_response": "r", "trial_id": "stroop-trial-1-unrelated-18", "trial_type": "html-keyboard-response", "trial_index": 212, "time_elapsed": 379394, "internal_node_id": "0.0-8.0-26.0"}}, {"uniqueid": "w36067480:a56113410", "current_trial": 213, "dateTime": 1664464295802, "trialdata": {"rt": 1428, "stimulus": "<p id='stroop-text' class='stroop-green'>GREEN</p>", "response": "g", "stimulus-type": "congruent", "word": "green", "color": "green", "correct_response": "g", "trial_id": "stroop-trial-1-congruent-17", "trial_type": "html-keyboard-response", "trial_index": 213, "time_elapsed": 381331, "internal_node_id": "0.0-8.0-27.0"}}, {"uniqueid": "w36067480:a56113410", "current_trial": 214, "dateTime": 1664464296795, "trialdata": {"rt": 482, "stimulus": "<p id='stroop-text' class='stroop-green'>YELLOW</p>", "response": "g", "stimulus-type": "incongruent", "word": "yellow", "color": "green", "correct_response": "g", "trial_id": "stroop-trial-1-incongruent-6", "trial_type": "html-keyboard-response", "trial_index": 214, "time_elapsed": 382323, "internal_node_id": "0.0-8.0-28.0"}}, {"uniqueid": "w36067480:a56113410", "current_trial": 215, "dateTime": 1664464298101, "trialdata": {"rt": 802, "stimulus": "<p id='stroop-text' class='stroop-yellow'>RED</p>", "response": "y", "stimulus-type": "incongruent", "word": "red", "color": "yellow", "correct_response": "y", "trial_id": "stroop-trial-1-incongruent-30", "trial_type": "html-keyboard-response", "trial_index": 215, "time_elapsed": 383630, "internal_node_id": "0.0-8.0-29.0"}}, {"uniqueid": "w36067480:a56113410", "current_trial": 216, "dateTime": 1664464299273, "trialdata": {"rt": 655, "stimulus": "<p id='stroop-text' class='stroop-blue'>FORK</p>", "response": "b", "stimulus-type": "unrelated", "word": "FORK", "color": "blue", "correct_response": "b", "trial_id": "stroop-trial-1-unrelated-8", "trial_type": "html-keyboard-response", "trial_index": 216, "time_elapsed": 384802, "internal_node_id": "0.0-8.0-30.0"}}, {"uniqueid": "w36067480:a56113410", "current_trial": 217, "dateTime": 1664464300490, "trialdata": {"rt": 707, "stimulus": "<p id='stroop-text' class='stroop-green'>SHIP</p>", "response": "g", "stimulus-type": "unrelated", "word": "SHIP", "color": "green", "correct_response": "g", "trial_id": "stroop-trial-1-unrelated-22", "trial_type": "html-keyboard-response", "trial_index": 217, "time_elapsed": 386018, "internal_node_id": "0.0-8.0-31.0"}}, {"uniqueid": "w36067480:a56113410", "current_trial": 218, "dateTime": 1664464301482, "trialdata": {"rt": 481, "stimulus": "<p id='stroop-text' class='stroop-green'>CHAIR</p>", "response": "g", "stimulus-type": "unrelated", "word": "CHAIR", "color": "green", "correct_response": "g", "trial_id": "stroop-trial-1-unrelated-15", "trial_type": "html-keyboard-response", "trial_index": 218, "time_elapsed": 387011, "internal_node_id": "0.0-8.0-32.0"}}, {"uniqueid": "w36067480:a56113410", "current_trial": 219, "dateTime": 1664464302699, "trialdata": {"rt": 704, "stimulus": "<p id='stroop-text' class='stroop-yellow'>DOG</p>", "response": "y", "stimulus-type": "unrelated", "word": "DOG", "color": "yellow", "correct_response": "y", "trial_id": "stroop-trial-1-unrelated-1", "trial_type": "html-keyboard-response", "trial_index": 219, "time_elapsed": 388227, "internal_node_id": "0.0-8.0-33.0"}}, {"uniqueid": "w36067480:a56113410", "current_trial": 220, "dateTime": 1664464303825, "trialdata": {"rt": 616, "stimulus": "<p id='stroop-text' class='stroop-red'>WINDOW</p>", "response": "r", "stimulus-type": "unrelated", "word": "WINDOW", "color": "red", "correct_response": "r", "trial_id": "stroop-trial-1-unrelated-7", "trial_type": "html-keyboard-response", "trial_index": 220, "time_elapsed": 389353, "internal_node_id": "0.0-8.0-34.0"}}, {"uniqueid": "w36067480:a56113410", "current_trial": 221, "dateTime": 1664464304906, "trialdata": {"rt": 565, "stimulus": "<p id='stroop-text' class='stroop-red'>GREEN</p>", "response": "r", "stimulus-type": "incongruent", "word": "green", "color": "red", "correct_response": "r", "trial_id": "stroop-trial-1-incongruent-4", "trial_type": "html-keyboard-response", "trial_index": 221, "time_elapsed": 390435, "internal_node_id": "0.0-8.0-35.0"}}, {"uniqueid": "w36067480:a56113410", "current_trial": 222, "dateTime": 1664464306032, "trialdata": {"rt": 602, "stimulus": "<p id='stroop-text' class='stroop-yellow'>GREEN</p>", "response": "y", "stimulus-type": "incongruent", "word": "green", "color": "yellow", "correct_response": "y", "trial_id": "stroop-trial-1-incongruent-7", "trial_type": "html-keyboard-response", "t