{"condition": 0, "counterbalance": 0, "assignmentId": "a43468892", "workerId": "w69059857", "hitId": "h28713901", "currenttrial": 965, "bonus": 0, "data": [{"uniqueid": "w69059857:a43468892", "current_trial": 0, "dateTime": 1664873148788, "trialdata": {"success": true, "trial_type": "fullscreen", "trial_index": 0, "time_elapsed": 3113, "internal_node_id": "0.0-0.0"}}, {"uniqueid": "w69059857:a43468892", "current_trial": 1, "dateTime": 1664873175222, "trialdata": {"view_history": [{"page_index": 0, "viewing_time": 26428}], "rt": 26429, "trial_id": "exp_instructions_distractor", "trial_type": "instructions", "trial_index": 1, "time_elapsed": 29547, "internal_node_id": "0.0-1.0"}}, {"uniqueid": "w69059857:a43468892", "current_trial": 2, "dateTime": 1664873229079, "trialdata": {"view_history": [{"page_index": 0, "viewing_time": 53853}], "rt": 53854, "trial_id": "color_game_instructions", "trial_type": "instructions", "trial_index": 2, "time_elapsed": 83404, "internal_node_id": "0.0-2.0"}}, {"uniqueid": "w69059857:a43468892", "current_trial": 3, "dateTime": 1664873239742, "trialdata": {"rt": 10660, "stimulus": "<h1> Get ready to start the game! </h1>\n\nThank you for reading the instructions. Get ready start with the first of 5 block(s) of this game.\n<br><br>\nIn this first block, you will complete 90 rounds of this game before moving on.\n<br><br>\nRemember, the better you perform, the bigger your bonus will be!\n<br><br>\n<div style='text-align: center;'>Press <code>space</code> to begin.</div>", "response": " ", "trial_id": "stroop_1_ready_1", "trial_type": "html-keyboard-response", "trial_index": 3, "time_elapsed": 94067, "internal_node_id": "0.0-3.0"}}, {"uniqueid": "w69059857:a43468892", "current_trial": 4, "dateTime": 1664873241789, "trialdata": {"rt": 2041, "stimulus": "<p id='stroop-text' class='stroop-green'>GREEN</p>", "response": "g", "stimulus-type": "congruent", "word": "green", "color": "green", "correct_response": "g", "trial_id": "stroop-trial-1-congruent-25", "trial_type": "html-keyboard-response", "trial_index": 4, "time_elapsed": 96114, "internal_node_id": "0.0-4.0-0.0"}}, {"uniqueid": "w69059857:a43468892", "current_trial": 5, "dateTime": 1664873243573, "trialdata": {"rt": 1282, "stimulus": "<p id='stroop-text' class='stroop-blue'>YELLOW</p>", "response": "y", "stimulus-type": "incongruent", "word": "yellow", "color": "blue", "correct_response": "b", "trial_id": "stroop-trial-1-incongruent-10", "trial_type": "html-keyboard-response", "trial_index": 5, "time_elapsed": 97898, "internal_node_id": "0.0-4.0-1.0"}}, {"uniqueid": "w69059857:a43468892", "current_trial": 6, "dateTime": 1664873245141, "trialdata": {"rt": 1066, "stimulus": "<p id='stroop-text' class='stroop-blue'>BLUE</p>", "response": "b", "stimulus-type": "congruent", "word": "blue", "color": "blue", "correct_response": "b", "trial_id": "stroop-trial-1-congruent-16", "trial_type": "html-keyboard-response", "trial_index": 6, "time_elapsed": 99466, "internal_node_id": "0.0-4.0-2.0"}}, {"uniqueid": "w69059857:a43468892", "current_trial": 7, "dateTime": 1664873246413, "trialdata": {"rt": 770, "stimulus": "<p id='stroop-text' class='stroop-yellow'>BLUE</p>", "response": "b", "stimulus-type": "incongruent", "word": "blue", "color": "yellow", "correct_response": "y", "trial_id": "stroop-trial-1-incongruent-25", "trial_type": "html-keyboard-response", "trial_index": 7, "time_elapsed": 100738, "internal_node_id": "0.0-4.0-3.0"}}, {"uniqueid": "w69059857:a43468892", "current_trial": 8, "dateTime": 1664873247693, "trialdata": {"rt": 778, "stimulus": "<p id='stroop-text' class='stroop-blue'>BLUE</p>", "response": "b", "stimulus-type": "congruent", "word": "blue", "color": "blue", "correct_response": "b", "trial_id": "stroop-trial-1-congruent-30", "trial_type": "html-keyboard-response", "trial_index": 8, "time_elapsed": 102018, "internal_node_id": "0.0-4.0-4.0"}}, {"uniqueid": "w69059857:a43468892", "current_trial": 9, "dateTime": 1664873249509, "trialdata": {"rt": 1313, "stimulus": "<p id='stroop-text' class='stroop-green'>SHIP</p>", "response": "g", "stimulus-type": "unrelated", "word": "SHIP", "color": "green", "correct_response": "g", "trial_id": "stroop-trial-1-unrelated-9", "trial_type": "html-keyboard-response", "trial_index": 9, "time_elapsed": 103834, "internal_node_id": "0.0-4.0-5.0"}}, {"uniqueid": "w69059857:a43468892", "current_trial": 10, "dateTime": 1664873251301, "trialdata": {"rt": 1290, "stimulus": "<p id='stroop-text' class='stroop-red'>YELLOW</p>", "response": "r", "stimulus-type": "incongruent", "word": "yellow", "color": "red", "correct_response": "r", "trial_id": "stroop-trial-1-incongruent-8", "trial_type": "html-keyboard-response", "trial_index": 10, "time_elapsed": 105626, "internal_node_id": "0.0-4.0-6.0"}}, {"uniqueid": "w69059857:a43468892", "current_trial": 11, "dateTime": 1664873252445, "trialdata": {"rt": 641, "stimulus": "<p id='stroop-text' class='stroop-red'>RED</p>", "response": "r", "stimulus-type": "congruent", "word": "red", "color": "red", "correct_response": "r", "trial_id": "stroop-trial-1-congruent-23", "trial_type": "html-keyboard-response", "trial_index": 11, "time_elapsed": 106770, "internal_node_id": "0.0-4.0-7.0"}}, {"uniqueid": "w69059857:a43468892", "current_trial": 12, "dateTime": 1664873253437, "trialdata": {"rt": 489, "stimulus": "<p id='stroop-text' class='stroop-red'>DOG</p>", "response": "r", "stimulus-type": "unrelated", "word": "DOG", "color": "red", "correct_response": "r", "trial_id": "stroop-trial-1-unrelated-28", "trial_type": "html-keyboard-response", "trial_index": 12, "time_elapsed": 107761, "internal_node_id": "0.0-4.0-8.0"}}, {"uniqueid": "w69059857:a43468892", "current_trial": 13, "dateTime": 1664873254397, "trialdata": {"rt": 456, "stimulus": "<p id='stroop-text' class='stroop-red'>YELLOW</p>", "response": "r", "stimulus-type": "incongruent", "word": "yellow", "color": "red", "correct_response": "r", "trial_id": "stroop-trial-1-incongruent-21", "trial_type": "html-keyboard-response", "trial_index": 13, "time_elapsed": 108721, "internal_node_id": "0.0-4.0-9.0"}}, {"uniqueid": "w69059857:a43468892", "current_trial": 14, "dateTime": 1664873256053, "trialdata": {"rt": 1154, "stimulus": "<p id='stroop-text' class='stroop-blue'>BLUE</p>", "response": "b", "stimulus-type": "congruent", "word": "blue", "color": "blue", "correct_response": "b", "trial_id": "stroop-trial-1-congruent-10", "trial_type": "html-keyboard-response", "trial_index": 14, "time_elapsed": 110377, "internal_node_id": "0.0-4.0-10.0"}}, {"uniqueid": "w69059857:a43468892", "current_trial": 15, "dateTime": 1664873257045, "trialdata": {"rt": 490, "stimulus": "<p id='stroop-text' class='stroop-blue'>BLUE</p>", "response": "b", "stimulus-type": "congruent", "word": "blue", "color": "blue", "correct_response": "b", "trial_id": "stroop-trial-1-congruent-12", "trial_type": "html-keyboard-response", "trial_index": 15, "time_elapsed": 111369, "internal_node_id": "0.0-4.0-11.0"}}, {"uniqueid": "w69059857:a43468892", "current_trial": 16, "dateTime": 1664873258101, "trialdata": {"rt": 554, "stimulus": "<p id='stroop-text' class='stroop-red'>RED</p>", "response": "r", "stimulus-type": "congruent", "word": "red", "color": "red", "correct_response": "r", "trial_id": "stroop-trial-1-congruent-15", "trial_type": "html-keyboard-response", "trial_index": 16, "time_elapsed": 112425, "internal_node_id": "0.0-4.0-12.0"}}, {"uniqueid": "w69059857:a43468892", "current_trial": 17, "dateTime": 1664873259661, "trialdata": {"rt": 1058, "stimulus": "<p id='stroop-text' class='stroop-green'>GREEN</p>", "response": "g", "stimulus-type": "congruent", "word": "green", "color": "green", "correct_response": "g", "trial_id": "stroop-trial-1-congruent-21", "trial_type": "html-keyboard-response", "trial_index": 17, "time_elapsed": 113985, "internal_node_id": "0.0-4.0-13.0"}}, {"uniqueid": "w69059857:a43468892", "current_trial": 18, "dateTime": 1664873260845, "trialdata": {"rt": 682, "stimulus": "<p id='stroop-text' class='stroop-blue'>CHAIR</p>", "response": "r", "stimulus-type": "unrelated", "word": "CHAIR", "color": "blue", "correct_response": "b", "trial_id": "stroop-trial-1-unrelated-16", "trial_type": "html-keyboard-response", "trial_index": 18, "time_elapsed": 115169, "internal_node_id": "0.0-4.0-14.0"}}, {"uniqueid": "w69059857:a43468892", "current_trial": 19, "dateTime": 1664873262341, "trialdata": {"rt": 994, "stimulus": "<p id='stroop-text' class='stroop-blue'>WINDOW</p>", "response": "b", "stimulus-type": "unrelated", "word": "WINDOW", "color": "blue", "correct_response": "b", "trial_id": "stroop-trial-1-unrelated-26", "trial_type": "html-keyboard-response", "trial_index": 19, "time_elapsed": 116665, "internal_node_id": "0.0-4.0-15.0"}}, {"uniqueid": "w69059857:a43468892", "current_trial": 20, "dateTime": 1664873264036, "trialdata": {"rt": 1194, "stimulus": "<p id='stroop-text' class='stroop-green'>FORK</p>", "response": "g", "stimulus-type": "unrelated", "word": "FORK", "color": "green", "correct_response": "g", "trial_id": "stroop-trial-1-unrelated-20", "trial_type": "html-keyboard-response", "trial_index": 20, "time_elapsed": 118361, "internal_node_id": "0.0-4.0-16.0"}}, {"uniqueid": "w69059857:a43468892", "current_trial": 21, "dateTime": 1664873265628, "trialdata": {"rt": 1090, "stimulus": "<p id='stroop-text' class='stroop-blue'>RED</p>", "response": "b", "stimulus-type": "incongruent", "word": "red", "color": "blue", "correct_response": "b", "trial_id": "stroop-trial-1-incongruent-28", "trial_type": "html-keyboard-response", "trial_index": 21, "time_elapsed": 119953, "internal_node_id": "0.0-4.0-17.0"}}, {"uniqueid": "w69059857:a43468892", "current_trial": 22, "dateTime": 1664873267196, "trialdata": {"rt": 1064, "stimulus": "<p id='stroop-text' class='stroop-yellow'>YELLOW</p>", "response": "y", "stimulus-type": "congruent", "word": "yellow", "color": "yellow", "correct_response": "y", "trial_id": "stroop-trial-1-congruent-9", "trial_type": "html-keyboard-response", "trial_index": 22, "time_elapsed": 121521, "internal_node_id": "0.0-4.0-18.0"}}, {"uniqueid": "w69059857:a43468892", "current_trial": 23, "dateTime": 1664873268508, "trialdata": {"rt": 810, "stimulus": "<p id='stroop-text' class='stroop-red'>GREEN</p>", "response": "r", "stimulus-type": "incongruent", "word": "green", "color": "red", "correct_response": "r", "trial_id": "stroop-trial-1-incongruent-11", "trial_type": "html-keyboard-response", "trial_index": 23, "time_elapsed": 122833, "internal_node_id": "0.0-4.0-19.0"}}, {"uniqueid": "w69059857:a43468892", "current_trial": 24, "dateTime": 1664873269972, "trialdata": {"rt": 962, "stimulus": "<p id='stroop-text' class='stroop-blue'>WINDOW</p>", "response": "b", "stimulus-type": "unrelated", "word": "WINDOW", "color": "blue", "correct_response": "b", "trial_id": "stroop-trial-1-unrelated-10", "trial_type": "html-keyboard-response", "trial_index": 24, "time_elapsed": 124297, "internal_node_id": "0.0-4.0-20.0"}}, {"uniqueid": "w69059857:a43468892", "current_trial": 25, "dateTime": 1664873271606, "trialdata": {"rt": 1130, "stimulus": "<p id='stroop-text' class='stroop-yellow'>BLUE</p>", "response": "y", "stimulus-type": "incongruent", "word": "blue", "color": "yellow", "correct_response": "y", "trial_id": "stroop-trial-1-incongruent-23", "trial_type": "html-keyboard-response", "trial_index": 25, "time_elapsed": 125930, "internal_node_id": "0.0-4.0-21.0"}}, {"uniqueid": "w69059857:a43468892", "current_trial": 26, "dateTime": 1664873272590, "trialdata": {"rt": 482, "stimulus": "<p id='stroop-text' class='stroop-yellow'>BOAT</p>", "response": "y", "stimulus-type": "unrelated", "word": "BOAT", "color": "yellow", "correct_response": "y", "trial_id": "stroop-trial-1-unrelated-15", "trial_type": "html-keyboard-response", "trial_index": 26, "time_elapsed": 126915, "internal_node_id": "0.0-4.0-22.0"}}, {"uniqueid": "w69059857:a43468892", "current_trial": 27, "dateTime": 1664873273454, "trialdata": {"rt": 362, "stimulus": "<p id='stroop-text' class='stroop-yellow'>YELLOW</p>", "response": "y", "stimulus-type": "congruent", "word": "yellow", "color": "yellow", "correct_response": "y", "trial_id": "stroop-trial-1-congruent-27", "trial_type": "html-keyboard-response", "trial_index": 27, "time_elapsed": 127778, "internal_node_id": "0.0-4.0-23.0"}}, {"uniqueid": "w69059857:a43468892", "current_trial": 28, "dateTime": 1664873274286, "trialdata": {"rt": 330, "stimulus": "<p id='stroop-text' class='stroop-yellow'>BLUE</p>", "response": "y", "stimulus-type": "incongruent", "word": "blue", "color": "yellow", "correct_response": "y", "trial_id": "stroop-trial-1-incongruent-14", "trial_type": "html-keyboard-response", "trial_index": 28, "time_elapsed": 128610, "internal_node_id": "0.0-4.0-24.0"}}, {"uniqueid": "w69059857:a43468892", "current_trial": 29, "dateTime": 1664873275334, "trialdata": {"rt": 546, "stimulus": "<p id='stroop-text' class='stroop-blue'>RED</p>", "response": "b", "stimulus-type": "incongruent", "word": "red", "color": "blue", "correct_response": "b", "trial_id": "stroop-trial-1-incongruent-26", "trial_type": "html-keyboard-response", "trial_index": 29, "time_elapsed": 129658, "internal_node_id": "0.0-4.0-25.0"}}, {"uniqueid": "w69059857:a43468892", "current_trial": 30, "dateTime": 1664873276646, "trialdata": {"rt": 810, "stimulus": "<p id='stroop-text' class='stroop-red'>YELLOW</p>", "response": "y", "stimulus-type": "incongruent", "word": "yellow", "color": "red", "correct_response": "r", "trial_id": "stroop-trial-1-incongruent-30", "trial_type": "html-keyboard-response", "trial_index": 30, "time_elapsed": 130970, "internal_node_id": "0.0-4.0-26.0"}}, {"uniqueid": "w69059857:a43468892", "current_trial": 31, "dateTime": 1664873278054, "trialdata": {"rt": 906, "stimulus": "<p id='stroop-text' class='stroop-red'>RED</p>", "response": "r", "stimulus-type": "congruent", "word": "red", "color": "red", "correct_response": "r", "trial_id": "stroop-trial-1-congruent-6", "trial_type": "html-keyboard-response", "trial_index": 31, "time_elapsed": 132378, "internal_node_id": "0.0-4.0-27.0"}}, {"uniqueid": "w69059857:a43468892", "current_trial": 32, "dateTime": 1664873279294, "trialdata": {"rt": 738, "stimulus": "<p id='stroop-text' class='stroop-blue'>RED</p>", "response": "b", "stimulus-type": "incongruent", "word": "red", "color": "blue", "correct_response": "b", "trial_id": "stroop-trial-1-incongruent-20", "trial_type": "html-keyboard-response", "trial_index": 32, "time_elapsed": 133618, "internal_node_id": "0.0-4.0-28.0"}}, {"uniqueid": "w69059857:a43468892", "current_trial": 33, "dateTime": 1664873280286, "trialdata": {"rt": 490, "stimulus": "<p id='stroop-text' class='stroop-red'>MONKEY</p>", "response": "r", "stimulus-type": "unrelated", "word": "MONKEY", "color": "red", "correct_response": "r", "trial_id": "stroop-trial-1-unrelated-17", "trial_type": "html-keyboard-response", "trial_index": 33, "time_elapsed": 134610, "internal_node_id": "0.0-4.0-29.0"}}, {"uniqueid": "w69059857:a43468892", "current_trial": 34, "dateTime": 1664873281430, "trialdata": {"rt": 642, "stimulus": "<p id='stroop-text' class='stroop-yellow'>MONKEY</p>", "response": "y", "stimulus-type": "unrelated", "word": "MONKEY", "color": "yellow", "correct_response": "y", "trial_id": "stroop-trial-1-unrelated-25", "trial_type": "html-keyboard-response", "trial_index": 34, "time_elapsed": 135754, "internal_node_id": "0.0-4.0-30.0"}}, {"uniqueid": "w69059857:a43468892", "current_trial": 35, "dateTime": 1664873282453, "trialdata": {"rt": 521, "stimulus": "<p id='stroop-text' class='stroop-yellow'>MONKEY</p>", "response": "y", "stimulus-type": "unrelated", "word": "MONKEY", "color": "yellow", "correct_response": "y", "trial_id": "stroop-trial-1-unrelated-7", "trial_type": "html-keyboard-response", "trial_index": 35, "time_elapsed": 136778, "internal_node_id": "0.0-4.0-31.0"}}, {"uniqueid": "w69059857:a43468892", "current_trial": 36, "dateTime": 1664873284118, "trialdata": {"rt": 1163, "stimulus": "<p id='stroop-text' class='stroop-blue'>YELLOW</p>", "response": "b", "stimulus-type": "incongruent", "word": "yellow", "color": "blue", "correct_response": "b", "trial_id": "stroop-trial-1-incongruent-18", "trial_type": "html-keyboard-response", "trial_index": 36, "time_elapsed": 138443, "internal_node_id": "0.0-4.0-32.0"}}, {"uniqueid": "w69059857:a43468892", "current_trial": 37, "dateTime": 1664873285709, "trialdata": {"rt": 1089, "stimulus": "<p id='stroop-text' class='stroop-yellow'>RED</p>", "response": "y", "stimulus-type": "incongruent", "word": "red", "color": "yellow", "correct_response": "y", "trial_id": "stroop-trial-1-incongruent-19", "trial_type": "html-keyboard-response", "trial_index": 37, "time_elapsed": 140034, "internal_node_id": "0.0-4.0-33.0"}}, {"uniqueid": "w69059857:a43468892", "current_trial": 38, "dateTime": 1664873287909, "trialdata": {"rt": 1697, "stimulus": "<p id='stroop-text' class='stroop-red'>GREEN</p>", "response": "r", "stimulus-type": "incongruent", "word": "green", "color": "red", "correct_response": "r", "trial_id": "stroop-trial-1-incongruent-13", "trial_type": "html-keyboard-response", "trial_index": 38, "time_elapsed": 142234, "internal_node_id": "0.0-4.0-34.0"}}, {"uniqueid": "w69059857:a43468892", "current_trial": 39, "dateTime": 1664873289029, "trialdata": {"rt": 618, "stimulus": "<p id='stroop-text' class='stroop-red'>GREEN</p>", "response": "r", "stimulus-type": "incongruent", "word": "green", "color": "red", "correct_response": "r", "trial_id": "stroop-trial-1-incongruent-7", "trial_type": "html-keyboard-response", "trial_index": 39, "time_elapsed": 143354, "internal_node_id": "0.0-4.0-35.0"}}, {"uniqueid": "w69059857:a43468892", "current_trial": 40, "dateTime": 1664873289958, "trialdata": {"rt": 426, "stimulus": "<p id='stroop-text' class='stroop-red'>SHIP</p>", "response": "r", "stimulus-type": "unrelated", "word": "SHIP", "color": "red", "correct_response": "r", "trial_id": "stroop-trial-1-unrelated-1", "trial_type": "html-keyboard-response", "trial_index": 40, "time_elapsed": 144282, "internal_node_id": "0.0-4.0-36.0"}}, {"uniqueid": "w69059857:a43468892", "current_trial": 41, "dateTime": 1664873290845, "trialdata": {"rt": 385, "stimulus": "<p id='stroop-text' class='stroop-red'>YELLOW</p>", "response": "r", "stimulus-type": "incongruent", "word": "yellow", "color": "red", "correct_response": "r", "trial_id": "stroop-trial-1-incongruent-1", "trial_type": "html-keyboard-response", "trial_index": 41, "time_elapsed": 145170, "internal_node_id": "0.0-4.0-37.0"}}, {"uniqueid": "w69059857:a43468892", "current_trial": 42, "dateTime": 1664873291805, "trialdata": {"rt": 458, "stimulus": "<p id='stroop-text' class='stroop-red'>RED</p>", "response": "r", "stimulus-type": "congruent", "word": "red", "color": "red", "correct_response": "r", "trial_id": "stroop-trial-1-congruent-8", "trial_type": "html-keyboard-response", "trial_index": 42, "time_elapsed": 146130, "internal_node_id": "0.0-4.0-38.0"}}, {"uniqueid": "w69059857:a43468892", "current_trial": 43, "dateTime": 1664873292669, "trialdata": {"rt": 362, "stimulus": "<p id='stroop-text' class='stroop-red'>BOTTLE</p>", "response": "r", "stimulus-type": "unrelated", "word": "BOTTLE", "color": "red", "correct_response": "r", "trial_id": "stroop-trial-1-unrelated-8", "trial_type": "html-keyboard-response", "trial_index": 43, "time_elapsed": 146994, "internal_node_id": "0.0-4.0-39.0"}}, {"uniqueid": "w69059857:a43468892", "current_trial": 44, "dateTime": 1664873293661, "trialdata": {"rt": 490, "stimulus": "<p id='stroop-text' class='stroop-yellow'>YELLOW</p>", "response": "y", "stimulus-type": "congruent", "word": "yellow", "color": "yellow", "correct_response": "y", "trial_id": "stroop-trial-1-congruent-1", "trial_type": "html-keyboard-response", "trial_index": 44, "time_elapsed": 147986, "internal_node_id": "0.0-4.0-40.0"}}, {"uniqueid": "w69059857:a43468892", "current_trial": 45, "dateTime": 1664873294741, "trialdata": {"rt": 578, "stimulus": "<p id='stroop-text' class='stroop-red'>SHIP</p>", "response": "r", "stimulus-type": "unrelated", "word": "SHIP", "color": "red", "correct_response": "r", "trial_id": "stroop-trial-1-unrelated-11", "trial_type": "html-keyboard-response", "trial_index": 45, "time_elapsed": 149066, "internal_node_id": "0.0-4.0-41.0"}}, {"uniqueid": "w69059857:a43468892", "current_trial": 46, "dateTime": 1664873298061, "trialdata": {"rt": 2817, "stimulus": "<p id='stroop-text' class='stroop-green'>CHAIR</p>", "response": "y", "stimulus-type": "unrelated", "word": "CHAIR", "color": "green", "correct_response": "g", "trial_id": "stroop-trial-1-unrelated-24", "trial_type": "html-keyboard-response", "trial_index": 46, "time_elapsed": 152386, "internal_node_id": "0.0-4.0-42.0"}}, {"uniqueid": "w69059857:a43468892", "current_trial": 47, "dateTime": 1664873299181, "trialdata": {"rt": 618, "stimulus": "<p id='stroop-text' class='stroop-yellow'>YELLOW</p>", "response": "y", "stimulus-type": "congruent", "word": "yellow", "color": "yellow", "correct_response": "y", "trial_id": "stroop-trial-1-congruent-28", "trial_type": "html-keyboard-response", "trial_index": 47, "time_elapsed": 153506, "internal_node_id": "0.0-4.0-43.0"}}, {"uniqueid": "w69059857:a43468892", "current_trial": 48, "dateTime": 1664873301637, "trialdata": {"rt": 1953, "stimulus": "<p id='stroop-text' class='stroop-red'>YELLOW</p>", "response": "r", "stimulus-type": "incongruent", "word": "yellow", "color": "red", "correct_response": "r", "trial_id": "stroop-trial-1-incongruent-9", "trial_type": "html-keyboard-response", "trial_index": 48, "time_elapsed": 155961, "internal_node_id": "0.0-4.0-44.0"}}, {"uniqueid": "w69059857:a43468892", "current_trial": 49, "dateTime": 1664873302917, "trialdata": {"rt": 778, "stimulus": "<p id='stroop-text' class='stroop-blue'>STONE</p>", "response": "b", "stimulus-type": "unrelated", "word": "STONE", "color": "blue", "correct_response": "b", "trial_id": "stroop-trial-1-unrelated-5", "trial_type": "html-keyboard-response", "trial_index": 49, "time_elapsed": 157241, "internal_node_id": "0.0-4.0-45.0"}}, {"uniqueid": "w69059857:a43468892", "current_trial": 50, "dateTime": 1664873304069, "trialdata": {"rt": 650, "stimulus": "<p id='stroop-text' class='stroop-yellow'>YELLOW</p>", "response": "y", "stimulus-type": "congruent", "word": "yellow", "color": "yellow", "correct_response": "y", "trial_id": "stroop-trial-1-congruent-3", "trial_type": "html-keyboard-response", "trial_index": 50, "time_elapsed": 158393, "internal_node_id": "0.0-4.0-46.0"}}, {"uniqueid": "w69059857:a43468892", "current_trial": 51, "dateTime": 1664873305309, "trialdata": {"rt": 738, "stimulus": "<p id='stroop-text' class='stroop-red'>SHIP</p>", "response": "r", "stimulus-type": "unrelated", "word": "SHIP", "color": "red", "correct_response": "r", "trial_id": "stroop-trial-1-unrelated-23", "trial_type": "html-keyboard-response", "trial_index": 51, "time_elapsed": 159634, "internal_node_id": "0.0-4.0-47.0"}}, {"uniqueid": "w69059857:a43468892", "current_trial": 52, "dateTime": 1664873306813, "trialdata": {"rt": 1001, "stimulus": "<p id='stroop-text' class='stroop-blue'>YELLOW</p>", "response": "b", "stimulus-type": "incongruent", "word": "yellow", "color": "blue", "correct_response": "b", "trial_id": "stroop-trial-1-incongruent-17", "trial_type": "html-keyboard-response", "trial_index": 52, "time_elapsed": 161137, "internal_node_id": "0.0-4.0-48.0"}}, {"uniqueid": "w69059857:a43468892", "current_trial": 53, "dateTime": 1664873308437, "trialdata": {"rt": 1122, "stimulus": "<p id='stroop-text' class='stroop-red'>YELLOW</p>", "response": "r", "stimulus-type": "incongruent", "word": "yellow", "color": "red", "correct_response": "r", "trial_id": "stroop-trial-1-incongruent-2", "trial_type": "html-keyboard-response", "trial_index": 53, "time_elapsed": 162761, "internal_node_id": "0.0-4.0-49.0"}}, {"uniqueid": "w69059857:a43468892", "current_trial": 54, "dateTime": 1664873311188, "trialdata": {"rt": 2250, "stimulus": "<p id='stroop-text' class='stroop-yellow'>GREEN</p>", "response": "y", "stimulus-type": "incongruent", "word": "green", "color": "yellow", "correct_response": "y", "trial_id": "stroop-trial-1-incongruent-24", "trial_type": "html-keyboard-response", "trial_index": 54, "time_elapsed": 165513, "internal_node_id": "0.0-4.0-50.0"}}, {"uniqueid": "w69059857:a43468892", "current_trial": 55, "dateTime": 1664873312524, "trialdata": {"rt": 834, "stimulus": "<p id='stroop-text' class='stroop-red'>DOG</p>", "response": "r", "stimulus-type": "unrelated", "word": "DOG", "color": "red", "correct_response": "r", "trial_id": "stroop-trial-1-unrelated-12", "trial_type": "html-keyboard-response", "trial_index": 55, "time_elapsed": 166849, "internal_node_id": "0.0-4.0-51.0"}}, {"uniqueid": "w69059857:a43468892", "current_trial": 56, "dateTime": 1664873313580, "trialdata": {"rt": 553, "stimulus": "<p id='stroop-text' class='stroop-yellow'>YELLOW</p>", "response": "y", "stimulus-type": "congruent", "word": "yellow", "color": "yellow", "correct_response": "y", "trial_id": "stroop-trial-1-congruent-17", "trial_type": "html-keyboard-response", "trial_index": 56, "time_elapsed": 167905, "internal_node_id": "0.0-4.0-52.0"}}, {"uniqueid": "w69059857:a43468892", "current_trial": 57, "dateTime": 1664873314509, "trialdata": {"rt": 426, "stimulus": "<p id='stroop-text' class='stroop-yellow'>YELLOW</p>", "response": "y", "stimulus-type": "congruent", "word": "yellow", "color": "yellow", "correct_response": "y", "trial_id": "stroop-trial-1-congruent-4", "trial_type": "html-keyboard-response", "trial_index": 57, "time_elapsed": 168833, "internal_node_id": "0.0-4.0-53.0"}}, {"uniqueid": "w69059857:a43468892", "current_trial": 58, "dateTime": 1664873315429, "trialdata": {"rt": 418, "stimulus": "<p id='stroop-text' class='stroop-yellow'>BLUE</p>", "response": "y", "stimulus-type": "incongruent", "word": "blue", "color": "yellow", "correct_response": "y", "trial_id": "stroop-trial-1-incongruent-12", "trial_type": "html-keyboard-response", "trial_index": 58, "time_elapsed": 169753, "internal_node_id": "0.0-4.0-54.0"}}, {"uniqueid": "w69059857:a43468892", "current_trial": 59, "dateTime": 1664873316324, "trialdata": {"rt": 393, "stimulus": "<p id='stroop-text' class='stroop-yellow'>FORK</p>", "response": "y", "stimulus-type": "unrelated", "word": "FORK", "color": "yellow", "correct_response": "y", "trial_id": "stroop-trial-1-unrelated-6", "trial_type": "html-keyboard-response", "trial_index": 59, "time_elapsed": 170649, "internal_node_id": "0.0-4.0-55.0"}}, {"uniqueid": "w69059857:a43468892", "current_trial": 60, "dateTime": 1664873318020, "trialdata": {"rt": 1194, "stimulus": "<p id='stroop-text' class='stroop-red'>BLUE</p>", "response": "r", "stimulus-type": "incongruent", "word": "blue", "color": "red", "correct_response": "r", "trial_id": "stroop-trial-1-incongruent-5", "trial_type": "html-keyboard-response", "trial_index": 60, "time_elapsed": 172345, "internal_node_id": "0.0-4.0-56.0"}}, {"uniqueid": "w69059857:a43468892", "current_trial": 61, "dateTime": 1664873319612, "trialdata": {"rt": 1090, "stimulus": "<p id='stroop-text' class='stroop-green'>GREEN</p>", "response": "g", "stimulus-type": "congruent", "word": "green", "color": "green", "correct_response": "g", "trial_id": "stroop-trial-1-congruent-22", "trial_type": "html-keyboard-response", "trial_index": 61, "time_elapsed": 173937, "internal_node_id": "0.0-4.0-57.0"}}, {"uniqueid": "w69059857:a43468892", "current_trial": 62, "dateTime": 1664873320668, "trialdata": {"rt": 554, "stimulus": "<p id='stroop-text' class='stroop-blue'>DOG</p>", "response": "b", "stimulus-type": "unrelated", "word": "DOG", "color": "blue", "correct_response": "b", "trial_id": "stroop-trial-1-unrelated-14", "trial_type": "html-keyboard-response", "trial_index": 62, "time_elapsed": 174993, "internal_node_id": "0.0-4.0-58.0"}}, {"uniqueid": "w69059857:a43468892", "current_trial": 63, "dateTime": 1664873321876, "trialdata": {"rt": 706, "stimulus": "<p id='stroop-text' class='stroop-red'>RED</p>", "response": "r", "stimulus-type": "congruent", "word": "red", "color": "red", "correct_response": "r", "trial_id": "stroop-trial-1-congruent-18", "trial_type": "html-keyboard-response", "trial_index": 63, "time_elapsed": 176201, "internal_node_id": "0.0-4.0-59.0"}}, {"uniqueid": "w69059857:a43468892", "current_trial": 64, "dateTime": 1664873323028, "trialdata": {"rt": 649, "stimulus": "<p id='stroop-text' class='stroop-red'>YELLOW</p>", "response": "r", "stimulus-type": "incongruent", "word": "yellow", "color": "red", "correct_response": "r", "trial_id": "stroop-trial-1-incongruent-6", "trial_type": "html-keyboard-response", "trial_index": 64, "time_elapsed": 177353, "internal_node_id": "0.0-4.0-60.0"}}, {"uniqueid": "w69059857:a43468892", "current_trial": 65, "dateTime": 1664873324116, "trialdata": {"rt": 586, "stimulus": "<p id='stroop-text' class='stroop-yellow'>YELLOW</p>", "response": "y", "stimulus-type": "congruent", "word": "yellow", "color": "yellow", "correct_response": "y", "trial_id": "stroop-trial-1-congruent-29", "trial_type": "html-keyboard-response", "trial_index": 65, "time_elapsed": 178441, "internal_node_id": "0.0-4.0-61.0"}}, {"uniqueid": "w69059857:a43468892", "current_trial": 66, "dateTime": 1664873325132, "trialdata": {"rt": 514, "stimulus": "<p id='stroop-text' class='stroop-red'>RED</p>", "response": "r", "stimulus-type": "congruent", "word": "red", "color": "red", "correct_response": "r", "trial_id": "stroop-trial-1-congruent-26", "trial_type": "html-keyboard-response", "trial_index": 66, "time_elapsed": 179457, "internal_node_id": "0.0-4.0-62.0"}}, {"uniqueid": "w69059857:a43468892", "current_trial": 67, "dateTime": 1664873326669, "trialdata": {"rt": 1034, "stimulus": "<p id='stroop-text' class='stroop-green'>BLUE</p>", "response": "g", "stimulus-type": "incongruent", "word": "blue", "color": "green", "correct_response": "g", "trial_id": "stroop-trial-1-incongruent-27", "trial_type": "html-keyboard-response", "trial_index": 67, "time_elapsed": 180994, "internal_node_id": "0.0-4.0-63.0"}}, {"uniqueid": "w69059857:a43468892", "current_trial": 68, "dateTime": 1664873327660, "trialdata": {"rt": 489, "stimulus": "<p id='stroop-text' class='stroop-blue'>FORK</p>", "response": "b", "stimulus-type": "unrelated", "word": "FORK", "color": "blue", "correct_response": "b", "trial_id": "stroop-trial-1-unrelated-30", "trial_type": "html-keyboard-response", "trial_index": 68, "time_elapsed": 181985, "internal_node_id": "0.0-4.0-64.0"}}, {"uniqueid": "w69059857:a43468892", "current_trial": 69, "dateTime": 1664873328581, "trialdata": {"rt": 418, "stimulus": "<p id='stroop-text' class='stroop-blue'>YELLOW</p>", "response": "b", "stimulus-type": "incongruent", "word": "yellow", "color": "blue", "correct_response": "b", "trial_id": "stroop-trial-1-incongruent-22", "trial_type": "html-keyboard-response", "trial_index": 69, "time_elapsed": 182906, "internal_node_id": "0.0-4.0-65.0"}}, {"uniqueid": "w69059857:a43468892", "current_trial": 70, "dateTime": 1664873329604, "trialdata": {"rt": 520, "stimulus": "<p id='stroop-text' class='stroop-yellow'>YELLOW</p>", "response": "y", "stimulus-type": "congruent", "word": "yellow", "color": "yellow", "correct_response": "y", "trial_id": "stroop-trial-1-congruent-13", "trial_type": "html-keyboard-response", "trial_index": 70, "time_elapsed": 183929, "internal_node_id": "0.0-4.0-66.0"}}, {"uniqueid": "w69059857:a43468892", "current_trial": 71, "dateTime": 1664873330852, "trialdata": {"rt": 745, "stimulus": "<p id='stroop-text' class='stroop-red'>STONE</p>", "response": "r", "stimulus-type": "unrelated", "word": "STONE", "color": "red", "correct_response": "r", "trial_id": "stroop-trial-1-unrelated-4", "trial_type": "html-keyboard-response", "trial_index": 71, "time_elapsed": 185177, "internal_node_id": "0.0-4.0-67.0"}}, {"uniqueid": "w69059857:a43468892", "current_trial": 72, "dateTime": 1664873332061, "trialdata": {"rt": 706, "stimulus": "<p id='stroop-text' class='stroop-blue'>STONE</p>", "response": "y", "stimulus-type": "unrelated", "word": "STONE", "color": "blue", "correct_response": "b", "trial_id": "stroop-trial-1-unrelated-3", "trial_type": "html-keyboard-response", "trial_index": 72, "time_elapsed": 186386, "internal_node_id": "0.0-4.0-68.0"}}, {"uniqueid": "w69059857:a43468892", "current_trial": 73, "dateTime": 1664873333149, "trialdata": {"rt": 586, "stimulus": "<p id='stroop-text' class='stroop-yellow'>YELLOW</p>", "response": "y", "stimulus-type": "congruent", "word": "yellow", "color": "yellow", "correct_response": "y", "trial_id": "stroop-trial-1-congruent-19", "trial_type": "html-keyboard-response", "trial_index": 73, "time_elapsed": 187474, "internal_node_id": "0.0-4.0-69.0"}}, {"uniqueid": "w69059857:a43468892", "current_trial": 74, "dateTime": 1664873334165, "trialdata": {"rt": 514, "stimulus": "<p id='stroop-text' class='stroop-yellow'>SHIP</p>", "response": "y", "stimulus-type": "unrelated", "word": "SHIP", "color": "yellow", "correct_response": "y", "trial_id": "stroop-trial-1-unrelated-18", "trial_type": "html-keyboard-response", "trial_index": 74, "time_elapsed": 188490, "internal_node_id": "0.0-4.0-70.0"}}, {"uniqueid": "w69059857:a43468892", "current_trial": 75, "dateTime": 1664873335061, "trialdata": {"rt": 393, "stimulus": "<p id='stroop-text' class='stroop-yellow'>MONKEY</p>", "response": "y", "stimulus-type": "unrelated", "word": "MONKEY", "color": "yellow", "correct_response": "y", "trial_id": "stroop-trial-1-unrelated-19", "trial_type": "html-keyboard-response", "trial_index": 75, "time_elapsed": 189386, "internal_node_id": "0.0-4.0-71.0"}}, {"uniqueid": "w69059857:a43468892", "current_trial": 76, "dateTime": 1664873336501, "trialdata": {"rt": 938, "stimulus": "<p id='stroop-text' class='stroop-red'>RED</p>", "response": "r", "stimulus-type": "congruent", "word": "red", "color": "red", "correct_response": "r", "trial_id": "stroop-trial-1-congruent-20", "trial_type": "html-keyboard-response", "trial_index": 76, "time_elapsed": 190826, "internal_node_id": "0.0-4.0-72.0"}}, {"uniqueid": "w69059857:a43468892", "current_trial": 77, "dateTime": 1664873338253, "trialdata": {"rt": 1250, "stimulus": "<p id='stroop-text' class='stroop-green'>SHIP</p>", "response": "g", "stimulus-type": "unrelated", "word": "SHIP", "color": "green", "correct_response": "g", "trial_id": "stroop-trial-1-unrelated-29", "trial_type": "html-keyboard-response", "trial_index": 77, "time_elapsed": 192578, "internal_node_id": "0.0-4.0-73.0"}}, {"uniqueid": "w69059857:a43468892", "current_trial": 78, "dateTime": 1664873339661, "trialdata": {"rt": 906, "stimulus": "<p id='stroop-text' class='stroop-red'>BOTTLE</p>", "response": "r", "stimulus-type": "unrelated", "word": "BOTTLE", "color": "red", "correct_response": "r", "trial_id": "stroop-trial-1-unrelated-21", "trial_type": "html-keyboard-response", "trial_index": 78, "time_elapsed": 193986, "internal_node_id": "0.0-4.0-74.0"}}, {"uniqueid": "w69059857:a43468892", "current_trial": 79, "dateTime": 1664873340709, "trialdata": {"rt": 546, "stimulus": "<p id='stroop-text' class='stroop-red'>RED</p>", "response": "r", "stimulus-type": "congruent", "word": "red", "color": "red", "correct_response": "r", "trial_id": "stroop-trial-1-congruent-2", "trial_type": "html-keyboard-response", "trial_index": 79, "time_elapsed": 195034, "internal_node_id": "0.0-4.0-75.0"}}, {"uniqueid": "w69059857:a43468892", "current_trial": 80, "dateTime": 1664873341573, "trialdata": {"rt": 362, "stimulus": "<p id='stroop-text' class='stroop-red'>BOAT</p>", "response": "r", "stimulus-type": "unrelated", "word": "BOAT", "color": "red", "correct_response": "r", "trial_id": "stroop-trial-1-unrelated-22", "trial_type": "html-keyboard-response", "trial_index": 80, "time_elapsed": 195898, "internal_node_id": "0.0-4.0-76.0"}}, {"uniqueid": "w69059857:a43468892", "current_trial": 81, "dateTime": 1664873342725, "trialdata": {"rt": 650, "stimulus": "<p id='stroop-text' class='stroop-blue'>DOG</p>", "response": "b", "stimulus-type": "unrelated", "word": "DOG", "color": "blue", "correct_response": "b", "trial_id": "stroop-trial-1-unrelated-2", "trial_type": "html-keyboard-response", "trial_index": 81, "time_elapsed": 197050, "internal_node_id": "0.0-4.0-77.0"}}, {"uniqueid": "w69059857:a43468892", "current_trial": 82, "dateTime": 1664873343933, "trialdata": {"rt": 706, "stimulus": "<p id='stroop-text' class='stroop-green'>STONE</p>", "response": "g", "stimulus-type": "unrelated", "word": "STONE", "color": "green", "correct_response": "g", "trial_id": "stroop-trial-1-unrelated-27", "trial_type": "html-keyboard-response", "trial_index": 82, "time_elapsed": 198257, "internal_node_id": "0.0-4.0-78.0"}}, {"uniqueid": "w69059857:a43468892", "current_trial": 83, "dateTime": 1664873344829, "trialdata": {"rt": 393, "stimulus": "<p id='stroop-text' class='stroop-green'>BLUE</p>", "response": "g", "stimulus-type": "incongruent", "word": "blue", "color": "green", "correct_response": "g", "trial_id": "stroop-trial-1-incongruent-4", "trial_type": "html-keyboard-response", "trial_index": 83, "time_elapsed": 199153, "internal_node_id": "0.0-4.0-79.0"}}, {"uniqueid": "w69059857:a43468892", "current_trial": 84, "dateTime": 1664873346013, "trialdata": {"rt": 681, "stimulus": "<p id='stroop-text' class='stroop-blue'>YELLOW</p>", "response": "b", "stimulus-type": "incongruent", "word": "yellow", "color": "blue", "correct_response": "b", "trial_id": "stroop-trial-1-incongruent-29", "trial_type": "html-keyboard-response", "trial_index": 84, "time_elapsed": 200337, "internal_node_id": "0.0-4.0-80.0"}}, {"uniqueid": "w69059857:a43468892", "current_trial": 85, "dateTime": 1664873346877, "trialdata": {"rt": 362, "stimulus": "<p id='stroop-text' class='stroop-blue'>YELLOW</p>", "response": "b", "stimulus-type": "incongruent", "word": "yellow", "color": "blue", "correct_response": "b", "trial_id": "stroop-trial-1-incongruent-3", "trial_type": "html-keyboard-response", "trial_index": 85, "time_elapsed": 201201, "internal_node_id": "0.0-4.0-81.0"}}, {"uniqueid": "w69059857:a43468892", "current_trial": 86, "dateTime": 1664873348021, "trialdata": {"rt": 642, "stimulus": "<p id='stroop-text' class='stroop-red'>BLUE</p>", "response": "r", "stimulus-type": "incongruent", "word": "blue", "color": "red", "correct_response": "r", "trial_id": "stroop-trial-1-incongruent-16", "trial_type": "html-keyboard-response", "trial_index": 86, "time_elapsed": 202345, "internal_node_id": "0.0-4.0-82.0"}}, {"uniqueid": "w69059857:a43468892", "current_trial": 87, "dateTime": 1664873349269, "trialdata": {"rt": 746, "stimulus": "<p id='stroop-text' class='stroop-green'>GREEN</p>", "response": "g", "stimulus-type": "congruent", "word": "green", "color": "green", "correct_response": "g", "trial_id": "stroop-trial-1-congruent-11", "trial_type": "html-keyboard-response", "trial_index": 87, "time_elapsed": 203594, "internal_node_id": "0.0-4.0-83.0"}}, {"uniqueid": "w69059857:a43468892", "current_trial": 88, "dateTime": 1664873350325, "trialdata": {"rt": 553, "stimulus": "<p id='stroop-text' class='stroop-yellow'>YELLOW</p>", "response": "y", "stimulus-type": "congruent", "word": "yellow", "color": "yellow", "correct_response": "y", "trial_id": "stroop-trial-1-congruent-24", "trial_type": "html-keyboard-response", "trial_index": 88, "time_elapsed": 204649, "internal_node_id": "0.0-4.0-84.0"}}, {"uniqueid": "w69059857:a43468892", "current_trial": 89, "dateTime": 1664873351468, "trialdata": {"rt": 642, "stimulus": "<p id='stroop-text' class='stroop-green'>GREEN</p>", "response": "g", "stimulus-type": "congruent", "word": "green", "color": "green", "correct_response": "g", "trial_id": "stroop-trial-1-congruent-14", "trial_type": "html-keyboard-response", "trial_index": 89, "time_elapsed": 205793, "internal_node_id": "0.0-4.0-85.0"}}, {"uniqueid": "w69059857:a43468892", "current_trial": 90, "dateTime": 1664873352620, "trialdata": {"rt": 650, "stimulus": "<p id='stroop-text' class='stroop-yellow'>YELLOW</p>", "response": "y", "stimulus-type": "congruent", "word": "yellow", "color": "yellow", "correct_response": "y", "trial_id": "stroop-trial-1-congruent-5", "trial_type": "html-keyboard-response", "trial_index": 90, "time_elapsed": 206945, "internal_node_id": "0.0-4.0-86.0"}}, {"uniqueid": "w69059857:a43468892", "current_trial": 91, "dateTime": 1664873353645, "trialdata": {"rt": 522, "stimulus": "<p id='stroop-text' class='stroop-green'>RED</p>", "response": "g", "stimulus-type": "incongruent", "word": "red", "color": "green", "correct_response": "g", "trial_id": "stroop-trial-1-incongruent-15", "trial_type": "html-keyboard-response", "trial_index": 91, "time_elapsed": 207969, "internal_node_id": "0.0-4.0-87.0"}}, {"uniqueid": "w69059857:a43468892", "current_trial": 92, "dateTime": 1664873354725, "trialdata": {"rt": 578, "stimulus": "<p id='stroop-text' class='stroop-yellow'>SHIP</p>", "response": "y", "stimulus-type": "unrelated", "word": "SHIP", "color": "yellow", "correct_response": "y", "trial_id": "stroop-trial-1-unrelated-13", "trial_type": "html-keyboard-response", "trial_index": 92, "time_elapsed": 209049, "internal_node_id": "0.0-4.0-88.0"}}, {"uniqueid": "w69059857:a43468892", "current_trial": 93, "dateTime": 1664873355748, "trialdata": {"rt": 522, "stimulus": "<p id='stroop-text' class='stroop-green'>GREEN</p>", "response": "g", "stimulus-type": "congruent", "word": "green", "color": "green", "correct_response": "g", "trial_id": "stroop-trial-1-congruent-7", "trial_type": "html-keyboard-response", "trial_index": 93, "time_elapsed": 210073, "internal_node_id": "0.0-4.0-89.0"}}, {"uniqueid": "w69059857:a43468892", "current_trial": 94, "dateTime": 1664873362517, "trialdata": {"rt": 6264, "stimulus": "  <h1> End of block! </h1>\n\n  You have reached the end of the block 1/5. If you need a short break, feel free to take one now before moving on.\n\n  <br><br>\n  In the next block, you will complete another 90 rounds of this game.\n\n  <br><br>\n  <div style='text-align: center;'>Press <code>space</code> to begin.</div>\n  <br><br>\n<div style='text-align: center;'>(If the experiment doesn't continue, try clicking on the text and then pressing <code>space</code>.)</div>", "response": " ", "trial_id": "stroop_1_ready_2", "trial_type": "html-keyboard-response", "trial_index": 94, "time_elapsed": 216842, "internal_node_id": "0.0-5.0"}}, {"uniqueid": "w69059857:a43468892", "current_trial": 95, "dateTime": 1664873363476, "trialdata": {"rt": 957, "stimulus": "<p id='stroop-text' class='stroop-red'>FORK</p>", "response": "r", "stimulus-type": "unrelated", "word": "FORK", "color": "red", "correct_response": "r", "trial_id": "stroop-trial-1-unrelated-16", "trial_type": "html-keyboard-response", "trial_index": 95, "time_elapsed": 217801, "internal_node_id": "0.0-6.0-0.0"}}, {"uniqueid": "w69059857:a43468892", "current_trial": 96, "dateTime": 1664873364588, "trialdata": {"rt": 609, "stimulus": "<p id='stroop-text' class='stroop-blue'>BLUE</p>", "response": "b", "stimulus-type": "congruent", "word": "blue", "color": "blue", "correct_response": "b", "trial_id": "stroop-trial-1-congruent-14", "trial_type": "html-keyboard-response", "trial_index": 96, "time_elapsed": 218913, "internal_node_id": "0.0-6.0-1.0"}}, {"uniqueid": "w69059857:a43468892", "current_trial": 97, "dateTime": 1664873365932, "trialdata": {"rt": 842, "stimulus": "<p id='stroop-text' class='stroop-yellow'>RED</p>", "response": "y", "stimulus-type": "incongruent", "word": "red", "color": "yellow", "correct_response": "y", "trial_id": "stroop-trial-1-incongruent-6", "trial_type": "html-keyboard-response", "trial_index": 97, "time_elapsed": 220257, "internal_node_id": "0.0-6.0-2.0"}}, {"uniqueid": "w69059857:a43468892", "current_trial": 98, "dateTime": 1664873367300, "trialdata": {"rt": 865, "stimulus": "<p id='stroop-text' class='stroop-green'>GREEN</p>", "response": "g", "stimulus-type": "congruent", "word": "green", "color": "green", "correct_response": "g", "trial_id": "stroop-trial-1-congruent-25", "trial_type": "html-keyboard-response", "trial_index": 98, "time_elapsed": 221625, "internal_node_id": "0.0-6.0-3.0"}}, {"uniqueid": "w69059857:a43468892", "current_trial": 99, "dateTime": 1664873368900, "trialdata": {"rt": 1098, "stimulus": "<p id='stroop-text' class='stroop-blue'>WINDOW</p>", "response": "b", "stimulus-type": "unrelated", "word": "WINDOW", "color": "blue", "correct_response": "b", "trial_id": "stroop-trial-1-unrelated-1", "trial_type": "html-keyboard-response", "trial_index": 99, "time_elapsed": 223225, "internal_node_id": "0.0-6.0-4.0"}}, {"uniqueid": "w69059857:a43468892", "current_trial": 100, "dateTime": 1664873370020, "trialdata": {"rt": 618, "stimulus": "<p id='stroop-text' class='stroop-red'>BLUE</p>", "response": "r", "stimulus-type": "incongruent", "word": "blue", "color": "red", "correct_response": "r", "trial_id": "stroop-trial-1-incongruent-22", "trial_type": "html-keyboard-response", "trial_index": 100, "time_elapsed": 224345, "internal_node_id": "0.0-6.0-5.0"}}, {"uniqueid": "w69059857:a43468892", "current_trial": 101, "dateTime": 1664873372060, "trialdata": {"rt": 1538, "stimulus": "<p id='stroop-text' class='stroop-green'>GREEN</p>", "response": "g", "stimulus-type": "congruent", "word": "green", "color": "green", "correct_response": "g", "trial_id": "stroop-trial-1-congruent-4", "trial_type": "html-keyboard-response", "trial_index": 101, "time_elapsed": 226385, "internal_node_id": "0.0-6.0-6.0"}}, {"uniqueid": "w69059857:a43468892", "current_trial": 102, "dateTime": 1664873373212, "trialdata": {"rt": 650, "stimulus": "<p id='stroop-text' class='stroop-blue'>BOTTLE</p>", "response": "b", "stimulus-type": "unrelated", "word": "BOTTLE", "color": "blue", "correct_response": "b", "trial_id": "stroop-trial-1-unrelated-26", "trial_type": "html-keyboard-response", "trial_index": 102, "time_elapsed": 227537, "internal_node_id": "0.0-6.0-7.0"}}, {"uniqueid": "w69059857:a43468892", "current_trial": 103, "dateTime": 1664873374772, "trialdata": {"rt": 1057, "stimulus": "<p id='stroop-text' class='stroop-green'>WINDOW</p>", "response": "g", "stimulus-type": "unrelated", "word": "WINDOW", "color": "green", "correct_response": "g", "trial_id": "stroop-trial-1-unrelated-25", "trial_type": "html-keyboard-response", "trial_index": 103, "time_elapsed": 229096, "internal_node_id": "0.0-6.0-8.0"}}, {"uniqueid": "w69059857:a43468892", "current_trial": 104, "dateTime": 1664873375956, "trialdata": {"rt": 681, "stimulus": "<p id='stroop-text' class='stroop-red'>DOG</p>", "response": "r", "stimulus-type": "unrelated", "word": "DOG", "color": "red", "correct_response": "r", "trial_id": "stroop-trial-1-unrelated-29", "trial_type": "html-keyboard-response", "trial_index": 104, "time_elapsed": 230281, "internal_node_id": "0.0-6.0-9.0"}}, {"uniqueid": "w69059857:a43468892", "current_trial": 105, "dateTime": 1664873377044, "trialdata": {"rt": 585, "stimulus": "<p id='stroop-text' class='stroop-yellow'>YELLOW</p>", "response": "y", "stimulus-type": "congruent", "word": "yellow", "color": "yellow", "correct_response": "y", "trial_id": "stroop-trial-1-congruent-20", "trial_type": "html-keyboard-response", "trial_index": 105, "time_elapsed": 231369, "internal_node_id": "0.0-6.0-10.0"}}, {"uniqueid": "w69059857:a43468892", "current_trial": 106, "dateTime": 1664873378988, "trialdata": {"rt": 1440, "stimulus": "<p id='stroop-text' class='stroop-green'>GREEN</p>", "response": "g", "stimulus-type": "congruent", "word": "green", "color": "green", "correct_response": "g", "trial_id": "stroop-trial-1-congruent-11", "trial_type": "html-keyboard-response", "trial_index": 106, "time_elapsed": 233312, "internal_node_id": "0.0-6.0-11.0"}}, {"uniqueid": "w69059857:a43468892", "current_trial": 107, "dateTime": 1664873380108, "trialdata": {"rt": 618, "stimulus": "<p id='stroop-text' class='stroop-red'>GREEN</p>", "response": "r", "stimulus-type": "incongruent", "word": "green", "color": "red", "correct_response": "r", "trial_id": "stroop-trial-1-incongruent-29", "trial_type": "html-keyboard-response", "trial_index": 107, "time_elapsed": 234432, "internal_node_id": "0.0-6.0-12.0"}}, {"uniqueid": "w69059857:a43468892", "current_trial": 108, "dateTime": 1664873381124, "trialdata": {"rt": 514, "stimulus": "<p id='stroop-text' class='stroop-red'>YELLOW</p>", "response": "r", "stimulus-type": "incongruent", "word": "yellow", "color": "red", "correct_response": "r", "trial_id": "stroop-trial-1-incongruent-9", "trial_type": "html-keyboard-response", "trial_index": 108, "time_elapsed": 235448, "internal_node_id": "0.0-6.0-13.0"}}, {"uniqueid": "w69059857:a43468892", "current_trial": 109, "dateTime": 1664873382308, "trialdata": {"rt": 682, "stimulus": "<p id='stroop-text' class='stroop-green'>RED</p>", "response": "g", "stimulus-type": "incongruent", "word": "red", "color": "green", "correct_response": "g", "trial_id": "stroop-trial-1-incongruent-15", "trial_type": "html-keyboard-response", "trial_index": 109, "time_elapsed": 236632, "internal_node_id": "0.0-6.0-14.0"}}, {"uniqueid": "w69059857:a43468892", "current_trial": 110, "dateTime": 1664873383460, "trialdata": {"rt": 650, "stimulus": "<p id='stroop-text' class='stroop-yellow'>WINDOW</p>", "response": "y", "stimulus-type": "unrelated", "word": "WINDOW", "color": "yellow", "correct_response": "y", "trial_id": "stroop-trial-1-unrelated-28", "trial_type": "html-keyboard-response", "trial_index": 110, "time_elapsed": 237784, "internal_node_id": "0.0-6.0-15.0"}}, {"uniqueid": "w69059857:a43468892", "current_trial": 111, "dateTime": 1664873384700, "trialdata": {"rt": 738, "stimulus": "<p id='stroop-text' class='stroop-green'>GREEN</p>", "response": "g", "stimulus-type": "congruent", "word": "green", "color": "green", "correct_response": "g", "trial_id": "stroop-trial-1-congruent-22", "trial_type": "html-keyboard-response", "trial_index": 111, "time_elapsed": 239024, "internal_node_id": "0.0-6.0-16.0"}}, {"uniqueid": "w69059857:a43468892", "current_trial": 112, "dateTime": 1664873385660, "trialdata": {"rt": 457, "stimulus": "<p id='stroop-text' class='stroop-blue'>BLUE</p>", "response": "b", "stimulus-type": "congruent", "word": "blue", "color": "blue", "correct_response": "b", "trial_id": "stroop-trial-1-congruent-28", "trial_type": "html-keyboard-response", "trial_index": 112, "time_elapsed": 239984, "internal_node_id": "0.0-6.0-17.0"}}, {"uniqueid": "w69059857:a43468892", "current_trial": 113, "dateTime": 1664873386779, "trialdata": {"rt": 618, "stimulus": "<p id='stroop-text' class='stroop-yellow'>YELLOW</p>", "response": "y", "stimulus-type": "congruent", "word": "yellow", "color": "yellow", "correct_response": "y", "trial_id": "stroop-trial-1-congruent-9", "trial_type": "html-keyboard-response", "trial_index": 113, "time_elapsed": 241104, "internal_node_id": "0.0-6.0-18.0"}}, {"uniqueid": "w69059857:a43468892", "current_trial": 114, "dateTime": 1664873387956, "trialdata": {"rt": 674, "stimulus": "<p id='stroop-text' class='stroop-blue'>BRIDGE</p>", "response": "b", "stimulus-type": "unrelated", "word": "BRIDGE", "color": "blue", "correct_response": "b", "trial_id": "stroop-trial-1-unrelated-18", "trial_type": "html-keyboard-response", "trial_index": 114, "time_elapsed": 242280, "internal_node_id": "0.0-6.0-19.0"}}, {"uniqueid": "w69059857:a43468892", "current_trial": 115, "dateTime": 1664873389171, "trialdata": {"rt": 713, "stimulus": "<p id='stroop-text' class='stroop-yellow'>SHIP</p>", "response": "y", "stimulus-type": "unrelated", "word": "SHIP", "color": "yellow", "correct_response": "y", "trial_id": "stroop-trial-1-unrelated-6", "trial_type": "html-keyboard-response", "trial_index": 115, "time_elapsed": 243496, "internal_node_id": "0.0-6.0-20.0"}}, {"uniqueid": "w69059857:a43468892", "current_trial": 116, "dateTime": 1664873390187, "trialdata": {"rt": 514, "stimulus": "<p id='stroop-text' class='stroop-blue'>BLUE</p>", "response": "b", "stimulus-type": "congruent", "word": "blue", "color": "blue", "correct_response": "b", "trial_id": "stroop-trial-1-congruent-6", "trial_type": "html-keyboard-response", "trial_index": 116, "time_elapsed": 244512, "internal_node_id": "0.0-6.0-21.0"}}, {"uniqueid": "w69059857:a43468892", "current_trial": 117, "dateTime": 1664873391083, "trialdata": {"rt": 392, "stimulus": "<p id='stroop-text' class='stroop-blue'>YELLOW</p>", "response": "b", "stimulus-type": "incongruent", "word": "yellow", "color": "blue", "correct_response": "b", "trial_id": "stroop-trial-1-incongruent-3", "trial_type": "html-keyboard-response", "trial_index": 117, "time_elapsed": 245408, "internal_node_id": "0.0-6.0-22.0"}}, {"uniqueid": "w69059857:a43468892", "current_trial": 118, "dateTime": 1664873392173, "trialdata": {"rt": 586, "stimulus": "<p id='stroop-text' class='stroop-green'>GREEN</p>", "response": "g", "stimulus-type": "congruent", "word": "green", "color": "green", "correct_response": "g", "trial_id": "stroop-trial-1-congruent-7", "trial_type": "html-keyboard-response", "trial_index": 118, "time_elapsed": 246497, "internal_node_id": "0.0-6.0-23.0"}}, {"uniqueid": "w69059857:a43468892", "current_trial": 119, "dateTime": 1664873393228, "trialdata": {"rt": 553, "stimulus": "<p id='stroop-text' class='stroop-yellow'>MONKEY</p>", "response": "y", "stimulus-type": "unrelated", "word": "MONKEY", "color": "yellow", "correct_response": "y", "trial_id": "stroop-trial-1-unrelated-30", "trial_type": "html-keyboard-response", "trial_index": 119, "time_elapsed": 247553, "internal_node_id": "0.0-6.0-24.0"}}, {"uniqueid": "w69059857:a43468892", "current_trial": 120, "dateTime": 1664873394373, "trialdata": {"rt": 642, "stimulus": "<p id='stroop-text' class='stroop-green'>WINDOW</p>", "response": "b", "stimulus-type": "unrelated", "word": "WINDOW", "color": "green", "correct_response": "g", "trial_id": "stroop-trial-1-unrelated-20", "trial_type": "html-keyboard-response", "trial_index": 120, "time_elapsed": 248698, "internal_node_id": "0.0-6.0-25.0"}}, {"uniqueid": "w69059857:a43468892", "current_trial": 121, "dateTime": 1664873395492, "trialdata": {"rt": 616, "stimulus": "<p id='stroop-text' class='stroop-green'>GREEN</p>", "response": "g", "stimulus-type": "congruent", "word": "green", "color": "green", "correct_response": "g", "trial_id": "stroop-trial-1-congruent-29", "trial_type": "html-keyboard-response", "trial_index": 121, "time_elapsed": 249817, "internal_node_id": "0.0-6.0-26.0"}}, {"uniqueid": "w69059857:a43468892", "current_trial": 122, "dateTime": 1664873396796, "trialdata": {"rt": 802, "stimulus": "<p id='stroop-text' class='stroop-blue'>FORK</p>", "response": "b", "stimulus-type": "unrelated", "word": "FORK", "color": "blue", "correct_response": "b", "trial_id": "stroop-trial-1-unrelated-7", "trial_type": "html-keyboard-response", "trial_index": 122, "time_elapsed": 251121, "internal_node_id": "0.0-6.0-27.0"}}, {"uniqueid": "w69059857:a43468892", "current_trial": 123, "dateTime": 1664873397916, "trialdata": {"rt": 617, "stimulus": "<p id='stroop-text' class='stroop-red'>BLUE</p>", "response": "r", "stimulus-type": "incongruent", "word": "blue", "color": "red", "correct_response": "r", "trial_id": "stroop-trial-1-incongruent-2", "trial_type": "html-keyboard-response", "trial_index": 123, "time_elapsed": 252241, "internal_node_id": "0.0-6.0-28.0"}}, {"uniqueid": "w69059857:a43468892", "current_trial": 124, "dateTime": 1664873399388, "trialdata": {"rt": 969, "stimulus": "<p id='stroop-text' class='stroop-yellow'>BLUE</p>", "response": "y", "stimulus-type": "incongruent", "word": "blue", "color": "yellow", "correct_response": "y", "trial_id": "stroop-trial-1-incongruent-11", "trial_type": "html-keyboard-response", "trial_index": 124, "time_elapsed": 253713, "internal_node_id": "0.0-6.0-29.0"}}, {"uniqueid": "w69059857:a43468892", "current_trial": 125, "dateTime": 1664873400372, "trialdata": {"rt": 482, "stimulus": "<p id='stroop-text' class='stroop-yellow'>YELLOW</p>", "response": "y", "stimulus-type": "congruent", "word": "yellow", "color": "yellow", "correct_response": "y", "trial_id": "stroop-trial-1-congruent-8", "trial_type": "html-keyboard-response", "trial_index": 125, "time_elapsed": 254697, "internal_node_id": "0.0-6.0-30.0"}}, {"uniqueid": "w69059857:a43468892", "current_trial": 126, "dateTime": 1664873401780, "trialdata": {"rt": 905, "stimulus": "<p id='stroop-text' class='stroop-red'>YELLOW</p>", "response": "r", "stimulus-type": "incongruent", "word": "yellow", "color": "red", "correct_response": "r", "trial_id": "stroop-trial-1-incongruent-16", "trial_type": "html-keyboard-response", "trial_index": 126, "time_elapsed": 256105, "internal_node_id": "0.0-6.0-31.0"}}, {"uniqueid": "w69059857:a43468892", "current_trial": 127, "dateTime": 1664873402740, "trialdata": {"rt": 458, "stimulus": "<p id='stroop-text' class='stroop-red'>BLUE</p>", "response": "r", "stimulus-type": "incongruent", "word": "blue", "color": "red", "correct_response": "r", "trial_id": "stroop-trial-1-incongruent-8", "trial_type": "html-keyboard-response", "trial_index": 127, "time_elapsed": 257065, "internal_node_id": "0.0-6.0-32.0"}}, {"uniqueid": "w69059857:a43468892", "current_trial": 128, "dateTime": 1664873403916, "trialdata": {"rt": 674, "stimulus": "<p id='stroop-text' class='stroop-blue'>BLUE</p>", "response": "b", "stimulus-type": "congruent", "word": "blue", "color": "blue", "correct_response": "b", "trial_id": "stroop-trial-1-congruent-24", "trial_type": "html-keyboard-response", "trial_index": 128, "time_elapsed": 258241, "internal_node_id": "0.0-6.0-33.0"}}, {"uniqueid": "w69059857:a43468892", "current_trial": 129, "dateTime": 1664873405836, "trialdata": {"rt": 1418, "stimulus": "<p id='stroop-text' class='stroop-red'>RED</p>", "response": "r", "stimulus-type": "congruent", "word": "red", "color": "red", "correct_response": "r", "trial_id": "stroop-trial-1-congruent-19", "trial_type": "html-keyboard-response", "trial_index": 129, "time_elapsed": 260161, "internal_node_id": "0.0-6.0-34.0"}}, {"uniqueid": "w69059857:a43468892", "current_trial": 130, "dateTime": 1664873407012, "trialdata": {"rt": 672, "stimulus": "<p id='stroop-text' class='stroop-yellow'>STONE</p>", "response": "y", "stimulus-type": "unrelated", "word": "STONE", "color": "yellow", "correct_response": "y", "trial_id": "stroop-trial-1-unrelated-12", "trial_type": "html-keyboard-response", "trial_index": 130, "time_elapsed": 261337, "internal_node_id": "0.0-6.0-35.0"}}, {"uniqueid": "w69059857:a43468892", "current_trial": 131, "dateTime": 1664873407940, "trialdata": {"rt": 426, "stimulus": "<p id='stroop-text' class='stroop-yellow'>BLUE</p>", "response": "y", "stimulus-type": "incongruent", "word": "blue", "color": "yellow", "correct_response": "y", "trial_id": "stroop-trial-1-incongruent-28", "trial_type": "html-keyboard-response", "trial_index": 131, "time_elapsed": 262265, "internal_node_id": "0.0-6.0-36.0"}}, {"uniqueid": "w69059857:a43468892", "current_trial": 132, "dateTime": 1664873408804, "trialdata": {"rt": 361, "stimulus": "<p id='stroop-text' class='stroop-yellow'>RED</p>", "response": "y", "stimulus-type": "incongruent", "word": "red", "color": "yellow", "correct_response": "y", "trial_id": "stroop-trial-1-incongruent-5", "trial_type": "html-keyboard-response", "trial_index": 132, "time_elapsed": 263129, "internal_node_id": "0.0-6.0-37.0"}}, {"uniqueid": "w69059857:a43468892", "current_trial": 133, "dateTime": 1664873409668, "trialdata": {"rt": 361, "stimulus": "<p id='stroop-text' class='stroop-yellow'>BRAIN</p>", "response": "y", "stimulus-type": "unrelated", "word": "BRAIN", "color": "yellow", "correct_response": "y", "trial_id": "stroop-trial-1-unrelated-22", "trial_type": "html-keyboard-response", "trial_index": 133, "time_elapsed": 263993, "internal_node_id": "0.0-6.0-38.0"}}, {"uniqueid": "w69059857:a43468892", "current_trial": 134, "dateTime": 1664873410812, "trialdata": {"rt": 641, "stimulus": "<p id='stroop-text' class='stroop-blue'>BLUE</p>", "response": "b", "stimulus-type": "congruent", "word": "blue", "color": "blue", "correct_response": "b", "trial_id": "stroop-trial-1-congruent-12", "trial_type": "html-keyboard-response", "trial_index": 134, "time_elapsed": 265137, "internal_node_id": "0.0-6.0-39.0"}}, {"uniqueid": "w69059857:a43468892", "current_trial": 135, "dateTime": 1664873411708, "trialdata": {"rt": 393, "stimulus": "<p id='stroop-text' class='stroop-blue'>BLUE</p>", "response": "b", "stimulus-type": "congruent", "word": "blue", "color": "blue", "correct_response": "b", "trial_id": "stroop-trial-1-congruent-13", "trial_type": "html-keyboard-response", "trial_index": 135, "time_elapsed": 266033, "internal_node_id": "0.0-6.0-40.0"}}, {"uniqueid": "w69059857:a43468892", "current_trial": 136, "dateTime": 1664873412828, "trialdata": {"rt": 617, "stimulus": "<p id='stroop-text' class='stroop-yellow'>BLUE</p>", "response": "y", "stimulus-type": "incongruent", "word": "blue", "color": "yellow", "correct_response": "y", "trial_id": "stroop-trial-1-incongruent-7", "trial_type": "html-keyboard-response", "trial_index": 136, "time_elapsed": 267152, "internal_node_id": "0.0-6.0-41.0"}}, {"uniqueid": "w69059857:a43468892", "current_trial": 137, "dateTime": 1664873413908, "trialdata": {"rt": 578, "stimulus": "<p id='stroop-text' class='stroop-yellow'>DOG</p>", "response": "b", "stimulus-type": "unrelated", "word": "DOG", "color": "yellow", "correct_response": "y", "trial_id": "stroop-trial-1-unrelated-14", "trial_type": "html-keyboard-response", "trial_index": 137, "time_elapsed": 268232, "internal_node_id": "0.0-6.0-42.0"}}, {"uniqueid": "w69059857:a43468892", "current_trial": 138, "dateTime": 1664873415348, "trialdata": {"rt": 938, "stimulus": "<p id='stroop-text' class='stroop-blue'>BLUE</p>", "response": "b", "stimulus-type": "congruent", "word": "blue", "color": "blue", "correct_response": "b", "trial_id": "stroop-trial-1-congruent-26", "trial_type": "html-keyboard-response", "trial_index": 138, "time_elapsed": 269672, "internal_node_id": "0.0-6.0-43.0"}}, {"uniqueid": "w69059857:a43468892", "current_trial": 139, "dateTime": 1664873416244, "trialdata": {"rt": 393, "stimulus": "<p id='stroop-text' class='stroop-blue'>BOTTLE</p>", "response": "b", "stimulus-type": "unrelated", "word": "BOTTLE", "color": "blue", "correct_response": "b", "trial_id": "stroop-trial-1-unrelated-23", "trial_type": "html-keyboard-response", "trial_index": 139, "time_elapsed": 270569, "internal_node_id": "0.0-6.0-44.0"}}, {"uniqueid": "w69059857:a43468892", "current_trial": 140, "dateTime": 1664873417356, "trialdata": {"rt": 609, "stimulus": "<p id='stroop-text' class='stroop-yellow'>GREEN</p>", "response": "y", "stimulus-type": "incongruent", "word": "green", "color": "yellow", "correct_response": "y", "trial_id": "stroop-trial-1-incongruent-10", "trial_type": "html-keyboard-response", "trial_index": 140, "time_elapsed": 271680, "internal_node_id": "0.0-6.0-45.0"}}, {"uniqueid": "w69059857:a43468892", "current_trial": 141, "dateTime": 1664873418252, "trialdata": {"rt": 394, "stimulus": "<p id='stroop-text' class='stroop-yellow'>MONKEY</p>", "response": "y", "stimulus-type": "unrelated", "word": "MONKEY", "color": "yellow", "correct_response": "y", "trial_id": "stroop-trial-1-unrelated-15", "trial_type": "html-keyboard-response", "trial_index": 141, "time_elapsed": 272576, "internal_node_id": "0.0-6.0-46.0"}}, {"uniqueid": "w69059857:a43468892", "current_trial": 142, "dateTime": 1664873419404, "trialdata": {"rt": 650, "stimulus": "<p id='stroop-text' class='stroop-green'>GREEN</p>", "response": "r", "stimulus-type": "congruent", "word": "green", "color": "green", "correct_response": "g", "trial_id": "stroop-trial-1-congruent-17", "trial_type": "html-keyboard-response", "trial_index": 142, "time_elapsed": 273728, "internal_node_id": "0.0-6.0-47.0"}}, {"uniqueid": "w69059857:a43468892", "current_trial": 143, "dateTime": 1664873420708, "trialdata": {"rt": 801, "stimulus": "<p id='stroop-text' class='stroop-red'>BRAIN</p>", "response": "r", "stimulus-type": "unrelated", "word": "BRAIN", "color": "red", "correct_response": "r", "trial_id": "stroop-trial-1-unrelated-5", "trial_type": "html-keyboard-response", "trial_index": 143, "time_elapsed": 275032, "internal_node_id": "0.0-6.0-48.0"}}, {"uniqueid": "w69059857:a43468892", "current_trial": 144, "dateTime": 1664873421636, "trialdata": {"rt": 425, "stimulus": "<p id='stroop-text' class='stroop-red'>GREEN</p>", "response": "r", "stimulus-type": "incongruent", "word": "green", "color": "red", "correct_response": "r", "trial_id": "stroop-trial-1-incongruent-1", "trial_type": "html-keyboard-response", "trial_index": 144, "time_elapsed": 275960, "internal_node_id": "0.0-6.0-49.0"}}, {"uniqueid": "w69059857:a43468892", "current_trial": 145, "dateTime": 1664873422500, "trialdata": {"rt": 361, "stimulus": "<p id='stroop-text' class='stroop-red'>BRAIN</p>", "response": "r", "stimulus-type": "unrelated", "word": "BRAIN", "color": "red", "correct_response": "r", "trial_id": "stroop-trial-1-unrelated-2", "trial_type": "html-keyboard-response", "trial_index": 145, "time_elapsed": 276824, "internal_node_id": "0.0-6.0-50.0"}}, {"uniqueid": "w69059857:a43468892", "current_trial": 146, "dateTime": 1664873423364, "trialdata": {"rt": 360, "stimulus": "<p id='stroop-text' class='stroop-red'>BOTTLE</p>", "response": "r", "stimulus-type": "unrelated", "word": "BOTTLE", "color": "red", "correct_response": "r", "trial_id": "stroop-trial-1-unrelated-27", "trial_type": "html-keyboard-response", "trial_index": 146, "time_elapsed": 277688, "internal_node_id": "0.0-6.0-51.0"}}, {"uniqueid": "w69059857:a43468892", "current_trial": 147, "dateTime": 1664873424348, "trialdata": {"rt": 480, "stimulus": "<p id='stroop-text' class='stroop-green'>BLUE</p>", "response": "y", "stimulus-type": "incongruent", "word": "blue", "color": "green", "correct_response": "g", "trial_id": "stroop-trial-1-incongruent-17", "trial_type": "html-keyboard-response", "trial_index": 147, "time_elapsed": 278672, "internal_node_id": "0.0-6.0-52.0"}}, {"uniqueid": "w69059857:a43468892", "current_trial": 148, "dateTime": 1664873425403, "trialdata": {"rt": 553, "stimulus": "<p id='stroop-text' class='stroop-green'>YELLOW</p>", "response": "g", "stimulus-type": "incongruent", "word": "yellow", "color": "green", "correct_response": "g", "trial_id": "stroop-trial-1-incongruent-25", "trial_type": "html-keyboard-response", "trial_index": 148, "time_elapsed": 279728, "internal_node_id": "0.0-6.0-53.0"}}, {"uniqueid": "w69059857:a43468892", "current_trial": 149, "dateTime": 1664873426684, "trialdata": {"rt": 777, "stimulus": "<p id='stroop-text' class='stroop-blue'>RED</p>", "response": "b", "stimulus-type": "incongruent", "word": "red", "color": "blue", "correct_response": "b", "trial_id": "stroop-trial-1-incongruent-12", "trial_type": "html-keyboard-response", "trial_index": 149, "time_elapsed": 281008, "internal_node_id": "0.0-6.0-54.0"}}, {"uniqueid": "w69059857:a43468892", "current_trial": 150, "dateTime": 1664873427571, "trialdata": {"rt": 385, "stimulus": "<p id='stroop-text' class='stroop-blue'>BOAT</p>", "response": "b", "stimulus-type": "unrelated", "word": "BOAT", "color": "blue", "correct_response": "b", "trial_id": "stroop-trial-1-unrelated-4", "trial_type": "html-keyboard-response", "trial_index": 150, "time_elapsed": 281896, "internal_node_id": "0.0-6.0-55.0"}}, {"uniqueid": "w69059857:a43468892", "current_trial": 151, "dateTime": 1664873428403, "trialdata": {"rt": 330, "stimulus": "<p id='stroop-text' class='stroop-blue'>RED</p>", "response": "b", "stimulus-type": "incongruent", "word": "red", "color": "blue", "correct_response": "b", "trial_id": "stroop-trial-1-incongruent-4", "trial_type": "html-keyboard-response", "trial_index": 151, "time_elapsed": 282728, "internal_node_id": "0.0-6.0-56.0"}}, {"uniqueid": "w69059857:a43468892", "current_trial": 152, "dateTime": 1664873429523, "trialdata": {"rt": 616, "stimulus": "<p id='stroop-text' class='stroop-yellow'>BOTTLE</p>", "response": "y", "stimulus-type": "unrelated", "word": "BOTTLE", "color": "yellow", "correct_response": "y", "trial_id": "stroop-trial-1-unrelated-11", "trial_type": "html-keyboard-response", "trial_index": 152, "time_elapsed": 283848, "internal_node_id": "0.0-6.0-57.0"}}, {"uniqueid": "w69059857:a43468892", "current_trial": 153, "dateTime": 1664873430411, "trialdata": {"rt": 386, "stimulus": "<p id='stroop-text' class='stroop-yellow'>YELLOW</p>", "response": "y", "stimulus-type": "congruent", "word": "yellow", "color": "yellow", "correct_response": "y", "trial_id": "stroop-trial-1-congruent-23", "trial_type": "html-keyboard-response", "trial_index": 153, "time_elapsed": 284736, "internal_node_id": "0.0-6.0-58.0"}}, {"uniqueid": "w69059857:a43468892", "current_trial": 154, "dateTime": 1664873431275, "trialdata": {"rt": 362, "stimulus": "<p id='stroop-text' class='stroop-yellow'>YELLOW</p>", "response": "y", "stimulus-type": "congruent", "word": "yellow", "color": "yellow", "correct_response": "y", "trial_id": "stroop-trial-1-congruent-27", "trial_type": "html-keyboard-response", "trial_index": 154, "time_elapsed": 285600, "internal_node_id": "0.0-6.0-59.0"}}, {"uniqueid": "w69059857:a43468892", "current_trial": 155, "dateTime": 1664873432139, "trialdata": {"rt": 361, "stimulus": "<p id='stroop-text' class='stroop-yellow'>YELLOW</p>", "response": "y", "stimulus-type": "congruent", "word": "yellow", "color": "yellow", "correct_response": "y", "trial_id": "stroop-trial-1-congruent-16", "trial_type": "html-keyboard-response", "trial_index": 155, "time_elapsed": 286464, "internal_node_id": "0.0-6.0-60.0"}}, {"uniqueid": "w69059857:a43468892", "current_trial": 156, "dateTime": 1664873433003, "trialdata": {"rt": 361, "stimulus": "<p id='stroop-text' class='stroop-yellow'>YELLOW</p>", "response": "y", "stimulus-type": "congruent", "word": "yellow", "color": "yellow", "correct_response": "y", "trial_id": "stroop-trial-1-congruent-30", "trial_type": "html-keyboard-response", "trial_index": 156, "time_elapsed": 287328, "internal_node_id": "0.0-6.0-61.0"}}, {"uniqueid": "w69059857:a43468892", "current_trial": 157, "dateTime": 1664873434307, "trialdata": {"rt": 801, "stimulus": "<p id='stroop-text' class='stroop-red'>RED</p>", "response": "r", "stimulus-type": "congruent", "word": "red", "color": "red", "correct_response": "r", "trial_id": "stroop-trial-1-congruent-5", "trial_type": "html-keyboard-response", "trial_index": 157, "time_elapsed": 288632, "internal_node_id": "0.0-6.0-62.0"}}, {"uniqueid": "w69059857:a43468892", "current_trial": 158, "dateTime": 1664873435203, "trialdata": {"rt": 394, "stimulus": "<p id='stroop-text' class='stroop-red'>BLUE</p>", "response": "r", "stimulus-type": "incongruent", "word": "blue", "color": "red", "correct_response": "r", "trial_id": "stroop-trial-1-incongruent-20", "trial_type": "html-keyboard-response", "trial_index": 158, "time_elapsed": 289528, "internal_node_id": "0.0-6.0-63.0"}}, {"uniqueid": "w69059857:a43468892", "current_trial": 159, "dateTime": 1664873436059, "trialdata": {"rt": 354, "stimulus": "<p id='stroop-text' class='stroop-red'>BLUE</p>", "response": "r", "stimulus-type": "incongruent", "word": "blue", "color": "red", "correct_response": "r", "trial_id": "stroop-trial-1-incongruent-18", "trial_type": "html-keyboard-response", "trial_index": 159, "time_elapsed": 290384, "internal_node_id": "0.0-6.0-64.0"}}, {"uniqueid": "w69059857:a43468892", "current_trial": 160, "dateTime": 1664873437595, "trialdata": {"rt": 1033, "stimulus": "<p id='stroop-text' class='stroop-blue'>GREEN</p>", "response": "b", "stimulus-type": "incongruent", "word": "green", "color": "blue", "correct_response": "b", "trial_id": "stroop-trial-1-incongruent-23", "trial_type": "html-keyboard-response", "trial_index": 160, "time_elapsed": 291920, "internal_node_id": "0.0-6.0-65.0"}}, {"uniqueid": "w69059857:a43468892", "current_trial": 161, "dateTime": 1664873438971, "trialdata": {"rt": 873, "stimulus": "<p id='stroop-text' class='stroop-red'>WINDOW</p>", "response": "r", "stimulus-type": "unrelated", "word": "WINDOW", "color": "red", "correct_response": "r", "trial_id": "stroop-trial-1-unrelated-3", "trial_type": "html-keyboard-response", "trial_index": 161, "time_elapsed": 293296, "internal_node_id": "0.0-6.0-66.0"}}, {"uniqueid": "w69059857:a43468892", "current_trial": 162, "dateTime": 1664873440179, "trialdata": {"rt": 705, "stimulus": "<p id='stroop-text' class='stroop-green'>GREEN</p>", "response": "g", "stimulus-type": "congruent", "word": "green", "color": "green", "correct_response": "g", "trial_id": "stroop-trial-1-congruent-10", "trial_type": "html-keyboard-response", "trial_index": 162, "time_elapsed": 294504, "internal_node_id": "0.0-6.0-67.0"}}, {"uniqueid": "w69059857:a43468892", "current_trial": 163, "dateTime": 1664873441331, "trialdata": {"rt": 650, "stimulus": "<p id='stroop-text' class='stroop-yellow'>MONKEY</p>", "response": "y", "stimulus-type": "unrelated", "word": "MONKEY", "color": "yellow", "correct_response": "y", "trial_id": "stroop-trial-1-unrelated-8", "trial_type": "html-keyboard-response", "trial_index": 163, "time_elapsed": 295656, "internal_node_id": "0.0-6.0-68.0"}}, {"uniqueid": "w69059857:a43468892", "current_trial": 164, "dateTime": 1664873442571, "trialdata": {"rt": 737, "stimulus": "<p id='stroop-text' class='stroop-blue'>BRAIN</p>", "response": "b", "stimulus-type": "unrelated", "word": "BRAIN", "color": "blue", "correct_response": "b", "trial_id": "stroop-trial-1-unrelated-9", "trial_type": "html-keyboard-response", "trial_index": 164, "time_elapsed": 296896, "internal_node_id": "0.0-6.0-69.0"}}, {"uniqueid": "w69059857:a43468892", "current_trial": 165, "dateTime": 1664873443851, "trialdata": {"rt": 776, "stimulus": "<p id='stroop-text' class='stroop-green'>STONE</p>", "response": "g", "stimulus-type": "unrelated", "word": "STONE", "color": "green", "correct_response": "g", "trial_id": "stroop-trial-1-unrelated-13", "trial_type": "html-keyboard-response", "trial_index": 165, "time_elapsed": 298176, "internal_node_id": "0.0-6.0-70.0"}}, {"uniqueid": "w69059857:a43468892", "current_trial": 166, "dateTime": 1664873445131, "trialdata": {"rt": 777, "stimulus": "<p id='stroop-text' class='stroop-blue'>YELLOW</p>", "response": "b", "stimulus-type": "incongruent", "word": "yellow", "color": "blue", "correct_response": "b", "trial_id": "stroop-trial-1-incongruent-21", "trial_type": "html-keyboard-response", "trial_index": 166, "time_elapsed": 299456, "internal_node_id": "0.0-6.0-71.0"}}, {"uniqueid": "w69059857:a43468892", "current_trial": 167, "dateTime": 1664873446019, "trialdata": {"rt": 385, "stimulus": "<p id='stroop-text' class='stroop-blue'>BLUE</p>", "response": "b", "stimulus-type": "congruent", "word": "blue", "color": "blue", "correct_response": "b", "trial_id": "stroop-trial-1-congruent-18", "trial_type": "html-keyboard-response", "trial_index": 167, "time_elapsed": 300344, "internal_node_id": "0.0-6.0-72.0"}}, {"uniqueid": "w69059857:a43468892", "current_trial": 168, "dateTime": 1664873446883, "trialdata": {"rt": 361, "stimulus": "<p id='stroop-text' class='stroop-blue'>BLUE</p>", "response": "b", "stimulus-type": "congruent", "word": "blue", "color": "blue", "correct_response": "b", "trial_id": "stroop-trial-1-congruent-3", "trial_type": "html-keyboard-response", "trial_index": 168, "time_elapsed": 301208, "internal_node_id": "0.0-6.0-73.0"}}, {"uniqueid": "w69059857:a43468892", "current_trial": 169, "dateTime": 1664873448035, "trialdata": {"rt": 649, "stimulus": "<p id='stroop-text' class='stroop-green'>YELLOW</p>", "response": "g", "stimulus-type": "incongruent", "word": "yellow", "color": "green", "correct_response": "g", "trial_id": "stroop-trial-1-incongruent-13", "trial_type": "html-keyboard-response", "trial_index": 169, "time_elapsed": 302360, "internal_node_id": "0.0-6.0-74.0"}}, {"uniqueid": "w69059857:a43468892", "current_trial": 170, "dateTime": 1664873449275, "trialdata": {"rt": 737, "stimulus": "<p id='stroop-text' class='stroop-red'>BLUE</p>", "response": "r", "stimulus-type": "incongruent", "word": "blue", "color": "red", "correct_response": "r", "trial_id": "stroop-trial-1-incongruent-14", "trial_type": "html-keyboard-response", "trial_index": 170, "time_elapsed": 303599, "internal_node_id": "0.0-6.0-75.0"}}, {"uniqueid": "w69059857:a43468892", "current_trial": 171, "dateTime": 1664873450395, "trialdata": {"rt": 618, "stimulus": "<p id='stroop-text' class='stroop-blue'>BLUE</p>", "response": "b", "stimulus-type": "congruent", "word": "blue", "color": "blue", "correct_response": "b", "trial_id": "stroop-trial-1-congruent-21", "trial_type": "html-keyboard-response", "trial_index": 171, "time_elapsed": 304719, "internal_node_id": "0.0-6.0-76.0"}}, {"uniqueid": "w69059857:a43468892", "current_trial": 172, "dateTime": 1664873451483, "trialdata": {"rt": 586, "stimulus": "<p id='stroop-text' class='stroop-green'>GREEN</p>", "response": "g", "stimulus-type": "congruent", "word": "green", "color": "green", "correct_response": "g", "trial_id": "stroop-trial-1-congruent-15", "trial_type": "html-keyboard-response", "trial_index": 172, "time_elapsed": 305807, "internal_node_id": "0.0-6.0-77.0"}}, {"uniqueid": "w69059857:a43468892", "current_trial": 173, "dateTime": 1664873452948, "trialdata": {"rt": 961, "stimulus": "<p id='stroop-text' class='stroop-blue'>BLUE</p>", "response": "b", "stimulus-type": "congruent", "word": "blue", "color": "blue", "correct_response": "b", "trial_id": "stroop-trial-1-congruent-2", "trial_type": "html-keyboard-response", "trial_index": 173, "time_elapsed": 307273, "internal_node_id": "0.0-6.0-78.0"}}, {"uniqueid": "w69059857:a43468892", "current_trial": 174, "dateTime": 1664873454132, "trialdata": {"rt": 682, "stimulus": "<p id='stroop-text' class='stroop-red'>YELLOW</p>", "response": "r", "stimulus-type": "incongruent", "word": "yellow", "color": "red", "correct_response": "r", "trial_id": "stroop-trial-1-incongruent-19", "trial_type": "html-keyboard-response", "trial_index": 174, "time_elapsed": 308457, "internal_node_id": "0.0-6.0-79.0"}}, {"uniqueid": "w69059857:a43468892", "current_trial": 175, "dateTime": 1664873455404, "trialdata": {"rt": 769, "stimulus": "<p id='stroop-text' class='stroop-green'>BLUE</p>", "response": "g", "stimulus-type": "incongruent", "word": "blue", "color": "green", "correct_response": "g", "trial_id": "stroop-trial-1-incongruent-30", "trial_type": "html-keyboard-response", "trial_index": 175, "time_elapsed": 309729, "internal_node_id": "0.0-6.0-80.0"}}, {"uniqueid": "w69059857:a43468892", "current_trial": 176, "dateTime": 1664873456460, "trialdata": {"rt": 553, "stimulus": "<p id='stroop-text' class='stroop-yellow'>YELLOW</p>", "response": "y", "stimulus-type": "congruent", "word": "yellow", "color": "yellow", "correct_response": "y", "trial_id": "stroop-trial-1-congruent-1", "trial_type": "html-keyboard-response", "trial_index": 176, "time_elapsed": 310785, "internal_node_id": "0.0-6.0-81.0"}}, {"uniqueid": "w69059857:a43468892", "current_trial": 177, "dateTime": 1664873457676, "trialdata": {"rt": 712, "stimulus": "<p id='stroop-text' class='stroop-green'>SHIP</p>", "response": "g", "stimulus-type": "unrelated", "word": "SHIP", "color": "green", "correct_response": "g", "trial_id": "stroop-trial-1-unrelated-21", "trial_type": "html-keyboard-response", "trial_index": 177, "time_elapsed": 312001, "internal_node_id": "0.0-6.0-82.0"}}, {"uniqueid": "w69059857:a43468892", "current_trial": 178, "dateTime": 1664873459044, "trialdata": {"rt": 866, "stimulus": "<p id='stroop-text' class='stroop-red'>YELLOW</p>", "response": "r", "stimulus-type": "incongruent", "word": "yellow", "color": "red", "correct_response": "r", "trial_id": "stroop-trial-1-incongruent-26", "trial_type": "html-keyboard-response", "trial_index": 178, "time_elapsed": 313369, "internal_node_id": "0.0-6.0-83.0"}}, {"uniqueid": "w69059857:a43468892", "current_trial": 179, "dateTime": 1664873460132, "trialdata": {"rt": 585, "stimulus": "<p id='stroop-text' class='stroop-yellow'>BOTTLE</p>", "response": "y", "stimulus-type": "unrelated", "word": "BOTTLE", "color": "yellow", "correct_response": "y", "trial_id": "stroop-trial-1-unrelated-19", "trial_type": "html-keyboard-response", "trial_index": 179, "time_elapsed": 314457, "internal_node_id": "0.0-6.0-84.0"}}, {"uniqueid": "w69059857:a43468892", "current_trial": 180, "dateTime": 1664873461380, "trialdata": {"rt": 745, "stimulus": "<p id='stroop-text' class='stroop-red'>SHIP</p>", "response": "r", "stimulus-type": "unrelated", "word": "SHIP", "color": "red", "correct_response": "r", "trial_id": "stroop-trial-1-unrelated-24", "trial_type": "html-keyboard-response", "trial_index": 180, "time_elapsed": 315704, "internal_node_id": "0.0-6.0-85.0"}}, {"uniqueid": "w69059857:a43468892", "current_trial": 181, "dateTime": 1664873462268, "trialdata": {"rt": 385, "stimulus": "<p id='stroop-text' class='stroop-red'>GREEN</p>", "response": "r", "stimulus-type": "incongruent", "word": "green", "color": "red", "correct_response": "r", "trial_id": "stroop-trial-1-incongruent-24", "trial_type": "html-keyboard-response", "trial_index": 181, "time_elapsed": 316592, "internal_node_id": "0.0-6.0-86.0"}}, {"uniqueid": "w69059857:a43468892", "current_trial": 182, "dateTime": 1664873463164, "trialdata": {"rt": 393, "stimulus": "<p id='stroop-text' class='stroop-red'>BRAIN</p>", "response": "r", "stimulus-type": "unrelated", "word": "BRAIN", "color": "red", "correct_response": "r", "trial_id": "stroop-trial-1-unrelated-10", "trial_type": "html-keyboard-response", "trial_index": 182, "time_elapsed": 317488, "internal_node_id": "0.0-6.0-87.0"}}, {"uniqueid": "w69059857:a43468892", "current_trial": 183, "dateTime": 1664873464284, "trialdata": {"rt": 618, "stimulus": "<p id='stroop-text' class='stroop-yellow'>RED</p>", "response": "b", "stimulus-type": "incongruent", "word": "red", "color": "yellow", "correct_response": "y", "trial_id": "stroop-trial-1-incongruent-27", "trial_type": "html-keyboard-response", "trial_index": 183, "time_elapsed": 318608, "internal_node_id": "0.0-6.0-88.0"}}, {"uniqueid": "w69059857:a43468892", "current_trial": 184, "dateTime": 1664873465244, "trialdata": {"rt": 458, "stimulus": "<p id='stroop-text' class='stroop-yellow'>WINDOW</p>", "response": "y", "stimulus-type": "unrelated", "word": "WINDOW", "color": "yellow", "correct_response": "y", "trial_id": "stroop-trial-1-unrelated-17", "trial_type": "html-keyboard-response", "trial_index": 184, "time_elapsed": 319568, "internal_node_id": "0.0-6.0-89.0"}}, {"uniqueid": "w69059857:a43468892", "current_trial": 185, "dateTime": 1664873467123, "trialdata": {"rt": 1377, "stimulus": "  <h1> End of block! </h1>\n\n  You have reached the end of the block 2/5. If you need a short break, feel free to take one now before moving on.\n\n  <br><br>\n  In the next block, you will complete another 90 rounds of this game.\n\n  <br><br>\n  <div style='text-align: center;'>Press <code>space</code> to begin.</div>\n  <br><br>\n<div style='text-align: center;'>(If the experiment doesn't continue, try clicking on the text and then pressing <code>space</code>.)</div>", "response": " ", "trial_id": "stroop_1_ready_3", "trial_type": "html-keyboard-response", "trial_index": 185, "time_elapsed": 321448, "internal_node_id": "0.0-7.0"}}, {"uniqueid": "w69059857:a43468892", "current_trial": 186, "dateTime": 1664873467796, "trialdata": {"rt": 669, "stimulus": "<p id='stroop-text' class='stroop-green'>GREEN</p>", "response": "r", "stimulus-type": "congruent", "word": "green", "color": "green", "correct_response": "g", "trial_id": "stroop-trial-1-congruent-19", "trial_type": "html-keyboard-response", "trial_index": 186, "time_elapsed": 322120, "internal_node_id": "0.0-8.0-0.0"}}, {"uniqueid": "w69059857:a43468892", "current_trial": 187, "dateTime": 1664873469300, "trialdata": {"rt": 1002, "stimulus": "<p id='stroop-text' class='stroop-green'>RED</p>", "response": "g", "stimulus-type": "incongruent", "word": "red", "color": "green", "correct_response": "g", "trial_id": "stroop-trial-1-incongruent-9", "trial_type": "html-keyboard-response", "trial_index": 187, "time_elapsed": 323625, "internal_node_id": "0.0-8.0-1.0"}}, {"uniqueid": "w69059857:a43468892", "current_trial": 188, "dateTime": 1664873470380, "trialdata": {"rt": 577, "stimulus": "<p id='stroop-text' class='stroop-red'>RED</p>", "response": "b", "stimulus-type": "congruent", "word": "red", "color": "red", "correct_response": "r", "trial_id": "stroop-trial-1-congruent-8", "trial_type": "html-keyboard-response", "trial_index": 188, "time_elapsed": 324704, "internal_node_id": "0.0-8.0-2.0"}}, {"uniqueid": "w69059857:a43468892", "current_trial": 189, "dateTime": 1664873471532, "trialdata": {"rt": 650, "stimulus": "<p id='stroop-text' class='stroop-yellow'>BOTTLE</p>", "response": "y", "stimulus-type": "unrelated", "word": "BOTTLE", "color": "yellow", "correct_response": "y", "trial_id": "stroop-trial-1-unrelated-16", "trial_type": "html-keyboard-response", "trial_index": 189, "time_elapsed": 325857, "internal_node_id": "0.0-8.0-3.0"}}, {"uniqueid": "w69059857:a43468892", "current_trial": 190, "dateTime": 1664873472619, "trialdata": {"rt": 584, "stimulus": "<p id='stroop-text' class='stroop-red'>CHAIR</p>", "response": "y", "stimulus-type": "unrelated", "word": "CHAIR", "color": "red", "correct_response": "r", "trial_id": "stroop-trial-1-unrelated-21", "trial_type": "html-keyboard-response", "trial_index": 190, "time_elapsed": 326944, "internal_node_id": "0.0-8.0-4.0"}}, {"uniqueid": "w69059857:a43468892", "current_trial": 191, "dateTime": 1664873473668, "trialdata": {"rt": 544, "stimulus": "<p id='stroop-text' class='stroop-yellow'>STONE</p>", "response": "y", "stimulus-type": "unrelated", "word": "STONE", "color": "yellow", "correct_response": "y", "trial_id": "stroop-trial-1-unrelated-13", "trial_type": "html-keyboard-response", "trial_index": 191, "time_elapsed": 327992, "internal_node_id": "0.0-8.0-5.0"}}, {"uniqueid": "w69059857:a43468892", "current_trial": 192, "dateTime": 1664873474595, "trialdata": {"rt": 425, "stimulus": "<p id='stroop-text' class='stroop-yellow'>RED</p>", "response": "y", "stimulus-type": "incongruent", "word": "red", "color": "yellow", "correct_response": "y", "trial_id": "stroop-trial-1-incongruent-7", "trial_type": "html-keyboard-response", "trial_index": 192, "time_elapsed": 328920, "internal_node_id": "0.0-8.0-6.0"}}, {"uniqueid": "w69059857:a43468892", "current_trial": 193, "dateTime": 1664873475747, "trialdata": {"rt": 648, "stimulus": "<p id='stroop-text' class='stroop-blue'>CHAIR</p>", "response": "b", "stimulus-type": "unrelated", "word": "CHAIR", "color": "blue", "correct_response": "b", "trial_id": "stroop-trial-1-unrelated-22", "trial_type": "html-keyboard-response", "trial_index": 193, "time_elapsed": 330072, "internal_node_id": "0.0-8.0-7.0"}}, {"uniqueid": "w69059857:a43468892", "current_trial": 194, "dateTime": 1664873476827, "trialdata": {"rt": 577, "stimulus": "<p id='stroop-text' class='stroop-red'>YELLOW</p>", "response": "r", "stimulus-type": "incongruent", "word": "yellow", "color": "red", "correct_response": "r", "trial_id": "stroop-trial-1-incongruent-18", "trial_type": "html-keyboard-response", "trial_index": 194, "time_elapsed": 331152, "internal_node_id": "0.0-8.0-8.0"}}, {"uniqueid": "w69059857:a43468892", "current_trial": 195, "dateTime": 1664873478011, "trialdata": {"rt": 681, "stimulus": "<p id='stroop-text' class='stroop-blue'>DOG</p>", "response": "b", "stimulus-type": "unrelated", "word": "DOG", "color": "blue", "correct_response": "b", "trial_id": "stroop-trial-1-unrelated-25", "trial_type": "html-keyboard-response", "trial_index": 195, "time_elapsed": 332336, "internal_node_id": "0.0-8.0-9.0"}}, {"uniqueid": "w69059857:a43468892", "current_trial": 196, "dateTime": 1664873479955, "trialdata": {"rt": 1441, "stimulus": "<p id='stroop-text' class='stroop-red'>BLUE</p>", "response": "r", "stimulus-type": "incongruent", "word": "blue", "color": "red", "correct_response": "r", "trial_id": "stroop-trial-1-incongruent-5", "trial_type": "html-keyboard-response", "trial_index": 196, "time_elapsed": 334280, "internal_node_id": "0.0-8.0-10.0"}}, {"uniqueid": "w69059857:a43468892", "current_trial": 197, "dateTime": 1664873481043, "trialdata": {"rt": 585, "stimulus": "<p id='stroop-text' class='stroop-blue'>BLUE</p>", "response": "b", "stimulus-type": "congruent", "word": "blue", "color": "blue", "correct_response": "b", "trial_id": "stroop-trial-1-congruent-25", "trial_type": "html-keyboard-response", "trial_index": 197, "time_elapsed": 335368, "internal_node_id": "0.0-8.0-11.0"}}, {"uniqueid": "w69059857:a43468892", "current_trial": 198, "dateTime": 1664873482099, "trialdata": {"rt": 553, "stimulus": "<p id='stroop-text' class='stroop-blue'>CHAIR</p>", "response": "b", "stimulus-type": "unrelated", "word": "CHAIR", "color": "blue", "correct_response": "b", "trial_id": "stroop-trial-1-unrelated-26", "trial_type": "html-keyboard-response", "trial_index": 198, "time_elapsed": 336424, "internal_node_id": "0.0-8.0-12.0"}}, {"uniqueid": "w69059857:a43468892", "current_trial": 199, "dateTime": 1664873483243, "trialdata": {"rt": 642, "stimulus": "<p id='stroop-text' class='stroop-red'>BRIDGE</p>", "response": "r", "stimulus-type": "unrelated", "word": "BRIDGE", "color": "red", "correct_response": "r", "trial_id": "stroop-trial-1-unrelated-19", "trial_type": "html-keyboard-response", "trial_index": 199, "time_elapsed": 337568, "internal_node_id": "0.0-8.0-13.0"}}, {"uniqueid": "w69059857:a43468892", "current_trial": 200, "dateTime": 1664873484971, "trialdata": {"rt": 1224, "stimulus": "<p id='stroop-text' class='stroop-blue'>RED</p>", "response": "b", "stimulus-type": "incongruent", "word": "red", "color": "blue", "correct_response": "b", "trial_id": "stroop-trial-1-incongruent-20", "trial_type": "html-keyboard-response", "trial_index": 200, "time_elapsed": 339296, "internal_node_id": "0.0-8.0-14.0"}}, {"uniqueid": "w69059857:a43468892", "current_trial": 201, "dateTime": 1664873486147, "trialdata": {"rt": 673, "stimulus": "<p id='stroop-text' class='stroop-red'>BOAT</p>", "response": "r", "stimulus-type": "unrelated", "word": "BOAT", "color": "red", "correct_response": "r", "trial_id": "stroop-trial-1-unrelated-23", "trial_type": "html-keyboard-response", "trial_index": 201, "time_elapsed": 340472, "internal_node_id": "0.0-8.0-15.0"}}, {"uniqueid": "w69059857:a43468892", "current_trial": 202, "dateTime": 1664873487171, "trialdata": {"rt": 520, "stimulus": "<p id='stroop-text' class='stroop-red'>SHIP</p>", "response": "r", "stimulus-type": "unrelated", "word": "SHIP", "color": "red", "correct_response": "r", "trial_id": "stroop-trial-1-unrelated-1", "trial_type": "html-keyboard-response", "trial_index": 202, "time_elapsed": 341496, "internal_node_id": "0.0-8.0-16.0"}}, {"uniqueid": "w69059857:a43468892", "current_trial": 203, "dateTime": 1664873488259, "trialdata": {"rt": 585, "stimulus": "<p id='stroop-text' class='stroop-blue'>FORK</p>", "response": "b", "stimulus-type": "unrelated", "word": "FORK", "color": "blue", "correct_response": "b", "trial_id": "stroop-trial-1-unrelated-27", "trial_type": "html-keyboard-response", "trial_index": 203, "time_elapsed": 342584, "internal_node_id": "0.0-8.0-17.0"}}, {"uniqueid": "w69059857:a43468892", "current_trial": 204, "dateTime": 1664873489379, "trialdata": {"rt": 617, "stimulus": "<p id='stroop-text' class='stroop-blue'>DOG</p>", "response": "b", "stimulus-type": "unrelated", "word": "DOG", "color": "blue", "correct_response": "b", "trial_id": "stroop-trial-1-unrelated-17", "trial_type": "html-keyboard-response", "trial_index": 204, "time_elapsed": 343704, "internal_node_id": "0.0-8.0-18.0"}}, {"uniqueid": "w69059857:a43468892", "current_trial": 205, "dateTime": 1664873490555, "trialdata": {"rt": 673, "stimulus": "<p id='stroop-text' class='stroop-green'>BLUE</p>", "response": "g", "stimulus-type": "incongruent", "word": "blue", "color": "green", "correct_response": "g", "trial_id": "stroop-trial-1-incongruent-17", "trial_type": "html-keyboard-response", "trial_index": 205, "time_elapsed": 344880, "internal_node_id": "0.0-8.0-19.0"}}, {"uniqueid": "w69059857:a43468892", "current_trial": 206, "dateTime": 1664873491899, "trialdata": {"rt": 841, "stimulus": "<p id='stroop-text' class='stroop-red'>DOG</p>", "response": "r", "stimulus-type": "unrelated", "word": "DOG", "color": "red", "correct_response": "r", "trial_id": "stroop-trial-1-unrelated-24", "trial_type": "html-keyboard-response", "trial_index": 206, "time_elapsed": 346224, "internal_node_id": "0.0-8.0-20.0"}}, {"uniqueid": "w69059857:a43468892", "current_trial": 207, "dateTime": 1664873492883, "trialdata": {"rt": 481, "stimulus": "<p id='stroop-text' class='stroop-blue'>RED</p>", "response": "b", "stimulus-type": "incongruent", "word": "red", "color": "blue", "correct_response": "b", "trial_id": "stroop-trial-1-incongruent-1", "trial_type": "html-keyboard-response", "trial_index": 207, "time_elapsed": 347208, "internal_node_id": "0.0-8.0-21.0"}}, {"uniqueid": "w69059857:a43468892", "current_trial": 208, "dateTime": 1664873494227, "trialdata": {"rt": 841, "stimulus": "<p id='stroop-text' class='stroop-green'>GREEN</p>", "response": "g", "stimulus-type": "congruent", "word": "green", "color": "green", "correct_response": "g", "trial_id": "stroop-trial-1-congruent-27", "trial_type": "html-keyboard-response", "trial_index": 208, "time_elapsed": 348551, "internal_node_id": "0.0-8.0-22.0"}}, {"uniqueid": "w69059857:a43468892", "current_trial": 209, "dateTime": 1664873495667, "trialdata": {"rt": 937, "stimulus": "<p id='stroop-text' class='stroop-red'>RED</p>", "response": "r", "stimulus-type": "congruent", "word": "red", "color": "red", "correct_response": "r", "trial_id": "stroop-trial-1-congruent-13", "trial_type": "html-keyboard-response", "trial_index": 209, "time_elapsed": 349991, "internal_node_id": "0.0-8.0-23.0"}}, {"uniqueid": "w69059857:a43468892", "current_trial": 210, "dateTime": 1664873496779, "trialdata": {"rt": 609, "stimulus": "<p id='stroop-text' class='stroop-yellow'>YELLOW</p>", "response": "y", "stimulus-type": "congruent", "word": "yellow", "color": "yellow", "correct_response": "y", "trial_id": "stroop-trial-1-congruent-28", "trial_type": "html-keyboard-response", "trial_index": 210, "time_elapsed": 351104, "internal_node_id": "0.0-8.0-24.0"}}, {"uniqueid": "w69059857:a43468892", "current_trial": 211, "dateTime": 1664873497739, "trialdata": {"rt": 457, "stimulus": "<p id='stroop-text' class='stroop-yellow'>RED</p>", "response": "y", "stimulus-type": "incongruent", "word": "red", "color": "yellow", "correct_response": "y", "trial_id": "stroop-trial-1-incongruent-10", "trial_type": "html-keyboard-response", "trial_index": 211, "time_elapsed": 352064, "internal_node_id": "0.0-8.0-25.0"}}, {"uniqueid": "w69059857:a43468892", "current_trial": 212, "dateTime": 1664873498635, "trialdata": {"rt": 392, "stimulus": "<p id='stroop-text' class='stroop-yellow'>YELLOW</p>", "response": "y", "stimulus-type": "congruent", "word": "yellow", "color": "yellow", "correct_response": "y", "trial_id": "stroop-trial-1-congruent-29", "trial_type": "html-keyboard-response", "trial_index": 212, "time_elapsed": 352959, "internal_node_id": "0.0-8.0-26.0"}}, {"uniqueid": "w69059857:a43468892", "current_trial": 213, "dateTime": 1664873499755, "trialdata": {"rt": 617, "stimulus": "<p id='stroop-text' class='stroop-blue'>FORK</p>", "response": "b", "stimulus-type": "unrelated", "word": "FORK", "color": "blue", "correct_response": "b", "trial_id": "stroop-trial-1-unrelated-30", "trial_type": "html-keyboard-response", "trial_index": 213, "time_elapsed": 354080, "internal_node_id": "0.0-8.0-27.0"}}, {"uniqueid": "w69059857:a43468892", "current_trial": 214, "dateTime": 1664873500899, "trialdata": {"rt": 641, "stimulus": "<p id='stroop-text' class='stroop-yellow'>CHAIR</p>", "response": "y", "stimulus-type": "unrelated", "word": "CHAIR", "color": "yellow", "correct_response": "y", "trial_id": "stroop-trial-1-unrelated-2", "trial_type": "html-keyboard-response", "trial_index": 214, "time_elapsed": 355224, "internal_node_id": "0.0-8.0-28.0"}}, {"uniqueid": "w69059857:a43468892", "current_trial": 215, "dateTime": 1664873502115, "trialdata": {"rt": 712, "stimulus": "<p id='stroop-text' class='stroop-blue'>BOTTLE</p>", "response": "b", "stimulus-type": "unrelated", "word": "BOTTLE", "color": "blue", "correct_response": "b", "trial_id": "stroop-trial-1-unrelated-5", "trial_type": "html-keyboard-response", "trial_index": 215, "time_elapsed": 356439, "internal_node_id": "0.0-8.0-29.0"}}, {"uniqueid": "w69059857:a43468892", "current_trial": 216, "dateTime": 1664873503355, "trialdata": {"rt": 737, "stimulus": "<p id='stroop-text' class='stroop-green'>BRIDGE</p>", "response": "g", "stimulus-type": "unrelated", "word": "BRIDGE", "color": "green", "correct_response": "g", "trial_id": "stroop-trial-1-unrelated-3", "trial_type": "html-keyboard-response", "trial_index": 216, "time_elapsed": 357679, "internal_node_id": "0.0-8.0-30.0"}}, {"uniqueid": "w69059857:a43468892", "current_trial": 217, "dateTime": 1664873504570, "trialdata": {"rt": 712, "stimulus": "<p id='stroop-text' class='stroop-blue'>YELLOW</p>", "response": "b", "stimulus-type": "incongruent", "word": "yellow", "color": "blue", "correct_response": "b", "trial_id": "stroop-trial-1-incongruent-3", "trial_type": "html-keyboard-response", "trial_index": 217, "time_elapsed": 358895, "internal_node_id": "0.0-8.0-31.0"}}, {"uniqueid": "w69059857:a43468892", "current_trial": 218, "dateTime": 1664873505627, "trialdata": {"rt": 553, "stimulus": "<p id='stroop-text' class='stroop-blue'>BLUE</p>", "response": "b", "stimulus-type": "congruent", "word": "blue", "color": "blue", "correct_response": "b", "trial_id": "stroop-trial-1-congruent-2", "trial_type": "html-keyboard-response", "trial_index": 218, "time_elapsed": 359951, "internal_node_id": "0.0-8.0-32.0"}}, {"uniqueid": "w69059857:a43468892", "current_trial": 219, "dateTime": 1664873506554, "trialdata": {"rt": 424, "stimulus": "<p id='stroop-text' class='stroop-blue'>BOTTLE</p>", "response": "b", "stimulus-type": "unrelated", "word": "BOTTLE", "color": "blue", "correct_response": "b", "trial_id": "stroop-trial-1-unrelated-11", "trial_type": "html-keyboard-response", "trial_index": 219, "time_elapsed": 360879, "internal_node_id": "0.0-8.0-33.0"}}, {"uniqueid": "w69059857:a43468892", "current_trial": 220, "dateTime": 1664873507698, "trialdata": {"rt": 641, "stimulus": "<p id='stroop-text' class='stroop-yellow'>YELLOW</p>", "response": "y", "stimulus-type": "congruent", "word": "yellow", "color": "yellow", "correct_response": "y", "trial_id": "stroop-trial-1-congruent-7", "trial_type": "html-keyboard-response", "trial_index": 220, "time_elapsed": 362023, "internal_node_id": "0.0-8.0-34.0"}}, {"uniqueid": "w69059857:a43468892", "current_trial": 221, "dateTime": 1664873508850, "trialdata": {"rt": 649, "stimulus": "<p id='stroop-text' class='stroop-red'>STONE</p>", "response": "r", "stimulus-type": "unrelated", "word": "STONE", "color": "red", "correct_response": "r", "trial_id": "stroop-trial-1-unrelated-4", "trial_type": "html-keyboard-response", "trial_index": 221, "time_elapsed": 363175, "internal_node_id": "0.0-8.0-35.0"}}, {"uniqueid": "w69059857:a43468892", "current_trial": 222, "dateTime": 1664873510314, "trialdata": {"rt": 961, "stimulus": "<p id='stroop-text' class='stroop-blue'>GREEN</p>", "response": "b", "stimulus-type": "incongruent", "word": "green", "color": "blue", "correct_response": "b", "trial_id": "stroop-trial-1-incongruent-2", "trial_type": "html-keyboard-response", "trial_ind