{"condition": 1, "counterbalance": 0, "assignmentId": "a34450256", "workerId": "w61944423", "hitId": "h95366495", "currenttrial": 135, "bonus": 0, "data": [{"uniqueid": "w61944423:a34450256", "current_trial": 0, "dateTime": 1664555169249, "trialdata": {"success": true, "trial_type": "fullscreen", "trial_index": 0, "time_elapsed": 4299, "internal_node_id": "0.0-0.0"}}, {"uniqueid": "w61944423:a34450256", "current_trial": 1, "dateTime": 1664555184953, "trialdata": {"view_history": [{"page_index": 0, "viewing_time": 15701}], "rt": 15702, "trial_id": "exp_instructions_no_distractor", "trial_type": "instructions", "trial_index": 1, "time_elapsed": 20004, "internal_node_id": "0.0-1.0"}}, {"uniqueid": "w61944423:a34450256", "current_trial": 2, "dateTime": 1664555188745, "trialdata": {"success": true, "trial_type": "fullscreen", "trial_index": 2, "time_elapsed": 23796, "internal_node_id": "0.0-2.0-0.0"}}, {"uniqueid": "w61944423:a34450256", "current_trial": 3, "dateTime": 1664555341352, "trialdata": {"view_history": [{"page_index": 0, "viewing_time": 43345}, {"page_index": 1, "viewing_time": 27272}, {"page_index": 2, "viewing_time": 43441}, {"page_index": 3, "viewing_time": 7405}, {"page_index": 4, "viewing_time": 31142}], "rt": 152605, "trial_id": "mouselab_instructions_1", "trial_type": "instructions", "trial_index": 3, "time_elapsed": 176403, "internal_node_id": "0.0-2.0-1.0"}}, {"uniqueid": "w61944423:a34450256", "current_trial": 4, "dateTime": 1664555354815, "trialdata": {"revealed_states": [], "num_clicks_accrued": [0, 0, 0, 0, 0, 0, 0, 0, 0, 0, 0, 0, 0], "stateRewards": ["", 10, 10, -10, -10, -10, 10, -10, 10, 10, -10, -10, 10], "withholdReward": false, "trial_id": "practice_1", "block": "test", "trialIndex": 0, "score": -8.5, "costs": -0.5, "simulationMode": [null, null, null], "rewards": [10, -10, -10], "path": ["0", "0", "9", "10", "11"], "rt": [4554, 1532, 1093], "actions": ["left", "left", "up"], "actionTimes": [5984, 8014, 9605], "queries": {"click": {"state": {"target": ["5", "9"], "time": [3533, 5586]}, "edge": {"target": [], "time": []}}, "mouseover": {"state": {"target": ["5", "0", "9"], "time": [3198, 4952, 5119]}, "edge": {"target": [], "time": []}}, "mouseout": {"state": {"target": ["5", "0", "5", "0", "9", "10", "10"], "time": [17, 2957, 4849, 5036, 6718, 6816, 8198]}, "edge": {"target": [], "time": []}}}, "displayed_time": "10.10", "trialTime": 13149, "trial_type": "mouselab-mdp", "trial_index": 4, "time_elapsed": 189866, "internal_node_id": "0.0-2.0-2.0-0.0"}}, {"uniqueid": "w61944423:a34450256", "current_trial": 5, "dateTime": 1664555363637, "trialdata": {"revealed_states": [], "num_clicks_accrued": [0, 0, 0, 0, 0, 0, 0, 0, 0, 0, 0, 0, 0], "stateRewards": ["", 10, -10, 10, 10, 10, -10, -10, -10, 10, -10, -10, -10], "withholdReward": false, "trial_id": "practice_2", "block": "test", "trialIndex": 1, "score": 12, "costs": 0, "simulationMode": [null, null, null], "rewards": [10, -10, 10], "path": ["0", "0", "1", "2", "4"], "rt": [1150, 2141, 878], "actions": ["up", "up", "left"], "actionTimes": [2492, 5133, 6513], "queries": {"click": {"state": {"target": [], "time": []}, "edge": {"target": [], "time": []}}, "mouseover": {"state": {"target": [], "time": []}, "edge": {"target": [], "time": []}}, "mouseout": {"state": {"target": ["9", "0", "2", "1", "0"], "time": [955, 3575, 5772, 7740, 7781]}, "edge": {"target": [], "time": []}}}, "displayed_time": "7.01", "trialTime": 8778, "trial_type": "mouselab-mdp", "trial_index": 5, "time_elapsed": 198688, "internal_node_id": "0.0-2.0-2.0-1.0"}}, {"uniqueid": "w61944423:a34450256", "current_trial": 6, "dateTime": 1664555421865, "trialdata": {"view_history": [{"page_index": 0, "viewing_time": 41348}, {"page_index": 1, "viewing_time": 6991}, {"page_index": 2, "viewing_time": 9887}], "rt": 58226, "trial_id": "mouselab_instructions_2_scarce", "trial_type": "instructions", "trial_index": 6, "time_elapsed": 256916, "internal_node_id": "0.0-2.0-3.0"}}, {"uniqueid": "w61944423:a34450256", "current_trial": 7, "dateTime": 1664555477187, "trialdata": {"rt": 55318, "response": {"Q0": "$-48 to $48", "Q1": "The cost is always $0.25.", "Q2": "The better I perform the higher my bonus will be.", "Q3": "No, the amount of cash at each node of the web may be different each time.", "Q4": "The values of the nodes walked through from start to finish.", "Q5": "No, the spider might forget to count the money on some rounds."}, "question_order": [0, 1, 2, 3, 4, 5], "correct": {"Q0": "$-48 to $48", "Q1": "The cost is always $0.25.", "Q2": "The better I perform the higher my bonus will be.", "Q3": "No, the amount of cash at each node of the web may be different each time.", "Q4": "The values of the nodes walked through from start to finish.", "Q5": "No, the spider might forget to count the money on some rounds."}, "trial_id": "mouselab_quiz_scarce", "trial_type": "survey-multi-choice", "trial_index": 7, "time_elapsed": 312238, "internal_node_id": "0.0-2.0-4.0"}}, {"uniqueid": "w61944423:a34450256", "current_trial": 8, "dateTime": 1664555532848, "trialdata": {"rt": 55652, "stimulus": "\n<h1> Get ready to start the game! </h1>\n\nThank you for reading the instructions. Get ready start with the first of 4 block(s) of this game.\n<br><br>\nIn this first block, you will complete 30 rounds of this game before moving on.\n<br><br>\nRemember, the more money the spider gets, the bigger your bonus will be!\n<br><br>\n<div style='text-align: center;'>Press <code>space</code> to begin.</div>\n\n<br><br>\n(If, at any point, the <code>space</code> key does not take you to the next page, click once on the text and try again.)", "response": " ", "trial_id": "mdp_ready_1", "trial_type": "html-keyboard-response", "trial_index": 8, "time_elapsed": 367899, "internal_node_id": "0.0-4.0-0.0"}}, {"uniqueid": "w61944423:a34450256", "current_trial": 9, "dateTime": 1664555545798, "trialdata": {"revealed_states": [], "num_clicks_accrued": [0, 0, 0, 0, 0, 0, 0, 0, 0, 0, 0, 0, 0], "stateRewards": ["", -2, -8, 24, -24, 4, -8, 48, 48, -4, -8, -24, -48], "withholdReward": false, "trial_id": "mdp_286767261523", "block": "test1", "trialIndex": 2, "score": 48.75, "costs": -0.25, "simulationMode": [null, null, null], "rewards": [4, -8, 48], "path": ["0", "0", "5", "6", "7"], "rt": [1889, 751, 854], "actions": ["right", "right", "up"], "actionTimes": [3994, 5250, 6602], "queries": {"click": {"state": {"target": ["5"], "time": [3480]}, "edge": {"target": [], "time": []}}, "mouseover": {"state": {"target": ["5"], "time": [3078]}, "edge": {"target": [], "time": []}}, "mouseout": {"state": {"target": ["0", "5", "8", "8"], "time": [1828, 4010, 8514, 11295]}, "edge": {"target": [], "time": []}}}, "displayed_time": "10.11", "trialTime": 12899, "trial_type": "mouselab-mdp", "trial_index": 9, "time_elapsed": 380849, "internal_node_id": "0.0-4.0-1.0-0.0"}}, {"uniqueid": "w61944423:a34450256", "current_trial": 10, "dateTime": 1664555557597, "trialdata": {"revealed_states": [], "num_clicks_accrued": [0, 0, 0, 0, 0, 0, 0, 0, 0, 0, 0, 0, 0], "stateRewards": ["", 4, -4, 48, -48, 2, 8, -48, 24, -2, -4, -24, 48], "withholdReward": false, "trial_id": "mdp_937564992306", "block": "test1", "trialIndex": 3, "score": 52.5, "costs": -0.5, "simulationMode": [null, null, null], "rewards": [4, -4, 48], "path": ["0", "0", "1", "2", "3"], "rt": [3342, 238, 161], "actions": ["up", "up", "right"], "actionTimes": [4453, 5193, 5853], "queries": {"click": {"state": {"target": ["9", "1"], "time": [1948, 3772]}, "edge": {"target": [], "time": []}}, "mouseover": {"state": {"target": ["9", "9", "0", "1", "5"], "time": [1571, 1743, 3272, 3648, 4186]}, "edge": {"target": [], "time": []}}, "mouseout": {"state": {"target": ["0", "9", "9", "0", "1", "5"], "time": [1542, 1611, 2223, 3335, 3988, 4718]}, "edge": {"target": [], "time": []}}}, "displayed_time": "9.11", "trialTime": 11755, "trial_type": "mouselab-mdp", "trial_index": 10, "time_elapsed": 392648, "internal_node_id": "0.0-4.0-1.0-1.0"}}, {"uniqueid": "w61944423:a34450256", "current_trial": 11, "dateTime": 1664555568763, "trialdata": {"revealed_states": [], "num_clicks_accrued": [0, 0, 0, 0, 0, 0, 0, 0, 0, 0, 0, 0, 0], "stateRewards": ["", -2, -4, -24, 48, -4, 8, 48, 48, 2, 8, -48, -24], "withholdReward": true, "trial_id": "mdp_136376573354", "block": "test1", "trialIndex": 4, "score": -9.75, "costs": -0.75, "simulationMode": [null, null, null], "rewards": [2, 8, -24], "path": ["0", "0", "9", "10", "12"], "rt": [3021, 293, 31], "actions": ["left", "left", "down"], "actionTimes": [3929, 4722, 5252], "queries": {"click": {"state": {"target": ["5", "1", "9"], "time": [1594, 2428, 3135]}, "edge": {"target": [], "time": []}}, "mouseover": {"state": {"target": ["5", "0", "1", "9"], "time": [1343, 2121, 2225, 2677]}, "edge": {"target": [], "time": []}}, "mouseout": {"state": {"target": ["0", "5", "0", "1", "9"], "time": [1280, 1808, 2142, 2587, 3317]}, "edge": {"target": [], "time": []}}}, "displayed_time": "8.91", "trialTime": 11112, "trial_type": "mouselab-mdp", "trial_index": 11, "time_elapsed": 403814, "internal_node_id": "0.0-4.0-1.0-2.0"}}, {"uniqueid": "w61944423:a34450256", "current_trial": 12, "dateTime": 1664555580399, "trialdata": {"revealed_states": [], "num_clicks_accrued": [0, 0, 0, 0, 0, 0, 0, 0, 0, 0, 0, 0, 0], "stateRewards": ["", -2, -4, -24, -24, 4, 8, 24, 24, -2, 8, 48, 48], "withholdReward": true, "trial_id": "mdp_620787912291", "block": "test1", "trialIndex": 5, "score": 40.75, "costs": -0.25, "simulationMode": [null, null, null], "rewards": [4, 8, 24], "path": ["0", "0", "5", "6", "7"], "rt": [1177, 296, 452], "actions": ["right", "right", "up"], "actionTimes": [2386, 3182, 4131], "queries": {"click": {"state": {"target": ["1"], "time": [1787]}, "edge": {"target": [], "time": []}}, "mouseover": {"state": {"target": ["1", "5"], "time": [1636, 2259]}, "edge": {"target": [], "time": []}}, "mouseout": {"state": {"target": ["0", "1", "5"], "time": [1474, 2002, 2516]}, "edge": {"target": [], "time": []}}}, "displayed_time": "10.21", "trialTime": 11591, "trial_type": "mouselab-mdp", "trial_index": 12, "time_elapsed": 415450, "internal_node_id": "0.0-4.0-1.0-3.0"}}, {"uniqueid": "w61944423:a34450256", "current_trial": 13, "dateTime": 1664555591905, "trialdata": {"revealed_states": [], "num_clicks_accrued": [0, 0, 0, 0, 0, 0, 0, 0, 0, 0, 0, 0, 0], "stateRewards": ["", 4, 4, 48, -48, 4, 4, -48, 24, 2, 8, 24, -48], "withholdReward": false, "trial_id": "mdp_291674656283", "block": "test1", "trialIndex": 6, "score": -35.25, "costs": -0.25, "simulationMode": [null, null, null], "rewards": [4, 4, -48], "path": ["0", "0", "5", "6", "7"], "rt": [1157, 337, 87], "actions": ["right", "right", "up"], "actionTimes": [1942, 2776, 3360], "queries": {"click": {"state": {"target": ["5"], "time": [1165]}, "edge": {"target": [], "time": []}}, "mouseover": {"state": {"target": ["0", "5"], "time": [895, 965]}, "edge": {"target": [], "time": []}}, "mouseout": {"state": {"target": ["5", "0", "5", "5", "5"], "time": [430, 923, 1376, 2446, 2606]}, "edge": {"target": [], "time": []}}}, "displayed_time": "9.79", "trialTime": 11452, "trial_type": "mouselab-mdp", "trial_index": 13, "time_elapsed": 426956, "internal_node_id": "0.0-4.0-1.0-4.0"}}, {"uniqueid": "w61944423:a34450256", "current_trial": 14, "dateTime": 1664555604526, "trialdata": {"revealed_states": [], "num_clicks_accrued": [0, 0, 0, 0, 0, 0, 0, 0, 0, 0, 0, 0, 0], "stateRewards": ["", -4, -8, 48, 48, -4, 4, 48, -24, 4, 8, -24, -48], "withholdReward": true, "trial_id": "mdp_142906093415", "block": "test1", "trialIndex": 7, "score": 52, "costs": -1, "simulationMode": [null, null, null], "rewards": [-4, 4, 48], "path": ["0", "0", "5", "6", "7"], "rt": [3387, 13, 191], "actions": ["right", "right", "up"], "actionTimes": [4603, 5113, 5805], "queries": {"click": {"state": {"target": ["9", "5", "6", "8"], "time": [1645, 2262, 3022, 3508]}, "edge": {"target": [], "time": []}}, "mouseover": {"state": {"target": ["9", "0", "5", "6", "8"], "time": [1449, 1873, 2103, 2561, 3430]}, "edge": {"target": [], "time": []}}, "mouseout": {"state": {"target": ["5", "1", "0", "9", "0", "5", "6", "8"], "time": [720, 761, 1394, 1839, 1901, 2513, 3271, 3771]}, "edge": {"target": [], "time": []}}}, "displayed_time": "10.22", "trialTime": 12573, "trial_type": "mouselab-mdp", "trial_index": 14, "time_elapsed": 439577, "internal_node_id": "0.0-4.0-1.0-5.0"}}, {"uniqueid": "w61944423:a34450256", "current_trial": 15, "dateTime": 1664555616336, "trialdata": {"revealed_states": [], "num_clicks_accrued": [0, 0, 0, 0, 0, 0, 0, 0, 0, 0, 0, 0, 0], "stateRewards": ["", -4, -8, -48, 48, -2, -8, -48, -24, 4, 8, 24, -48], "withholdReward": false, "trial_id": "mdp_509977295685", "block": "test1", "trialIndex": 8, "score": 39.5, "costs": -1.5, "simulationMode": [null, null, null], "rewards": [4, 8, 24], "path": ["0", "0", "9", "10", "11"], "rt": [4924, 741, 810], "actions": ["left", "left", "up"], "actionTimes": [7233, 8477, 9783], "queries": {"click": {"state": {"target": ["1", "2", "3", "5", "9", "11"], "time": [2797, 3407, 4269, 5203, 5867, 6455]}, "edge": {"target": [], "time": []}}, "mouseover": {"state": {"target": ["1", "2", "3", "2", "3", "5", "5", "0", "9", "9", "11", "10"], "time": [2550, 2981, 3050, 3211, 3620, 4573, 5057, 5483, 5540, 5747, 6304, 6825]}, "edge": {"target": [], "time": []}}, "mouseout": {"state": {"target": ["6", "7", "5", "0", "0", "1", "2", "3", "2", "3", "5", "5", "0", "9", "9", "9", "11", "10"], "time": [1319, 1597, 1765, 1903, 2460, 2918, 2995, 3162, 3573, 4435, 4788, 5455, 5518, 5581, 6081, 6192, 6721, 7173]}, "edge": {"target": [], "time": []}}}, "displayed_time": "10.31", "trialTime": 11760, "trial_type": "mouselab-mdp", "trial_index": 15, "time_elapsed": 451387, "internal_node_id": "0.0-4.0-1.0-6.0"}}, {"uniqueid": "w61944423:a34450256", "current_trial": 16, "dateTime": 1664555627245, "trialdata": {"revealed_states": [], "num_clicks_accrued": [0, 0, 0, 0, 0, 0, 0, 0, 0, 0, 0, 0, 0], "stateRewards": ["", 4, 4, -24, -48, -4, 4, -48, 24, 4, -8, -48, 48], "withholdReward": true, "trial_id": "mdp_566768794366", "block": "test1", "trialIndex": 9, "score": 48.5, "costs": -0.5, "simulationMode": [null, null, null], "rewards": [4, -8, 48], "path": ["0", "0", "9", "10", "12"], "rt": [3516, 367, 318], "actions": ["left", "left", "down"], "actionTimes": [5080, 5948, 6768], "queries": {"click": {"state": {"target": ["7", "12"], "time": [2238, 3030]}, "edge": {"target": [], "time": []}}, "mouseover": {"state": {"target": ["5", "7", "6", "5", "12", "11", "4", "9"], "time": [1757, 2084, 2501, 2598, 2779, 3453, 3565, 4635]}, "edge": {"target": [], "time": []}}, "mouseout": {"state": {"target": ["5", "0", "5", "7", "6", "5", "12", "11", "4", "9"], "time": [1340, 1701, 1821, 2438, 2557, 2661, 3252, 3481, 3961, 4691]}, "edge": {"target": [], "time": []}}}, "displayed_time": "9.56", "trialTime": 10859, "trial_type": "mouselab-mdp", "trial_index": 16, "time_elapsed": 462296, "internal_node_id": "0.0-4.0-1.0-7.0"}}, {"uniqueid": "w61944423:a34450256", "current_trial": 17, "dateTime": 1664555641431, "trialdata": {"revealed_states": [], "num_clicks_accrued": [0, 0, 0, 0, 0, 0, 0, 0, 0, 0, 0, 0, 0], "stateRewards": ["", -4, -8, 24, 48, 2, -4, -24, 24, -4, 8, 48, 48], "withholdReward": true, "trial_id": "mdp_496672670022", "block": "test1", "trialIndex": 10, "score": 55.75, "costs": -1.25, "simulationMode": [null, null, null], "rewards": [-4, 8, 48], "path": ["0", "0", "9", "10", "12"], "rt": [4165, 36, 33], "actions": ["left", "left", "down"], "actionTimes": [4955, 5487, 6020], "queries": {"click": {"state": {"target": ["4", "8", "12", "9", "10"], "time": [1198, 1956, 2819, 4158, 4521]}, "edge": {"target": [], "time": []}}, "mouseover": {"state": {"target": ["4", "1", "8", "6", "7", "9", "10", "12", "9", "9", "10"], "time": [987, 1425, 1773, 2156, 2266, 2475, 2607, 2677, 3545, 3754, 4380]}, "edge": {"target": [], "time": []}}, "mouseout": {"state": {"target": ["0", "4", "1", "8", "6", "7", "9", "10", "12", "9", "9", "10", "10", "11", "0"], "time": [883, 1370, 1453, 2114, 2218, 2357, 2489, 2621, 3031, 3573, 4331, 4776, 12374, 12402, 12777]}, "edge": {"target": [], "time": []}}}, "displayed_time": "8.79", "trialTime": 14140, "trial_type": "mouselab-mdp", "trial_index": 17, "time_elapsed": 476482, "internal_node_id": "0.0-4.0-1.0-8.0"}}, {"uniqueid": "w61944423:a34450256", "current_trial": 18, "dateTime": 1664555653701, "trialdata": {"revealed_states": [], "num_clicks_accrued": [0, 0, 0, 0, 0, 0, 0, 0, 0, 0, 0, 0, 0], "stateRewards": ["", -2, -4, -24, -48, -2, 8, -48, 24, 4, -4, -24, -24], "withholdReward": true, "trial_id": "mdp_915304165774", "block": "test1", "trialIndex": 11, "score": 33.75, "costs": -1.25, "simulationMode": [null, null, null], "rewards": [-2, 8, 24], "path": ["0", "0", "5", "6", "8"], "rt": [4409, 378, 201], "actions": ["right", "right", "down"], "actionTimes": [6383, 7258, 7957], "queries": {"click": {"state": {"target": ["2", "8", "11", "12", "7"], "time": [2579, 3409, 4343, 4959, 5731]}, "edge": {"target": [], "time": []}}, "mouseover": {"state": {"target": ["1", "2", "6", "8", "5", "0", "9", "10", "11", "10", "12", "5", "7", "6"], "time": [2257, 2479, 3021, 3292, 3800, 3890, 3939, 4001, 4265, 4683, 4836, 5447, 5579, 6243]}, "edge": {"target": [], "time": []}}, "mouseout": {"state": {"target": ["5", "0", "1", "2", "6", "8", "5", "0", "9", "10", "11", "10", "12", "5", "7", "6"], "time": [1631, 2083, 2409, 2861, 3155, 3654, 3855, 3925, 3974, 4231, 4536, 4801, 5141, 5489, 5955, 6455]}, "edge": {"target": [], "time": []}}}, "displayed_time": "9.98", "trialTime": 12226, "trial_type": "mouselab-mdp", "trial_index": 18, "time_elapsed": 488752, "internal_node_id": "0.0-4.0-1.0-9.0"}}, {"uniqueid": "w61944423:a34450256", "current_trial": 19, "dateTime": 1664555665030, "trialdata": {"revealed_states": [], "num_clicks_accrued": [0, 0, 0, 0, 0, 0, 0, 0, 0, 0, 0, 0, 0], "stateRewards": ["", -2, -8, -24, 24, -2, -8, -48, 24, -2, -8, 24, 24], "withholdReward": true, "trial_id": "mdp_336617436097", "block": "test1", "trialIndex": 12, "score": 17.75, "costs": -1.25, "simulationMode": [null, null, null], "rewards": [-2, -8, 24], "path": ["0", "0", "5", "6", "8"], "rt": [4737, 330, 179], "actions": ["right", "right", "down"], "actionTimes": [6196, 7031, 7707], "queries": {"click": {"state": {"target": ["11", "8", "7", "3", "4"], "time": [2000, 2863, 3419, 5098, 5662]}, "edge": {"target": [], "time": []}}, "mouseover": {"state": {"target": ["11", "9", "8", "8", "6", "7", "5", "3", "3", "2", "4", "1"], "time": [1709, 2251, 2522, 2717, 3113, 3287, 4364, 4789, 4983, 5435, 5511, 6102]}, "edge": {"target": [], "time": []}}, "mouseout": {"state": {"target": ["6", "7", "11", "9", "8", "8", "6", "7", "5", "3", "3", "2", "4"], "time": [895, 1000, 2174, 2307, 2571, 3085, 3169, 3641, 4420, 4830, 5407, 5477, 5915]}, "edge": {"target": [], "time": []}}}, "displayed_time": "10.46", "trialTime": 11279, "trial_type": "mouselab-mdp", "trial_index": 19, "time_elapsed": 500081, "internal_node_id": "0.0-4.0-1.0-10.0"}}, {"uniqueid": "w61944423:a34450256", "current_trial": 20, "dateTime": 1664555676776, "trialdata": {"revealed_states": [], "num_clicks_accrued": [0, 0, 0, 0, 0, 0, 0, 0, 0, 0, 0, 0, 0], "stateRewards": ["", 2, -8, -24, -48, -2, -4, 48, 48, 4, 8, 48, 48], "withholdReward": true, "trial_id": "mdp_347285045422", "block": "test1", "trialIndex": 13, "score": 45.75, "costs": -1.25, "simulationMode": [null, null, null], "rewards": [-2, -4, 48], "path": ["0", "0", "5", "6", "7"], "rt": [3504, 157, 150], "actions": ["right", "right", "up"], "actionTimes": [5031, 5687, 6335], "queries": {"click": {"state": {"target": ["11", "8", "7", "6", "5"], "time": [2323, 3139, 3796, 4394, 4647]}, "edge": {"target": [], "time": []}}, "mouseover": {"state": {"target": ["0", "9", "10", "11", "9", "8", "6", "7", "6", "5"], "time": [1707, 1769, 1818, 2249, 2562, 2945, 3354, 3611, 4071, 4529]}, "edge": {"target": [], "time": []}}, "mouseout": {"state": {"target": ["1", "0", "9", "10", "11", "9", "8", "6", "7", "6", "5", "5", "0"], "time": [1241, 1741, 1804, 2200, 2478, 2569, 3326, 3445, 3987, 4474, 5057, 6531, 8818]}, "edge": {"target": [], "time": []}}}, "displayed_time": "10.53", "trialTime": 11700, "trial_type": "mouselab-mdp", "trial_index": 20, "time_elapsed": 511827, "internal_node_id": "0.0-4.0-1.0-11.0"}}, {"uniqueid": "w61944423:a34450256", "current_trial": 21, "dateTime": 1664555686528, "trialdata": {"revealed_states": [], "num_clicks_accrued": [0, 0, 0, 0, 0, 0, 0, 0, 0, 0, 0, 0, 0], "stateRewards": ["", 2, 8, 48, 24, 2, 8, 48, 48, -2, -4, -24, -48], "withholdReward": true, "trial_id": "mdp_717636349175", "block": "test1", "trialIndex": 14, "score": 61, "costs": -2, "simulationMode": [null, null, null], "rewards": [2, 8, 48], "path": ["0", "0", "1", "2", "3"], "rt": [4722, 162, 197], "actions": ["up", "up", "right"], "actionTimes": [5278, 5943, 6639], "queries": {"click": {"state": {"target": ["10", "11", "12", "7", "4", "3", "2", "1"], "time": [1053, 1389, 1845, 2652, 3196, 3778, 4689, 4936]}, "edge": {"target": [], "time": []}}, "mouseover": {"state": {"target": ["9", "10", "11", "12", "8", "6", "7", "1", "4", "3", "5", "1", "2", "1"], "time": [790, 860, 1305, 1729, 2180, 2444, 2514, 2813, 3098, 3656, 4300, 4384, 4607, 4864]}, "edge": {"target": [], "time": []}}, "mouseout": {"state": {"target": ["0", "9", "10", "11", "10", "12", "8", "6", "7", "1", "4", "3", "5", "1", "2", "1"], "time": [748, 832, 1256, 1563, 1687, 2007, 2392, 2493, 2758, 2820, 3425, 3911, 4308, 4447, 4801, 5211]}, "edge": {"target": [], "time": []}}}, "displayed_time": "8.56", "trialTime": 9697, "trial_type": "mouselab-mdp", "trial_index": 21, "time_elapsed": 521579, "internal_node_id": "0.0-4.0-1.0-12.0"}}, {"uniqueid": "w61944423:a34450256", "current_trial": 22, "dateTime": 1664555696017, "trialdata": {"revealed_states": [], "num_clicks_accrued": [0, 0, 0, 0, 0, 0, 0, 0, 0, 0, 0, 0, 0], "stateRewards": ["", 2, -4, -48, 24, -4, 4, 24, 24, 2, -8, -24, -48], "withholdReward": true, "trial_id": "mdp_807654778305", "block": "test1", "trialIndex": 15, "score": 27.5, "costs": -1.5, "simulationMode": [null, null, null], "rewards": [-4, 4, 24], "path": ["0", "0", "5", "6", "7"], "rt": [3682, 246, 242], "actions": ["right", "right", "up"], "actionTimes": [4574, 5325, 6064], "queries": {"click": {"state": {"target": ["7", "8", "11", "12", "3", "4"], "time": [1490, 1952, 2532, 2951, 3866, 4278]}, "edge": {"target": [], "time": []}}, "mouseover": {"state": {"target": ["5", "6", "7", "6", "8", "9", "10", "11", "10", "12", "0", "1", "2", "3", "2", "4", "1"], "time": [1108, 1170, 1379, 1692, 1817, 2214, 2276, 2387, 2708, 2901, 3319, 3402, 3464, 3763, 3979, 4048, 4549]}, "edge": {"target": [], "time": []}}, "mouseout": {"state": {"target": ["0", "5", "6", "7", "6", "8", "9", "10", "11", "10", "12", "0", "1", "2", "3", "2", "4", "1"], "time": [1073, 1150, 1185, 1643, 1761, 2081, 2249, 2345, 2665, 2783, 3180, 3353, 3437, 3569, 3958, 4014, 4486, 4577]}, "edge": {"target": [], "time": []}}}, "displayed_time": "8.89", "trialTime": 9446, "trial_type": "mouselab-mdp", "trial_index": 22, "time_elapsed": 531068, "internal_node_id": "0.0-4.0-1.0-13.0"}}, {"uniqueid": "w61944423:a34450256", "current_trial": 23, "dateTime": 1664555708946, "trialdata": {"revealed_states": [], "num_clicks_accrued": [0, 0, 0, 0, 0, 0, 0, 0, 0, 0, 0, 0, 0], "stateRewards": ["", -2, -4, -24, 24, -2, 4, -24, -24, -4, 4, 24, -24], "withholdReward": true, "trial_id": "mdp_999419261719", "block": "test1", "trialIndex": 16, "score": 27.5, "costs": -1.5, "simulationMode": [null, null, null], "rewards": [-4, 4, 24], "path": ["0", "0", "9", "10", "11"], "rt": [3561, 170, 201], "actions": ["left", "left", "up"], "actionTimes": [5155, 5829, 6527], "queries": {"click": {"state": {"target": ["8", "11", "12", "3", "4", "7"], "time": [2124, 2717, 3212, 3742, 4250, 4743]}, "edge": {"target": [], "time": []}}, "mouseover": {"state": {"target": ["5", "8", "0", "9", "11", "10", "12", "9", "1", "3", "2", "4", "7"], "time": [1772, 2016, 2447, 2467, 2502, 2898, 3051, 3413, 3476, 3538, 3851, 3907, 4695]}, "edge": {"target": [], "time": []}}, "mouseout": {"state": {"target": ["6", "0", "5", "8", "0", "9", "11", "10", "12", "9", "1", "3", "2", "4", "7"], "time": [1203, 1737, 1800, 2398, 2453, 2474, 2856, 3002, 3343, 3427, 3482, 3830, 3878, 4393, 5011]}, "edge": {"target": [], "time": []}}}, "displayed_time": "10.60", "trialTime": 12883, "trial_type": "mouselab-mdp", "trial_index": 23, "time_elapsed": 543997, "internal_node_id": "0.0-4.0-1.0-14.0"}}, {"uniqueid": "w61944423:a34450256", "current_trial": 24, "dateTime": 1664555720388, "trialdata": {"revealed_states": [], "num_clicks_accrued": [0, 0, 0, 0, 0, 0, 0, 0, 0, 0, 0, 0, 0], "stateRewards": ["", 4, 4, 48, -48, -2, 4, 48, -48, -4, 4, -24, -24], "withholdReward": false, "trial_id": "mdp_753324812898", "block": "test1", "trialIndex": 17, "score": 54.75, "costs": -0.25, "simulationMode": [null, null, null], "rewards": [-2, 4, 48], "path": ["0", "0", "5", "6", "7"], "rt": [1012, 163, 142], "actions": ["right", "right", "up"], "actionTimes": [3250, 3910, 4549], "queries": {"click": {"state": {"target": ["7"], "time": [2722]}, "edge": {"target": [], "time": []}}, "mouseover": {"state": {"target": ["7", "6", "8"], "time": [2641, 2919, 3023]}, "edge": {"target": [], "time": []}}, "mouseout": {"state": {"target": ["5", "7", "6", "8"], "time": [1946, 2884, 2967, 8960]}, "edge": {"target": [], "time": []}}}, "displayed_time": "10.24", "trialTime": 11395, "trial_type": "mouselab-mdp", "trial_index": 24, "time_elapsed": 555439, "internal_node_id": "0.0-4.0-1.0-15.0"}}, {"uniqueid": "w61944423:a34450256", "current_trial": 25, "dateTime": 1664555731741, "trialdata": {"revealed_states": [], "num_clicks_accrued": [0, 0, 0, 0, 0, 0, 0, 0, 0, 0, 0, 0, 0], "stateRewards": ["", 2, -4, -48, -48, -2, -4, -24, -48, -2, 8, 24, 24], "withholdReward": true, "trial_id": "mdp_656069446729", "block": "test1", "trialIndex": 18, "score": 33.5, "costs": -1.5, "simulationMode": [null, null, null], "rewards": [-2, 8, 24], "path": ["0", "0", "9", "10", "12"], "rt": [3517, 138, 186], "actions": ["left", "left", "down"], "actionTimes": [4338, 4982, 5667], "queries": {"click": {"state": {"target": ["11", "12", "4", "3", "8", "7"], "time": [1253, 1818, 2508, 2835, 3478, 3868]}, "edge": {"target": [], "time": []}}, "mouseover": {"state": {"target": ["9", "10", "11", "10", "12", "9", "2", "4", "2", "3", "7", "6", "8", "6", "7"], "time": [948, 1032, 1205, 1601, 1713, 2006, 2067, 2331, 2638, 2707, 3075, 3159, 3381, 3708, 3777]}, "edge": {"target": [], "time": []}}, "mouseout": {"state": {"target": ["0", "9", "10", "11", "10", "12", "9", "2", "4", "2", "3", "7", "6", "8", "6", "7", "5"], "time": [914, 997, 1094, 1476, 1678, 1956, 2019, 2151, 2610, 2665, 3026, 3096, 3353, 3638, 3749, 4063, 11028]}, "edge": {"target": [], "time": []}}}, "displayed_time": "9.82", "trialTime": 11295, "trial_type": "mouselab-mdp", "trial_index": 25, "time_elapsed": 566792, "internal_node_id": "0.0-4.0-1.0-16.0"}}, {"uniqueid": "w61944423:a34450256", "current_trial": 26, "dateTime": 1664555745208, "trialdata": {"revealed_states": [], "num_clicks_accrued": [0, 0, 0, 0, 0, 0, 0, 0, 0, 0, 0, 0, 0], "stateRewards": ["", 2, 4, 48, 24, -4, 8, 48, 48, 2, -4, -48, -24], "withholdReward": false, "trial_id": "mdp_822099887466", "block": "test1", "trialIndex": 19, "score": 58.5, "costs": -0.5, "simulationMode": [null, null, null], "rewards": [2, 4, 48], "path": ["0", "0", "1", "2", "3"], "rt": [2387, 82, 200], "actions": ["up", "up", "right"], "actionTimes": [3774, 4357, 5059], "queries": {"click": {"state": {"target": ["3", "4"], "time": [2385, 3361]}, "edge": {"target": [], "time": []}}, "mouseover": {"state": {"target": ["1", "2", "3", "1", "4"], "time": [1976, 2030, 2309, 2809, 3260]}, "edge": {"target": [], "time": []}}, "mouseout": {"state": {"target": ["5", "0", "1", "2", "3", "1", "4"], "time": [653, 1863, 1995, 2252, 2544, 3100, 3545]}, "edge": {"target": [], "time": []}}}, "displayed_time": "10.39", "trialTime": 13420, "trial_type": "mouselab-mdp", "trial_index": 26, "time_elapsed": 580259, "internal_node_id": "0.0-4.0-1.0-17.0"}}, {"uniqueid": "w61944423:a34450256", "current_trial": 27, "dateTime": 1664555756459, "trialdata": {"revealed_states": [], "num_clicks_accrued": [0, 0, 0, 0, 0, 0, 0, 0, 0, 0, 0, 0, 0], "stateRewards": ["", -2, -8, 48, 24, 2, 8, -48, 24, -4, 8, 48, 48], "withholdReward": true, "trial_id": "mdp_875436109858", "block": "test1", "trialIndex": 20, "score": 56.25, "costs": -0.75, "simulationMode": [null, null, null], "rewards": [-4, 8, 48], "path": ["0", "0", "9", "10", "11"], "rt": [3097, 152, 221], "actions": ["left", "left", "up"], "actionTimes": [4387, 5036, 5759], "queries": {"click": {"state": {"target": ["8", "7", "11"], "time": [1713, 2664, 3166]}, "edge": {"target": [], "time": []}}, "mouseover": {"state": {"target": ["0", "8", "5", "7", "1", "11", "10"], "time": [1387, 1559, 2131, 2535, 2896, 2980, 3376]}, "edge": {"target": [], "time": []}}, "mouseout": {"state": {"target": ["0", "0", "8", "5", "7", "1", "11", "10"], "time": [775, 1401, 1964, 2152, 2826, 2923, 3320, 3465]}, "edge": {"target": [], "time": []}}}, "displayed_time": "9.29", "trialTime": 11204, "trial_type": "mouselab-mdp", "trial_index": 27, "time_elapsed": 591510, "internal_node_id": "0.0-4.0-1.0-18.0"}}, {"uniqueid": "w61944423:a34450256", "current_trial": 28, "dateTime": 1664555768472, "trialdata": {"revealed_states": [], "num_clicks_accrued": [0, 0, 0, 0, 0, 0, 0, 0, 0, 0, 0, 0, 0], "stateRewards": ["", -4, 8, 24, 24, -2, 8, -48, 48, 4, -8, 48, -48], "withholdReward": true, "trial_id": "mdp_295249220524", "block": "test1", "trialIndex": 21, "score": 58.5, "costs": -0.5, "simulationMode": [null, null, null], "rewards": [-2, 8, 48], "path": ["0", "0", "5", "6", "8"], "rt": [2467, 49, 154], "actions": ["right", "right", "down"], "actionTimes": [4843, 5389, 6044], "queries": {"click": {"state": {"target": ["11", "8"], "time": [2895, 3960]}, "edge": {"target": [], "time": []}}, "mouseover": {"state": {"target": ["9", "11", "5", "8", "6"], "time": [2560, 2796, 3463, 3609, 4241]}, "edge": {"target": [], "time": []}}, "mouseout": {"state": {"target": ["0", "9", "11", "5", "8", "6"], "time": [2525, 2617, 3178, 3484, 4180, 4596]}, "edge": {"target": [], "time": []}}}, "displayed_time": "10.38", "trialTime": 11966, "trial_type": "mouselab-mdp", "trial_index": 28, "time_elapsed": 603522, "internal_node_id": "0.0-4.0-1.0-19.0"}}, {"uniqueid": "w61944423:a34450256", "current_trial": 29, "dateTime": 1664555780311, "trialdata": {"revealed_states": [], "num_clicks_accrued": [0, 0, 0, 0, 0, 0, 0, 0, 0, 0, 0, 0, 0], "stateRewards": ["", 2, 4, -48, -24, 2, 8, 24, 48, -2, 4, 48, -48], "withholdReward": true, "trial_id": "mdp_551894842204", "block": "test1", "trialIndex": 22, "score": 54.25, "costs": -0.75, "simulationMode": [null, null, null], "rewards": [-2, 4, 48], "path": ["0", "0", "9", "10", "11"], "rt": [2049, 199, 224], "actions": ["left", "left", "up"], "actionTimes": [4903, 5603, 6323], "queries": {"click": {"state": {"target": ["7", "11", "12"], "time": [3346, 4109, 4603]}, "edge": {"target": [], "time": []}}, "mouseover": {"state": {"target": ["7", "11", "10", "12"], "time": [3172, 3867, 4271, 4333]}, "edge": {"target": [], "time": []}}, "mouseout": {"state": {"target": ["0", "7", "11", "10", "12"], "time": [3020, 3534, 4243, 4305, 4868]}, "edge": {"target": [], "time": []}}}, "displayed_time": "10.85", "trialTime": 11788, "trial_type": "mouselab-mdp", "trial_index": 29, "time_elapsed": 615362, "internal_node_id": "0.0-4.0-1.0-20.0"}}, {"uniqueid": "w61944423:a34450256", "current_trial": 30, "dateTime": 1664555791277, "trialdata": {"revealed_states": [], "num_clicks_accrued": [0, 0, 0, 0, 0, 0, 0, 0, 0, 0, 0, 0, 0], "stateRewards": ["", 2, 4, 48, 48, 4, -8, 24, -48, -4, -8, -24, -48], "withholdReward": true, "trial_id": "mdp_343818007251", "block": "test1", "trialIndex": 23, "score": 56, "costs": -3, "simulationMode": [null, null, null], "rewards": [2, 4, 48], "path": ["0", "0", "1", "2", "3"], "rt": [5549, 164, 145], "actions": ["up", "up", "right"], "actionTimes": [6305, 6965, 7606], "queries": {"click": {"state": {"target": ["7", "6", "8", "5", "9", "11", "10", "12", "1", "2", "4", "3"], "time": [1263, 1524, 1798, 2201, 2795, 3447, 3740, 4011, 4565, 4822, 5090, 5390]}, "edge": {"target": [], "time": []}}, "mouseover": {"state": {"target": ["5", "6", "7", "6", "8", "5", "9", "9", "11", "11", "10", "12", "1", "2", "4", "3"], "time": [927, 996, 1198, 1413, 1698, 1969, 2403, 2657, 3032, 3265, 3610, 3943, 4409, 4722, 4986, 5319]}, "edge": {"target": [], "time": []}}, "mouseout": {"state": {"target": ["0", "5", "6", "7", "6", "8", "5", "9", "9", "11", "11", "10", "12", "9", "1", "2", "4", "2", "3", "5", "8"], "time": [892, 968, 1024, 1364, 1635, 1920, 2323, 2574, 2949, 3047, 3561, 3867, 4194, 4346, 4673, 4951, 5222, 5291, 5599, 10485, 10575]}, "edge": {"target": [], "time": []}}}, "displayed_time": "9.76", "trialTime": 10908, "trial_type": "mouselab-mdp", "trial_index": 30, "time_elapsed": 626328, "internal_node_id": "0.0-4.0-1.0-21.0"}}, {"uniqueid": "w61944423:a34450256", "current_trial": 31, "dateTime": 1664555804109, "trialdata": {"revealed_states": [], "num_clicks_accrued": [0, 0, 0, 0, 0, 0, 0, 0, 0, 0, 0, 0, 0], "stateRewards": ["", -2, 8, -48, 48, 4, -8, -48, 48, 4, -4, -24, 48], "withholdReward": true, "trial_id": "mdp_144739116828", "block": "test1", "trialIndex": 24, "score": 52, "costs": -1, "simulationMode": [null, null, null], "rewards": [4, -4, 48], "path": ["0", "0", "9", "10", "12"], "rt": [2192, 63, 87], "actions": ["left", "left", "down"], "actionTimes": [5250, 5813, 6400], "queries": {"click": {"state": {"target": ["11", "12", "9", "10"], "time": [3479, 3922, 4898, 5091]}, "edge": {"target": [], "time": []}}, "mouseover": {"state": {"target": ["11", "10", "12", "5", "5", "9", "9", "10"], "time": [3281, 3699, 3775, 4143, 4533, 4623, 4706, 4984]}, "edge": {"target": [], "time": []}}, "mouseout": {"state": {"target": ["0", "1", "0", "11", "10", "12", "5", "5", "9", "9", "10"], "time": [2197, 2349, 2940, 3671, 3740, 4053, 4164, 4581, 4644, 4958, 5426]}, "edge": {"target": [], "time": []}}}, "displayed_time": "11.06", "trialTime": 12783, "trial_type": "mouselab-mdp", "trial_index": 31, "time_elapsed": 639160, "internal_node_id": "0.0-4.0-1.0-22.0"}}, {"uniqueid": "w61944423:a34450256", "current_trial": 32, "dateTime": 1664555816837, "trialdata": {"revealed_states": [], "num_clicks_accrued": [0, 0, 0, 0, 0, 0, 0, 0, 0, 0, 0, 0, 0], "stateRewards": ["", 2, -4, -48, 24, 4, 4, 48, -48, -2, -4, -24, -48], "withholdReward": true, "trial_id": "mdp_858916930936", "block": "test1", "trialIndex": 25, "score": 60.25, "costs": -0.75, "simulationMode": [null, null, null], "rewards": [4, 4, 48], "path": ["0", "0", "5", "6", "7"], "rt": [2342, 76, 161], "actions": ["right", "right", "up"], "actionTimes": [4853, 5430, 6091], "queries": {"click": {"state": {"target": ["7", "6", "5"], "time": [3163, 4044, 4556]}, "edge": {"target": [], "time": []}}, "mouseover": {"state": {"target": ["5", "6", "7", "6", "6", "5"], "time": [2731, 2844, 3086, 3454, 3920, 4351]}, "edge": {"target": [], "time": []}}, "mouseout": {"state": {"target": ["0", "5", "6", "7", "6", "6", "5", "6"], "time": [2690, 2780, 3016, 3399, 3545, 4156, 4851, 4908]}, "edge": {"target": [], "time": []}}}, "displayed_time": "11.51", "trialTime": 12670, "trial_type": "mouselab-mdp", "trial_index": 32, "time_elapsed": 651887, "internal_node_id": "0.0-4.0-1.0-23.0"}}, {"uniqueid": "w61944423:a34450256", "current_trial": 33, "dateTime": 1664555827113, "trialdata": {"revealed_states": [], "num_clicks_accrued": [0, 0, 0, 0, 0, 0, 0, 0, 0, 0, 0, 0, 0], "stateRewards": ["", -4, -4, -24, 24, -4, 4, -24, 48, -2, 4, 48, -48], "withholdReward": true, "trial_id": "mdp_774757609669", "block": "test1", "trialIndex": 26, "score": 54, "costs": -1, "simulationMode": [null, null, null], "rewards": [-2, 4, 48], "path": ["0", "0", "9", "10", "11"], "rt": [3071, 64, 84], "actions": ["left", "left", "up"], "actionTimes": [4017, 4590, 5172], "queries": {"click": {"state": {"target": ["7", "8", "11", "12"], "time": [1343, 1879, 2860, 3606]}, "edge": {"target": [], "time": []}}, "mouseover": {"state": {"target": ["7", "8", "9", "10", "10", "11", "11", "10", "12"], "time": [1139, 1751, 2112, 2168, 2606, 2682, 2804, 3114, 3537]}, "edge": {"target": [], "time": []}}, "mouseout": {"state": {"target": ["6", "0", "7", "8", "9", "10", "10", "11", "11", "10", "12", "9", "10", "0"], "time": [396, 1021, 1507, 2001, 2133, 2349, 2655, 2717, 3085, 3148, 3836, 4372, 9370, 9654]}, "edge": {"target": [], "time": []}}}, "displayed_time": "8.95", "trialTime": 10225, "trial_type": "mouselab-mdp", "trial_index": 33, "time_elapsed": 662164, "internal_node_id": "0.0-4.0-1.0-24.0"}}, {"uniqueid": "w61944423:a34450256", "current_trial": 34, "dateTime": 1664555839685, "trialdata": {"revealed_states": [], "num_clicks_accrued": [0, 0, 0, 0, 0, 0, 0, 0, 0, 0, 0, 0, 0], "stateRewards": ["", -2, 4, -48, -48, 4, 4, 48, -48, 2, 8, 24, 48], "withholdReward": false, "trial_id": "mdp_686771069745", "block": "test1", "trialIndex": 27, "score": 60, "costs": -1, "simulationMode": [null, null, null], "rewards": [4, 4, 48], "path": ["0", "0", "5", "6", "7"], "rt": [2670, 94, 47], "actions": ["right", "right", "up"], "actionTimes": [3229, 3825, 4367], "queries": {"click": {"state": {"target": ["7", "8", "5", "11"], "time": [941, 1409, 1984, 2736]}, "edge": {"target": [], "time": []}}, "mouseover": {"state": {"target": ["7", "6", "8", "6", "5", "1", "11", "9"], "time": [782, 1137, 1241, 1706, 1873, 2402, 2652, 3153]}, "edge": {"target": [], "time": []}}, "mouseout": {"state": {"target": ["0", "7", "6", "8", "6", "5", "5", "1", "11", "9"], "time": [663, 1108, 1185, 1651, 1845, 2131, 2360, 2443, 2958, 3173]}, "edge": {"target": [], "time": []}}}, "displayed_time": "9.56", "trialTime": 12527, "trial_type": "mouselab-mdp", "trial_index": 34, "time_elapsed": 674736, "internal_node_id": "0.0-4.0-1.0-25.0"}}, {"uniqueid": "w61944423:a34450256", "current_trial": 35, "dateTime": 1664555850470, "trialdata": {"revealed_states": [], "num_clicks_accrued": [0, 0, 0, 0, 0, 0, 0, 0, 0, 0, 0, 0, 0], "stateRewards": ["", -4, 4, -24, 24, -2, -4, 48, 24, 2, 8, -48, 24], "withholdReward": true, "trial_id": "mdp_150340189492", "block": "test1", "trialIndex": 28, "score": 45, "costs": -2, "simulationMode": [null, null, null], "rewards": [-2, -4, 48], "path": ["0", "0", "5", "6", "7"], "rt": [3641, 45, 7], "actions": ["right", "right", "up"], "actionTimes": [4481, 5022, 5526], "queries": {"click": {"state": {"target": ["3", "4", "11", "12", "7", "8", "6", "5"], "time": [1250, 1778, 2164, 2533, 3104, 3446, 3865, 4089]}, "edge": {"target": [], "time": []}}, "mouseover": {"state": {"target": ["1", "3", "4", "11", "10", "12", "0", "5", "7", "6", "8", "6", "5"], "time": [1022, 1119, 1633, 2008, 2328, 2391, 2752, 2801, 3009, 3252, 3364, 3753, 4018]}, "edge": {"target": [], "time": []}}, "mouseout": {"state": {"target": ["9", "9", "0", "1", "3", "4", "11", "10", "12", "0", "5", "7", "6", "8", "6", "5"], "time": [534, 674, 966, 1035, 1515, 1904, 2301, 2363, 2683, 2780, 2870, 3232, 3309, 3607, 3975, 4344]}, "edge": {"target": [], "time": []}}}, "displayed_time": "9.84", "trialTime": 10733, "trial_type": "mouselab-mdp", "trial_index": 35, "time_elapsed": 685521, "internal_node_id": "0.0-4.0-1.0-26.0"}}, {"uniqueid": "w61944423:a34450256", "current_trial": 36, "dateTime": 1664555863998, "trialdata": {"revealed_states": [], "num_clicks_accrued": [0, 0, 0, 0, 0, 0, 0, 0, 0, 0, 0, 0, 0], "stateRewards": ["", 2, -8, -48, 24, 4, 8, 48, -48, 2, -4, 24, 24], "withholdReward": false, "trial_id": "mdp_130475327289", "block": "test1", "trialIndex": 29, "score": 62, "costs": -3, "simulationMode": [null, null, null], "rewards": [4, 8, 48], "path": ["0", "0", "5", "6", "7"], "rt": [6165, 74, 102], "actions": ["right", "right", "up"], "actionTimes": [7583, 8158, 8762], "queries": {"click": {"state": {"target": ["11", "4", "3", "7", "8", "6", "5", "9", "10", "12", "2", "1"], "time": [2025, 2425, 3008, 3365, 3931, 4183, 4435, 4925, 5135, 5373, 5921, 7207]}, "edge": {"target": [], "time": []}}, "mouseover": {"state": {"target": ["11", "11", "4", "2", "3", "7", "6", "8", "6", "5", "9", "9", "10", "12", "2", "1"], "time": [1660, 1889, 2209, 2584, 2769, 3279, 3509, 3637, 4100, 4357, 4614, 4859, 5039, 5316, 5629, 7005]}, "edge": {"target": [], "time": []}}, "mouseout": {"state": {"target": ["5", "0", "11", "11", "4", "2", "3", "7", "6", "8", "6", "5", "9", "9", "10", "12", "2", "6", "5", "1", "6"], "time": [1249, 1292, 1715, 2153, 2556, 2619, 3126, 3474, 3550, 4072, 4294, 4565, 4642, 4991, 5261, 5497, 6227, 6936, 6970, 7458, 7985]}, "edge": {"target": [], "time": []}}}, "displayed_time": "9.42", "trialTime": 13485, "trial_type": "mouselab-mdp", "trial_index": 36, "time_elapsed": 699049, "internal_node_id": "0.0-4.0-1.0-27.0"}}, {"uniqueid": "w61944423:a34450256", "current_trial": 37, "dateTime": 1664555875110, "trialdata": {"revealed_states": [], "num_clicks_accrued": [0, 0, 0, 0, 0, 0, 0, 0, 0, 0, 0, 0, 0], "stateRewards": ["", 2, -4, 48, 24, 2, 8, 24, 24, -2, 4, 24, 24], "withholdReward": true, "trial_id": "mdp_813974524300", "block": "test1", "trialIndex": 30, "score": 49.5, "costs": -1.5, "simulationMode": [null, null, null], "rewards": [2, -4, 48], "path": ["0", "0", "1", "2", "3"], "rt": [3262, 365, 177], "actions": ["up", "up", "right"], "actionTimes": [5359, 6221, 6895], "queries": {"click": {"state": {"target": ["7", "8", "11", "12", "4", "3"], "time": [2565, 3022, 3722, 4058, 4608, 4968]}, "edge": {"target": [], "time": []}}, "mouseover": {"state": {"target": ["7", "7", "6", "8", "5", "0", "9", "10", "11", "10", "12", "10", "4", "4", "2", "3"], "time": [2262, 2429, 2748, 2804, 3367, 3395, 3437, 3464, 3618, 3854, 3972, 4208, 4306, 4507, 4758, 4862]}, "edge": {"target": [], "time": []}}, "mouseout": {"state": {"target": ["5", "5", "7", "7", "6", "8", "5", "0", "9", "10", "11", "10", "12", "10", "4", "4", "2", "3", "5"], "time": [1365, 1879, 2297, 2728, 2776, 3221, 3375, 3423, 3451, 3555, 3826, 3916, 4180, 4215, 4370, 4723, 4806, 5209, 9811]}, "edge": {"target": [], "time": []}}}, "displayed_time": "10.10", "trialTime": 11067, "trial_type": "mouselab-mdp", "trial_index": 37, "time_elapsed": 710161, "internal_node_id": "0.0-4.0-1.0-28.0"}}, {"uniqueid": "w61944423:a34450256", "current_trial": 38, "dateTime": 1664555885408, "trialdata": {"revealed_states": [], "num_clicks_accrued": [0, 0, 0, 0, 0, 0, 0, 0, 0, 0, 0, 0, 0], "stateRewards": ["", 2, 4, -48, -24, -4, 4, -24, 24, -2, -8, -24, 24], "withholdReward": true, "trial_id": "mdp_640720803523", "block": "test1", "trialIndex": 31, "score": 27.5, "costs": -1.5, "simulationMode": [null, null, null], "rewards": [-4, 4, 24], "path": ["0", "0", "5", "6", "8"], "rt": [4367, 16, 375], "actions": ["right", "right", "down"], "actionTimes": [5064, 5583, 6457], "queries": {"click": {"state": {"target": ["3", "8", "4", "11", "12", "7"], "time": [1196, 1982, 2597, 3462, 3801, 4401]}, "edge": {"target": [], "time": []}}, "mouseover": {"state": {"target": ["3", "5", "8", "8", "6", "7", "2", "4", "11", "11", "10", "11", "10", "12", "5", "7", "6", "5", "0"], "time": [1110, 1466, 1507, 1792, 2139, 2202, 2369, 2410, 2793, 3058, 3245, 3384, 3606, 3703, 4148, 4295, 4621, 4809, 4871]}, "edge": {"target": [], "time": []}}, "mouseout": {"state": {"target": ["3", "5", "8", "8", "6", "7", "2", "4", "11", "11", "10", "11", "10", "12", "5", "7", "6", "5", "0"], "time": [1368, 1472, 1535, 2111, 2174, 2243, 2382, 2737, 2897, 3211, 3363, 3571, 3655, 3974, 4218, 4551, 4746, 4850, 5017]}, "edge": {"target": [], "time": []}}}, "displayed_time": "9.70", "trialTime": 10251, "trial_type": "mouselab-mdp", "trial_index": 38, "time_elapsed": 720458, "internal_node_id": "0.0-4.0-1.0-29.0"}}, {"uniqueid": "w61944423:a34450256", "current_trial": 39, "dateTime": 1664555901728, "trialdata": {"rt": 16318, "stimulus": "<h1> End of block! </h1>\n\nYou have reached the end of the block 1/4. If you need a short break, feel free to take one now before moving on.\n\n<br><br>\nIn the next block, you will complete another 30 rounds of this game.\n\n<br><br>\n<div style='text-align: center;'>Press <code>space</code> to begin.</div>\n<br><br>\n<div style='text-align: center;'>(If the experiment doesn't continue, try clicking on the text and then pressing <code>space</code>.)</div>", "response": " ", "trial_id": "mdp_ready_2", "trial_type": "html-keyboard-response", "trial_index": 39, "time_elapsed": 736779, "internal_node_id": "0.0-4.0-2.0"}}, {"uniqueid": "w61944423:a34450256", "current_trial": 40, "dateTime": 1664555912442, "trialdata": {"revealed_states": [], "num_clicks_accrued": [0, 0, 0, 0, 0, 0, 0, 0, 0, 0, 0, 0, 0], "stateRewards": ["", 2, -8, 48, -24, -4, -8, -24, 48, -2, 4, 24, -48], "withholdReward": false, "trial_id": "mdp_186932504904", "block": "test2", "trialIndex": 32, "score": 40.5, "costs": -0.5, "simulationMode": [null, null, null], "rewards": [-4, -8, 48], "path": ["0", "0", "5", "6", "8"], "rt": [2846, 126, 160], "actions": ["right", "right", "down"], "actionTimes": [3642, 4267, 4933], "queries": {"click": {"state": {"target": ["7", "8"], "time": [1436, 1905]}, "edge": {"target": [], "time": []}}, "mouseover": {"state": {"target": ["5", "6", "7", "6", "8"], "time": [1067, 1095, 1290, 1589, 1673]}, "edge": {"target": [], "time": []}}, "mouseout": {"state": {"target": ["0", "5", "6", "7", "6", "8"], "time": [1047, 1081, 1116, 1554, 1637, 2063]}, "edge": {"target": [], "time": []}}}, "displayed_time": "8.80", "trialTime": 10653, "trial_type": "mouselab-mdp", "trial_index": 40, "time_elapsed": 747493, "internal_node_id": "0.0-4.0-3.0-0.0"}}, {"uniqueid": "w61944423:a34450256", "current_trial": 41, "dateTime": 1664555923386, "trialdata": {"revealed_states": [], "num_clicks_accrued": [0, 0, 0, 0, 0, 0, 0, 0, 0, 0, 0, 0, 0], "stateRewards": ["", -2, 8, 24, -48, -2, -4, 24, 48, 2, 8, -48, -48], "withholdReward": true, "trial_id": "mdp_562228697607", "block": "test2", "trialIndex": 33, "score": 45, "costs": -2, "simulationMode": [null, null, null], "rewards": [-2, -4, 48], "path": ["0", "0", "5", "6", "8"], "rt": [4686, 4, 9], "actions": ["right", "right", "down"], "actionTimes": [5698, 6213, 6722], "queries": {"click": {"state": {"target": ["11", "12", "7", "8", "3", "4", "6", "5"], "time": [1732, 2162, 3092, 3429, 3979, 4568, 5286, 5505]}, "edge": {"target": [], "time": []}}, "mouseover": {"state": {"target": ["9", "11", "10", "12", "0", "5", "6", "7", "7", "6", "8", "6", "3", "2", "4", "1", "5", "6", "5"], "time": [1443, 1638, 1958, 2118, 2437, 2458, 2486, 2618, 3022, 3237, 3405, 3640, 3813, 4119, 4440, 4870, 4926, 5155, 5426]}, "edge": {"target": [], "time": []}}, "mouseout": {"state": {"target": ["0", "9", "11", "10", "12", "0", "5", "6", "7", "7", "6", "8", "6", "3", "2", "4", "1", "5", "6", "5", "8"], "time": [1297, 1478, 1923, 1999, 2381, 2444, 2472, 2520, 2722, 3195, 3292, 3598, 3662, 4092, 4189, 4801, 4892, 4933, 5391, 5718, 10241]}, "edge": {"target": [], "time": []}}}, "displayed_time": "10.01", "trialTime": 10892, "trial_type": "mouselab-mdp", "trial_index": 41, "time_elapsed": 758437, "internal_node_id": "0.0-4.0-3.0-1.0"}}, {"uniqueid": "w61944423:a34450256", "current_trial": 42, "dateTime": 1664555940900, "trialdata": {"revealed_states": [], "num_clicks_accrued": [0, 0, 0, 0, 0, 0, 0, 0, 0, 0, 0, 0, 0], "stateRewards": ["", -2, 4, 24, 48, 2, 4, -48, -48, -2, 8, 48, -24], "withholdReward": false, "trial_id": "mdp_305701202606", "block": "test2", "trialIndex": 34, "score": 54.5, "costs": -0.5, "simulationMode": [null, null, null], "rewards": [-2, 4, 48], "path": ["0", "0", "1", "2", "4"], "rt": [1704, 53, 126], "actions": ["up", "up", "left"], "actionTimes": [2241, 2791, 3413], "queries": {"click": {"state": {"target": ["4", "3"], "time": [1049, 1491]}, "edge": {"target": [], "time": []}}, "mouseover": {"state": {"target": ["1", "4", "2", "3", "1"], "time": [722, 813, 1285, 1369, 1973]}, "edge": {"target": [], "time": []}}, "mouseout": {"state": {"target": ["0", "1", "4", "2", "3", "1", "1", "2", "2"], "time": [402, 756, 1257, 1319, 1674, 2397, 16557, 16579, 16961]}, "edge": {"target": [], "time": []}}}, "displayed_time": "9.54", "trialTime": 17459, "trial_type": "mouselab-mdp", "trial_index": 42, "time_elapsed": 775951, "internal_node_id": "0.0-4.0-3.0-2.0"}}, {"uniqueid": "w61944423:a34450256", "current_trial": 43, "dateTime": 1664555961009, "trialdata": {"revealed_states": [], "num_clicks_accrued": [0, 0, 0, 0, 0, 0, 0, 0, 0, 0, 0, 0, 0], "stateRewards": ["", -2, -8, 48, 24, 2, 8, -48, 24, -4, 8, 48, 48], "withholdReward": false, "trial_id": "mdp_875436109858", "block": "test2", "trialIndex": 35, "score": 55.5, "costs": -1.5, "simulationMode": [null, null, null], "rewards": [-4, 8, 48], "path": ["0", "0", "9", "10", "12"], "rt": [4374, 68, 35], "actions": ["left", "left", "down"], "actionTimes": [4937, 5503, 6041], "queries": {"click": {"state": {"target": ["7", "8", "11", "12", "10", "9"], "time": [1173, 1561, 2152, 2515, 3889, 4181]}, "edge": {"target": [], "time": []}}, "mouseover": {"state": {"target": ["6", "7", "6", "8", "9", "11", "10", "12", "9", "10", "9"], "time": [1013, 1070, 1326, 1403, 1841, 2050, 2292, 2383, 2807, 2953, 4037]}, "edge": {"target": [], "time": []}}, "mouseout": {"state": {"target": ["0", "6", "7", "6", "8", "9", "11", "10", "12", "9", "10", "9"], "time": [729, 1035, 1291, 1369, 1709, 1945, 2272, 2341, 2737, 2842, 3989, 19199]}, "edge": {"target": [], "time": []}}}, "displayed_time": "8.56", "trialTime": 20043, "trial_type": "mouselab-mdp", "trial_index": 43, "time_elapsed": 796060, "internal_node_id": "0.0-4.0-3.0-3.0"}}, {"uniqueid": "w61944423:a34450256", "current_trial": 44, "dateTime": 1664555974776, "trialdata": {"revealed_states": [], "num_clicks_accrued": [0, 0, 0, 0, 0, 0, 0, 0, 0, 0, 0, 0, 0], "stateRewards": ["", 2, -4, 48, -48, 2, 4, -24, 24, -4, -8, 24, -48], "withholdReward": true, "trial_id": "mdp_238810765895", "block": "test2", "trialIndex": 36, "score": 49.5, "costs": -1.5, "simulationMode": [null, null, null], "rewards": [2, -4, 48], "path": ["0", "0", "1", "2", "3"], "rt": [4110, 362, 144], "actions": ["up", "up", "right"], "actionTimes": [4909, 5774, 6417], "queries": {"click": {"state": {"target": ["7", "8", "11", "12", "4", "3"], "time": [1227, 1577, 2148, 2810, 3527, 3835]}, "edge": {"target": [], "time": []}}, "mouseover": {"state": {"target": ["5", "7", "6", "8", "0", "9", "10", "11", "10", "12", "12", "9", "4", "2", "3", "6"], "time": [976, 1123, 1373, 1491, 1853, 1901, 1950, 2054, 2276, 2452, 2756, 3027, 3361, 3654, 3757, 4236]}, "edge": {"target": [], "time": []}}, "mouseout": {"state": {"target": ["6", "5", "0", "5", "7", "6", "8", "0", "9", "10", "11", "10", "12", "12", "9", "4", "2", "3", "6", "5"], "time": [406, 483, 942, 1025, 1324, 1435, 1741, 1882, 1929, 1977, 2249, 2333, 2548, 2951, 3117, 3612, 3689, 4057, 12534, 12641]}, "edge": {"target": [], "time": []}}}, "displayed_time": "9.80", "trialTime": 13717, "trial_type": "mouselab-mdp", "trial_index": 44, "time_elapsed": 809827, "internal_node_id": "0.0-4.0-3.0-4.0"}}, {"uniqueid": "w61944423:a34450256", "current_trial": 45, "dateTime": 1664555986973, "trialdata": {"revealed_states": [], "num_clicks_accrued": [0, 0, 0, 0, 0, 0, 0, 0, 0, 0, 0, 0, 0], "stateRewards": ["", -4, 4, 24, 24, 4, -8, 48, -48, -2, -8, 24, 24], "withholdReward": true, "trial_id": "mdp_395264223239", "block": "test2", "trialIndex": 37, "score": 47.5, "costs": -1.5, "simulationMode": [null, null, null], "rewards": [4, -8, 48], "path": ["0", "0", "5", "6", "7"], "rt": [4258, 9, 505], "actions": ["right", "right", "up"], "actionTimes": [5151, 5662, 6671], "queries": {"click": {"state": {"target": ["7", "8", "11", "12", "3", "4"], "time": [1271, 1714, 2584, 2892, 3632, 3940]}, "edge": {"target": [], "time": []}}, "mouseover": {"state": {"target": ["5", "7", "6", "8", "0", "9", "11", "11", "10", "12", "9", "1", "2", "3", "2", "4", "1", "6"], "time": [1043, 1126, 1488, 1578, 2044, 2086, 2176, 2482, 2718, 2787, 3136, 3253, 3338, 3552, 3747, 3795, 4137, 4192]}, "edge": {"target": [], "time": []}}, "mouseout": {"state": {"target": ["0", "5", "7", "6", "8", "0", "9", "11", "11", "10", "12", "9", "1", "2", "3", "2", "4", "1", "6"], "time": [1015, 1071, 1433, 1550, 1953, 2072, 2113, 2217, 2690, 2753, 3101, 3177, 3309, 3511, 3726, 3781, 4088, 4157, 4207]}, "edge": {"target": [], "time": []}}}, "displayed_time": "9.89", "trialTime": 12148, "trial_type": "mouselab-mdp", "trial_index": 45, "time_elapsed": 822024, "internal_node_id": "0.0-4.0-3.0-5.0"}}, {"uniqueid": "w61944423:a34450256", "current_trial": 46, "dateTime": 1664556002178, "trialdata": {"revealed_states": [], "num_clicks_accrued": [0, 0, 0, 0, 0, 0, 0, 0, 0, 0, 0, 0, 0], "stateRewards": ["", 4, 4, -24, -48, -4, 4, -48, 24, 4, -8, -48, 48], "withholdReward": true, "trial_id": "mdp_566768794366", "block": "test2", "trialIndex": 38, "score": 47.75, "costs": -1.25, "simulationMode": [null, null, null], "rewards": [4, -8, 48], "path": ["0", "0", "9", "10", "12"], "rt": [3145, 461, 298], "actions": ["left", "left", "down"], "actionTimes": [4821, 5781, 6577], "queries": {"click": {"state": {"target": ["11", "12", "7", "9", "10"], "time": [2241, 2554, 3164, 3775, 4019]}, "edge": {"target": [], "time": []}}, "mouseover": {"state": {"target": ["9", "10", "11", "10", "12", "7", "6", "5", "9", "10"], "time": [1934, 1968, 2121, 2393, 2510, 3052, 3344, 3490, 3567, 3928]}, "edge": {"target": [], "time": []}}, "mouseout": {"state": {"target": ["2", "9", "10", "11", "10", "12", "7", "6", "5", "9", "10"], "time": [1329, 1954, 1982, 2364, 2434, 2705, 3310, 3456, 3511, 3908, 4192]}, "edge": {"target": [], "time": []}}}, "displayed_time": "9.68", "trialTime": 15154, "trial_type": "mouselab-mdp", "trial_index": 46, "time_elapsed": 837229, "internal_node_id": "0.0-4.0-3.0-6.0"}}, {"uniqueid": "w61944423:a34450256", "current_trial": 47, "dateTime": 1664556012254, "trialdata": {"revealed_states": [], "num_clicks_accrued": [0, 0, 0, 0, 0, 0, 0, 0, 0, 0, 0, 0, 0], "stateRewards": ["", -2, -4, -24, -24, 4, 8, 24, 24, -2, 8, 48, 48], "withholdReward": true, "trial_id": "mdp_620787912291", "block": "test2", "trialIndex": 39, "score": 58, "costs": -1, "simulationMode": [null, null, null], "rewards": [-2, 8, 48], "path": ["0", "0", "9", "10", "11"], "rt": [3035, 584, 289], "actions": ["left", "left", "up"], "actionTimes": [4374, 5460, 6249], "queries": {"click": {"state": {"target": ["7", "8", "11", "12"], "time": [2058, 2386, 3027, 3573]}, "edge": {"target": [], "time": []}}, "mouseover": {"state": {"target": ["5", "6", "7", "6", "8", "0", "9", "11", "10", "12"], "time": [1469, 1532, 1963, 2199, 2297, 2643, 2748, 2921, 3172, 3463]}, "edge": {"target": [], "time": []}}, "mouseout": {"state": {"target": ["0", "5", "0", "5", "6", "7", "6", "8", "0", "9", "11", "10"], "time": [725, 975, 1441, 1504, 1671, 2164, 2247, 2546, 2706, 2866, 3151, 3213]}, "edge": {"target": [], "time": []}}}, "displayed_time": "9.34", "trialTime": 10021, "trial_type": "mouselab-mdp", "trial_index": 47, "time_elapsed": 847305, "internal_node_id": "0.0-4.0-3.0-7.0"}}, {"uniqueid": "w61944423:a34450256", "current_trial": 48, "dateTime": 1664556027121, "trialdata": {"revealed_states": [], "num_clicks_accrued": [0, 0, 0, 0, 0, 0, 0, 0, 0, 0, 0, 0, 0], "stateRewards": ["", 2, -4, -48, 24, -4, 4, 24, 24, 2, -8, -24, -48], "withholdReward": true, "trial_id": "mdp_807654778305", "block": "test2", "trialIndex": 40, "score": 27.5, "costs": -1.5, "simulationMode": [null, null, null], "rewards": [-4, 4, 24], "path": ["0", "0", "5", "6", "8"], "rt": [3950, 90, 1345], "actions": ["right", "right", "down"], "actionTimes": [8597, 9189, 11036], "queries": {"click": {"state": {"target": ["7", "8", "11", "12", "3", "4"], "time": [5420, 5862, 6355, 6682, 7297, 7643]}, "edge": {"target": [], "time": []}}, "mouseover": {"state": {"target": ["5", "6", "7", "6", "8", "0", "9", "11", "10", "12", "9", "1", "2", "3", "2", "4", "1"], "time": [4817, 4893, 5255, 5582, 5700, 6068, 6103, 6152, 6485, 6603, 6923, 6986, 7041, 7201, 7438, 7501, 7841]}, "edge": {"target": [], "time": []}}, "mouseout": {"state": {"target": ["12", "8", "0", "5", "6", "7", "6", "8", "0", "9", "11", "10", "12", "9", "1", "2", "3", "2", "4", "1"], "time": [2265, 3996, 4789, 4845, 4928, 5554, 5644, 6005, 6089, 6110, 6451, 6541, 6867, 6958, 7013, 7111, 7417, 7466, 7799, 7848]}, "edge": {"target": [], "time": []}}}, "displayed_time": "13.65", "trialTime": 14806, "trial_type": "mouselab-mdp", "trial_index": 48, "time_elapsed": 862172, "internal_node_id": "0.0-4.0-3.0-8.0"}}, {"uniqueid": "w61944423:a34450256", "current_trial": 49, "dateTime": 1664556041641, "trialdata": {"revealed_states": [], "num_clicks_accrued": [0, 0, 0, 0, 0, 0, 0, 0, 0, 0, 0, 0, 0], "stateRewards": ["", -2, -8, 24, -24, 4, -8, 48, 48, -4, -8, -24, -48], "withholdReward": false, "trial_id": "mdp_286767261523", "block": "test2", "trialIndex": 41, "score": 48.75, "costs": -0.25, "simulationMode": [null, null, null], "rewards": [4, -8, 48], "path": ["0", "0", "5", "6", "8"], "rt": [1443, 1488, 483], "actions": ["right", "right", "down"], "actionTimes": [3688, 5703, 6685], "queries": {"click": {"state": {"target": ["8"], "time": [2698]}, "edge": {"target": [], "time": []}}, "mouseover": {"state": {"target": ["5", "8", "6"], "time": [2462, 2691, 2920]}, "edge": {"target": [], "time": []}}, "mouseout": {"state": {"target": ["5", "0", "5", "8", "6"], "time": [1989, 2416, 2510, 2885, 2976]}, "edge": {"target": [], "time": []}}}, "displayed_time": "9.24", "trialTime": 14430, "trial_type": "mouselab-mdp", "trial_index": 49, "time_elapsed": 876692, "internal_node_id": "0.0-4.0-3.0-9.0"}}, {"uniqueid": "w61944423:a34450256", "current_trial": 50, "dateTime": 1664556072959, "trialdata": {"revealed_states": [], "num_clicks_accrued": [0, 0, 0, 0, 0, 0, 0, 0, 0, 0, 0, 0, 0], "stateRewards": ["", -4, -4, -48, -24, 2, 8, 24, -48, 4, 4, 48, 48], "withholdReward": true, "trial_id": "mdp_693501840209", "block": "test2", "trialIndex": 42, "score": 60, "costs": -1, "simulationMode": [null, null, null], "rewards": [4, 4, 48], "path": ["0", "0", "9", "10", "11"], "rt": [4421, 481, 284], "actions": ["left", "left", "up"], "actionTimes": [7375, 8359, 9141], "queries": {"click": {"state": {"target": ["7", "8", "11", "12"], "time": [5398, 5803, 6280, 6647]}, "edge": {"target": [], "time": []}}, "mouseover": {"state": {"target": ["7", "7", "6", "8", "0", "11", "10", "12"], "time": [5117, 5284, 5541, 5624, 6028, 6153, 6431, 6514]}, "edge": {"target": [], "time": []}}, "mouseout": {"state": {"target": ["7", "7", "6", "5", "0", "7", "7", "6", "8", "0", "11", "10", "12", "9", "0"], "time": [1231, 1481, 1877, 2023, 3675, 5131, 5513, 5583, 5951, 6042, 6403, 6480, 30351, 30581, 30643]}, "edge": {"target": [], "time": []}}}, "displayed_time": "9.96", "trialTime": 31261, "trial_type": "mouselab-mdp", "trial_index": 50, "time_elapsed": 908010, "internal_node_id": "0.0-4.0-3.0-10.0"}}, {"uniqueid": "w61944423:a34450256", "current_trial": 51, "dateTime": 1664556095799, "trialdata": {"revealed_states": [], "num_clicks_accrued": [0, 0, 0, 0, 0, 0, 0, 0, 0, 0, 0, 0, 0], "stateRewards": ["", -2, -4, -48, -48, -2, -8, 48, -48, 4, -8, -48, 24], "withholdReward": true, "trial_id": "mdp_468495641521", "block": "test2", "trialIndex": 43, "score": 42, "costs": -1, "simulationMode": [null, null, null], "rewards": [-2, -8, 48], "path": ["0", "0", "5", "6", "7"], "rt": [3241, 55, 530], "actions": ["right", "right", "up"], "actionTimes": [8914, 9471, 10503], "queries": {"click": {"state": {"target": ["7", "8", "11", "12"], "time": [6182, 6611, 7624, 8040]}, "edge": {"target": [], "time": []}}, "mouseover": {"state": {"target": ["5", "7", "6", "8", "5", "11", "10", "10", "11", "10", "12"], "time": [5919, 6037, 6399, 6490, 6824, 7288, 7351, 7469, 7532, 7775, 7866]}, "edge": {"target": [], "time": []}}, "mouseout": {"state": {"target": ["0", "5", "7", "6", "8", "5", "11", "10", "10", "11", "10", "12"], "time": [5884, 5954, 6364, 6447, 6774, 6843, 7324, 7407, 7511, 7756, 7817, 8220]}, "edge": {"target": [], "time": []}}}, "displayed_time": "14.67", "trialTime": 22780, "trial_type": "mouselab-mdp", "trial_index": 51, "time_elapsed": 930850, "internal_node_id": "0.0-4.0-3.0-11.0"}}, {"uniqueid": "w61944423:a34450256", "current_trial": 52, "dateTime": 1664556111443, "trialdata": {"revealed_states": [], "num_clicks_accrued": [0, 0, 0, 0, 0, 0, 0, 0, 0, 0, 0, 0, 0], "stateRewards": ["", -4, 4, 24, 24, -2, 8, 24, -48, 4, -8, -24, -48], "withholdReward": true, "trial_id": "mdp_651542905861", "block": "test2", "trialIndex": 44, "score": 33.5, "costs": -1.5, "simulationMode": [null, null, null], "rewards": [-2, 8, 24], "path": ["0", "0", "5", "6", "7"], "rt": [3577, 50, 144], "actions": ["right", "right", "up"], "actionTimes": [7558, 8110, 8754], "queries": {"click": {"state": {"target": ["7", "8", "11", "12", "4", "3"], "time": [4445, 4851, 5311, 5663, 6307, 6646]}, "edge": {"target": [], "time": []}}, "mouseover": {"state": {"target": ["5", "7", "6", "8", "0", "9", "11", "10", "12", "10", "4", "4", "2", "3", "6"], "time": [4194, 4263, 4611, 4688, 5042, 5083, 5167, 5542, 5591, 5876, 5959, 6210, 6432, 6634, 6947]}, "edge": {"target": [], "time": []}}, "mouseout": {"state": {"target": ["0", "5", "7", "6", "8", "0", "9", "11", "10", "12", "10", "4", "4", "2", "3", "6"], "time": [4152, 4201, 4576, 4653, 4986, 5063, 5111, 5466, 5556, 5848, 5897, 5981, 6405, 6515, 6870, 6954]}, "edge": {"target": [], "time": []}}}, "displayed_time": "12.98", "trialTime": 15593, "trial_type": "mouselab-mdp", "trial_index": 52, "time_elapsed": 946494, "internal_node_id": "0.0-4.0-3.0-12.0"}}, {"uniqueid": "w61944423:a34450256", "current_trial": 53, "dateTime": 1664556121658, "trialdata": {"revealed_states": [], "num_clicks_accrued": [0, 0, 0, 0, 0, 0, 0, 0, 0, 0, 0, 0, 0], "stateRewards": ["", -2, -8, -24, -48, -2, -4, 48, -48, 4, 4, -48, 48], "withholdReward": true, "trial_id": "mdp_156977432949", "block": "test2", "trialIndex": 45, "score": 60, "costs": -1, "simulationMode": [null, null, null], "rewards": [4, 4, 48], "path": ["0", "0", "9", "10", "12"], "rt": [2514, 262, 248], "actions": ["left", "left", "down"], "actionTimes": [3629, 4391, 5134], "queries": {"click": {"state": {"target": ["7", "8", "11", "12"], "time": [1481, 1813, 2395, 2759]}, "edge": {"target": [], "time": []}}, "mouseover": {"state": {"target": ["5", "7", "6", "8", "5", "11", "10", "12", "6"], "time": [1250, 1341, 1626, 1695, 2022, 2307, 2599, 2703, 3051]}, "edge": {"target": [], "time": []}}, "mouseout": {"state": {"target": ["3", "2", "5", "7", "6", "8", "5", "11", "10", "12"], "time": [847, 868, 1278, 1598, 1660, 1995, 2036, 2571, 2647, 2932]}, "edge": {"target": [], "time": []}}}, "displayed_time": "9.12", "trialTime": 10165, "trial_type": "mouselab-mdp", "trial_index": 53, "time_elapsed": 956709, "internal_node_id": "0.0-4.0-3.0-13.0"}}, {"uniqueid": "w61944423:a34450256", "current_trial": 54, "dateTime": 1664556136253, "trialdata": {"revealed_states": [], "num_clicks_accrued": [0, 0, 0, 0, 0, 0, 0, 0, 0, 0, 0, 0, 0], "stateRewards": ["", 2, -4, -48, -48, -2, -4, -24, -48, -2, 8, 24, 24], "withholdReward": true, "trial_id": "mdp_656069446729", "block": "test2", "trialIndex": 46, "score": 32, "costs": -3, "simulationMode": [null, null, null], "rewards": [-2, 8, 24], "path": ["0", "0", "9", "10", "12"], "rt": [6155, 157, 412], "actions": ["left", "left", "down"], "actionTimes": [7962, 8616, 9526], "queries": {"click": {"state": {"target": ["7", "3", "4", "11", "12", "8", "6", "5", "9", "10", "2", "1"], "time": [2300, 2818, 3420, 4015, 4314, 4767, 5039, 5249, 5900, 6121, 6647, 7172]}, "edge": {"target": [], "time": []}}, "mouseover": {"state": {"target": ["7", "2", "3", "2", "4", "4", "11", "11", "10", "12", "8", "6", "5", "0", "9", "9", "10", "1", "2", "1", "0"], "time": [2223, 2613, 2717, 2939, 3016, 3248, 3620, 3912, 4156, 4204, 4719, 5004, 5171, 5407, 5456, 5831, 6047, 6345, 6582, 6902, 7326]}, "edge": {"target": [], "time": []}}, "mouseout": {"state": {"target": ["6", "5", "0", "7", "2", "3", "2", "4", "4", "11", "11", "10", "12", "8", "6", "5", "0", "9", "9", "10", "1", "2", "1", "0"], "time": [1250, 1403, 1910, 2494, 2661, 2912, 2981, 3071, 3551, 3676, 4128, 4183, 4468, 4934, 5143, 5386, 5421, 5504, 6012, 6262, 6366, 6853, 7278, 7353]}, "edge": {"target": [], "time": []}}}, "displayed_time": "10.81", "trialTime": 14533, "trial_type": "mouselab-mdp", "trial_index": 54, "time_elapsed": 971303, "internal_node_id": "0.0-4.0-3.0-14.0"}}, {"uniqueid": "w61944423:a34450256", "current_trial": 55, "dateTime": 1664556175628, "trialdata": {"revealed_states": [], "num_clicks_accrued": [0, 0, 0, 0, 0, 0, 0, 0, 0, 0, 0, 0, 0], "stateRewards": ["", -4, -8, 24, 48, 2, -4, -24, 24, -4, 8, 48, 48], "withholdReward": false, "trial_id": "mdp_496672670022", "block": "test2", "trialIndex": 47, "score": 56, "costs": -1, "simulationMode": [null, null, null], "rewards": [-4, 8, 48], "path": ["0", "0", "9", "10", "12"], "rt": [12115, 104, 39], "actions": ["left", "left", "down"], "actionTimes": [21827, 22429, 22969], "queries": {"click": {"state": {"target": ["7", "8", "11", "12"], "time": [19721, 20151, 20699, 21064]}, "edge": {"target": [], "time": []}}, "mouseover": {"state": {"target": ["0", "5", "7", "6", "8", "9", "10", "11", "10", "12"], "time": [11884, 19384, 19593, 19885, 19996, 20399, 20518, 20615, 20865, 20977]}, "edge": {"target": [], "time": []}}, "mouseout": {"state": {"target": ["5", "0", "5", "7", "6", "8", "9", "10", "11", "10", "12"], "time": [9165, 19294, 19497, 19858, 19934, 20295, 20462, 20566, 20830, 20921, 38907]}, "edge": {"target": [], "time": []}}}, "displayed_time": "23.46", "trialTime": 39316, "trial_type": "mouselab-mdp", "trial_index": 55, "time_elapsed": 1010679, "internal_node_id": "0.0-4.0-3.0-15.0"}}, {"uniqueid": "w61944423:a34450256", "current_trial": 56, "dateTime": 1664556189664, "trialdata": {"revealed_states": [], "num_clicks_accrued": [0, 0, 0, 0, 0, 0, 0, 0, 0, 0, 0, 0, 0], "stateRewards": ["", 2, 4, 48, -48, 2, 4, 24, -24, 2, -4, -24, -48], "withholdReward": true, "trial_id": "mdp_706591889062", "block": "test2", "trialIndex": 48, "score": 57.5, "costs": -1.5, "simulationMode": [null, null, null], "rewards": [2, 4, 48], "path": ["0", "0", "1", "2", "3"], "rt": [3242, 79, 17], "actions": ["up", "up", "right"], "actionTimes": [3746, 4322, 4836], "queries": {"click": {"state": {"target": ["7", "8", "11", "12", "4", "3"], "time": [989, 1294, 1755, 2053, 2558, 2884]}, "edge": {"target": [], "time": []}}, "mouseover": {"state": {"target": ["5", "6", "7", "6", "8", "0", "9", "11", "10", "12", "9", "4", "2", "3"], "time": [642, 760, 920, 1121, 1205, 1489, 1531, 1663, 1886, 1977, 2268, 2470, 2706, 2845]}, "edge": {"target": [], "time": []}}, "mouseout": {"state": {"target": ["0", "5", "6", "7", "6", "8", "0", "9", "11", "10", "12", "9", "4", "2", "3", "7", "8"], "time": [615, 697, 871, 1093, 1163, 1420, 1517, 1546, 1858, 1934, 2206, 2289, 2679, 2797, 3095, 3159, 13550]}, "edge": {"target": [], "time": []}}}, "displayed_time": "8.50", "trialTime": 13977, "trial_type": "mouselab-mdp", "trial_index": 56, "time_elapsed": 1024715, "internal_node_id": "0.0-4.0-3.0-16.0"}}, {"uniqueid": "w61944423:a34450256", "current_trial": 57, "dateTime": 1664556206604, "trialdata": {"revealed_states": [], "num_clicks_accrued": [0, 0, 0, 0, 0, 0, 0, 0, 0, 0, 0, 0, 0], "stateRewards": ["", -4, 4, -24, -24, -4, -8, 24, 48, 4, -4, 24, 48], "withholdReward": true, "trial_id": "mdp_175395325183", "block": "test2", "trialIndex": 49, "score": 52, "costs": -1, "simulationMode": [null, null, null], "rewards": [4, -4, 48], "path": ["0", "0", "9", "10", "12"], "rt": [2519, 71, 297], "actions": ["left", "left", "down"], "actionTimes": [3116, 3688, 4484], "queries": {"click": {"state": {"target": ["7", "8", "11", "12"], "time": [1038, 1454, 1955, 2270]}, "edge": {"target": [], "time": []}}, "mouseover": {"state": {"target": ["7", "6", "8", "0", "9", "11", "10", "12"], "time": [802, 1184, 1232, 1670, 1691, 1810, 2102, 2178]}, "edge": {"target": [], "time": []}}, "mouseout": {"state": {"target": ["5", "0", "7", "6", "8", "0", "9", "11", "10", "12", "8"], "time": [259, 705, 1170, 1213, 1601, 1678, 1712, 2074, 2143, 2436, 16582]}, "edge": {"target": [], "time": []}}}, "displayed_time": "9.60", "trialTime": 16888, "trial_type": "mouselab-mdp", "trial_index": 57, "time_elapsed": 1041655, "internal_node_id": "0.0-4.0-3.0-17.0"}}, {"uniqueid": "w61944423:a34450256", "current_trial": 58, "dateTime": 1664556223976, "trialdata": {"revealed_states": [], "num_clicks_accrued": [0, 0, 0, 0, 0, 0, 0, 0, 0, 0, 0, 0, 0], "stateRewards": ["", -2, -8, -24, -48, 4, -8, 48, 24, 2, 4, -48, -48], "withholdReward": true, "trial_id": "mdp_898082967464", "block": "test2", "trialIndex": 50, "score": 48.5, "costs": -0.5, "simulationMode": [null, null, null], "rewards": [4, -8, 48], "path": ["0", "0", "5", "6", "7"], "rt": [1821, 94, 213], "actions": ["right", "right", "up"], "actionTimes": [2766, 3359, 4069], "queries": {"click": {"state": {"target": ["7", "8"], "time": [1327, 1688]}, "edge": {"target": [], "time": []}}, "mouseover": {"state": {"target": ["5", "7", "6", "8", "6"], "time": [1068, 1144, 1457, 1555, 1923]}, "edge": {"target": [], "time": []}}, "mouseout": {"state": {"target": ["0", "5", "7", "6", "8", "6"], "time": [1033, 1074, 1436, 1506, 1875, 1930]}, "edge": {"target": [], "time": []}}}, "displayed_time": "8.95", "trialTime": 17321, "trial_type": "mouselab-mdp", "trial_index": 58, "time_elapsed": 1059026, "internal_node_id": "0.0-4.0-3.0-18.0"}}, {"uniqueid": "w61944423:a34450256", "current_trial": 59, "dateTime": 1664556237858, "trialdata": {"revealed_states": [], "num_clicks_accrued": [0, 0, 0, 0, 0, 0, 0, 0, 0, 0, 0, 0, 0], "stateRewards": ["", 2, -4, 48, -24, 4, -8, -24, 48, -2, -4, 24, -48], "withholdReward": true, "trial_id": "mdp_357328205509", "block": "test2", "trialIndex": 51, "score": 48, "costs": -1, "simulationMode": [null, null, null], "rewards": [4, -8, 48], "path": ["0", "0", "5", "6", "8"], "rt": [2792, 260, 854], "actions": ["right", "right", "down"], "actionTimes": [3986, 4745, 6098], "queries": {"click": {"state": {"target": ["7", "8", "11", "12"], "time": [1537, 1886, 2749, 3046]}, "edge": {"target": [], "time": []}}, "mouseover": {"state": {"target": ["5", "7", "6", "8", "0", "9", "11", "11", "11", "10", "12"], "time": [1343, 1454, 1704, 1760, 2100, 2128, 2281, 2450, 2684, 2893, 2976]}, "edge": {"target": [], "time": []}}, "mouseout": {"state": {"target": ["7", "5", "7", "6", "8", "0", "9", "11", "11", "11", "10", "12"], "time": [856, 1356, 1669, 1739, 2031, 2114, 2142, 2316, 2503, 2865, 2934, 3233]}, "edge": {"target": [], "time": []}}}, "displayed_time": "11.19", "trialTime": 13822, "trial_type": "mouselab-mdp", "trial_index": 59, "time_elapsed": 1072909, "internal_node_id": "0.0-4.0-3.0-19.0"}}, {"uniqueid": "w61944423:a34450256", "current_trial": 60, "dateTime": 1664556252202, "trialdata": {"revealed_states": [], "num_clicks_accrued": [0, 0, 0, 0, 0, 0, 0, 0, 0, 0, 0, 0, 0], "stateRewards": ["", 2, 8, 24, -48, 4, 8, 24, 48, 2, -8, -24, 24], "withholdReward": true, "trial_id": "mdp_939899431582", "block": "test2", "trialIndex": 52, "score": 64.5, "costs": -0.5, "simulationMode": [null, null, null], "rewards": [4, 8, 48], "path": ["0", "0", "5", "6", "8"], "rt": [2005, 193, 471], "actions": ["right", "right", "down"], "actionTimes": [4486, 5176, 6143], "queries": {"click": {"state": {"target": ["7", "8"], "time": [2830, 3305]}, "edge": {"target": [], "time": []}}, "mouseover": {"state": {"target": ["5", "7", "6", "8", "0"], "time": [2586, 2683, 2995, 3204, 3565]}, "edge": {"target": [], "time": []}}, "mouseout": {"state": {"target": ["0", "0", "5", "7", "6", "8", "0"], "time": [1758, 2543, 2592, 2967, 3023, 3482, 3586]}, "edge": {"target": [], "time": []}}}, "displayed_time": "11.48", "trialTime": 14289, "trial_type": "mouselab-mdp", "trial_index": 60, "time_elapsed": 1087253, "internal_node_id": "0.0-4.0-3.0-20.0"}}, {"uniqueid": "w61944423:a34450256", "current_trial": 61, "dateTime": 1664556267763, "trialdata": {"revealed_states": [], "num_clicks_accrued": [0, 0, 0, 0, 0, 0, 0, 0, 0, 0, 0, 0, 0], "stateRewards": ["", -4, -4, 24, -48, -2, 8, -24, -48, -4, 4, 24, -48], "withholdReward": true, "trial_id": "mdp_934626330092", "block": "test2", "trialIndex": 53, "score": 26.5, "costs": -2.5, "simulationMode": [null, null, null], "rewards": [-4, 4, 24], "path": ["0", "0", "9", "10", "11"], "rt": [5841, 399, 85], "actions": ["left", "left", "up"], "actionTimes": [6416, 7315, 7897], "queries": {"click": {"state": {"target": ["7", "8", "11", "12", "4", "3", "1", "2", "9", "10"], "time": [935, 1321, 1945, 2592, 3023, 3391, 4356, 4576, 5045, 5249]}, "edge": {"target": [], "time": []}}, "mouseover": {"state": {"target": ["5", "7", "6", "8", "0", "9", "11", "10", "10", "10", "12", "10", "4", "2", "3", "1", "1", "2", "9", "10", "0"], "time": [714, 825, 1089, 1263, 1555, 1590, 1842, 2077, 2410, 2473, 2577, 2758, 2890, 3217, 3287, 3885, 4231, 4510, 5018, 5170, 5505]}, "edge": {"target": [], "time": []}}, "mouseout": {"state": {"target": ["0", "5", "7", "6", "8", "0", "9", "11", "10", "10", "10", "12", "10", "4", "2", "3", "1", "1", "2", "1", "9", "10", "9", "0"], "time": [582, 749, 1062, 1166, 1472, 1569, 1612, 2049, 2125, 2417, 2501, 2709, 2772, 3182, 3266, 3592, 3933, 4468, 4767, 4823, 5142, 5413, 5483, 14944]}, "edge": {"target": [], "time": []}}}, "displayed_time": "9.58", "trialTime": 15507, "trial_type": "mouselab-mdp", "trial_index": 61, "time_elapsed": 1102813, "internal_node_id": "0.0-4.0-3.0-21.0"}}, {"uniqueid": "w61944423:a34450256", "current_trial": 62, "dateTime": 1664556277876, "trialdata": {"revealed_states": [], "num_clicks_accrued": [0, 0, 0, 0, 0, 0, 0, 0, 0, 0, 0, 0, 0], "stateRewards": ["", -4, 4, -24, 48, 2, 4, -48, 24, 4, -8, -24, 24], "withholdReward": false, "trial_id": "mdp_740130150937", "block": "test2", "trialIndex": 54, "score": 51.5, "costs": -1.5, "simulationMode": [null, null, null], "rewards": [-4, 4, 48], "path": ["0", "0", "1", "2", "4"], "rt": [3785, 10, 1030], "actions": ["up", "up", "left"], "actionTimes": [4338, 4849, 6377], "queries": {"click": {"state": {"target": ["3", "4", "11", "12", "8", "7"], "time": [1078, 1434, 1760, 2488, 3076, 3329]}, "edge": {"target": [], "time": []}}, "mouseover": {"state": {"target": ["3", "2", "4", "11", "10", "12", "12", "12", "6", "8", "6", "7"], "time": [1001, 1252, 1322, 1627, 1941, 1982, 2162, 2419, 2907, 3018, 3191, 3267]}, "edge": {"target": [], "time": []}}, "mouseout": {"state": {"target": ["0", "3", "2", "4", "11", "10", "12", "12", "12", "6", "8", "6", "7"], "time": [18, 1224, 1293, 1585, 1912, 1961, 2062, 2204, 2621, 2962, 3170, 3226, 3470]}, "edge": {"target": [], "time": []}}}, "displayed_time": "9.55", "trialTime": 10045, "trial_type": "mouselab-mdp", "trial_index": 62, "time_elapsed": 1112927, "internal_node_id": "0.0-4.0-3.0-22.0"}}, {"uniqueid": "w61944423:a34450256", "current_trial": 63, "dateTime": 1664556301509, "trialdata": {"revealed_states": [], "num_clicks_accrued": [0, 0, 0, 0, 0, 0, 0, 0, 0, 0, 0, 0, 0], "stateRewards": ["", -2, -8, 24, -48, 4, 4, -24, -48, -2, -8, -48, 24], "withholdReward": true, "trial_id": "mdp_556006673466", "block": "test2", "trialIndex": 55, "score": 17.5, "costs": -1.5, "simulationMode": [null, null, null], "rewards": [-2, -8, 24], "path": ["0", "0", "9", "10", "12"], "rt": [3511, 389, 205], "actions": ["left", "left", "down"], "actionTimes": [13133, 14025, 14731], "queries": {"click": {"state": {"target": ["7", "8", "11", "12", "4", "3"], "time": [9957, 10271, 10796, 11054, 11493, 12089]}, "edge": {"target": [], "time": []}}, "mouseover": {"state": {"target": ["5", "7", "6", "8", "0", "9", "11", "10", "12", "9", "4", "2", "3", "3"], "time": [9722, 9812, 10112, 10166, 10479, 10507, 10667, 10917, 11021, 11236, 11334, 11633, 11723, 11952]}, "edge": {"target": [], "time": []}}, "mouseout": {"state": {"target": ["5", "5", "0", "0", "5", "7", "6", "8", "0", "9", "11", "10", "12", "9", "4", "2", "3", "3"], "time": [8630, 8900, 9248, 9548, 9735, 10090, 10138, 10416, 10487, 10611, 10896, 10966, 11167, 11243, 11612, 11674, 11800, 12315]}, "edge": {"target": [], "time": []}}}, "displayed_time": "17.62", "trialTime": 23573, "trial_type": "mouselab-mdp", "trial_index": 63, "time_elapsed": 1136560, "internal_node_id": "0.0-4.0-3.0-23.0"}}, {"uniqueid": "w61944423:a34450256", "current_trial": 64, "dateTime": 1664556310800, "trialdata": {"revealed_states": [], "num_clicks_accrued": [0, 0, 0, 0, 0, 0, 0, 0, 0, 0, 0, 0, 0], "stateRewards": ["", -4, -8, 48, -48, 2, -4, 48, -24, 2, -8, -48, -48], "withholdReward": false, "trial_id": "mdp_624553692913", "block": "test2", "trialIndex": 56, "score": 50, "costs": -1, "simulationMode": [null, null, null], "rewards": [2, -4, 48], "path": ["0", "0", "5", "6", "7"], "rt": [2358, 19, 33], "actions": ["right", "right", "up"], "actionTimes": [3295, 3811, 4339], "queries": {"click": {"state": {"target": ["7", "8", "11", "12"], "time": [1269, 1642, 2116, 2404]}, "edge": {"target": [], "time": []}}, "mouseover": {"state": {"target": ["5", "7", "6", "8", "0", "9", "10", "11", "10", "12"], "time": [1094, 1206, 1505, 1588, 1839, 1852, 1887, 2012, 2277, 2360]}, "edge": {"target": [], "time": []}}, "mouseout": {"state": {"target": ["0", "5", "7", "6", "8", "0", "9", "10", "11", "10", "12"], "time": [1067, 1129, 1379, 1561, 1783, 1845, 1873, 1963, 2251, 2318, 2624]}, "edge": {"target": [], "time": []}}}, "displayed_time": "8.94", "trialTime": 9242, "trial_type": "mouselab-mdp", "trial_index": 64, "time_elapsed": 1145851, "internal_node_id": "0.0-4.0-3.0-24.0"}}, {"uniqueid": "w61944423:a34450256", "current_trial": 65, "dateTime": 1664556329293, "trialdata": {"revealed_states": [], "num_clicks_accrued": [0, 0, 0, 0, 0, 0, 0, 0, 0, 0, 0, 0, 0], "stateRewards": ["", 2, 4, -24, -24, 4, 8, -48, 48, 2, 4, -24, -48], "withholdReward": true, "trial_id": "mdp_565165082781", "block": "test2", "trialIndex": 57, "score": 64, "costs": -1, "simulationMode": [null, null, null], "rewards": [4, 8, 48], "path": ["0", "0", "5", "6", "8"], "rt": [2932, 230, 303], "actions": ["right", "right", "down"], "actionTimes": [5086, 5818, 6620], "queries": {"click": {"state": {"target": ["11", "12", "8", "7"], "time": [2699, 2998, 3392, 3654]}, "edge": {"target": [], "time": []}}, "mouseover": {"state": {"target": ["9", "10", "11", "10", "12", "8", "6", "7", "2", "2"], "time": [2263, 2305, 2514, 2833, 2903, 3279, 3508, 3577, 3939, 4224]}, "edge": {"target": [], "time": []}}, "mouseout": {"state": {"target": ["0", "7", "9", "10", "11", "10", "12", "8", "6", "7", "2", "2", "7"], "time": [1728, 1853, 2285, 2333, 2793, 2861, 3125, 3487, 3542, 3849, 3973, 4245, 4314]}, "edge": {"target": [], "time": []}}}, "displayed_time": "11.15", "trialTime": 18436, "trial_type": "mouselab-mdp", "trial_index": 65, "time_elapsed": 1164344, "internal_node_id": "0.0-4.0-3.0-25.0"}}, {"uniqueid": "w61944423:a34450256", "current_trial": 66, "dateTime": 1664556343143, "trialdata": {"revealed_states": [], "num_clicks_accrued": [0, 0, 0, 0, 0, 0, 0, 0, 0, 0, 0, 0, 0], "stateRewards": ["", 4, -4, 48, -48, -4, -4, 48, -48, 4, 4, -48, -24], "withholdReward": true, "trial_id": "mdp_490058671112", "block": "test2", "trialIndex": 58, "score": 44.5, "costs": -0.5, "simulationMode": [null, null, null], "rewards": [-4, -4, 48], "path": ["0", "0", "5", "6", "7"], "rt": [2166, 276, 362], "actions": ["right", "right", "up"], "actionTimes": [2701, 3479, 4337], "queries": {"click": {"state": {"target": ["7", "8"], "time": [947, 1288]}, "edge": {"target": [], "time": []}}, "mouseover": {"state": {"target": ["5", "7", "6", "8"], "time": [680, 784, 1104, 1153]}, "edge": {"target": [], "time": []}}, "mouseout": {"state": {"target": ["5", "7", "6"], "time": [708, 1083, 1132]}, "edge": {"target": [], "time": []}}}, "displayed_time": "9.54", "trialTime": 13795, "trial_type": "mouselab-mdp", "trial_index": 66, "time_elapsed": 1178194, "internal_node_id": "0.0-4.0-3.0-26.0"}}, {"uniqueid": "w61944423:a34450256", "current_trial": 67, "dateTime": 1664556355203, "trialdata": {"revealed_states": [], "num_clicks_accrued": [0, 0, 0, 0, 0, 0, 0, 0, 0, 0, 0, 0, 0], "stateRewards": ["", -2, -4, -48, -48, 4, 8, 24, -48, 4, -8, 24, 24], "withholdReward": true, "trial_id": "mdp_749799219195", "block": "test2", "trialIndex": 59, "score": 23.5, "costs": -1.5, "simulationMode": [null, null, null], "rewards": [4, -8, 24], "path": ["0", "0", "9", "10", "12"], "rt": [3712, 116, 633], "actions": ["left", "left", "down"], "actionTimes": [5324, 5939, 7067], "queries": {"click": {"state": {"target": ["7", "8", "11", "12", "4", "3"], "time": [1978, 2551, 3281, 3598, 4012, 4576]}, "edge": {"target": [], "time": []}}, "mouseover": {"state": {"target": ["5", "7", "6", "8", "8", "9", "10", "11", "11", "10", "12", "10", "4", "2", "3"], "time": [1721, 1776, 2103, 2159, 2430, 2784, 2826, 2882, 3153, 3438, 3521, 3765, 3917, 4175, 4392]}, "edge": {"target": [], "time": []}}, "mouseout": {"state": {"target": ["8", "7", "5", "5", "5", "0", "5", "7", "6", "8", "8", "9", "10", "11", "11", "10", "12", "10", "4", "2", "3", "7"], "time": [567, 866, 1019, 1311, 1450, 1700, 1735, 2082, 2138, 2215, 2681, 2798, 2848, 2917, 3378, 3486, 3737, 3792, 4154, 4238, 4717, 4807]}, "edge": {"target": [], "time": []}}}, "displayed_time": "9.61", "trialTime": 12000, "trial_type": "mouselab-mdp", "trial_index": 67, "time_elapsed": 1190254, "internal_node_id": "0.0-4.0-3.0-27.0"}}, {"uniqueid": "w61944423:a34450256", "current_trial": 68, "dateTime": 1664556365966, "trialdata": {"revealed_states": [], "num_clicks_accrued": [0, 0, 0, 0, 0, 0, 0, 0, 0, 0, 0, 0, 0], "stateRewards": ["", 2, 8, 48, 24, -4, 4, -48, 24, 2, 8, 48, 48], "withholdReward": false, "trial_id": "mdp_367344599162", "block": "test2", "trialIndex": 60, "score": 62, "costs": -1, "simulationMode": [null, null, null], "rewards": [2, 8, 48], "path": ["0", "0", "9", "10", "12"], "rt": [2192, 178, 544], "actions": ["left", "left", "down"], "actionTimes": [3841, 4521, 5561], "queries": {"click": {"state": {"target": ["11", "12", "9", "10"], "time": [1966, 2547, 2818, 3021]}, "edge": {"target": [], "time": []}}, "mouseover": {"state": {"target": ["0", "11", "10", "12", "12", "9", "10"], "time": [1700, 1861, 2125, 2180, 2431, 2730, 2952]}, "edge": {"target": [], "time": []}}, "mouseout": {"state": {"target": ["6", "5", "0", "9", "0", "11", "10", "12", "12", "9", "10"], "time": [887, 1096, 1304, 1478, 1750, 2097, 2160, 2229, 2661, 2911, 3174]}, "edge": {"target": [], "time": []}}}, "displayed_time": "10.65", "trialTime": 10703, "trial_type": "mouselab-mdp", "trial_index": 68, "time_elapsed": 1201017, "internal_node_id": "0.0-4.0-3.0-28.0"}}, {"uniqueid": "w61944423:a34450256", "current_trial": 69, "dateTime": 1664556395081, "trialdata": {"revealed_states": [], "num_clicks_accrued": [0, 0, 0, 0, 0, 0, 0, 0, 0, 0, 0, 0, 0], "stateRewards": ["", -2, -4, -24, -48, 2, -8, -24, -24, 4, -8, 48, 48], "withholdReward": true, "trial_id": "mdp_950599994674", "block": "test2", "trialIndex": 61, "score": 48, "costs": -1, "simulationMode": [null, null, null], "rewards": [4, -8, 48], "path": ["0", "0", "9", "10", "12"], "rt": [2346, 139, 423], "actions": ["left", "left", "down"], "actionTimes": [3751, 4390, 5313], "queries": {"click": {"state": {"target": ["7", "8", "11", "12"], "time": [1731, 2214, 2624, 2932]}, "edge": {"target": [], "time": []}}, "mouseover": {"state": {"target": ["5", "7", "6", "8", "5", "11", "10", "12"], "time": [1518, 1685, 1859, 2137, 2387, 2470, 2784, 2867]}, "edge": {"target": [], "time": []}}, "mouseout": {"state": {"target": ["9", "9", "5", "7", "6", "8", "5", "11", "10", "12"], "time": [1129, 1261, 1553, 1817, 1893, 2353, 2401, 2755, 2832, 3111]}, "edge": {"target": [], "time": []}}}, "displayed_time": "10.41", "trialTime": 29062, "trial_type": "mouselab-mdp", "trial_index": 69, "time_elapsed": 1230132, "internal_node_id": "0.0-4.0-3.0-29.0"}}, {"uniqueid": "w61944423:a34450256", "current_trial": 70, "dateTime": 1664556419666, "trialdata": {"rt": 24581, "stimulus": "<h1> End of block! </h1>\n\nYou have reached the end of the block 2/4. If you need a short break, feel free to take one now before moving on.\n\n<br><br>\nIn the next block, you will complete another 30 rounds of this game.\n\n<br><br>\n<div style='text-align: center;'>Press <code>space</code> to begin.</div>\n<br><br>\n<div style='text-align: center;'>(If the experiment doesn't continue, try clicking on the text and then pressing <code>space</code>.)</div>", "response": " ", "trial_id": "mdp_ready_3", "trial_type": "html-keyboard-response", "trial_index": 70, "time_elapsed": 1254717, "internal_node_id": "0.0-4.0-4.0"}}, {"uniqueid": "w61944423:a34450256", "current_trial": 71, "dateTime": 1664556435149, "trialdata": {"revealed_states": [], "num_clicks_accrued": [0, 0, 0, 0, 0, 0, 0, 0, 0, 0, 0, 0, 0], "stateRewards": ["", -2, 4, 24, 48, 2, 4, -48, -48, -2, 8, 48, -24], "withholdReward": true, "trial_id": "mdp_305701202606", "block": "test3", "trialIndex": 62, "score": 57.5, "costs": -1.5, "simulationMode": [null, null, null], "rewards": [-2, 8, 48], "path": ["0", "0", "9", "10", "11"], "rt": [3343, 72, 606], "actions": ["left", "left", "up"], "actionTimes": [4140, 4713, 5817], "queries": {"click": {"state": {"target": ["7", "8", "5", "6", "11", "12"], "time": [1108, 1618, 2127, 2312, 2910, 3237]}, "edge": {"target": [], "time": []}}, "mouseover": {"state": {"target": ["5", "7", "6", "8", "8", "0", "5", "6", "11", "10", "12", "10"], "time": [907, 984, 1233, 1275, 1505, 1831, 1929, 2249, 2749, 3048, 3131, 3416]}, "edge": {"target": [], "time": []}}, "mouseout": {"state": {"target": ["7", "5", "7", "6", "8", "8", "0", "5", "6", "5", "11", "10", "12"], "time": [531, 921, 1213, 1261, 1310, 1741, 1894, 2214, 2443, 2533, 3020, 3103, 3389]}, "edge": {"target": [], "time": []}}}, "displayed_time": "8.80", "trialTime": 15429, "trial_type": "mouselab-mdp", "trial_index": 71, "time_elapsed": 1270200, "internal_node_id": "0.0-4.0-5.0-0.0"}}, {"uniqueid": "w61944423:a34450256", "current_trial": 72, "dateTime": 1664556450310, "trialdata": {"revealed_states": [], "num_clicks_accrued": [0, 0, 0, 0, 0, 0, 0, 0, 0, 0, 0, 0, 0], "stateRewards": ["", 2, -4, -24, -48, -2, 8, -24, 48, -2, 8, 24, -48], "withholdReward": true, "trial_id": "mdp_566582551557", "block": "test3", "trialIndex": 63, "score": 58, "costs": -1, "simulationMode": [null, null, null], "rewards": [-2, 8, 48], "path": ["0", "0", "5", "6", "8"], "rt": [2876, 441, 882], "actions": ["right", "right", "down"], "actionTimes": [3971, 4913, 6293], "queries": {"click": {"state": {"target": ["7", "8", "11", "12"], "time": [1417, 1990, 2475, 2960]}, "edge": {"target": [], "time": []}}, "mouseover": {"state": {"target": ["5", "7", "6", "8", "0", "9", "11", "10", "12"], "time": [1219, 1288, 1594, 1858, 2164, 2192, 2340, 2595, 2715]}, "edge": {"target": [], "time": []}}, "mouseout": {"state": {"target": ["10", "9", "5", "0", "5", "7", "6", "8", "0", "9", "11", "10", "12"], "time": [370, 544, 954, 1191, 1225, 1566, 1608, 2108, 2185, 2213, 2568, 2616, 3075]}, "edge": {"target": [], "time": []}}}, "displayed_time": "10.10", "trialTime": 15095, "trial_type": "mouselab-mdp", "trial_index": 72, "time_elapsed": 1285361, "internal_node_id": "0.0-4.0-5.0-1.0"}}, {"uniqueid": "w61944423:a34450256", "current_trial": 73, "dateTime": 1664556464890, "trialdata": {"revealed_states": [], "num_clicks_accrued": [0, 0, 0, 0, 0, 0, 0, 0, 0, 0, 0, 0, 0], "stateRewards": ["", 2, 8, -24, -48, -4, 8, -48, -48, -2, -8, -24, -24], "withholdReward": false, "trial_id": "mdp_978177451072", "block": "test3", "trialIndex": 64, "score": -12, "costs": -3, "simulationMode": [null, null, null], "rewards": [2, 8, -24], "path": ["0", "0", "1", "2", "3"], "rt": [7265, 14, 176], "actions": ["up", "up", "right"], "actionTimes": [7941, 8453, 9130], "queries": {"click": {"state": {"target": ["7", "11", "4", "3", "12", "8", "6", "5", "9", "10", "2", "1"], "time": [1344, 2420, 2779, 3403, 3885, 4498, 4821, 5116, 5747, 5982, 6412, 6787]}, "edge": {"target": [], "time": []}}, "mouseover": {"state": {"target": ["5", "6", "7", "6", "8", "8", "0", "9", "11", "4", "2", "3", "1", "9", "12", "8", "6", "5", "9", "10", "9", "10", "1", "2", "1"], "time": [974, 1022, 1308, 1523, 1585, 1837, 2044, 2086, 2336, 2677, 2996, 3201, 3559, 3608, 3761, 4401, 4679, 5013, 5402, 5519, 5686, 5861, 6188, 6298, 6764]}, "edge": {"target": [], "time": []}}, "mouseout": {"state": {"target": ["0", "5", "6", "7", "6", "8", "8", "0", "9", "11", "4", "2", "3", "1", "9", "12", "8", "6", "5", "9", "10", "9", "10", "9", "1", "2", "1", "5", "6", "6", "8"], "time": [939, 1009, 1057, 1488, 1557, 1648, 1856, 2051, 2100, 2586, 2948, 3052, 3532, 3587, 3629, 4018, 4644, 4984, 5311, 5457, 5589, 5828, 6110, 6138, 6223, 6674, 7042, 7320, 7362, 12646, 12693]}, "edge": {"target": [], "time": []}}}, "displayed_time": "9.63", "trialTime": 14512, "trial_type": "mouselab-mdp", "trial_index": 73, "time_elapsed": 1299941, "internal_node_id": "0.0-4.0-5.0-2.0"}}, {"uniqueid": "w61944423:a34450256", "current_trial": 74, "dateTime": 1664556476512, "trialdata": {"revealed_states": [], "num_clicks_accrued": [0, 0, 0, 0, 0, 0, 0, 0, 0, 0, 0, 0, 0], "stateRewards": ["", 2, -8, 48, -24, -4, -8, -24, 48, -2, 4, 24, -48], "withholdReward": true, "trial_id": "mdp_186932504904", "block": "test3", "trialIndex": 65, "score": 40.5, "costs": -0.5, "simulationMode": [null, null, null], "rewards": [-4, -8, 48], "path": ["0", "0", "5", "6", "8"], "rt": [2371, 229, 232], "actions": ["right", "right", "down"], "actionTimes": [3178, 3904, 4638], "queries": {"click": {"state": {"target": ["7", "8"], "time": [1176, 1785]}, "edge": {"target": [], "time": []}}, "mouseover": {"state": {"target": ["5", "7", "8"], "time": [964, 1041, 1645]}, "edge": {"target": [], "time": []}}, "mouseout": {"state": {"target": ["8", "7", "5", "0", "5", "7", "8"], "time": [178, 303, 630, 922, 999, 1283, 1985]}, "edge": {"target": [], "time": []}}}, "displayed_time": "8.81", "trialTime": 11547, "trial_type": "mouselab-mdp", "trial_index": 74, "time_elapsed": 1311563, "internal_node_id": "0.0-4.0-5.0-3.0"}}, {"uniqueid": "w61944423:a34450256", "current_trial": 75, "dateTime": 1664556497647, "trialdata": {"revealed_states": [], "num_clicks_accrued": [0, 0, 0, 0, 0, 0, 0, 0, 0, 0, 0, 0, 0], "stateRewards": ["", 4, -8, -48, 24, 4, 4, -24, -24, 2, 4, -48, 24], "withholdReward": true, "trial_id": "mdp_626971397185", "block": "test3", "trialIndex": 66, "score": 33, "costs": -2, "simulationMode": [null, null, null], "rewards": [2, 4, 24], "path": ["0", "0", "9", "10", "12"], "rt": [5431, 285, 243], "actions": ["left", "left", "down"], "actionTimes": [6768, 7553, 8296], "queries": {"click": {"state": {"target": ["11", "12", "7", "8", "4", "3", "10", "9"], "time": [2201, 2640, 3216, 3566, 4691, 5028, 5910, 6104]}, "edge": {"target": [], "time": []}}, "mouseover": {"state": {"target": ["9", "11", "10", "12", "0", "5", "6", "7", "6", "8", "6", "3", "2", "2", "4", "2", "3", "10", "9", "1"], "time": [1658, 2036, 2346, 2444, 2909, 2944, 3034, 3145, 3354, 3445, 3792, 4236, 4313, 4445, 4612, 4870, 4918, 5842, 6030, 6579]}, "edge": {"target": [], "time": []}}, "mouseout": {"state": {"target": ["0", "9", "11", "10", "12", "0", "5", "6", "7", "6", "8", "6", "7", "3", "2", "2", "4", "2", "3", "10", "9", "1", "0", "9", "9"], "time": [1644, 1679, 2319, 2394, 2818, 2930, 2972, 3096, 3334, 3396, 3750, 3826, 3875, 4300, 4349, 4584, 4835, 4904, 5258, 5991, 6267, 6795, 12822, 19857, 19968]}, "edge": {"target": [], "time": []}}}, "displayed_time": "9.34", "trialTime": 21058, "trial_type": "mouselab-mdp", "trial_index": 75, "time_elapsed": 1332698, "internal_node_id": "0.0-4.0-5.0-4.0"}}, {"uniqueid": "w61944423:a34450256", "current_trial": 76, "dateTime": 1664556512685, "trialdata": {"revealed_states": [], "num_clicks_accrued": [0, 0, 0, 0, 0, 0, 0, 0, 0, 0, 0, 0, 0], "stateRewards": ["", 2, 8, -48, 24, -4, 8, 48, -24, 2, 8, 24, 24], "withholdReward": true, "trial_id": "mdp_175372499314", "block": "test3", "trialIndex": 67, "score": 56.25, "costs": -0.75, "simulationMode": [null, null, null], "rewards": [-4, 8, 48], "path": ["0", "0", "5", "6", "7"], "rt": [2425, 121, 206], "actions": ["right", "right", "up"], "actionTimes": [7090, 7722, 8441], "queries": {"click": {"state": {"target": ["8", "7", "11"], "time": [5164, 5788, 6341]}, "edge": {"target": [], "time": []}}, "mouseover": {"state": {"target": ["5", "8", "6", "7", "1", "11", "10", "12"], "time": [4953, 5078, 5322, 5683, 5989, 6177, 6678, 6823]}, "edge": {"target": [], "time": []}}, "mouseout": {"state": {"target": ["0", "5", "8", "6", "7", "1", "11", "10", "12", "0"], "time": [4927, 4967, 5280, 5331, 5934, 6003, 6518, 6747, 6837, 7742]}, "edge": {"target": [], "time": []}}}, "displayed_time": "12.67", "trialTime": 14984, "trial_type": "mouselab-mdp", "trial_index": 76, "time_elapsed": 1347735, "internal_node_id": "0.0-4.0-5.0-5.0"}}, {"uniqueid": "w61944423:a34450256", "current_trial": 77, "dateTime": 1664556526200, "trialdata": {"revealed_states": [], "num_clicks_accrued": [0, 0, 0, 0, 0, 0, 0, 0, 0, 0, 0, 0, 0], "stateRewards": ["", 4, -8, 48, -24, -4, 4, 24, 24, -2, -4, 24, 24], "withholdReward": true, "trial_id": "mdp_542168715839", "block": "test3", "trialIndex": 68, "score": 47.5, "costs": -1.5, "simulationMode": [null, null, null], "rewards": [4, -8, 48], "path": ["0", "0", "1", "2", "3"], "rt": [3564, 111, 54], "actions": ["up", "up", "right"], "actionTimes": [4201, 4815, 5366], "queries": {"click": {"state": {"target": ["7", "8", "11", "12", "4", "3"], "time": [1498, 1899, 2406, 2772, 3342, 3689]}, "edge": {"target": [], "time": []}}, "mouseover": {"state": {"target": ["5", "7", "7", "6", "7", "6", "8", "0", "9", "11", "10", "12", "4", "2", "3"], "time": [891, 988, 1182, 1259, 1433, 1649, 1767, 2135, 2178, 2337, 2538, 2608, 3157, 3477, 3567]}, "edge": {"target": [], "time": []}}, "mouseout": {"state": {"target": ["0", "5", "7", "7", "6", "7", "6", "8", "0", "9", "11", "10", "12", "4", "2", "3", "1"], "time": [571, 919, 1023, 1231, 1406, 1621, 1690, 2052, 2156, 2212, 2506, 2573, 2962, 3456, 3525, 3943, 6104]}, "edge": {"target": [], "time": []}}}, "displayed_time": "9.64", "trialTime": 13453, "trial_type": "mouselab-mdp", "trial_index": 77, "time_elapsed": 1361251, "internal_node_id": "0.0-4.0-5.0-6.0"}}, {"uniqueid": "w61944423:a34450256", "current_trial": 78, "dateTime": 1664556537096, "trialdata": {"revealed_states": [], "num_clicks_accrued": [0, 0, 0, 0, 0, 0, 0, 0, 0, 0, 0, 0, 0], "stateRewards": ["", -4, -4, 24, -48, 2, 4, -24, -48, -2, -8, -24, 24], "withholdReward": false, "trial_id": "mdp_565569130486", "block": "test3", "trialIndex": 69, "score": 19.25, "costs": -1.75, "simulationMode": [null, null, null], "rewards": [-4, -4, 24], "path": ["0", "0", "1", "2", "3"], "rt": [4902, 158, 109], "actions": ["up", "up", "right"], "actionTimes": [6203, 6866, 7479], "queries": {"click": {"state": {"target": ["11", "12", "7", "8", "3", "4", "2"], "time": [2436, 2981, 3646, 4009, 4746, 5079, 5863]}, "edge": {"target": [], "time": []}}, "mouseover": {"state": {"target": ["11", "11", "10", "12", "6", "7", "6", "8", "6", "3", "3", "2", "4", "1", "2", "1"], "time": [2047, 2361, 2687, 2902, 3326, 3535, 3827, 3890, 4196, 4300, 4675, 4884, 4967, 5474, 5718, 6170]}, "edge": {"target": [], "time": []}}, "mouseout": {"state": {"target": ["11", "11", "10", "12", "6", "7", "6", "8", "6", "3", "3", "2", "4", "1", "2", "1", "9", "1"], "time": [2103, 2576, 2812, 3104, 3397, 3799, 3862, 4168, 4224, 4397, 4870, 4911, 5308, 5634, 5989, 6537, 6719, 9701]}, "edge": {"target": [], "time": []}}}, "displayed_time": "10.30", "trialTime": 10839, "trial_type": "mouselab-mdp", "trial_index": 78, "time_elapsed": 1372147, "internal_node_id": "0.0-4.0-5.0-7.0"}}, {"uniqueid": "w61944423:a34450256", "current_trial": 79, "dateTime": 1664556549977, "trialdata": {"revealed_states": [], "num_clicks_accrued": [0, 0, 0, 0, 0, 0, 0, 0, 0, 0, 0, 0, 0], "stateRewards": ["", -2, -8, 24, -24, 4, -8, 48, 48, -4, -8, -24, -48], "withholdReward": false, "trial_id": "mdp_286767261523", "block": "test3", "trialIndex": 70, "score": 48.5, "costs": -0.5, "simulationMode": [null, null, null], "rewards": [4, -8, 48], "path": ["0", "0", "5", "6", "7"], "rt": [1236, 162, 126], "actions": ["right", "right", "up"], "actionTimes": [1762, 2420, 3049], "queries": {"click": {"state": {"target": ["7", "8"], "time": [1036, 1548]}, "edge": {"target": [], "time": []}}, "mouseover": {"state": {"target": ["7", "6", "8", "8"], "time": [958, 1201, 1243, 1452]}, "edge": {"target": [], "time": []}}, "mouseout": {"state": {"target": ["0", "7", "6", "8", "8", "8", "8", "8"], "time": [680, 1180, 1229, 1278, 3530, 4392, 4892, 5045]}, "edge": {"target": [], "time": []}}}, "displayed_time": "9.53", "trialTime": 12814, "trial_type": "mouselab-mdp", "trial_index": 79, "time_elapsed": 1385028, "internal_node_id": "0.0-4.0-5.0-8.0"}}, {"uniqueid": "w61944423:a34450256", "current_trial": 80, "dateTime": 1664556561653, "trialdata": {"revealed_states": [], "num_clicks_accrued": [0, 0, 0, 0, 0, 0, 0, 0, 0, 0, 0, 0, 0], "stateRewards": ["", 2, 4, 48, 48, -2, 4, 48, -24, -4, 8, -48, 48], "withholdReward": false, "trial_id": "mdp_407586865939", "block": "test3", "trialIndex": 71, "score": 58.5, "costs": -0.5, "simulationMode": [null, null, null], "rewards": [2, 4, 48], "path": ["0", "0", "1", "2", "3"], "rt": [1804, 434, 649], "actions": ["up", "up", "right"], "actionTimes": [2794, 3731, 4877], "queries": {"click": {"state": {"target": ["4", "3"], "time": [1473, 1931]}, "edge": {"target": [], "time": []}}, "mouseover": {"state": {"target": ["1", "4", "2", "3"], "time": [1162, 1443, 1669, 1726]}, "edge": {"target": [], "time": []}}, "mouseout": {"state": {"target": ["0", "1", "4", "2", "3", "5"], "time": [1086, 1203, 1613, 1711, 2149, 9705]}, "edge": {"target": [], "time": []}}}, "displayed_time": "10.99", "trialTime": 11619, "trial_type": "mouselab-mdp", "trial_index": 80, "time_elapsed": 1396704, "internal_node_id": "0.0-4.0-5.0-9.0"}}, {"uniqueid": "w61944423:a34450256", "current_trial": 81, "dateTime": 1664556573368, "trialdata": {"revealed_states": [], "num_clicks_accrued": [0, 0, 0, 0, 0, 0, 0, 0, 0, 0, 0, 0, 0], "stateRewards": ["", -4, -4, 24, -24, 4, 4, 24, 48, 4, -4, 48, -48], "withholdReward": true, "trial_id": "mdp_522385334882", "block": "test3", "trialIndex": 72, "score": 52, "costs": -1, "simulationMode": [null, null, null], "rewards": [4, -4, 48], "path": ["0", "0", "9", "10", "11"], "rt": [2553, 206, 145], "actions": ["left", "left", "up"], "actionTimes": [3105, 3808, 4449], "queries": {"click": {"state": {"target": ["3", "4", "11", "12"], "time": [1038, 1519, 1909, 2299]}, "edge": {"target": [], "time": []}}, "mouseover": {"state": {"target": ["3", "2", "4", "11", "10", "12", "9"], "time": [946, 1279, 1335, 1738, 2128, 2183, 2593]}, "edge": {"target": [], "time": []}}, "mouseout": {"state": {"target": ["0", "0", "3", "2", "4", "11", "10", "12", "9", "12"], "time": [153, 617, 1259, 1314, 1669, 2094, 2162, 2524, 3288, 5638]}, "edge": {"target": [], "time": []}}}, "displayed_time": "9.55", "trialTime": 11633, "trial_type": "mouselab-mdp", "trial_index": 81, "time_elapsed": 1408419, "internal_node_id": "0.0-4.0-5.0-10.0"}}, {"uniqueid": "w61944423:a34450256", "current_trial": 82, "dateTime": 1664556584171, "trialdata": {"revealed_states": [], "num_clicks_accrued": [0, 0, 0, 0, 0, 0, 0, 0, 0, 0, 