{"condition": 0, "counterbalance": 0, "assignmentId": "a18817822", "workerId": "w18626897", "hitId": "h66530713", "currenttrial": 472, "bonus": 0, "data": [{"uniqueid": "w18626897:a18817822", "current_trial": 0, "dateTime": 1664463910092, "trialdata": {"success": true, "trial_type": "fullscreen", "trial_index": 0, "time_elapsed": 8301, "internal_node_id": "0.0-0.0"}}, {"uniqueid": "w18626897:a18817822", "current_trial": 1, "dateTime": 1664463930520, "trialdata": {"view_history": [{"page_index": 0, "viewing_time": 20425}], "rt": 20425, "trial_id": "exp_instructions_distractor", "trial_type": "instructions", "trial_index": 1, "time_elapsed": 28729, "internal_node_id": "0.0-1.0"}}, {"uniqueid": "w18626897:a18817822", "current_trial": 2, "dateTime": 1664463964488, "trialdata": {"view_history": [{"page_index": 0, "viewing_time": 33967}], "rt": 33967, "trial_id": "color_game_instructions", "trial_type": "instructions", "trial_index": 2, "time_elapsed": 62697, "internal_node_id": "0.0-2.0"}}, {"uniqueid": "w18626897:a18817822", "current_trial": 3, "dateTime": 1664463981807, "trialdata": {"rt": 17318, "stimulus": "<h1> Get ready to start the game! </h1>\n\nThank you for reading the instructions. Get ready start with the first of 5 block(s) of this game.\n<br><br>\nIn this first block, you will complete 90 rounds of this game before moving on.\n<br><br>\nRemember, the better you perform, the bigger your bonus will be!\n<br><br>\n<div style='text-align: center;'>Press <code>space</code> to begin.</div>", "response": " ", "trial_id": "stroop_1_ready_1", "trial_type": "html-keyboard-response", "trial_index": 3, "time_elapsed": 80017, "internal_node_id": "0.0-3.0"}}, {"uniqueid": "w18626897:a18817822", "current_trial": 4, "dateTime": 1664464008876, "trialdata": {"rt": 27065, "stimulus": "<p id='stroop-text' class='stroop-red'>BLUE</p>", "response": "r", "stimulus-type": "incongruent", "word": "blue", "color": "red", "correct_response": "r", "trial_id": "stroop-trial-1-incongruent-5", "trial_type": "html-keyboard-response", "trial_index": 4, "time_elapsed": 107085, "internal_node_id": "0.0-4.0-0.0"}}, {"uniqueid": "w18626897:a18817822", "current_trial": 5, "dateTime": 1664464011769, "trialdata": {"rt": 2392, "stimulus": "<p id='stroop-text' class='stroop-red'>YELLOW</p>", "response": "r", "stimulus-type": "incongruent", "word": "yellow", "color": "red", "correct_response": "r", "trial_id": "stroop-trial-1-incongruent-21", "trial_type": "html-keyboard-response", "trial_index": 5, "time_elapsed": 109979, "internal_node_id": "0.0-4.0-1.0"}}, {"uniqueid": "w18626897:a18817822", "current_trial": 6, "dateTime": 1664464014128, "trialdata": {"rt": 1857, "stimulus": "<p id='stroop-text' class='stroop-green'>YELLOW</p>", "response": "g", "stimulus-type": "incongruent", "word": "yellow", "color": "green", "correct_response": "g", "trial_id": "stroop-trial-1-incongruent-23", "trial_type": "html-keyboard-response", "trial_index": 6, "time_elapsed": 112338, "internal_node_id": "0.0-4.0-2.0"}}, {"uniqueid": "w18626897:a18817822", "current_trial": 7, "dateTime": 1664464015909, "trialdata": {"rt": 1279, "stimulus": "<p id='stroop-text' class='stroop-green'>BOAT</p>", "response": "g", "stimulus-type": "unrelated", "word": "BOAT", "color": "green", "correct_response": "g", "trial_id": "stroop-trial-1-unrelated-22", "trial_type": "html-keyboard-response", "trial_index": 7, "time_elapsed": 114119, "internal_node_id": "0.0-4.0-3.0"}}, {"uniqueid": "w18626897:a18817822", "current_trial": 8, "dateTime": 1664464018949, "trialdata": {"rt": 2537, "stimulus": "<p id='stroop-text' class='stroop-blue'>BOTTLE</p>", "response": "b", "stimulus-type": "unrelated", "word": "BOTTLE", "color": "blue", "correct_response": "b", "trial_id": "stroop-trial-1-unrelated-7", "trial_type": "html-keyboard-response", "trial_index": 8, "time_elapsed": 117158, "internal_node_id": "0.0-4.0-4.0"}}, {"uniqueid": "w18626897:a18817822", "current_trial": 9, "dateTime": 1664464022227, "trialdata": {"rt": 2776, "stimulus": "<p id='stroop-text' class='stroop-yellow'>YELLOW</p>", "response": "y", "stimulus-type": "congruent", "word": "yellow", "color": "yellow", "correct_response": "y", "trial_id": "stroop-trial-1-congruent-30", "trial_type": "html-keyboard-response", "trial_index": 9, "time_elapsed": 120437, "internal_node_id": "0.0-4.0-5.0"}}, {"uniqueid": "w18626897:a18817822", "current_trial": 10, "dateTime": 1664464024353, "trialdata": {"rt": 1624, "stimulus": "<p id='stroop-text' class='stroop-green'>RED</p>", "response": "g", "stimulus-type": "incongruent", "word": "red", "color": "green", "correct_response": "g", "trial_id": "stroop-trial-1-incongruent-17", "trial_type": "html-keyboard-response", "trial_index": 10, "time_elapsed": 122563, "internal_node_id": "0.0-4.0-6.0"}}, {"uniqueid": "w18626897:a18817822", "current_trial": 11, "dateTime": 1664464026099, "trialdata": {"rt": 1244, "stimulus": "<p id='stroop-text' class='stroop-green'>GREEN</p>", "response": "g", "stimulus-type": "congruent", "word": "green", "color": "green", "correct_response": "g", "trial_id": "stroop-trial-1-congruent-5", "trial_type": "html-keyboard-response", "trial_index": 11, "time_elapsed": 124309, "internal_node_id": "0.0-4.0-7.0"}}, {"uniqueid": "w18626897:a18817822", "current_trial": 12, "dateTime": 1664464028225, "trialdata": {"rt": 1624, "stimulus": "<p id='stroop-text' class='stroop-green'>BLUE</p>", "response": "g", "stimulus-type": "incongruent", "word": "blue", "color": "green", "correct_response": "g", "trial_id": "stroop-trial-1-incongruent-13", "trial_type": "html-keyboard-response", "trial_index": 12, "time_elapsed": 126435, "internal_node_id": "0.0-4.0-8.0"}}, {"uniqueid": "w18626897:a18817822", "current_trial": 13, "dateTime": 1664464030086, "trialdata": {"rt": 1360, "stimulus": "<p id='stroop-text' class='stroop-red'>YELLOW</p>", "response": "r", "stimulus-type": "incongruent", "word": "yellow", "color": "red", "correct_response": "r", "trial_id": "stroop-trial-1-incongruent-30", "trial_type": "html-keyboard-response", "trial_index": 13, "time_elapsed": 128296, "internal_node_id": "0.0-4.0-9.0"}}, {"uniqueid": "w18626897:a18817822", "current_trial": 14, "dateTime": 1664464031673, "trialdata": {"rt": 1086, "stimulus": "<p id='stroop-text' class='stroop-red'>RED</p>", "response": "r", "stimulus-type": "congruent", "word": "red", "color": "red", "correct_response": "r", "trial_id": "stroop-trial-1-congruent-22", "trial_type": "html-keyboard-response", "trial_index": 14, "time_elapsed": 129883, "internal_node_id": "0.0-4.0-10.0"}}, {"uniqueid": "w18626897:a18817822", "current_trial": 15, "dateTime": 1664464033219, "trialdata": {"rt": 1043, "stimulus": "<p id='stroop-text' class='stroop-red'>RED</p>", "response": "r", "stimulus-type": "congruent", "word": "red", "color": "red", "correct_response": "r", "trial_id": "stroop-trial-1-congruent-25", "trial_type": "html-keyboard-response", "trial_index": 15, "time_elapsed": 131428, "internal_node_id": "0.0-4.0-11.0"}}, {"uniqueid": "w18626897:a18817822", "current_trial": 16, "dateTime": 1664464034631, "trialdata": {"rt": 911, "stimulus": "<p id='stroop-text' class='stroop-red'>RED</p>", "response": "r", "stimulus-type": "congruent", "word": "red", "color": "red", "correct_response": "r", "trial_id": "stroop-trial-1-congruent-14", "trial_type": "html-keyboard-response", "trial_index": 16, "time_elapsed": 132841, "internal_node_id": "0.0-4.0-12.0"}}, {"uniqueid": "w18626897:a18817822", "current_trial": 17, "dateTime": 1664464036465, "trialdata": {"rt": 1332, "stimulus": "<p id='stroop-text' class='stroop-yellow'>WINDOW</p>", "response": "y", "stimulus-type": "unrelated", "word": "WINDOW", "color": "yellow", "correct_response": "y", "trial_id": "stroop-trial-1-unrelated-17", "trial_type": "html-keyboard-response", "trial_index": 17, "time_elapsed": 134675, "internal_node_id": "0.0-4.0-13.0"}}, {"uniqueid": "w18626897:a18817822", "current_trial": 18, "dateTime": 1664464038349, "trialdata": {"rt": 1382, "stimulus": "<p id='stroop-text' class='stroop-green'>GREEN</p>", "response": "g", "stimulus-type": "congruent", "word": "green", "color": "green", "correct_response": "g", "trial_id": "stroop-trial-1-congruent-24", "trial_type": "html-keyboard-response", "trial_index": 18, "time_elapsed": 136559, "internal_node_id": "0.0-4.0-14.0"}}, {"uniqueid": "w18626897:a18817822", "current_trial": 19, "dateTime": 1664464039795, "trialdata": {"rt": 944, "stimulus": "<p id='stroop-text' class='stroop-yellow'>RED</p>", "response": "y", "stimulus-type": "incongruent", "word": "red", "color": "yellow", "correct_response": "y", "trial_id": "stroop-trial-1-incongruent-24", "trial_type": "html-keyboard-response", "trial_index": 19, "time_elapsed": 138005, "internal_node_id": "0.0-4.0-15.0"}}, {"uniqueid": "w18626897:a18817822", "current_trial": 20, "dateTime": 1664464041703, "trialdata": {"rt": 1407, "stimulus": "<p id='stroop-text' class='stroop-red'>GREEN</p>", "response": "r", "stimulus-type": "incongruent", "word": "green", "color": "red", "correct_response": "r", "trial_id": "stroop-trial-1-incongruent-22", "trial_type": "html-keyboard-response", "trial_index": 20, "time_elapsed": 139913, "internal_node_id": "0.0-4.0-16.0"}}, {"uniqueid": "w18626897:a18817822", "current_trial": 21, "dateTime": 1664464043381, "trialdata": {"rt": 1176, "stimulus": "<p id='stroop-text' class='stroop-yellow'>BLUE</p>", "response": "y", "stimulus-type": "incongruent", "word": "blue", "color": "yellow", "correct_response": "y", "trial_id": "stroop-trial-1-incongruent-9", "trial_type": "html-keyboard-response", "trial_index": 21, "time_elapsed": 141591, "internal_node_id": "0.0-4.0-17.0"}}, {"uniqueid": "w18626897:a18817822", "current_trial": 22, "dateTime": 1664464045412, "trialdata": {"rt": 1530, "stimulus": "<p id='stroop-text' class='stroop-green'>BLUE</p>", "response": "g", "stimulus-type": "incongruent", "word": "blue", "color": "green", "correct_response": "g", "trial_id": "stroop-trial-1-incongruent-2", "trial_type": "html-keyboard-response", "trial_index": 22, "time_elapsed": 143622, "internal_node_id": "0.0-4.0-18.0"}}, {"uniqueid": "w18626897:a18817822", "current_trial": 23, "dateTime": 1664464047090, "trialdata": {"rt": 1177, "stimulus": "<p id='stroop-text' class='stroop-blue'>RED</p>", "response": "b", "stimulus-type": "incongruent", "word": "red", "color": "blue", "correct_response": "b", "trial_id": "stroop-trial-1-incongruent-8", "trial_type": "html-keyboard-response", "trial_index": 23, "time_elapsed": 145300, "internal_node_id": "0.0-4.0-19.0"}}, {"uniqueid": "w18626897:a18817822", "current_trial": 24, "dateTime": 1664464048613, "trialdata": {"rt": 1022, "stimulus": "<p id='stroop-text' class='stroop-red'>YELLOW</p>", "response": "r", "stimulus-type": "incongruent", "word": "yellow", "color": "red", "correct_response": "r", "trial_id": "stroop-trial-1-incongruent-20", "trial_type": "html-keyboard-response", "trial_index": 24, "time_elapsed": 146823, "internal_node_id": "0.0-4.0-20.0"}}, {"uniqueid": "w18626897:a18817822", "current_trial": 25, "dateTime": 1664464050004, "trialdata": {"rt": 889, "stimulus": "<p id='stroop-text' class='stroop-red'>RED</p>", "response": "r", "stimulus-type": "congruent", "word": "red", "color": "red", "correct_response": "r", "trial_id": "stroop-trial-1-congruent-26", "trial_type": "html-keyboard-response", "trial_index": 25, "time_elapsed": 148214, "internal_node_id": "0.0-4.0-21.0"}}, {"uniqueid": "w18626897:a18817822", "current_trial": 26, "dateTime": 1664464051706, "trialdata": {"rt": 1200, "stimulus": "<p id='stroop-text' class='stroop-yellow'>FORK</p>", "response": "y", "stimulus-type": "unrelated", "word": "FORK", "color": "yellow", "correct_response": "y", "trial_id": "stroop-trial-1-unrelated-6", "trial_type": "html-keyboard-response", "trial_index": 26, "time_elapsed": 149916, "internal_node_id": "0.0-4.0-22.0"}}, {"uniqueid": "w18626897:a18817822", "current_trial": 27, "dateTime": 1664464053190, "trialdata": {"rt": 981, "stimulus": "<p id='stroop-text' class='stroop-red'>STONE</p>", "response": "r", "stimulus-type": "unrelated", "word": "STONE", "color": "red", "correct_response": "r", "trial_id": "stroop-trial-1-unrelated-14", "trial_type": "html-keyboard-response", "trial_index": 27, "time_elapsed": 151400, "internal_node_id": "0.0-4.0-23.0"}}, {"uniqueid": "w18626897:a18817822", "current_trial": 28, "dateTime": 1664464054710, "trialdata": {"rt": 1016, "stimulus": "<p id='stroop-text' class='stroop-yellow'>YELLOW</p>", "response": "y", "stimulus-type": "congruent", "word": "yellow", "color": "yellow", "correct_response": "y", "trial_id": "stroop-trial-1-congruent-28", "trial_type": "html-keyboard-response", "trial_index": 28, "time_elapsed": 152919, "internal_node_id": "0.0-4.0-24.0"}}, {"uniqueid": "w18626897:a18817822", "current_trial": 29, "dateTime": 1664464056457, "trialdata": {"rt": 1246, "stimulus": "<p id='stroop-text' class='stroop-green'>STONE</p>", "response": "g", "stimulus-type": "unrelated", "word": "STONE", "color": "green", "correct_response": "g", "trial_id": "stroop-trial-1-unrelated-13", "trial_type": "html-keyboard-response", "trial_index": 29, "time_elapsed": 154667, "internal_node_id": "0.0-4.0-25.0"}}, {"uniqueid": "w18626897:a18817822", "current_trial": 30, "dateTime": 1664464057791, "trialdata": {"rt": 832, "stimulus": "<p id='stroop-text' class='stroop-green'>BOAT</p>", "response": "g", "stimulus-type": "unrelated", "word": "BOAT", "color": "green", "correct_response": "g", "trial_id": "stroop-trial-1-unrelated-1", "trial_type": "html-keyboard-response", "trial_index": 30, "time_elapsed": 156001, "internal_node_id": "0.0-4.0-26.0"}}, {"uniqueid": "w18626897:a18817822", "current_trial": 31, "dateTime": 1664464059299, "trialdata": {"rt": 1006, "stimulus": "<p id='stroop-text' class='stroop-yellow'>YELLOW</p>", "response": "y", "stimulus-type": "congruent", "word": "yellow", "color": "yellow", "correct_response": "y", "trial_id": "stroop-trial-1-congruent-12", "trial_type": "html-keyboard-response", "trial_index": 31, "time_elapsed": 157509, "internal_node_id": "0.0-4.0-27.0"}}, {"uniqueid": "w18626897:a18817822", "current_trial": 32, "dateTime": 1664464060978, "trialdata": {"rt": 1176, "stimulus": "<p id='stroop-text' class='stroop-green'>GREEN</p>", "response": "g", "stimulus-type": "congruent", "word": "green", "color": "green", "correct_response": "g", "trial_id": "stroop-trial-1-congruent-13", "trial_type": "html-keyboard-response", "trial_index": 32, "time_elapsed": 159187, "internal_node_id": "0.0-4.0-28.0"}}, {"uniqueid": "w18626897:a18817822", "current_trial": 33, "dateTime": 1664464062470, "trialdata": {"rt": 990, "stimulus": "<p id='stroop-text' class='stroop-yellow'>RED</p>", "response": "y", "stimulus-type": "incongruent", "word": "red", "color": "yellow", "correct_response": "y", "trial_id": "stroop-trial-1-incongruent-14", "trial_type": "html-keyboard-response", "trial_index": 33, "time_elapsed": 160679, "internal_node_id": "0.0-4.0-29.0"}}, {"uniqueid": "w18626897:a18817822", "current_trial": 34, "dateTime": 1664464064026, "trialdata": {"rt": 1055, "stimulus": "<p id='stroop-text' class='stroop-blue'>YELLOW</p>", "response": "b", "stimulus-type": "incongruent", "word": "yellow", "color": "blue", "correct_response": "b", "trial_id": "stroop-trial-1-incongruent-16", "trial_type": "html-keyboard-response", "trial_index": 34, "time_elapsed": 162235, "internal_node_id": "0.0-4.0-30.0"}}, {"uniqueid": "w18626897:a18817822", "current_trial": 35, "dateTime": 1664464065461, "trialdata": {"rt": 934, "stimulus": "<p id='stroop-text' class='stroop-red'>RED</p>", "response": "r", "stimulus-type": "congruent", "word": "red", "color": "red", "correct_response": "r", "trial_id": "stroop-trial-1-congruent-27", "trial_type": "html-keyboard-response", "trial_index": 35, "time_elapsed": 163671, "internal_node_id": "0.0-4.0-31.0"}}, {"uniqueid": "w18626897:a18817822", "current_trial": 36, "dateTime": 1664464066950, "trialdata": {"rt": 986, "stimulus": "<p id='stroop-text' class='stroop-red'>BLUE</p>", "response": "r", "stimulus-type": "incongruent", "word": "blue", "color": "red", "correct_response": "r", "trial_id": "stroop-trial-1-incongruent-12", "trial_type": "html-keyboard-response", "trial_index": 36, "time_elapsed": 165159, "internal_node_id": "0.0-4.0-32.0"}}, {"uniqueid": "w18626897:a18817822", "current_trial": 37, "dateTime": 1664464069203, "trialdata": {"rt": 1750, "stimulus": "<p id='stroop-text' class='stroop-yellow'>RED</p>", "response": "y", "stimulus-type": "incongruent", "word": "red", "color": "yellow", "correct_response": "y", "trial_id": "stroop-trial-1-incongruent-15", "trial_type": "html-keyboard-response", "trial_index": 37, "time_elapsed": 167413, "internal_node_id": "0.0-4.0-33.0"}}, {"uniqueid": "w18626897:a18817822", "current_trial": 38, "dateTime": 1664464071284, "trialdata": {"rt": 1578, "stimulus": "<p id='stroop-text' class='stroop-red'>BRIDGE</p>", "response": "r", "stimulus-type": "unrelated", "word": "BRIDGE", "color": "red", "correct_response": "r", "trial_id": "stroop-trial-1-unrelated-16", "trial_type": "html-keyboard-response", "trial_index": 38, "time_elapsed": 169493, "internal_node_id": "0.0-4.0-34.0"}}, {"uniqueid": "w18626897:a18817822", "current_trial": 39, "dateTime": 1664464072791, "trialdata": {"rt": 1006, "stimulus": "<p id='stroop-text' class='stroop-red'>MONKEY</p>", "response": "r", "stimulus-type": "unrelated", "word": "MONKEY", "color": "red", "correct_response": "r", "trial_id": "stroop-trial-1-unrelated-23", "trial_type": "html-keyboard-response", "trial_index": 39, "time_elapsed": 171001, "internal_node_id": "0.0-4.0-35.0"}}, {"uniqueid": "w18626897:a18817822", "current_trial": 40, "dateTime": 1664464074706, "trialdata": {"rt": 1412, "stimulus": "<p id='stroop-text' class='stroop-green'>RED</p>", "response": "g", "stimulus-type": "incongruent", "word": "red", "color": "green", "correct_response": "g", "trial_id": "stroop-trial-1-incongruent-28", "trial_type": "html-keyboard-response", "trial_index": 40, "time_elapsed": 172915, "internal_node_id": "0.0-4.0-36.0"}}, {"uniqueid": "w18626897:a18817822", "current_trial": 41, "dateTime": 1664464075928, "trialdata": {"rt": 721, "stimulus": "<p id='stroop-text' class='stroop-green'>STONE</p>", "response": "g", "stimulus-type": "unrelated", "word": "STONE", "color": "green", "correct_response": "g", "trial_id": "stroop-trial-1-unrelated-24", "trial_type": "html-keyboard-response", "trial_index": 41, "time_elapsed": 174138, "internal_node_id": "0.0-4.0-37.0"}}, {"uniqueid": "w18626897:a18817822", "current_trial": 42, "dateTime": 1664464078608, "trialdata": {"rt": 2178, "stimulus": "<p id='stroop-text' class='stroop-blue'>BLUE</p>", "response": "b", "stimulus-type": "congruent", "word": "blue", "color": "blue", "correct_response": "b", "trial_id": "stroop-trial-1-congruent-8", "trial_type": "html-keyboard-response", "trial_index": 42, "time_elapsed": 176818, "internal_node_id": "0.0-4.0-38.0"}}, {"uniqueid": "w18626897:a18817822", "current_trial": 43, "dateTime": 1664464079866, "trialdata": {"rt": 751, "stimulus": "<p id='stroop-text' class='stroop-blue'>GREEN</p>", "response": "b", "stimulus-type": "incongruent", "word": "green", "color": "blue", "correct_response": "b", "trial_id": "stroop-trial-1-incongruent-11", "trial_type": "html-keyboard-response", "trial_index": 43, "time_elapsed": 178076, "internal_node_id": "0.0-4.0-39.0"}}, {"uniqueid": "w18626897:a18817822", "current_trial": 44, "dateTime": 1664464081501, "trialdata": {"rt": 1134, "stimulus": "<p id='stroop-text' class='stroop-red'>BRIDGE</p>", "response": "r", "stimulus-type": "unrelated", "word": "BRIDGE", "color": "red", "correct_response": "r", "trial_id": "stroop-trial-1-unrelated-9", "trial_type": "html-keyboard-response", "trial_index": 44, "time_elapsed": 179711, "internal_node_id": "0.0-4.0-40.0"}}, {"uniqueid": "w18626897:a18817822", "current_trial": 45, "dateTime": 1664464083084, "trialdata": {"rt": 1082, "stimulus": "<p id='stroop-text' class='stroop-blue'>RED</p>", "response": "b", "stimulus-type": "incongruent", "word": "red", "color": "blue", "correct_response": "b", "trial_id": "stroop-trial-1-incongruent-10", "trial_type": "html-keyboard-response", "trial_index": 45, "time_elapsed": 181294, "internal_node_id": "0.0-4.0-41.0"}}, {"uniqueid": "w18626897:a18817822", "current_trial": 46, "dateTime": 1664464085004, "trialdata": {"rt": 1418, "stimulus": "<p id='stroop-text' class='stroop-green'>RED</p>", "response": "g", "stimulus-type": "incongruent", "word": "red", "color": "green", "correct_response": "g", "trial_id": "stroop-trial-1-incongruent-25", "trial_type": "html-keyboard-response", "trial_index": 46, "time_elapsed": 183213, "internal_node_id": "0.0-4.0-42.0"}}, {"uniqueid": "w18626897:a18817822", "current_trial": 47, "dateTime": 1664464086942, "trialdata": {"rt": 1436, "stimulus": "<p id='stroop-text' class='stroop-blue'>FORK</p>", "response": "b", "stimulus-type": "unrelated", "word": "FORK", "color": "blue", "correct_response": "b", "trial_id": "stroop-trial-1-unrelated-18", "trial_type": "html-keyboard-response", "trial_index": 47, "time_elapsed": 185152, "internal_node_id": "0.0-4.0-43.0"}}, {"uniqueid": "w18626897:a18817822", "current_trial": 48, "dateTime": 1664464088472, "trialdata": {"rt": 1028, "stimulus": "<p id='stroop-text' class='stroop-blue'>BLUE</p>", "response": "b", "stimulus-type": "congruent", "word": "blue", "color": "blue", "correct_response": "b", "trial_id": "stroop-trial-1-congruent-1", "trial_type": "html-keyboard-response", "trial_index": 48, "time_elapsed": 186681, "internal_node_id": "0.0-4.0-44.0"}}, {"uniqueid": "w18626897:a18817822", "current_trial": 49, "dateTime": 1664464090280, "trialdata": {"rt": 1307, "stimulus": "<p id='stroop-text' class='stroop-green'>BRAIN</p>", "response": "g", "stimulus-type": "unrelated", "word": "BRAIN", "color": "green", "correct_response": "g", "trial_id": "stroop-trial-1-unrelated-12", "trial_type": "html-keyboard-response", "trial_index": 49, "time_elapsed": 188490, "internal_node_id": "0.0-4.0-45.0"}}, {"uniqueid": "w18626897:a18817822", "current_trial": 50, "dateTime": 1664464091844, "trialdata": {"rt": 1062, "stimulus": "<p id='stroop-text' class='stroop-green'>YELLOW</p>", "response": "g", "stimulus-type": "incongruent", "word": "yellow", "color": "green", "correct_response": "g", "trial_id": "stroop-trial-1-incongruent-29", "trial_type": "html-keyboard-response", "trial_index": 50, "time_elapsed": 190053, "internal_node_id": "0.0-4.0-46.0"}}, {"uniqueid": "w18626897:a18817822", "current_trial": 51, "dateTime": 1664464093255, "trialdata": {"rt": 909, "stimulus": "<p id='stroop-text' class='stroop-red'>FORK</p>", "response": "r", "stimulus-type": "unrelated", "word": "FORK", "color": "red", "correct_response": "r", "trial_id": "stroop-trial-1-unrelated-8", "trial_type": "html-keyboard-response", "trial_index": 51, "time_elapsed": 191465, "internal_node_id": "0.0-4.0-47.0"}}, {"uniqueid": "w18626897:a18817822", "current_trial": 52, "dateTime": 1664464094399, "trialdata": {"rt": 630, "stimulus": "<p id='stroop-text' class='stroop-red'>YELLOW</p>", "response": "r", "stimulus-type": "incongruent", "word": "yellow", "color": "red", "correct_response": "r", "trial_id": "stroop-trial-1-incongruent-19", "trial_type": "html-keyboard-response", "trial_index": 52, "time_elapsed": 192609, "internal_node_id": "0.0-4.0-48.0"}}, {"uniqueid": "w18626897:a18817822", "current_trial": 53, "dateTime": 1664464095937, "trialdata": {"rt": 1036, "stimulus": "<p id='stroop-text' class='stroop-blue'>BOTTLE</p>", "response": "b", "stimulus-type": "unrelated", "word": "BOTTLE", "color": "blue", "correct_response": "b", "trial_id": "stroop-trial-1-unrelated-5", "trial_type": "html-keyboard-response", "trial_index": 53, "time_elapsed": 194147, "internal_node_id": "0.0-4.0-49.0"}}, {"uniqueid": "w18626897:a18817822", "current_trial": 54, "dateTime": 1664464097254, "trialdata": {"rt": 815, "stimulus": "<p id='stroop-text' class='stroop-yellow'>YELLOW</p>", "response": "y", "stimulus-type": "congruent", "word": "yellow", "color": "yellow", "correct_response": "y", "trial_id": "stroop-trial-1-congruent-20", "trial_type": "html-keyboard-response", "trial_index": 54, "time_elapsed": 195464, "internal_node_id": "0.0-4.0-50.0"}}, {"uniqueid": "w18626897:a18817822", "current_trial": 55, "dateTime": 1664464098815, "trialdata": {"rt": 1058, "stimulus": "<p id='stroop-text' class='stroop-blue'>BLUE</p>", "response": "b", "stimulus-type": "congruent", "word": "blue", "color": "blue", "correct_response": "b", "trial_id": "stroop-trial-1-congruent-29", "trial_type": "html-keyboard-response", "trial_index": 55, "time_elapsed": 197025, "internal_node_id": "0.0-4.0-51.0"}}, {"uniqueid": "w18626897:a18817822", "current_trial": 56, "dateTime": 1664464100312, "trialdata": {"rt": 994, "stimulus": "<p id='stroop-text' class='stroop-red'>FORK</p>", "response": "r", "stimulus-type": "unrelated", "word": "FORK", "color": "red", "correct_response": "r", "trial_id": "stroop-trial-1-unrelated-30", "trial_type": "html-keyboard-response", "trial_index": 56, "time_elapsed": 198522, "internal_node_id": "0.0-4.0-52.0"}}, {"uniqueid": "w18626897:a18817822", "current_trial": 57, "dateTime": 1664464101852, "trialdata": {"rt": 1038, "stimulus": "<p id='stroop-text' class='stroop-green'>GREEN</p>", "response": "g", "stimulus-type": "congruent", "word": "green", "color": "green", "correct_response": "g", "trial_id": "stroop-trial-1-congruent-15", "trial_type": "html-keyboard-response", "trial_index": 57, "time_elapsed": 200062, "internal_node_id": "0.0-4.0-53.0"}}, {"uniqueid": "w18626897:a18817822", "current_trial": 58, "dateTime": 1664464103280, "trialdata": {"rt": 927, "stimulus": "<p id='stroop-text' class='stroop-yellow'>YELLOW</p>", "response": "y", "stimulus-type": "congruent", "word": "yellow", "color": "yellow", "correct_response": "y", "trial_id": "stroop-trial-1-congruent-21", "trial_type": "html-keyboard-response", "trial_index": 58, "time_elapsed": 201490, "internal_node_id": "0.0-4.0-54.0"}}, {"uniqueid": "w18626897:a18817822", "current_trial": 59, "dateTime": 1664464105200, "trialdata": {"rt": 1418, "stimulus": "<p id='stroop-text' class='stroop-green'>GREEN</p>", "response": "g", "stimulus-type": "congruent", "word": "green", "color": "green", "correct_response": "g", "trial_id": "stroop-trial-1-congruent-3", "trial_type": "html-keyboard-response", "trial_index": 59, "time_elapsed": 203410, "internal_node_id": "0.0-4.0-55.0"}}, {"uniqueid": "w18626897:a18817822", "current_trial": 60, "dateTime": 1664464106447, "trialdata": {"rt": 746, "stimulus": "<p id='stroop-text' class='stroop-green'>BOAT</p>", "response": "g", "stimulus-type": "unrelated", "word": "BOAT", "color": "green", "correct_response": "g", "trial_id": "stroop-trial-1-unrelated-4", "trial_type": "html-keyboard-response", "trial_index": 60, "time_elapsed": 204657, "internal_node_id": "0.0-4.0-56.0"}}, {"uniqueid": "w18626897:a18817822", "current_trial": 61, "dateTime": 1664464107777, "trialdata": {"rt": 828, "stimulus": "<p id='stroop-text' class='stroop-yellow'>YELLOW</p>", "response": "y", "stimulus-type": "congruent", "word": "yellow", "color": "yellow", "correct_response": "y", "trial_id": "stroop-trial-1-congruent-17", "trial_type": "html-keyboard-response", "trial_index": 61, "time_elapsed": 205986, "internal_node_id": "0.0-4.0-57.0"}}, {"uniqueid": "w18626897:a18817822", "current_trial": 62, "dateTime": 1664464109413, "trialdata": {"rt": 1135, "stimulus": "<p id='stroop-text' class='stroop-green'>GREEN</p>", "response": "g", "stimulus-type": "congruent", "word": "green", "color": "green", "correct_response": "g", "trial_id": "stroop-trial-1-congruent-7", "trial_type": "html-keyboard-response", "trial_index": 62, "time_elapsed": 207623, "internal_node_id": "0.0-4.0-58.0"}}, {"uniqueid": "w18626897:a18817822", "current_trial": 63, "dateTime": 1664464110988, "trialdata": {"rt": 1074, "stimulus": "<p id='stroop-text' class='stroop-blue'>GREEN</p>", "response": "b", "stimulus-type": "incongruent", "word": "green", "color": "blue", "correct_response": "b", "trial_id": "stroop-trial-1-incongruent-1", "trial_type": "html-keyboard-response", "trial_index": 63, "time_elapsed": 209198, "internal_node_id": "0.0-4.0-59.0"}}, {"uniqueid": "w18626897:a18817822", "current_trial": 64, "dateTime": 1664464112523, "trialdata": {"rt": 1033, "stimulus": "<p id='stroop-text' class='stroop-yellow'>BOAT</p>", "response": "y", "stimulus-type": "unrelated", "word": "BOAT", "color": "yellow", "correct_response": "y", "trial_id": "stroop-trial-1-unrelated-11", "trial_type": "html-keyboard-response", "trial_index": 64, "time_elapsed": 210733, "internal_node_id": "0.0-4.0-60.0"}}, {"uniqueid": "w18626897:a18817822", "current_trial": 65, "dateTime": 1664464113927, "trialdata": {"rt": 903, "stimulus": "<p id='stroop-text' class='stroop-yellow'>RED</p>", "response": "y", "stimulus-type": "incongruent", "word": "red", "color": "yellow", "correct_response": "y", "trial_id": "stroop-trial-1-incongruent-27", "trial_type": "html-keyboard-response", "trial_index": 65, "time_elapsed": 212137, "internal_node_id": "0.0-4.0-61.0"}}, {"uniqueid": "w18626897:a18817822", "current_trial": 66, "dateTime": 1664464115333, "trialdata": {"rt": 904, "stimulus": "<p id='stroop-text' class='stroop-red'>RED</p>", "response": "r", "stimulus-type": "congruent", "word": "red", "color": "red", "correct_response": "r", "trial_id": "stroop-trial-1-congruent-9", "trial_type": "html-keyboard-response", "trial_index": 66, "time_elapsed": 213543, "internal_node_id": "0.0-4.0-62.0"}}, {"uniqueid": "w18626897:a18817822", "current_trial": 67, "dateTime": 1664464117055, "trialdata": {"rt": 1220, "stimulus": "<p id='stroop-text' class='stroop-green'>CHAIR</p>", "response": "g", "stimulus-type": "unrelated", "word": "CHAIR", "color": "green", "correct_response": "g", "trial_id": "stroop-trial-1-unrelated-21", "trial_type": "html-keyboard-response", "trial_index": 67, "time_elapsed": 215265, "internal_node_id": "0.0-4.0-63.0"}}, {"uniqueid": "w18626897:a18817822", "current_trial": 68, "dateTime": 1664464118412, "trialdata": {"rt": 856, "stimulus": "<p id='stroop-text' class='stroop-red'>BRAIN</p>", "response": "r", "stimulus-type": "unrelated", "word": "BRAIN", "color": "red", "correct_response": "r", "trial_id": "stroop-trial-1-unrelated-28", "trial_type": "html-keyboard-response", "trial_index": 68, "time_elapsed": 216622, "internal_node_id": "0.0-4.0-64.0"}}, {"uniqueid": "w18626897:a18817822", "current_trial": 69, "dateTime": 1664464119897, "trialdata": {"rt": 984, "stimulus": "<p id='stroop-text' class='stroop-green'>BRAIN</p>", "response": "g", "stimulus-type": "unrelated", "word": "BRAIN", "color": "green", "correct_response": "g", "trial_id": "stroop-trial-1-unrelated-2", "trial_type": "html-keyboard-response", "trial_index": 69, "time_elapsed": 218107, "internal_node_id": "0.0-4.0-65.0"}}, {"uniqueid": "w18626897:a18817822", "current_trial": 70, "dateTime": 1664464121348, "trialdata": {"rt": 947, "stimulus": "<p id='stroop-text' class='stroop-yellow'>BRAIN</p>", "response": "y", "stimulus-type": "unrelated", "word": "BRAIN", "color": "yellow", "correct_response": "y", "trial_id": "stroop-trial-1-unrelated-19", "trial_type": "html-keyboard-response", "trial_index": 70, "time_elapsed": 219557, "internal_node_id": "0.0-4.0-66.0"}}, {"uniqueid": "w18626897:a18817822", "current_trial": 71, "dateTime": 1664464122741, "trialdata": {"rt": 889, "stimulus": "<p id='stroop-text' class='stroop-green'>GREEN</p>", "response": "g", "stimulus-type": "congruent", "word": "green", "color": "green", "correct_response": "g", "trial_id": "stroop-trial-1-congruent-6", "trial_type": "html-keyboard-response", "trial_index": 71, "time_elapsed": 220951, "internal_node_id": "0.0-4.0-67.0"}}, {"uniqueid": "w18626897:a18817822", "current_trial": 72, "dateTime": 1664464124028, "trialdata": {"rt": 785, "stimulus": "<p id='stroop-text' class='stroop-green'>STONE</p>", "response": "g", "stimulus-type": "unrelated", "word": "STONE", "color": "green", "correct_response": "g", "trial_id": "stroop-trial-1-unrelated-29", "trial_type": "html-keyboard-response", "trial_index": 72, "time_elapsed": 222237, "internal_node_id": "0.0-4.0-68.0"}}, {"uniqueid": "w18626897:a18817822", "current_trial": 73, "dateTime": 1664464125170, "trialdata": {"rt": 640, "stimulus": "<p id='stroop-text' class='stroop-green'>BLUE</p>", "response": "g", "stimulus-type": "incongruent", "word": "blue", "color": "green", "correct_response": "g", "trial_id": "stroop-trial-1-incongruent-26", "trial_type": "html-keyboard-response", "trial_index": 73, "time_elapsed": 223379, "internal_node_id": "0.0-4.0-69.0"}}, {"uniqueid": "w18626897:a18817822", "current_trial": 74, "dateTime": 1664464126658, "trialdata": {"rt": 987, "stimulus": "<p id='stroop-text' class='stroop-blue'>BLUE</p>", "response": "b", "stimulus-type": "congruent", "word": "blue", "color": "blue", "correct_response": "b", "trial_id": "stroop-trial-1-congruent-16", "trial_type": "html-keyboard-response", "trial_index": 74, "time_elapsed": 224868, "internal_node_id": "0.0-4.0-70.0"}}, {"uniqueid": "w18626897:a18817822", "current_trial": 75, "dateTime": 1664464128150, "trialdata": {"rt": 989, "stimulus": "<p id='stroop-text' class='stroop-yellow'>BOAT</p>", "response": "y", "stimulus-type": "unrelated", "word": "BOAT", "color": "yellow", "correct_response": "y", "trial_id": "stroop-trial-1-unrelated-3", "trial_type": "html-keyboard-response", "trial_index": 75, "time_elapsed": 226360, "internal_node_id": "0.0-4.0-71.0"}}, {"uniqueid": "w18626897:a18817822", "current_trial": 76, "dateTime": 1664464129239, "trialdata": {"rt": 587, "stimulus": "<p id='stroop-text' class='stroop-yellow'>YELLOW</p>", "response": "y", "stimulus-type": "congruent", "word": "yellow", "color": "yellow", "correct_response": "y", "trial_id": "stroop-trial-1-congruent-11", "trial_type": "html-keyboard-response", "trial_index": 76, "time_elapsed": 227449, "internal_node_id": "0.0-4.0-72.0"}}, {"uniqueid": "w18626897:a18817822", "current_trial": 77, "dateTime": 1664464130511, "trialdata": {"rt": 770, "stimulus": "<p id='stroop-text' class='stroop-red'>BLUE</p>", "response": "r", "stimulus-type": "incongruent", "word": "blue", "color": "red", "correct_response": "r", "trial_id": "stroop-trial-1-incongruent-3", "trial_type": "html-keyboard-response", "trial_index": 77, "time_elapsed": 228721, "internal_node_id": "0.0-4.0-73.0"}}, {"uniqueid": "w18626897:a18817822", "current_trial": 78, "dateTime": 1664464132403, "trialdata": {"rt": 1390, "stimulus": "<p id='stroop-text' class='stroop-blue'>GREEN</p>", "response": "b", "stimulus-type": "incongruent", "word": "green", "color": "blue", "correct_response": "b", "trial_id": "stroop-trial-1-incongruent-7", "trial_type": "html-keyboard-response", "trial_index": 78, "time_elapsed": 230613, "internal_node_id": "0.0-4.0-74.0"}}, {"uniqueid": "w18626897:a18817822", "current_trial": 79, "dateTime": 1664464133611, "trialdata": {"rt": 706, "stimulus": "<p id='stroop-text' class='stroop-blue'>BLUE</p>", "response": "b", "stimulus-type": "congruent", "word": "blue", "color": "blue", "correct_response": "b", "trial_id": "stroop-trial-1-congruent-18", "trial_type": "html-keyboard-response", "trial_index": 79, "time_elapsed": 231821, "internal_node_id": "0.0-4.0-75.0"}}, {"uniqueid": "w18626897:a18817822", "current_trial": 80, "dateTime": 1664464134964, "trialdata": {"rt": 851, "stimulus": "<p id='stroop-text' class='stroop-yellow'>YELLOW</p>", "response": "y", "stimulus-type": "congruent", "word": "yellow", "color": "yellow", "correct_response": "y", "trial_id": "stroop-trial-1-congruent-4", "trial_type": "html-keyboard-response", "trial_index": 80, "time_elapsed": 233174, "internal_node_id": "0.0-4.0-76.0"}}, {"uniqueid": "w18626897:a18817822", "current_trial": 81, "dateTime": 1664464136422, "trialdata": {"rt": 955, "stimulus": "<p id='stroop-text' class='stroop-green'>RED</p>", "response": "g", "stimulus-type": "incongruent", "word": "red", "color": "green", "correct_response": "g", "trial_id": "stroop-trial-1-incongruent-4", "trial_type": "html-keyboard-response", "trial_index": 81, "time_elapsed": 234632, "internal_node_id": "0.0-4.0-77.0"}}, {"uniqueid": "w18626897:a18817822", "current_trial": 82, "dateTime": 1664464137778, "trialdata": {"rt": 854, "stimulus": "<p id='stroop-text' class='stroop-red'>RED</p>", "response": "r", "stimulus-type": "congruent", "word": "red", "color": "red", "correct_response": "r", "trial_id": "stroop-trial-1-congruent-10", "trial_type": "html-keyboard-response", "trial_index": 82, "time_elapsed": 235988, "internal_node_id": "0.0-4.0-78.0"}}, {"uniqueid": "w18626897:a18817822", "current_trial": 83, "dateTime": 1664464139192, "trialdata": {"rt": 912, "stimulus": "<p id='stroop-text' class='stroop-blue'>BLUE</p>", "response": "b", "stimulus-type": "congruent", "word": "blue", "color": "blue", "correct_response": "b", "trial_id": "stroop-trial-1-congruent-19", "trial_type": "html-keyboard-response", "trial_index": 83, "time_elapsed": 237402, "internal_node_id": "0.0-4.0-79.0"}}, {"uniqueid": "w18626897:a18817822", "current_trial": 84, "dateTime": 1664464140421, "trialdata": {"rt": 727, "stimulus": "<p id='stroop-text' class='stroop-blue'>MONKEY</p>", "response": "b", "stimulus-type": "unrelated", "word": "MONKEY", "color": "blue", "correct_response": "b", "trial_id": "stroop-trial-1-unrelated-15", "trial_type": "html-keyboard-response", "trial_index": 84, "time_elapsed": 238631, "internal_node_id": "0.0-4.0-80.0"}}, {"uniqueid": "w18626897:a18817822", "current_trial": 85, "dateTime": 1664464141698, "trialdata": {"rt": 774, "stimulus": "<p id='stroop-text' class='stroop-yellow'>YELLOW</p>", "response": "y", "stimulus-type": "congruent", "word": "yellow", "color": "yellow", "correct_response": "y", "trial_id": "stroop-trial-1-congruent-23", "trial_type": "html-keyboard-response", "trial_index": 85, "time_elapsed": 239908, "internal_node_id": "0.0-4.0-81.0"}}, {"uniqueid": "w18626897:a18817822", "current_trial": 86, "dateTime": 1664464143277, "trialdata": {"rt": 1077, "stimulus": "<p id='stroop-text' class='stroop-green'>BRIDGE</p>", "response": "g", "stimulus-type": "unrelated", "word": "BRIDGE", "color": "green", "correct_response": "g", "trial_id": "stroop-trial-1-unrelated-27", "trial_type": "html-keyboard-response", "trial_index": 86, "time_elapsed": 241486, "internal_node_id": "0.0-4.0-82.0"}}, {"uniqueid": "w18626897:a18817822", "current_trial": 87, "dateTime": 1664464144452, "trialdata": {"rt": 667, "stimulus": "<p id='stroop-text' class='stroop-green'>GREEN</p>", "response": "g", "stimulus-type": "congruent", "word": "green", "color": "green", "correct_response": "g", "trial_id": "stroop-trial-1-congruent-2", "trial_type": "html-keyboard-response", "trial_index": 87, "time_elapsed": 242662, "internal_node_id": "0.0-4.0-83.0"}}, {"uniqueid": "w18626897:a18817822", "current_trial": 88, "dateTime": 1664464145796, "trialdata": {"rt": 843, "stimulus": "<p id='stroop-text' class='stroop-yellow'>BLUE</p>", "response": "y", "stimulus-type": "incongruent", "word": "blue", "color": "yellow", "correct_response": "y", "trial_id": "stroop-trial-1-incongruent-6", "trial_type": "html-keyboard-response", "trial_index": 88, "time_elapsed": 244005, "internal_node_id": "0.0-4.0-84.0"}}, {"uniqueid": "w18626897:a18817822", "current_trial": 89, "dateTime": 1664464147235, "trialdata": {"rt": 938, "stimulus": "<p id='stroop-text' class='stroop-blue'>BOAT</p>", "response": "b", "stimulus-type": "unrelated", "word": "BOAT", "color": "blue", "correct_response": "b", "trial_id": "stroop-trial-1-unrelated-26", "trial_type": "html-keyboard-response", "trial_index": 89, "time_elapsed": 245445, "internal_node_id": "0.0-4.0-85.0"}}, {"uniqueid": "w18626897:a18817822", "current_trial": 90, "dateTime": 1664464148843, "trialdata": {"rt": 1106, "stimulus": "<p id='stroop-text' class='stroop-yellow'>GREEN</p>", "response": "y", "stimulus-type": "incongruent", "word": "green", "color": "yellow", "correct_response": "y", "trial_id": "stroop-trial-1-incongruent-18", "trial_type": "html-keyboard-response", "trial_index": 90, "time_elapsed": 247053, "internal_node_id": "0.0-4.0-86.0"}}, {"uniqueid": "w18626897:a18817822", "current_trial": 91, "dateTime": 1664464150225, "trialdata": {"rt": 881, "stimulus": "<p id='stroop-text' class='stroop-blue'>FORK</p>", "response": "b", "stimulus-type": "unrelated", "word": "FORK", "color": "blue", "correct_response": "b", "trial_id": "stroop-trial-1-unrelated-20", "trial_type": "html-keyboard-response", "trial_index": 91, "time_elapsed": 248435, "internal_node_id": "0.0-4.0-87.0"}}, {"uniqueid": "w18626897:a18817822", "current_trial": 92, "dateTime": 1664464151580, "trialdata": {"rt": 853, "stimulus": "<p id='stroop-text' class='stroop-red'>BOAT</p>", "response": "r", "stimulus-type": "unrelated", "word": "BOAT", "color": "red", "correct_response": "r", "trial_id": "stroop-trial-1-unrelated-25", "trial_type": "html-keyboard-response", "trial_index": 92, "time_elapsed": 249789, "internal_node_id": "0.0-4.0-88.0"}}, {"uniqueid": "w18626897:a18817822", "current_trial": 93, "dateTime": 1664464152828, "trialdata": {"rt": 746, "stimulus": "<p id='stroop-text' class='stroop-red'>STONE</p>", "response": "r", "stimulus-type": "unrelated", "word": "STONE", "color": "red", "correct_response": "r", "trial_id": "stroop-trial-1-unrelated-10", "trial_type": "html-keyboard-response", "trial_index": 93, "time_elapsed": 251037, "internal_node_id": "0.0-4.0-89.0"}}, {"uniqueid": "w18626897:a18817822", "current_trial": 94, "dateTime": 1664464226293, "trialdata": {"rt": 72960, "stimulus": "  <h1> End of block! </h1>\n\n  You have reached the end of the block 1/5. If you need a short break, feel free to take one now before moving on.\n\n  <br><br>\n  In the next block, you will complete another 90 rounds of this game.\n\n  <br><br>\n  <div style='text-align: center;'>Press <code>space</code> to begin.</div>\n  <br><br>\n<div style='text-align: center;'>(If the experiment doesn't continue, try clicking on the text and then pressing <code>space</code>.)</div>", "response": " ", "trial_id": "stroop_1_ready_2", "trial_type": "html-keyboard-response", "trial_index": 94, "time_elapsed": 324503, "internal_node_id": "0.0-5.0"}}, {"uniqueid": "w18626897:a18817822", "current_trial": 95, "dateTime": 1664464227775, "trialdata": {"rt": 1481, "stimulus": "<p id='stroop-text' class='stroop-red'>BRAIN</p>", "response": "r", "stimulus-type": "unrelated", "word": "BRAIN", "color": "red", "correct_response": "r", "trial_id": "stroop-trial-1-unrelated-9", "trial_type": "html-keyboard-response", "trial_index": 95, "time_elapsed": 325985, "internal_node_id": "0.0-6.0-0.0"}}, {"uniqueid": "w18626897:a18817822", "current_trial": 96, "dateTime": 1664464229579, "trialdata": {"rt": 1302, "stimulus": "<p id='stroop-text' class='stroop-yellow'>DOG</p>", "response": "y", "stimulus-type": "unrelated", "word": "DOG", "color": "yellow", "correct_response": "y", "trial_id": "stroop-trial-1-unrelated-20", "trial_type": "html-keyboard-response", "trial_index": 96, "time_elapsed": 327789, "internal_node_id": "0.0-6.0-1.0"}}, {"uniqueid": "w18626897:a18817822", "current_trial": 97, "dateTime": 1664464230995, "trialdata": {"rt": 914, "stimulus": "<p id='stroop-text' class='stroop-green'>GREEN</p>", "response": "g", "stimulus-type": "congruent", "word": "green", "color": "green", "correct_response": "g", "trial_id": "stroop-trial-1-congruent-3", "trial_type": "html-keyboard-response", "trial_index": 97, "time_elapsed": 329204, "internal_node_id": "0.0-6.0-2.0"}}, {"uniqueid": "w18626897:a18817822", "current_trial": 98, "dateTime": 1664464232255, "trialdata": {"rt": 759, "stimulus": "<p id='stroop-text' class='stroop-red'>BRAIN</p>", "response": "r", "stimulus-type": "unrelated", "word": "BRAIN", "color": "red", "correct_response": "r", "trial_id": "stroop-trial-1-unrelated-27", "trial_type": "html-keyboard-response", "trial_index": 98, "time_elapsed": 330465, "internal_node_id": "0.0-6.0-3.0"}}, {"uniqueid": "w18626897:a18817822", "current_trial": 99, "dateTime": 1664464233523, "trialdata": {"rt": 767, "stimulus": "<p id='stroop-text' class='stroop-blue'>WINDOW</p>", "response": "b", "stimulus-type": "unrelated", "word": "WINDOW", "color": "blue", "correct_response": "b", "trial_id": "stroop-trial-1-unrelated-15", "trial_type": "html-keyboard-response", "trial_index": 99, "time_elapsed": 331733, "internal_node_id": "0.0-6.0-4.0"}}, {"uniqueid": "w18626897:a18817822", "current_trial": 100, "dateTime": 1664464234954, "trialdata": {"rt": 928, "stimulus": "<p id='stroop-text' class='stroop-red'>YELLOW</p>", "response": "r", "stimulus-type": "incongruent", "word": "yellow", "color": "red", "correct_response": "r", "trial_id": "stroop-trial-1-incongruent-27", "trial_type": "html-keyboard-response", "trial_index": 100, "time_elapsed": 333164, "internal_node_id": "0.0-6.0-5.0"}}, {"uniqueid": "w18626897:a18817822", "current_trial": 101, "dateTime": 1664464236346, "trialdata": {"rt": 888, "stimulus": "<p id='stroop-text' class='stroop-green'>GREEN</p>", "response": "g", "stimulus-type": "congruent", "word": "green", "color": "green", "correct_response": "g", "trial_id": "stroop-trial-1-congruent-16", "trial_type": "html-keyboard-response", "trial_index": 101, "time_elapsed": 334556, "internal_node_id": "0.0-6.0-6.0"}}, {"uniqueid": "w18626897:a18817822", "current_trial": 102, "dateTime": 1664464237796, "trialdata": {"rt": 948, "stimulus": "<p id='stroop-text' class='stroop-blue'>SHIP</p>", "response": "b", "stimulus-type": "unrelated", "word": "SHIP", "color": "blue", "correct_response": "b", "trial_id": "stroop-trial-1-unrelated-4", "trial_type": "html-keyboard-response", "trial_index": 102, "time_elapsed": 336006, "internal_node_id": "0.0-6.0-7.0"}}, {"uniqueid": "w18626897:a18817822", "current_trial": 103, "dateTime": 1664464239159, "trialdata": {"rt": 848, "stimulus": "<p id='stroop-text' class='stroop-green'>GREEN</p>", "response": "g", "stimulus-type": "congruent", "word": "green", "color": "green", "correct_response": "g", "trial_id": "stroop-trial-1-congruent-10", "trial_type": "html-keyboard-response", "trial_index": 103, "time_elapsed": 337369, "internal_node_id": "0.0-6.0-8.0"}}, {"uniqueid": "w18626897:a18817822", "current_trial": 104, "dateTime": 1664464240918, "trialdata": {"rt": 1257, "stimulus": "<p id='stroop-text' class='stroop-red'>YELLOW</p>", "response": "y", "stimulus-type": "incongruent", "word": "yellow", "color": "red", "correct_response": "r", "trial_id": "stroop-trial-1-incongruent-30", "trial_type": "html-keyboard-response", "trial_index": 104, "time_elapsed": 339128, "internal_node_id": "0.0-6.0-9.0"}}, {"uniqueid": "w18626897:a18817822", "current_trial": 105, "dateTime": 1664464242747, "trialdata": {"rt": 1328, "stimulus": "<p id='stroop-text' class='stroop-red'>RED</p>", "response": "r", "stimulus-type": "congruent", "word": "red", "color": "red", "correct_response": "r", "trial_id": "stroop-trial-1-congruent-25", "trial_type": "html-keyboard-response", "trial_index": 105, "time_elapsed": 340957, "internal_node_id": "0.0-6.0-10.0"}}, {"uniqueid": "w18626897:a18817822", "current_trial": 106, "dateTime": 1664464244303, "trialdata": {"rt": 1053, "stimulus": "<p id='stroop-text' class='stroop-yellow'>BLUE</p>", "response": "y", "stimulus-type": "incongruent", "word": "blue", "color": "yellow", "correct_response": "y", "trial_id": "stroop-trial-1-incongruent-5", "trial_type": "html-keyboard-response", "trial_index": 106, "time_elapsed": 342513, "internal_node_id": "0.0-6.0-11.0"}}, {"uniqueid": "w18626897:a18817822", "current_trial": 107, "dateTime": 1664464245842, "trialdata": {"rt": 1037, "stimulus": "<p id='stroop-text' class='stroop-yellow'>GREEN</p>", "response": "y", "stimulus-type": "incongruent", "word": "green", "color": "yellow", "correct_response": "y", "trial_id": "stroop-trial-1-incongruent-17", "trial_type": "html-keyboard-response", "trial_index": 107, "time_elapsed": 344051, "internal_node_id": "0.0-6.0-12.0"}}, {"uniqueid": "w18626897:a18817822", "current_trial": 108, "dateTime": 1664464247269, "trialdata": {"rt": 925, "stimulus": "<p id='stroop-text' class='stroop-blue'>YELLOW</p>", "response": "b", "stimulus-type": "incongruent", "word": "yellow", "color": "blue", "correct_response": "b", "trial_id": "stroop-trial-1-incongruent-9", "trial_type": "html-keyboard-response", "trial_index": 108, "time_elapsed": 345479, "internal_node_id": "0.0-6.0-13.0"}}, {"uniqueid": "w18626897:a18817822", "current_trial": 109, "dateTime": 1664464248738, "trialdata": {"rt": 966, "stimulus": "<p id='stroop-text' class='stroop-red'>BLUE</p>", "response": "r", "stimulus-type": "incongruent", "word": "blue", "color": "red", "correct_response": "r", "trial_id": "stroop-trial-1-incongruent-19", "trial_type": "html-keyboard-response", "trial_index": 109, "time_elapsed": 346947, "internal_node_id": "0.0-6.0-14.0"}}, {"uniqueid": "w18626897:a18817822", "current_trial": 110, "dateTime": 1664464251027, "trialdata": {"rt": 1786, "stimulus": "<p id='stroop-text' class='stroop-green'>BRAIN</p>", "response": "g", "stimulus-type": "unrelated", "word": "BRAIN", "color": "green", "correct_response": "g", "trial_id": "stroop-trial-1-unrelated-1", "trial_type": "html-keyboard-response", "trial_index": 110, "time_elapsed": 349236, "internal_node_id": "0.0-6.0-15.0"}}, {"uniqueid": "w18626897:a18817822", "current_trial": 111, "dateTime": 1664464252325, "trialdata": {"rt": 794, "stimulus": "<p id='stroop-text' class='stroop-blue'>BLUE</p>", "response": "b", "stimulus-type": "congruent", "word": "blue", "color": "blue", "correct_response": "b", "trial_id": "stroop-trial-1-congruent-30", "trial_type": "html-keyboard-response", "trial_index": 111, "time_elapsed": 350535, "internal_node_id": "0.0-6.0-16.0"}}, {"uniqueid": "w18626897:a18817822", "current_trial": 112, "dateTime": 1664464253836, "trialdata": {"rt": 1010, "stimulus": "<p id='stroop-text' class='stroop-green'>YELLOW</p>", "response": "g", "stimulus-type": "incongruent", "word": "yellow", "color": "green", "correct_response": "g", "trial_id": "stroop-trial-1-incongruent-24", "trial_type": "html-keyboard-response", "trial_index": 112, "time_elapsed": 352046, "internal_node_id": "0.0-6.0-17.0"}}, {"uniqueid": "w18626897:a18817822", "current_trial": 113, "dateTime": 1664464255273, "trialdata": {"rt": 935, "stimulus": "<p id='stroop-text' class='stroop-red'>BLUE</p>", "response": "r", "stimulus-type": "incongruent", "word": "blue", "color": "red", "correct_response": "r", "trial_id": "stroop-trial-1-incongruent-28", "trial_type": "html-keyboard-response", "trial_index": 113, "time_elapsed": 353483, "internal_node_id": "0.0-6.0-18.0"}}, {"uniqueid": "w18626897:a18817822", "current_trial": 114, "dateTime": 1664464256619, "trialdata": {"rt": 844, "stimulus": "<p id='stroop-text' class='stroop-green'>CHAIR</p>", "response": "g", "stimulus-type": "unrelated", "word": "CHAIR", "color": "green", "correct_response": "g", "trial_id": "stroop-trial-1-unrelated-14", "trial_type": "html-keyboard-response", "trial_index": 114, "time_elapsed": 354829, "internal_node_id": "0.0-6.0-19.0"}}, {"uniqueid": "w18626897:a18817822", "current_trial": 115, "dateTime": 1664464258025, "trialdata": {"rt": 904, "stimulus": "<p id='stroop-text' class='stroop-red'>RED</p>", "response": "r", "stimulus-type": "congruent", "word": "red", "color": "red", "correct_response": "r", "trial_id": "stroop-trial-1-congruent-26", "trial_type": "html-keyboard-response", "trial_index": 115, "time_elapsed": 356235, "internal_node_id": "0.0-6.0-20.0"}}, {"uniqueid": "w18626897:a18817822", "current_trial": 116, "dateTime": 1664464259496, "trialdata": {"rt": 969, "stimulus": "<p id='stroop-text' class='stroop-yellow'>RED</p>", "response": "y", "stimulus-type": "incongruent", "word": "red", "color": "yellow", "correct_response": "y", "trial_id": "stroop-trial-1-incongruent-18", "trial_type": "html-keyboard-response", "trial_index": 116, "time_elapsed": 357706, "internal_node_id": "0.0-6.0-21.0"}}, {"uniqueid": "w18626897:a18817822", "current_trial": 117, "dateTime": 1664464260868, "trialdata": {"rt": 860, "stimulus": "<p id='stroop-text' class='stroop-blue'>RED</p>", "response": "b", "stimulus-type": "incongruent", "word": "red", "color": "blue", "correct_response": "b", "trial_id": "stroop-trial-1-incongruent-23", "trial_type": "html-keyboard-response", "trial_index": 117, "time_elapsed": 359078, "internal_node_id": "0.0-6.0-22.0"}}, {"uniqueid": "w18626897:a18817822", "current_trial": 118, "dateTime": 1664464262401, "trialdata": {"rt": 1031, "stimulus": "<p id='stroop-text' class='stroop-green'>BLUE</p>", "response": "g", "stimulus-type": "incongruent", "word": "blue", "color": "green", "correct_response": "g", "trial_id": "stroop-trial-1-incongruent-7", "trial_type": "html-keyboard-response", "trial_index": 118, "time_elapsed": 360611, "internal_node_id": "0.0-6.0-23.0"}}, {"uniqueid": "w18626897:a18817822", "current_trial": 119, "dateTime": 1664464264081, "trialdata": {"rt": 1177, "stimulus": "<p id='stroop-text' class='stroop-yellow'>CHAIR</p>", "response": "y", "stimulus-type": "unrelated", "word": "CHAIR", "color": "yellow", "correct_response": "y", "trial_id": "stroop-trial-1-unrelated-17", "trial_type": "html-keyboard-response", "trial_index": 119, "time_elapsed": 362291, "internal_node_id": "0.0-6.0-24.0"}}, {"uniqueid": "w18626897:a18817822", "current_trial": 120, "dateTime": 1664464265352, "trialdata": {"rt": 769, "stimulus": "<p id='stroop-text' class='stroop-blue'>BLUE</p>", "response": "b", "stimulus-type": "congruent", "word": "blue", "color": "blue", "correct_response": "b", "trial_id": "stroop-trial-1-congruent-20", "trial_type": "html-keyboard-response", "trial_index": 120, "time_elapsed": 363562, "internal_node_id": "0.0-6.0-25.0"}}, {"uniqueid": "w18626897:a18817822", "current_trial": 121, "dateTime": 1664464266793, "trialdata": {"rt": 938, "stimulus": "<p id='stroop-text' class='stroop-yellow'>YELLOW</p>", "response": "y", "stimulus-type": "congruent", "word": "yellow", "color": "yellow", "correct_response": "y", "trial_id": "stroop-trial-1-congruent-5", "trial_type": "html-keyboard-response", "trial_index": 121, "time_elapsed": 365003, "internal_node_id": "0.0-6.0-26.0"}}, {"uniqueid": "w18626897:a18817822", "current_trial": 122, "dateTime": 1664464268060, "trialdata": {"rt": 766, "stimulus": "<p id='stroop-text' class='stroop-red'>RED</p>", "response": "r", "stimulus-type": "congruent", "word": "red", "color": "red", "correct_response": "r", "trial_id": "stroop-trial-1-congruent-2", "trial_type": "html-keyboard-response", "trial_index": 122, "time_elapsed": 366270, "internal_node_id": "0.0-6.0-27.0"}}, {"uniqueid": "w18626897:a18817822", "current_trial": 123, "dateTime": 1664464269573, "trialdata": {"rt": 1011, "stimulus": "<p id='stroop-text' class='stroop-green'>FORK</p>", "response": "g", "stimulus-type": "unrelated", "word": "FORK", "color": "green", "correct_response": "g", "trial_id": "stroop-trial-1-unrelated-30", "trial_type": "html-keyboard-response", "trial_index": 123, "time_elapsed": 367783, "internal_node_id": "0.0-6.0-28.0"}}, {"uniqueid": "w18626897:a18817822", "current_trial": 124, "dateTime": 1664464270954, "trialdata": {"rt": 878, "stimulus": "<p id='stroop-text' class='stroop-yellow'>YELLOW</p>", "response": "y", "stimulus-type": "congruent", "word": "yellow", "color": "yellow", "correct_response": "y", "trial_id": "stroop-trial-1-congruent-29", "trial_type": "html-keyboard-response", "trial_index": 124, "time_elapsed": 369163, "internal_node_id": "0.0-6.0-29.0"}}, {"uniqueid": "w18626897:a18817822", "current_trial": 125, "dateTime": 1664464272214, "trialdata": {"rt": 758, "stimulus": "<p id='stroop-text' class='stroop-blue'>RED</p>", "response": "b", "stimulus-type": "incongruent", "word": "red", "color": "blue", "correct_response": "b", "trial_id": "stroop-trial-1-incongruent-3", "trial_type": "html-keyboard-response", "trial_index": 125, "time_elapsed": 370424, "internal_node_id": "0.0-6.0-30.0"}}, {"uniqueid": "w18626897:a18817822", "current_trial": 126, "dateTime": 1664464273609, "trialdata": {"rt": 893, "stimulus": "<p id='stroop-text' class='stroop-red'>RED</p>", "response": "r", "stimulus-type": "congruent", "word": "red", "color": "red", "correct_response": "r", "trial_id": "stroop-trial-1-congruent-15", "trial_type": "html-keyboard-response", "trial_index": 126, "time_elapsed": 371819, "internal_node_id": "0.0-6.0-31.0"}}, {"uniqueid": "w18626897:a18817822", "current_trial": 127, "dateTime": 1664464274827, "trialdata": {"rt": 716, "stimulus": "<p id='stroop-text' class='stroop-red'>RED</p>", "response": "r", "stimulus-type": "congruent", "word": "red", "color": "red", "correct_response": "r", "trial_id": "stroop-trial-1-congruent-6", "trial_type": "html-keyboard-response", "trial_index": 127, "time_elapsed": 373037, "internal_node_id": "0.0-6.0-32.0"}}, {"uniqueid": "w18626897:a18817822", "current_trial": 128, "dateTime": 1664464276224, "trialdata": {"rt": 894, "stimulus": "<p id='stroop-text' class='stroop-green'>GREEN</p>", "response": "g", "stimulus-type": "congruent", "word": "green", "color": "green", "correct_response": "g", "trial_id": "stroop-trial-1-congruent-17", "trial_type": "html-keyboard-response", "trial_index": 128, "time_elapsed": 374434, "internal_node_id": "0.0-6.0-33.0"}}, {"uniqueid": "w18626897:a18817822", "current_trial": 129, "dateTime": 1664464277492, "trialdata": {"rt": 766, "stimulus": "<p id='stroop-text' class='stroop-yellow'>GREEN</p>", "response": "y", "stimulus-type": "incongruent", "word": "green", "color": "yellow", "correct_response": "y", "trial_id": "stroop-trial-1-incongruent-14", "trial_type": "html-keyboard-response", "trial_index": 129, "time_elapsed": 375702, "internal_node_id": "0.0-6.0-34.0"}}, {"uniqueid": "w18626897:a18817822", "current_trial": 130, "dateTime": 1664464278949, "trialdata": {"rt": 954, "stimulus": "<p id='stroop-text' class='stroop-yellow'>RED</p>", "response": "y", "stimulus-type": "incongruent", "word": "red", "color": "yellow", "correct_response": "y", "trial_id": "stroop-trial-1-incongruent-29", "trial_type": "html-keyboard-response", "trial_index": 130, "time_elapsed": 377159, "internal_node_id": "0.0-6.0-35.0"}}, {"uniqueid": "w18626897:a18817822", "current_trial": 131, "dateTime": 1664464280431, "trialdata": {"rt": 980, "stimulus": "<p id='stroop-text' class='stroop-green'>BLUE</p>", "response": "g", "stimulus-type": "incongruent", "word": "blue", "color": "green", "correct_response": "g", "trial_id": "stroop-trial-1-incongruent-25", "trial_type": "html-keyboard-response", "trial_index": 131, "time_elapsed": 378641, "internal_node_id": "0.0-6.0-36.0"}}, {"uniqueid": "w18626897:a18817822", "current_trial": 132, "dateTime": 1664464281755, "trialdata": {"rt": 822, "stimulus": "<p id='stroop-text' class='stroop-blue'>BLUE</p>", "response": "b", "stimulus-type": "congruent", "word": "blue", "color": "blue", "correct_response": "b", "trial_id": "stroop-trial-1-congruent-21", "trial_type": "html-keyboard-response", "trial_index": 132, "time_elapsed": 379965, "internal_node_id": "0.0-6.0-37.0"}}, {"uniqueid": "w18626897:a18817822", "current_trial": 133, "dateTime": 1664464282877, "trialdata": {"rt": 619, "stimulus": "<p id='stroop-text' class='stroop-blue'>BLUE</p>", "response": "b", "stimulus-type": "congruent", "word": "blue", "color": "blue", "correct_response": "b", "trial_id": "stroop-trial-1-congruent-19", "trial_type": "html-keyboard-response", "trial_index": 133, "time_elapsed": 381087, "internal_node_id": "0.0-6.0-38.0"}}, {"uniqueid": "w18626897:a18817822", "current_trial": 134, "dateTime": 1664464284196, "trialdata": {"rt": 806, "stimulus": "<p id='stroop-text' class='stroop-yellow'>STONE</p>", "response": "y", "stimulus-type": "unrelated", "word": "STONE", "color": "yellow", "correct_response": "y", "trial_id": "stroop-trial-1-unrelated-18", "trial_type": "html-keyboard-response", "trial_index": 134, "time_elapsed": 382406, "internal_node_id": "0.0-6.0-39.0"}}, {"uniqueid": "w18626897:a18817822", "current_trial": 135, "dateTime": 1664464285493, "trialdata": {"rt": 783, "stimulus": "<p id='stroop-text' class='stroop-blue'>BOTTLE</p>", "response": "b", "stimulus-type": "unrelated", "word": "BOTTLE", "color": "blue", "correct_response": "b", "trial_id": "stroop-trial-1-unrelated-22", "trial_type": "html-keyboard-response", "trial_index": 135, "time_elapsed": 383703, "internal_node_id": "0.0-6.0-40.0"}}, {"uniqueid": "w18626897:a18817822", "current_trial": 136, "dateTime": 1664464286901, "trialdata": {"rt": 905, "stimulus": "<p id='stroop-text' class='stroop-green'>CHAIR</p>", "response": "g", "stimulus-type": "unrelated", "word": "CHAIR", "color": "green", "correct_response": "g", "trial_id": "stroop-trial-1-unrelated-16", "trial_type": "html-keyboard-response", "trial_index": 136, "time_elapsed": 385110, "internal_node_id": "0.0-6.0-41.0"}}, {"uniqueid": "w18626897:a18817822", "current_trial": 137, "dateTime": 1664464288227, "trialdata": {"rt": 822, "stimulus": "<p id='stroop-text' class='stroop-red'>GREEN</p>", "response": "r", "stimulus-type": "incongruent", "word": "green", "color": "red", "correct_response": "r", "trial_id": "stroop-trial-1-incongruent-1", "trial_type": "html-keyboard-response", "trial_index": 137, "time_elapsed": 386437, "internal_node_id": "0.0-6.0-42.0"}}, {"uniqueid": "w18626897:a18817822", "current_trial": 138, "dateTime": 1664464289634, "trialdata": {"rt": 905, "stimulus": "<p id='stroop-text' class='stroop-blue'>RED</p>", "response": "b", "stimulus-type": "incongruent", "word": "red", "color": "blue", "correct_response": "b", "trial_id": "stroop-trial-1-incongruent-26", "trial_type": "html-keyboard-response", "trial_index": 138, "time_elapsed": 387843, "internal_node_id": "0.0-6.0-43.0"}}, {"uniqueid": "w18626897:a18817822", "current_trial": 139, "dateTime": 1664464290933, "trialdata": {"rt": 791, "stimulus": "<p id='stroop-text' class='stroop-blue'>GREEN</p>", "response": "b", "stimulus-type": "incongruent", "word": "green", "color": "blue", "correct_response": "b", "trial_id": "stroop-trial-1-incongruent-8", "trial_type": "html-keyboard-response", "trial_index": 139, "time_elapsed": 389142, "internal_node_id": "0.0-6.0-44.0"}}, {"uniqueid": "w18626897:a18817822", "current_trial": 140, "dateTime": 1664464292253, "trialdata": {"rt": 818, "stimulus": "<p id='stroop-text' class='stroop-yellow'>GREEN</p>", "response": "y", "stimulus-type": "incongruent", "word": "green", "color": "yellow", "correct_response": "y", "trial_id": "stroop-trial-1-incongruent-15", "trial_type": "html-keyboard-response", "trial_index": 140, "time_elapsed": 390463, "internal_node_id": "0.0-6.0-45.0"}}, {"uniqueid": "w18626897:a18817822", "current_trial": 141, "dateTime": 1664464293690, "trialdata": {"rt": 936, "stimulus": "<p id='stroop-text' class='stroop-red'>DOG</p>", "response": "r", "stimulus-type": "unrelated", "word": "DOG", "color": "red", "correct_response": "r", "trial_id": "stroop-trial-1-unrelated-19", "trial_type": "html-keyboard-response", "trial_index": 141, "time_elapsed": 391900, "internal_node_id": "0.0-6.0-46.0"}}, {"uniqueid": "w18626897:a18817822", "current_trial": 142, "dateTime": 1664464295233, "trialdata": {"rt": 1040, "stimulus": "<p id='stroop-text' class='stroop-yellow'>YELLOW</p>", "response": "y", "stimulus-type": "congruent", "word": "yellow", "color": "yellow", "correct_response": "y", "trial_id": "stroop-trial-1-congruent-9", "trial_type": "html-keyboard-response", "trial_index": 142, "time_elapsed": 393442, "internal_node_id": "0.0-6.0-47.0"}}, {"uniqueid": "w18626897:a18817822", "current_trial": 143, "dateTime": 1664464296998, "trialdata": {"rt": 1263, "stimulus": "<p id='stroop-text' class='stroop-blue'>GREEN</p>", "response": "b", "stimulus-type": "incongruent", "word": "green", "color": "blue", "correct_response": "b", "trial_id": "stroop-trial-1-incongruent-20", "trial_type": "html-keyboard-response", "trial_index": 143, "time_elapsed": 395208, "internal_node_id": "0.0-6.0-48.0"}}, {"uniqueid": "w18626897:a18817822", "current_trial": 144, "dateTime": 1664464298337, "trialdata": {"rt": 837, "stimulus": "<p id='stroop-text' class='stroop-red'>SHIP</p>", "response": "r", "stimulus-type": "unrelated", "word": "SHIP", "color": "red", "correct_response": "r", "trial_id": "stroop-trial-1-unrelated-13", "trial_type": "html-keyboard-response", "trial_index": 144, "time_elapsed": 396546, "internal_node_id": "0.0-6.0-49.0"}}, {"uniqueid": "w18626897:a18817822", "current_trial": 145, "dateTime": 1664464299891, "trialdata": {"rt": 1053, "stimulus": "<p id='stroop-text' class='stroop-yellow'>BRIDGE</p>", "response": "y", "stimulus-type": "unrelated", "word": "BRIDGE", "color": "yellow", "correct_response": "y", "trial_id": "stroop-trial-1-unrelated-24", "trial_type": "html-keyboard-response", "trial_index": 145, "time_elapsed": 398101, "internal_node_id": "0.0-6.0-50.0"}}, {"uniqueid": "w18626897:a18817822", "current_trial": 146, "dateTime": 1664464301640, "trialdata": {"rt": 1246, "stimulus": "<p id='stroop-text' class='stroop-red'>YELLOW</p>", "response": "r", "stimulus-type": "incongruent", "word": "yellow", "color": "red", "correct_response": "r", "trial_id": "stroop-trial-1-incongruent-13", "trial_type": "html-keyboard-response", "trial_index": 146, "time_elapsed": 399849, "internal_node_id": "0.0-6.0-51.0"}}, {"uniqueid": "w18626897:a18817822", "current_trial": 147, "dateTime": 1664464302993, "trialdata": {"rt": 851, "stimulus": "<p id='stroop-text' class='stroop-yellow'>YELLOW</p>", "response": "y", "stimulus-type": "congruent", "word": "yellow", "color": "yellow", "correct_response": "y", "trial_id": "stroop-trial-1-congruent-8", "trial_type": "html-keyboard-response", "trial_index": 147, "time_elapsed": 401203, "internal_node_id": "0.0-6.0-52.0"}}, {"uniqueid": "w18626897:a18817822", "current_trial": 148, "dateTime": 1664464304360, "trialdata": {"rt": 866, "stimulus": "<p id='stroop-text' class='stroop-blue'>MONKEY</p>", "response": "b", "stimulus-type": "unrelated", "word": "MONKEY", "color": "blue", "correct_response": "b", "trial_id": "stroop-trial-1-unrelated-6", "trial_type": "html-keyboard-response", "trial_index": 148, "time_elapsed": 402570, "internal_node_id": "0.0-6.0-53.0"}}, {"uniqueid": "w18626897:a18817822", "current_trial": 149, "dateTime": 1664464307294, "trialdata": {"rt": 2433, "stimulus": "<p id='stroop-text' class='stroop-blue'>BLUE</p>", "response": "b", "stimulus-type": "congruent", "word": "blue", "color": "blue", "correct_response": "b", "trial_id": "stroop-trial-1-congruent-28", "trial_type": "html-keyboard-response", "trial_index": 149, "time_elapsed": 405504, "internal_node_id": "0.0-6.0-54.0"}}, {"uniqueid": "w18626897:a18817822", "current_trial": 150, "dateTime": 1664464308665, "trialdata": {"rt": 868, "stimulus": "<p id='stroop-text' class='stroop-yellow'>BOTTLE</p>", "response": "y", "stimulus-type": "unrelated", "word": "BOTTLE", "color": "yellow", "correct_response": "y", "trial_id": "stroop-trial-1-unrelated-26", "trial_type": "html-keyboard-response", "trial_index": 150, "time_elapsed": 406875, "internal_node_id": "0.0-6.0-55.0"}}, {"uniqueid": "w18626897:a18817822", "current_trial": 151, "dateTime": 1664464309767, "trialdata": {"rt": 599, "stimulus": "<p id='stroop-text' class='stroop-yellow'>YELLOW</p>", "response": "y", "stimulus-type": "congruent", "word": "yellow", "color": "yellow", "correct_response": "y", "trial_id": "stroop-trial-1-congruent-14", "trial_type": "html-keyboard-response", "trial_index": 151, "time_elapsed": 407976, "internal_node_id": "0.0-6.0-56.0"}}, {"uniqueid": "w18626897:a18817822", "current_trial": 152, "dateTime": 1664464310888, "trialdata": {"rt": 618, "stimulus": "<p id='stroop-text' class='stroop-yellow'>YELLOW</p>", "response": "y", "stimulus-type": "congruent", "word": "yellow", "color": "yellow", "correct_response": "y", "trial_id": "stroop-trial-1-congruent-12", "trial_type": "html-keyboard-response", "trial_index": 152, "time_elapsed": 409098, "internal_node_id": "0.0-6.0-57.0"}}, {"uniqueid": "w18626897:a18817822", "current_trial": 153, "dateTime": 1664464312284, "trialdata": {"rt": 893, "stimulus": "<p id='stroop-text' class='stroop-green'>SHIP</p>", "response": "g", "stimulus-type": "unrelated", "word": "SHIP", "color": "green", "correct_response": "g", "trial_id": "stroop-trial-1-unrelated-10", "trial_type": "html-keyboard-response", "trial_index": 153, "time_elapsed": 410494, "internal_node_id": "0.0-6.0-58.0"}}, {"uniqueid": "w18626897:a18817822", "current_trial": 154, "dateTime": 1664464313580, "trialdata": {"rt": 794, "stimulus": "<p id='stroop-text' class='stroop-red'>CHAIR</p>", "response": "r", "stimulus-type": "unrelated", "word": "CHAIR", "color": "red", "correct_response": "r", "trial_id": "stroop-trial-1-unrelated-11", "trial_type": "html-keyboard-response", "trial_index": 154, "time_elapsed": 411790, "internal_node_id": "0.0-6.0-59.0"}}, {"uniqueid": "w18626897:a18817822", "current_trial": 155, "dateTime": 1664464314915, "trialdata": {"rt": 833, "stimulus": "<p id='stroop-text' class='stroop-blue'>BLUE</p>", "response": "b", "stimulus-type": "congruent", "word": "blue", "color": "blue", "correct_response": "b", "trial_id": "stroop-trial-1-congruent-1", "trial_type": "html-keyboard-response", "trial_index": 155, "time_elapsed": 413125, "internal_node_id": "0.0-6.0-60.0"}}, {"uniqueid": "w18626897:a18817822", "current_trial": 156, "dateTime": 1664464316337, "trialdata": {"rt": 920, "stimulus": "<p id='stroop-text' class='stroop-green'>BRAIN</p>", "response": "g", "stimulus-type": "unrelated", "word": "BRAIN", "color": "green", "correct_response": "g", "trial_id": "stroop-trial-1-unrelated-2", "trial_type": "html-keyboard-response", "trial_index": 156, "time_elapsed": 414547, "internal_node_id": "0.0-6.0-61.0"}}, {"uniqueid": "w18626897:a18817822", "current_trial": 157, "dateTime": 1664464317689, "trialdata": {"rt": 849, "stimulus": "<p id='stroop-text' class='stroop-yellow'>YELLOW</p>", "response": "y", "stimulus-type": "congruent", "word": "yellow", "color": "yellow", "correct_response": "y", "trial_id": "stroop-trial-1-congruent-18", "trial_type": "html-keyboard-response", "trial_index": 157, "time_elapsed": 415899, "internal_node_id": "0.0-6.0-62.0"}}, {"uniqueid": "w18626897:a18817822", "current_trial": 158, "dateTime": 1664464319018, "trialdata": {"rt": 828, "stimulus": "<p id='stroop-text' class='stroop-blue'>STONE</p>", "response": "b", "stimulus-type": "unrelated", "word": "STONE", "color": "blue", "correct_response": "b", "trial_id": "stroop-trial-1-unrelated-3", "trial_type": "html-keyboard-response", "trial_index": 158, "time_elapsed": 417228, "internal_node_id": "0.0-6.0-63.0"}}, {"uniqueid": "w18626897:a18817822", "current_trial": 159, "dateTime": 1664464320324, "trialdata": {"rt": 803, "stimulus": "<p id='stroop-text' class='stroop-red'>DOG</p>", "response": "r", "stimulus-type": "unrelated", "word": "DOG", "color": "red", "correct_response": "r", "trial_id": "stroop-trial-1-unrelated-12", "trial_type": "html-keyboard-response", "trial_index": 159, "time_elapsed": 418534, "internal_node_id": "0.0-6.0-64.0"}}, {"uniqueid": "w18626897:a18817822", "current_trial": 160, "dateTime": 1664464321871, "trialdata": {"rt": 1044, "stimulus": "<p id='stroop-text' class='stroop-yellow'>YELLOW</p>", "response": "y", "stimulus-type": "congruent", "word": "yellow", "color": "yellow", "correct_response": "y", "trial_id": "stroop-trial-1-congruent-11", "trial_type": "html-keyboard-response", "trial_index": 160, "time_elapsed": 420081, "internal_node_id": "0.0-6.0-65.0"}}, {"uniqueid": "w18626897:a18817822", "current_trial": 161, "dateTime": 1664464323827, "trialdata": {"rt": 1454, "stimulus": "<p id='stroop-text' class='stroop-red'>MONKEY</p>", "response": "r", "stimulus-type": "unrelated", "word": "MONKEY", "color": "red", "correct_response": "r", "trial_id": "stroop-trial-1-unrelated-7", "trial_type": "html-keyboard-response", "trial_index": 161, "time_elapsed": 422036, "internal_node_id": "0.0-6.0-66.0"}}, {"uniqueid": "w18626897:a18817822", "current_trial": 162, "dateTime": 1664464325128, "trialdata": {"rt": 795, "stimulus": "<p id='stroop-text' class='stroop-red'>BRIDGE</p>", "response": "r", "stimulus-type": "unrelated", "word": "BRIDGE", "color": "red", "correct_response": "r", "trial_id": "stroop-trial-1-unrelated-21", "trial_type": "html-keyboard-response", "trial_index": 162, "time_elapsed": 423338, "internal_node_id": "0.0-6.0-67.0"}}, {"uniqueid": "w18626897:a18817822", "current_trial": 163, "dateTime": 1664464326169, "trialdata": {"rt": 539, "stimulus": "<p id='stroop-text' class='stroop-red'>RED</p>", "response": "r", "stimulus-type": "congruent", "word": "red", "color": "red", "correct_response": "r", "trial_id": "stroop-trial-1-congruent-24", "trial_type": "html-keyboard-response", "trial_index": 163, "time_elapsed": 424379, "internal_node_id": "0.0-6.0-68.0"}}, {"uniqueid": "w18626897:a18817822", "current_trial": 164, "dateTime": 1664464327623, "trialdata": {"rt": 952, "stimulus": "<p id='stroop-text' class='stroop-yellow'>BLUE</p>", "response": "y", "stimulus-type": "incongruent", "word": "blue", "color": "yellow", "correct_response": "y", "trial_id": "stroop-trial-1-incongruent-6", "trial_type": "html-keyboard-response", "trial_index": 164, "time_elapsed": 425832, "internal_node_id": "0.0-6.0-69.0"}}, {"uniqueid": "w18626897:a18817822", "current_trial": 165, "dateTime": 1664464328701, "trialdata": {"rt": 574, "stimulus": "<p id='stroop-text' class='stroop-yellow'>DOG</p>", "response": "y", "stimulus-type": "unrelated", "word": "DOG", "color": "yellow", "correct_response": "y", "trial_id": "stroop-trial-1-unrelated-28", "trial_type": "html-keyboard-response", "trial_index": 165, "time_elapsed": 426910, "internal_node_id": "0.0-6.0-70.0"}}, {"uniqueid": "w18626897:a18817822", "current_trial": 166, "dateTime": 1664464329874, "trialdata": {"rt": 671, "stimulus": "<p id='stroop-text' class='stroop-blue'>BLUE</p>", "response": "b", "stimulus-type": "congruent", "word": "blue", "color": "blue", "correct_response": "b", "trial_id": "stroop-trial-1-congruent-23", "trial_type": "html-keyboard-response", "trial_index": 166, "time_elapsed": 428084, "internal_node_id": "0.0-6.0-71.0"}}, {"uniqueid": "w18626897:a18817822", "current_trial": 167, "dateTime": 1664464331324, "trialdata": {"rt": 948, "stimulus": "<p id='stroop-text' class='stroop-red'>RED</p>", "response": "r", "stimulus-type": "congruent", "word": "red", "color": "red", "correct_response": "r", "trial_id": "stroop-trial-1-congruent-4", "trial_type": "html-keyboard-response", "trial_index": 167, "time_elapsed": 429534, "internal_node_id": "0.0-6.0-72.0"}}, {"uniqueid": "w18626897:a18817822", "current_trial": 168, "dateTime": 1664464332789, "trialdata": {"rt": 963, "stimulus": "<p id='stroop-text' class='stroop-blue'>CHAIR</p>", "response": "b", "stimulus-type": "unrelated", "word": "CHAIR", "color": "blue", "correct_response": "b", "trial_id": "stroop-trial-1-unrelated-23", "trial_type": "html-keyboard-response", "trial_index": 168, "time_elapsed": 430999, "internal_node_id": "0.0-6.0-73.0"}}, {"uniqueid": "w18626897:a18817822", "current_trial": 169, "dateTime": 1664464334283, "trialdata": {"rt": 991, "stimulus": "<p id='stroop-text' class='stroop-yellow'>YELLOW</p>", "response": "y", "stimulus-type": "congruent", "word": "yellow", "color": "yellow", "correct_response": "y", "trial_id": "stroop-trial-1-congruent-22", "trial_type": "html-keyboard-response", "trial_index": 169, "time_elapsed": 432493, "internal_node_id": "0.0-6.0-74.0"}}, {"uniqueid": "w18626897:a18817822", "current_trial": 170, "dateTime": 1664464335295, "trialdata": {"rt": 510, "stimulus": "<p id='stroop-text' class='stroop-yellow'>RED</p>", "response": "y", "stimulus-type": "incongruent", "word": "red", "color": "yellow", "correct_response": "y", "trial_id": "stroop-trial-1-incongruent-11", "trial_type": "html-keyboard-response", "trial_index": 170, "time_elapsed": 433505, "internal_node_id": "0.0-6.0-75.0"}}, {"uniqueid": "w18626897:a18817822", "current_trial": 171, "dateTime": 1664464336660, "trialdata": {"rt": 864, "stimulus": "<p id='stroop-text' class='stroop-blue'>WINDOW</p>", "response": "b", "stimulus-type": "unrelated", "word": "WINDOW", "color": "blue", "correct_response": "b", "trial_id": "stroop-trial-1-unrelated-25", "trial_type": "html-keyboard-response", "trial_index": 171, "time_elapsed": 434870, "internal_node_id": "0.0-6.0-76.0"}}, {"uniqueid": "w18626897:a18817822", "current_trial": 172, "dateTime": 1664464338110, "trialdata": {"rt": 948, "stimulus": "<p id='stroop-text' class='stroop-yellow'>RED</p>", "response": "y", "stimulus-type": "incongruent", "word": "red", "color": "yellow", "correct_response": "y", "trial_id": "stroop-trial-1-incongruent-22", "trial_type": "html-keyboard-response", "trial_index": 172, "time_elapsed": 436320, "internal_node_id": "0.0-6.0-77.0"}}, {"uniqueid": "w18626897:a18817822", "current_trial": 173, "dateTime": 1664464339545, "trialdata": {"rt": 931, "stimulus": "<p id='stroop-text' class='stroop-blue'>DOG</p>", "response": "b", "stimulus-type": "unrelated", "word": "DOG", "color": "blue", "correct_response": "b", "trial_id": "stroop-trial-1-unrelated-8", "trial_type": "html-keyboard-response", "trial_index": 173, "time_elapsed": 437755, "internal_node_id": "0.0-6.0-78.0"}}, {"uniqueid": "w18626897:a18817822", "current_trial": 174, "dateTime": 1664464340999, "trialdata": {"rt": 951, "stimulus": "<p id='stroop-text' class='stroop-red'>RED</p>", "response": "r", "stimulus-type": "congruent", "word": "red", "color": "red", "correct_response": "r", "trial_id": "stroop-trial-1-congruent-13", "trial_type": "html-keyboard-response", "trial_index": 174, "time_elapsed": 439209, "internal_node_id": "0.0-6.0-79.0"}}, {"uniqueid": "w18626897:a18817822", "current_trial": 175, "dateTime": 1664464342383, "trialdata": {"rt": 882, "stimulus": "<p id='stroop-text' class='stroop-yellow'>CHAIR</p>", "response": "y", "stimulus-type": "unrelated", "word": "CHAIR", "color": "yellow", "correct_response": "y", "trial_id": "stroop-trial-1-unrelated-29", "trial_type": "html-keyboard-response", "trial_index": 175, "time_elapsed": 440593, "internal_node_id": "0.0-6.0-80.0"}}, {"uniqueid": "w18626897:a18817822", "current_trial": 176, "dateTime": 1664464344167, "trialdata": {"rt": 1282, "stimulus": "<p id='stroop-text' class='stroop-red'>GREEN</p>", "response": "r", "stimulus-type": "incongruent", "word": "green", "color": "red", "correct_response": "r", "trial_id": "stroop-trial-1-incongruent-4", "trial_type": "html-keyboard-response", "trial_index": 176, "time_elapsed": 442377, "internal_node_id": "0.0-6.0-81.0"}}, {"uniqueid": "w18626897:a18817822", "current_trial": 177, "dateTime": 1664464345569, "trialdata": {"rt": 900, "stimulus": "<p id='stroop-text' class='stroop-yellow'>RED</p>", "response": "y", "stimulus-type": "incongruent", "word": "red", "color": "yellow", "correct_response": "y", "trial_id": "stroop-trial-1-incongruent-12", "trial_type": "html-keyboard-response", "trial_index": 177, "time_elapsed": 443778, "internal_node_id": "0.0-6.0-82.0"}}, {"uniqueid": "w18626897:a18817822", "current_trial": 178, "dateTime": 1664464346853, "trialdata": {"rt": 783, "stimulus": "<p id='stroop-text' class='stroop-blue'>BOAT</p>", "response": "b", "stimulus-type": "unrelated", "word": "BOAT", "color": "blue", "correct_response": "b", "trial_id": "stroop-trial-1-unrelated-5", "trial_type": "html-keyboard-response", "trial_index": 178, "time_elapsed": 445063, "internal_node_id": "0.0-6.0-83.0"}}, {"uniqueid": "w18626897:a18817822", "current_trial": 179, "dateTime": 1664464348465, "trialdata": {"rt": 1110, "stimulus": "<p id='stroop-text' class='stroop-red'>BLUE</p>", "response": "r", "stimulus-type": "incongruent", "word": "blue", "color": "red", "correct_response": "r", "trial_id": "stroop-trial-1-incongruent-10", "trial_type": "html-keyboard-response", "trial_index": 179, "time_elapsed": 446675, "internal_node_id": "0.0-6.0-84.0"}}, {"uniqueid": "w18626897:a18817822", "current_trial": 180, "dateTime": 1664464349804, "trialdata": {"rt": 837, "stimulus": "<p id='stroop-text' class='stroop-blue'>BLUE</p>", "response": "b", "stimulus-type": "congruent", "word": "blue", "color": "blue", "correct_response": "b", "trial_id": "stroop-trial-1-congruent-7", "trial_type": "html-keyboard-response", "trial_index": 180, "time_elapsed": 448014, "internal_node_id": "0.0-6.0-85.0"}}, {"uniqueid": "w18626897:a18817822", "current_trial": 181, "dateTime": 1664464351326, "trialdata": {"rt": 1021, "stimulus": "<p id='stroop-text' class='stroop-red'>BLUE</p>", "response": "r", "stimulus-type": "incongruent", "word": "blue", "color": "red", "correct_response": "r", "trial_id": "stroop-trial-1-incongruent-21", "trial_type": "html-keyboard-response", "trial_index": 181, "time_elapsed": 449536, "internal_node_id": "0.0-6.0-86.0"}}, {"uniqueid": "w18626897:a18817822", "current_trial": 182, "dateTime": 1664464352775, "trialdata": {"rt": 947, "stimulus": "<p id='stroop-text' class='stroop-yellow'>YELLOW</p>", "response": "y", "stimulus-type": "congruent", "word": "yellow", "color": "yellow", "correct_response": "y", "trial_id": "stroop-trial-1-congruent-27", "trial_type": "html-keyboard-response", "trial_index": 182, "time_elapsed": 450985, "internal_node_id": "0.0-6.0-87.0"}}, {"uniqueid": "w18626897:a18817822", "current_trial": 183, "dateTime": 1664464354131, "trialdata": {"rt": 853, "stimulus": "<p id='stroop-text' class='stroop-green'>BLUE</p>", "response": "g", "stimulus-type": "incongruent", "word": "blue", "color": "green", "correct_response": "g", "trial_id": "stroop-trial-1-incongruent-2", "trial_type": "html-keyboard-response", "trial_index": 183, "time_elapsed": 452341, "internal_node_id": "0.0-6.0-88.0"}}, {"uniqueid": "w18626897:a18817822", "current_trial": 184, "dateTime": 1664464355998, "trialdata": {"rt": 1365, "stimulus": "<p id='stroop-text' class='stroop-blue'>GREEN</p>", "response": "b", "stimulus-type": "incongruent", "word": "green", "color": "blue", "correct_response": "b", "trial_id": "stroop-trial-1-incongruent-16", "trial_type": "html-keyboard-response", "trial_index": 184, "time_elapsed": 454208, "internal_node_id": "0.0-6.0-89.0"}}, {"uniqueid": "w18626897:a18817822", "current_trial": 185, "dateTime": 1664464375604, "trialdata": {"rt": 19103, "stimulus": "  <h1> End of block! </h1>\n\n  You have reached the end of the block 2/5. If you need a short break, feel free to take one now before moving on.\n\n  <br><br>\n  In the next block, you will complete another 90 rounds of this game.\n\n  <br><br>\n  <div style='text-align: center;'>Press <code>space</code> to begin.</div>\n  <br><br>\n<div style='text-align: center;'>(If the experiment doesn't continue, try clicking on the text and then pressing <code>space</code>.)</div>", "response": " ", "trial_id": "stroop_1_ready_3", "trial_type": "html-keyboard-response", "trial_index": 185, "time_elapsed": 473814, "internal_node_id": "0.0-7.0"}}, {"uniqueid": "w18626897:a18817822", "current_trial": 186, "dateTime": 1664464376728, "trialdata": {"rt": 1122, "stimulus": "<p id='stroop-text' class='stroop-yellow'>GREEN</p>", "response": "y", "stimulus-type": "incongruent", "word": "green", "color": "yellow", "correct_response": "y", "trial_id": "stroop-trial-1-incongruent-14", "trial_type": "html-keyboard-response", "trial_index": 186, "time_elapsed": 474938, "internal_node_id": "0.0-8.0-0.0"}}, {"uniqueid": "w18626897:a18817822", "current_trial": 187, "dateTime": 1664464378072, "trialdata": {"rt": 842, "stimulus": "<p id='stroop-text' class='stroop-green'>GREEN</p>", "response": "g", "stimulus-type": "congruent", "word": "green", "color": "green", "correct_response": "g", "trial_id": "stroop-trial-1-congruent-22", "trial_type": "html-keyboard-response", "trial_index": 187, "time_elapsed": 476281, "internal_node_id": "0.0-8.0-1.0"}}, {"uniqueid": "w18626897:a18817822", "current_trial": 188, "dateTime": 1664464379263, "trialdata": {"rt": 690, "stimulus": "<p id='stroop-text' class='stroop-green'>YELLOW</p>", "response": "g", "stimulus-type": "incongruent", "word": "yellow", "color": "green", "correct_response": "g", "trial_id": "stroop-trial-1-incongruent-27", "trial_type": "html-keyboard-response", "trial_index": 188, "time_elapsed": 477473, "internal_node_id": "0.0-8.0-2.0"}}, {"uniqueid": "w18626897:a18817822", "current_trial": 189, "dateTime": 1664464380638, "trialdata": {"rt": 872, "stimulus": "<p id='stroop-text' class='stroop-yellow'>YELLOW</p>", "response": "y", "stimulus-type": "congruent", "word": "yellow", "color": "yellow", "correct_response": "y", "trial_id": "stroop-trial-1-congruent-3", "trial_type": "html-keyboard-response", "trial_index": 189, "time_elapsed": 478848, "internal_node_id": "0.0-8.0-3.0"}}, {"uniqueid": "w18626897:a18817822", "current_trial": 190, "dateTime": 1664464381981, "trialdata": {"rt": 841, "stimulus": "<p id='stroop-text' class='stroop-green'>RED</p>", "response": "g", "stimulus-type": "incongruent", "word": "red", "color": "green", "correct_response": "g", "trial_id": "stroop-trial-1-incongruent-11", "trial_type": "html-keyboard-response", "trial_index": 190, "time_elapsed": 480191, "internal_node_id": "0.0-8.0-4.0"}}, {"uniqueid": "w18626897:a18817822", "current_trial": 191, "dateTime": 1664464383034, "trialdata": {"rt": 550, "stimulus": "<p id='stroop-text' class='stroop-green'>WINDOW</p>", "response": "g", "stimulus-type": "unrelated", "word": "WINDOW", "color": "green", "correct_response": "g", "trial_id": "stroop-trial-1-unrelated-13", "trial_type": "html-keyboard-response", "trial_index": 191, "time_elapsed": 481244, "internal_node_id": "0.0-8.0-5.0"}}, {"uniqueid": "w18626897:a18817822", "current_trial": 192, "dateTime": 1664464384766, "trialdata": {"rt": 1228, "stimulus": "<p id='stroop-text' class='stroop-yellow'>DOG</p>", "response": "y", "stimulus-type": "unrelated", "word": "DOG", "color": "yellow", "correct_response": "y", "trial_id": "stroop-trial-1-unrelated-4", "trial_type": "html-keyboard-response", "trial_index": 192, "time_elapsed": 482976, "internal_node_id": "0.0-8.0-6.0"}}, {"uniqueid": "w18626897:a18817822", "current_trial": 193, "dateTime": 1664464386150, "trialdata": {"rt": 883, "stimulus": "<p id='stroop-text' class='stroop-red'>MONKEY</p>", "response": "r", "stimulus-type": "unrelated", "word": "MONKEY", "color": "red", "correct_response": "r", "trial_id": "stroop-trial-1-unrelated-19", "trial_type": "html-keyboard-response", "trial_index": 193, "time_elapsed": 484360, "internal_node_id": "0.0-8.0-7.0"}}, {"uniqueid": "w18626897:a18817822", "current_trial": 194, "dateTime": 1664464387324, "trialdata": {"rt": 671, "stimulus": "<p id='stroop-text' class='stroop-blue'>BOTTLE</p>", "response": "b", "stimulus-type": "unrelated", "word": "BOTTLE", "color": "blue", "correct_response": "b", "trial_id": "stroop-trial-1-unrelated-20", "trial_type": "html-keyboard-response", "trial_index": 194, "time_elapsed": 485534, "internal_node_id": "0.0-8.0-8.0"}}, {"uniqueid": "w18626897:a18817822", "current_trial": 195, "dateTime": 1664464388595, "trialdata": {"rt": 769, "stimulus": "<p id='stroop-text' class='stroop-red'>RED</p>", "response": "r", "stimulus-type": "congruent", "word": "red", "color": "red", "correct_response": "r", "trial_id": "stroop-trial-1-congruent-9", "trial_type": "html-keyboard-response", "trial_index": 195, "time_elapsed": 486805, "internal_node_id": "0.0-8.0-9.0"}}, {"uniqueid": "w18626897:a18817822", "current_trial": 196, "dateTime": 1664464389961, "trialdata": {"rt": 862, "stimulus": "<p id='stroop-text' class='stroop-blue'>GREEN</p>", "response": "b", "stimulus-type": "incongruent", "word": "green", "color": "blue", "correct_response": "b", "trial_id": "stroop-trial-1-incongruent-25", "trial_type": "html-keyboard-response", "trial_index": 196, "time_elapsed": 488170, "internal_node_id": "0.0-8.0-10.0"}}, {"uniqueid": "w18626897:a18817822", "current_trial": 197, "dateTime": 1664464392129, "trialdata": {"rt": 1665, "stimulus": "<p id='stroop-text' class='stroop-green'>DOG</p>", "response": "g", "stimulus-type": "unrelated", "word": "DOG", "color": "green", "correct_response": "g", "trial_id": "stroop-trial-1-unrelated-16", "trial_type": "html-keyboard-response", "trial_index": 197, "time_elapsed": 490338, "internal_node_id": "0.0-8.0-11.0"}}, {"uniqueid": "w18626897:a18817822", "current_trial": 198, "dateTime": 1664464393405, "trialdata": {"rt": 774, "stimulus": "<p id='stroop-text' class='stroop-red'>SHIP</p>", "response": "r", "stimulus-type": "unrelated", "word": "SHIP", "color": "red", "correct_response": "r", "trial_id": "stroop-trial-1-unrelated-24", "trial_type": "html-keyboard-response", "trial_index": 198, "time_elapsed": 491615, "internal_node_id": "0.0-8.0-12.0"}}, {"uniqueid": "w18626897:a18817822", "current_trial": 199, "dateTime": 1664464394744, "trialdata": {"rt": 836, "stimulus": "<p id='stroop-text' class='stroop-blue'>BLUE</p>", "response": "b", "stimulus-type": "congruent", "word": "blue", "color": "blue", "correct_response": "b", "trial_id": "stroop-trial-1-congruent-19", "trial_type": "html-keyboard-response", "trial_index": 199, "time_elapsed": 492953, "internal_node_id": "0.0-8.0-13.0"}}, {"uniqueid": "w18626897:a18817822", "current_trial": 200, "dateTime": 1664464396129, "trialdata": {"rt": 882, "stimulus": "<p id='stroop-text' class='stroop-green'>GREEN</p>", "response": "g", "stimulus-type": "congruent", "word": "green", "color": "green", "correct_response": "g", "trial_id": "stroop-trial-1-congruent-25", "trial_type": "html-keyboard-response", "trial_index": 200, "time_elapsed": 494338, "internal_node_id": "0.0-8.0-14.0"}}, {"uniqueid": "w18626897:a18817822", "current_trial": 201, "dateTime": 1664464397833, "trialdata": {"rt": 1202, "stimulus": "<p id='stroop-text' class='stroop-yellow'>WINDOW</p>", "response": "y", "stimulus-type": "unrelated", "word": "WINDOW", "color": "yellow", "correct_response": "y", "trial_id": "stroop-trial-1-unrelated-3", "trial_type": "html-keyboard-response", "trial_index": 201, "time_elapsed": 496042, "internal_node_id": "0.0-8.0-15.0"}}, {"uniqueid": "w18626897:a18817822", "current_trial": 202, "dateTime": 1664464399309, "trialdata": {"rt": 974, "stimulus": "<p id='stroop-text' class='stroop-green'>DOG</p>", "response": "g", "stimulus-type": "unrelated", "word": "DOG", "color": "green", "correct_response": "g", "trial_id": "stroop-trial-1-unrelated-26", "trial_type": "html-keyboard-response", "trial_index": 202, "time_elapsed": 497519, "internal_node_id": "0.0-8.0-16.0"}}, {"uniqueid": "w18626897:a18817822", "current_trial": 203, "dateTime": 1664464400643, "trialdata": {"rt": 831, "stimulus": "<p id='stroop-text' class='stroop-red'>BRAIN</p>", "response": "r", "stimulus-type": "unrelated", "word": "BRAIN", "color": "red", "correct_response": "r", "trial_id": "stroop-trial-1-unrelated-25", "trial_type": "html-keyboard-response", "trial_index": 203, "time_elapsed": 498853, "internal_node_id": "0.0-8.0-17.0"}}, {"uniqueid": "w18626897:a18817822", "current_trial": 204, "dateTime": 1664464401940, "trialdata": {"rt": 795, "stimulus": "<p id='stroop-text' class='stroop-red'>CHAIR</p>", "response": "r", "stimulus-type": "unrelated", "word": "CHAIR", "color": "red", "correct_response": "r", "trial_id": "stroop-trial-1-unrelated-21", "trial_type": "html-keyboard-response", "trial_index": 204, "time_elapsed": 500150, "internal_node_id": "0.0-8.0-18.0"}}, {"uniqueid": "w18626897:a18817822", "current_trial": 205, "dateTime": 1664464403171, "trialdata": {"rt": 727, "stimulus": "<p id='stroop-text' class='stroop-green'>RED</p>", "response": "g", "stimulus-type": "incongruent", "word": "red", "color": "green", "correct_response": "g", "trial_id": "stroop-trial-1-incongruent-23", "trial_type": "html-keyboard-response", "trial_index": 205, "time_elapsed": 501381, "internal_node_id": "0.0-8.0-19.0"}}, {"uniqueid": "w18626897:a18817822", "current_trial": 206, "dateTime": 1664464404379, "trialdata": {"rt": 706, "stimulus": "<p id='stroop-text' class='stroop-green'>BRIDGE</p>", "response": "g", "stimulus-type": "unrelated", "word": "BRIDGE", "color": "green", "correct_response": "g", "trial_id": "stroop-trial-1-unrelated-9", "trial_type": "html-keyboard-response", "trial_index": 206, "time_elapsed": 502589, "internal_node_id": "0.0-8.0-20.0"}}, {"uniqueid": "w18626897:a18817822", "current_trial": 207, "dateTime": 1664464405605, "trialdata": {"rt": 724, "stimulus": "<p id='stroop-text' class='stroop-blue'>BOTTLE</p>", "response": "b", "stimulus-type": "unrelated", "word": "BOTTLE", "color": "blue", "correct_response": "b", "trial_id": "stroop-trial-1-unrelated-10", "trial_type": "html-keyboard-response", "trial_index": 207, "time_elapsed": 503815, "internal_node_id": "0.0-8.0-21.0"}}, {"uniqueid": "w18626897:a18817822", "current_trial": 208, "dateTime": 1664464406612, "trialdata": {"rt": 505, "stimulus": "<p id='stroop-text' class='stroop-blue'>BLUE</p>", "response": "b", "stimulus-type": "congruent", "word": "blue", "color": "blue", "correct_response": "b", "trial_id": "stroop-trial-1-congruent-13", "trial_type": "html-keyboard-response", "trial_index": 208, "time_elapsed": 504821, "internal_node_id": "0.0-8.0-22.0"}}, {"uniqueid": "w18626897:a18817822", "current_trial": 209, "dateTime": 1664464408271, "trialdata": {"rt": 1157, "stimulus": "<p id='stroop-text' class='stroop-green'>YELLOW</p>", "response": "g", "stimulus-type": "incongruent", "word": "yellow", "color": "green", "correct_response": "g", "trial_id": "stroop-trial-1-incongruent-24", "trial_type": "html-keyboard-response", "trial_index": 209, "time_elapsed": 506481, "internal_node_id": "0.0-8.0-23.0"}}, {"uniqueid": "w18626897:a18817822", "current_trial": 210, "dateTime": 1664464409571, "trialdata": {"rt": 798, "stimulus": "<p id='stroop-text' class='stroop-red'>RED</p>", "response": "r", "stimulus-type": "congruent", "word": "red", "color": "red", "correct_response": "r", "trial_id": "stroop-trial-1-congruent-4", "trial_type": "html-keyboard-response", "trial_index": 210, "time_elapsed": 507781, "internal_node_id": "0.0-8.0-24.0"}}, {"uniqueid": "w18626897:a18817822", "current_trial": 211, "dateTime": 1664464410727, "trialdata": {"rt": 654, "stimulus": "<p id='stroop-text' class='stroop-blue'>BLUE</p>", "response": "b", "stimulus-type": "congruent", "word": "blue", "color": "blue", "correct_response": "b", "trial_id": "stroop-trial-1-congruent-10", "trial_type": "html-keyboard-response", "trial_index": 211, "time_elapsed": 508937, "internal_node_id": "0.0-8.0-25.0"}}, {"uniqueid": "w18626897:a18817822", "current_trial": 212, "dateTime": 1664464412878, "trialdata": {"rt": 1648, "stimulus": "<p id='stroop-text' class='stroop-blue'>YELLOW</p>", "response": "b", "stimulus-type": "incongruent", "word": "yellow", "color": "blue", "correct_response": "b", "trial_id": "stroop-trial-1-incongruent-1", "trial_type": "html-keyboard-response", "trial_index": 212, "time_elapsed": 511088, "internal_node_id": "0.0-8.0-26.0"}}, {"uniqueid": "w18626897:a18817822", "current_trial": 213, "dateTime": 1664464413966, "trialdata": {"rt": 585, "stimulus": "<p id='stroop-text' class='stroop-blue'>GREEN</p>", "response": "b", "stimulus-type": "incongruent", "word": "green", "color": "blue", "correct_response": "b", "trial_id": "stroop-trial-1-incongruent-8", "trial_type": "html-keyboard-response", "trial_index": 213, "time_elapsed": 512176, "internal_node_id": "0.0-8.0-27.0"}}, {"uniqueid": "w18626897:a18817822", "current_trial": 214, "dateTime": 1664464415008, "trialdata": {"rt": 533, "stimulus": "<p id='stroop-text' class='stroop-blue'>YELLOW</p>", "response": "b", "stimulus-type": "incongruent", "word": "yellow", "color": "blue", "correct_response": "b", "trial_id": "stroop-trial-1-incongruent-10", "trial_type": "html-keyboard-response", "trial_index": 214, "time_elapsed": 513218, "internal_node_id": "0.0-8.0-28.0"}}, {"uniqueid": "w18626897:a18817822", "current_trial": 215, "dateTime": 1664464416457, "trialdata": {"rt": 947, "stimulus": "<p id='stroop-text' class='stroop-red'>YELLOW</p>", "response": "r", "stimulus-type": "incongruent", "word": "yellow", "color": "red", "correct_response": "r", "trial_id": "stroop-trial-1-incongruent-18", "trial_type": "html-keyboard-response", "trial_index": 215, "time_elapsed": 514667, "internal_node_id": "0.0-8.0-29.0"}}, {"uniqueid": "w18626897:a18817822", "current_trial": 216, "dateTime": 1664464417749, "trialdata": {"rt": 790, "stimulus": "<p id='stroop-text' class='stroop-blue'>FORK</p>", "response": "b", "stimulus-type": "unrelated", "word": "FORK", "color": "blue", "correct_response": "b", "trial_id": "stroop-trial-1-unrelated-22", "trial_type": "html-keyboard-response", "trial_index": 216, "time_elapsed": 515959, "internal_node_id": "0.0-8.0-30.0"}}, {"uniqueid": "w18626897:a18817822", "current_trial": 217, "dateTime": 1664464419002, "trialdata": {"rt": 750, "stimulus": "<p id='stroop-text' class='stroop-red'>RED</p>", "response": "r", "stimulus-type": "congruent", "word": "red", "color": "red", "correct_response": "r", "trial_id": "stroop-trial-1-congruent-8", "trial_type": "html-keyboard-response", "trial_index": 217, "time_elapsed": 517212, "internal_node_id": "0.0-8.0-31.0"}}, {"uniqueid": "w18626897:a18817822", "current_trial": 218, "dateTime": 1664464420142, "trialdata": {"rt": 639, "stimulus": "<p id='stroop-text' class='stroop-red'>RED</p>", "response": "r", "stimulus-type": "congruent", "word": "red", "color": "red", "correct_response": "r", "trial_id": "stroop-trial-1-congruent-17", "trial_type": "html-keyboard-response", "trial_index": 218, "time_elapsed": 518352, "internal_node_id": "0.0-8.0-32.0"}}, {"uniqueid": "w18626897:a18817822", "current_trial": 219, "dateTime": 1664464421442, "trialdata": {"rt": 797, "stimulus": "<p id='stroop-text' class='stroop-green'>RED</p>", "response": "g", "stimulus-type": "incongruent", "word": "red", "color": "green", "correct_response": "g", "trial_id": "stroop-trial-1-incongruent-15", "trial_type": "html-keyboard-response", "trial_index": 219, "time_elapsed": 519652, "internal_node_id": "0.0-8.0-33.0"}}, {"uniqueid": "w18626897:a18817822", "current_trial": 220, "dateTime": 1664464422597, "trialdata": {"rt": 652, "stimulus": "<p id='stroop-text' class='stroop-green'>WINDOW</p>", "response": "g", "stimulus-type": "unrelated", "word": "WINDOW", "color": "green", "correct_response": "g", "trial_id": "stroop-trial-1-unrelated-11", "trial_type": "html-keyboard-response", "trial_index": 220, "time_elapsed": 520807, "internal_node_id": "0.0-8.0-34.0"}}, {"uniqueid": "w18626897:a18817822", "current_trial": 221, "dateTime": 1664464423976, "trialdata": {"rt": 877, "stimulus": "<p id='stroop-text' class='stroop-red'>BRAIN</p>", "response": "r", "stimulus-type": "unrelated", "word": "BRAIN", "color": "red", "correct_response": "r", "trial_id": "stroop-trial-1-unrelated-6", "trial_type": "html-keyboard-response", "trial_index": 221, "time_elapsed": 522186, "internal_node_id": "0.0-8.0-35.0"}}, {"uniqueid": "w18626897:a18817822", "current_trial": 222, "dateTime": 1664464425460, "trialdata": {"rt": 981, "stimulus": "<p id='stroop-text' class='stroop-blue'>GREEN</p>", "response": "b", "stimulus-type": "incongruent", "word": "green", "color": "blue", "correct_response": "b", "trial_id": "stroop-trial-1-incongruent-9", "trial_type": "html-keyboard-respon