{"condition": 0, "counterbalance": 0, "assignmentId": "a76175203", "workerId": "w88426097", "hitId": "h27560330", "currenttrial": 834, "bonus": 0, "data": [{"uniqueid": "w88426097:a76175203", "current_trial": 0, "dateTime": 1664555040690, "trialdata": {"success": true, "trial_type": "fullscreen", "trial_index": 0, "time_elapsed": 14330, "internal_node_id": "0.0-0.0"}}, {"uniqueid": "w88426097:a76175203", "current_trial": 1, "dateTime": 1664555075038, "trialdata": {"view_history": [{"page_index": 0, "viewing_time": 34345}], "rt": 34346, "trial_id": "exp_instructions_distractor", "trial_type": "instructions", "trial_index": 1, "time_elapsed": 48679, "internal_node_id": "0.0-1.0"}}, {"uniqueid": "w88426097:a76175203", "current_trial": 2, "dateTime": 1664555113467, "trialdata": {"view_history": [{"page_index": 0, "viewing_time": 38427}], "rt": 38427, "trial_id": "color_game_instructions", "trial_type": "instructions", "trial_index": 2, "time_elapsed": 87108, "internal_node_id": "0.0-2.0"}}, {"uniqueid": "w88426097:a76175203", "current_trial": 3, "dateTime": 1664555119283, "trialdata": {"rt": 5815, "stimulus": "<h1> Get ready to start the game! </h1>\n\nThank you for reading the instructions. Get ready start with the first of 5 block(s) of this game.\n<br><br>\nIn this first block, you will complete 90 rounds of this game before moving on.\n<br><br>\nRemember, the better you perform, the bigger your bonus will be!\n<br><br>\n<div style='text-align: center;'>Press <code>space</code> to begin.</div>", "response": " ", "trial_id": "stroop_1_ready_1", "trial_type": "html-keyboard-response", "trial_index": 3, "time_elapsed": 92924, "internal_node_id": "0.0-3.0"}}, {"uniqueid": "w88426097:a76175203", "current_trial": 4, "dateTime": 1664555121359, "trialdata": {"rt": 2072, "stimulus": "<p id='stroop-text' class='stroop-red'>YELLOW</p>", "response": "r", "stimulus-type": "incongruent", "word": "yellow", "color": "red", "correct_response": "r", "trial_id": "stroop-trial-1-incongruent-28", "trial_type": "html-keyboard-response", "trial_index": 4, "time_elapsed": 94999, "internal_node_id": "0.0-4.0-0.0"}}, {"uniqueid": "w88426097:a76175203", "current_trial": 5, "dateTime": 1664555123489, "trialdata": {"rt": 1629, "stimulus": "<p id='stroop-text' class='stroop-yellow'>RED</p>", "response": "y", "stimulus-type": "incongruent", "word": "red", "color": "yellow", "correct_response": "y", "trial_id": "stroop-trial-1-incongruent-1", "trial_type": "html-keyboard-response", "trial_index": 5, "time_elapsed": 97130, "internal_node_id": "0.0-4.0-1.0"}}, {"uniqueid": "w88426097:a76175203", "current_trial": 6, "dateTime": 1664555125155, "trialdata": {"rt": 1162, "stimulus": "<p id='stroop-text' class='stroop-yellow'>BRIDGE</p>", "response": "y", "stimulus-type": "unrelated", "word": "BRIDGE", "color": "yellow", "correct_response": "y", "trial_id": "stroop-trial-1-unrelated-26", "trial_type": "html-keyboard-response", "trial_index": 6, "time_elapsed": 98795, "internal_node_id": "0.0-4.0-2.0"}}, {"uniqueid": "w88426097:a76175203", "current_trial": 7, "dateTime": 1664555126753, "trialdata": {"rt": 1096, "stimulus": "<p id='stroop-text' class='stroop-blue'>BLUE</p>", "response": "b", "stimulus-type": "congruent", "word": "blue", "color": "blue", "correct_response": "b", "trial_id": "stroop-trial-1-congruent-15", "trial_type": "html-keyboard-response", "trial_index": 7, "time_elapsed": 100393, "internal_node_id": "0.0-4.0-3.0"}}, {"uniqueid": "w88426097:a76175203", "current_trial": 8, "dateTime": 1664555128081, "trialdata": {"rt": 826, "stimulus": "<p id='stroop-text' class='stroop-blue'>RED</p>", "response": "b", "stimulus-type": "incongruent", "word": "red", "color": "blue", "correct_response": "b", "trial_id": "stroop-trial-1-incongruent-22", "trial_type": "html-keyboard-response", "trial_index": 8, "time_elapsed": 101722, "internal_node_id": "0.0-4.0-4.0"}}, {"uniqueid": "w88426097:a76175203", "current_trial": 9, "dateTime": 1664555129139, "trialdata": {"rt": 553, "stimulus": "<p id='stroop-text' class='stroop-blue'>BOTTLE</p>", "response": "b", "stimulus-type": "unrelated", "word": "BOTTLE", "color": "blue", "correct_response": "b", "trial_id": "stroop-trial-1-unrelated-29", "trial_type": "html-keyboard-response", "trial_index": 9, "time_elapsed": 102779, "internal_node_id": "0.0-4.0-5.0"}}, {"uniqueid": "w88426097:a76175203", "current_trial": 10, "dateTime": 1664555131082, "trialdata": {"rt": 1442, "stimulus": "<p id='stroop-text' class='stroop-red'>YELLOW</p>", "response": "r", "stimulus-type": "incongruent", "word": "yellow", "color": "red", "correct_response": "r", "trial_id": "stroop-trial-1-incongruent-13", "trial_type": "html-keyboard-response", "trial_index": 10, "time_elapsed": 104723, "internal_node_id": "0.0-4.0-6.0"}}, {"uniqueid": "w88426097:a76175203", "current_trial": 11, "dateTime": 1664555132539, "trialdata": {"rt": 954, "stimulus": "<p id='stroop-text' class='stroop-yellow'>RED</p>", "response": "y", "stimulus-type": "incongruent", "word": "red", "color": "yellow", "correct_response": "y", "trial_id": "stroop-trial-1-incongruent-18", "trial_type": "html-keyboard-response", "trial_index": 11, "time_elapsed": 106180, "internal_node_id": "0.0-4.0-7.0"}}, {"uniqueid": "w88426097:a76175203", "current_trial": 12, "dateTime": 1664555133916, "trialdata": {"rt": 875, "stimulus": "<p id='stroop-text' class='stroop-green'>BRAIN</p>", "response": "g", "stimulus-type": "unrelated", "word": "BRAIN", "color": "green", "correct_response": "g", "trial_id": "stroop-trial-1-unrelated-17", "trial_type": "html-keyboard-response", "trial_index": 12, "time_elapsed": 107556, "internal_node_id": "0.0-4.0-8.0"}}, {"uniqueid": "w88426097:a76175203", "current_trial": 13, "dateTime": 1664555135419, "trialdata": {"rt": 1001, "stimulus": "<p id='stroop-text' class='stroop-red'>YELLOW</p>", "response": "r", "stimulus-type": "incongruent", "word": "yellow", "color": "red", "correct_response": "r", "trial_id": "stroop-trial-1-incongruent-12", "trial_type": "html-keyboard-response", "trial_index": 13, "time_elapsed": 109060, "internal_node_id": "0.0-4.0-9.0"}}, {"uniqueid": "w88426097:a76175203", "current_trial": 14, "dateTime": 1664555136519, "trialdata": {"rt": 597, "stimulus": "<p id='stroop-text' class='stroop-red'>GREEN</p>", "response": "r", "stimulus-type": "incongruent", "word": "green", "color": "red", "correct_response": "r", "trial_id": "stroop-trial-1-incongruent-27", "trial_type": "html-keyboard-response", "trial_index": 14, "time_elapsed": 110160, "internal_node_id": "0.0-4.0-10.0"}}, {"uniqueid": "w88426097:a76175203", "current_trial": 15, "dateTime": 1664555139323, "trialdata": {"rt": 2303, "stimulus": "<p id='stroop-text' class='stroop-green'>BLUE</p>", "response": "g", "stimulus-type": "incongruent", "word": "blue", "color": "green", "correct_response": "g", "trial_id": "stroop-trial-1-incongruent-2", "trial_type": "html-keyboard-response", "trial_index": 15, "time_elapsed": 112964, "internal_node_id": "0.0-4.0-11.0"}}, {"uniqueid": "w88426097:a76175203", "current_trial": 16, "dateTime": 1664555141019, "trialdata": {"rt": 1194, "stimulus": "<p id='stroop-text' class='stroop-blue'>BLUE</p>", "response": "b", "stimulus-type": "congruent", "word": "blue", "color": "blue", "correct_response": "b", "trial_id": "stroop-trial-1-congruent-6", "trial_type": "html-keyboard-response", "trial_index": 16, "time_elapsed": 114660, "internal_node_id": "0.0-4.0-12.0"}}, {"uniqueid": "w88426097:a76175203", "current_trial": 17, "dateTime": 1664555142242, "trialdata": {"rt": 721, "stimulus": "<p id='stroop-text' class='stroop-red'>RED</p>", "response": "r", "stimulus-type": "congruent", "word": "red", "color": "red", "correct_response": "r", "trial_id": "stroop-trial-1-congruent-8", "trial_type": "html-keyboard-response", "trial_index": 17, "time_elapsed": 115882, "internal_node_id": "0.0-4.0-13.0"}}, {"uniqueid": "w88426097:a76175203", "current_trial": 18, "dateTime": 1664555143771, "trialdata": {"rt": 1027, "stimulus": "<p id='stroop-text' class='stroop-green'>FORK</p>", "response": "g", "stimulus-type": "unrelated", "word": "FORK", "color": "green", "correct_response": "g", "trial_id": "stroop-trial-1-unrelated-28", "trial_type": "html-keyboard-response", "trial_index": 18, "time_elapsed": 117412, "internal_node_id": "0.0-4.0-14.0"}}, {"uniqueid": "w88426097:a76175203", "current_trial": 19, "dateTime": 1664555145270, "trialdata": {"rt": 997, "stimulus": "<p id='stroop-text' class='stroop-red'>BOAT</p>", "response": "r", "stimulus-type": "unrelated", "word": "BOAT", "color": "red", "correct_response": "r", "trial_id": "stroop-trial-1-unrelated-7", "trial_type": "html-keyboard-response", "trial_index": 19, "time_elapsed": 118911, "internal_node_id": "0.0-4.0-15.0"}}, {"uniqueid": "w88426097:a76175203", "current_trial": 20, "dateTime": 1664555146374, "trialdata": {"rt": 603, "stimulus": "<p id='stroop-text' class='stroop-red'>BRAIN</p>", "response": "r", "stimulus-type": "unrelated", "word": "BRAIN", "color": "red", "correct_response": "r", "trial_id": "stroop-trial-1-unrelated-3", "trial_type": "html-keyboard-response", "trial_index": 20, "time_elapsed": 120015, "internal_node_id": "0.0-4.0-16.0"}}, {"uniqueid": "w88426097:a76175203", "current_trial": 21, "dateTime": 1664555147314, "trialdata": {"rt": 438, "stimulus": "<p id='stroop-text' class='stroop-yellow'>GREEN</p>", "response": "y", "stimulus-type": "incongruent", "word": "green", "color": "yellow", "correct_response": "y", "trial_id": "stroop-trial-1-incongruent-15", "trial_type": "html-keyboard-response", "trial_index": 21, "time_elapsed": 120955, "internal_node_id": "0.0-4.0-17.0"}}, {"uniqueid": "w88426097:a76175203", "current_trial": 22, "dateTime": 1664555148322, "trialdata": {"rt": 504, "stimulus": "<p id='stroop-text' class='stroop-red'>STONE</p>", "response": "r", "stimulus-type": "unrelated", "word": "STONE", "color": "red", "correct_response": "r", "trial_id": "stroop-trial-1-unrelated-2", "trial_type": "html-keyboard-response", "trial_index": 22, "time_elapsed": 121962, "internal_node_id": "0.0-4.0-18.0"}}, {"uniqueid": "w88426097:a76175203", "current_trial": 23, "dateTime": 1664555150541, "trialdata": {"rt": 1717, "stimulus": "<p id='stroop-text' class='stroop-green'>BLUE</p>", "response": "g", "stimulus-type": "incongruent", "word": "blue", "color": "green", "correct_response": "g", "trial_id": "stroop-trial-1-incongruent-11", "trial_type": "html-keyboard-response", "trial_index": 23, "time_elapsed": 124182, "internal_node_id": "0.0-4.0-19.0"}}, {"uniqueid": "w88426097:a76175203", "current_trial": 24, "dateTime": 1664555151651, "trialdata": {"rt": 607, "stimulus": "<p id='stroop-text' class='stroop-green'>GREEN</p>", "response": "g", "stimulus-type": "congruent", "word": "green", "color": "green", "correct_response": "g", "trial_id": "stroop-trial-1-congruent-26", "trial_type": "html-keyboard-response", "trial_index": 24, "time_elapsed": 125292, "internal_node_id": "0.0-4.0-20.0"}}, {"uniqueid": "w88426097:a76175203", "current_trial": 25, "dateTime": 1664555152690, "trialdata": {"rt": 537, "stimulus": "<p id='stroop-text' class='stroop-green'>CHAIR</p>", "response": "g", "stimulus-type": "unrelated", "word": "CHAIR", "color": "green", "correct_response": "g", "trial_id": "stroop-trial-1-unrelated-4", "trial_type": "html-keyboard-response", "trial_index": 25, "time_elapsed": 126331, "internal_node_id": "0.0-4.0-21.0"}}, {"uniqueid": "w88426097:a76175203", "current_trial": 26, "dateTime": 1664555153950, "trialdata": {"rt": 757, "stimulus": "<p id='stroop-text' class='stroop-yellow'>YELLOW</p>", "response": "y", "stimulus-type": "congruent", "word": "yellow", "color": "yellow", "correct_response": "y", "trial_id": "stroop-trial-1-congruent-30", "trial_type": "html-keyboard-response", "trial_index": 26, "time_elapsed": 127591, "internal_node_id": "0.0-4.0-22.0"}}, {"uniqueid": "w88426097:a76175203", "current_trial": 27, "dateTime": 1664555155024, "trialdata": {"rt": 572, "stimulus": "<p id='stroop-text' class='stroop-red'>RED</p>", "response": "r", "stimulus-type": "congruent", "word": "red", "color": "red", "correct_response": "r", "trial_id": "stroop-trial-1-congruent-22", "trial_type": "html-keyboard-response", "trial_index": 27, "time_elapsed": 128665, "internal_node_id": "0.0-4.0-23.0"}}, {"uniqueid": "w88426097:a76175203", "current_trial": 28, "dateTime": 1664555156465, "trialdata": {"rt": 938, "stimulus": "<p id='stroop-text' class='stroop-blue'>MONKEY</p>", "response": "b", "stimulus-type": "unrelated", "word": "MONKEY", "color": "blue", "correct_response": "b", "trial_id": "stroop-trial-1-unrelated-13", "trial_type": "html-keyboard-response", "trial_index": 28, "time_elapsed": 130106, "internal_node_id": "0.0-4.0-24.0"}}, {"uniqueid": "w88426097:a76175203", "current_trial": 29, "dateTime": 1664555157528, "trialdata": {"rt": 556, "stimulus": "<p id='stroop-text' class='stroop-blue'>RED</p>", "response": "b", "stimulus-type": "incongruent", "word": "red", "color": "blue", "correct_response": "b", "trial_id": "stroop-trial-1-incongruent-5", "trial_type": "html-keyboard-response", "trial_index": 29, "time_elapsed": 131169, "internal_node_id": "0.0-4.0-25.0"}}, {"uniqueid": "w88426097:a76175203", "current_trial": 30, "dateTime": 1664555158632, "trialdata": {"rt": 602, "stimulus": "<p id='stroop-text' class='stroop-yellow'>WINDOW</p>", "response": "y", "stimulus-type": "unrelated", "word": "WINDOW", "color": "yellow", "correct_response": "y", "trial_id": "stroop-trial-1-unrelated-9", "trial_type": "html-keyboard-response", "trial_index": 30, "time_elapsed": 132272, "internal_node_id": "0.0-4.0-26.0"}}, {"uniqueid": "w88426097:a76175203", "current_trial": 31, "dateTime": 1664555159706, "trialdata": {"rt": 572, "stimulus": "<p id='stroop-text' class='stroop-yellow'>YELLOW</p>", "response": "y", "stimulus-type": "congruent", "word": "yellow", "color": "yellow", "correct_response": "y", "trial_id": "stroop-trial-1-congruent-29", "trial_type": "html-keyboard-response", "trial_index": 31, "time_elapsed": 133346, "internal_node_id": "0.0-4.0-27.0"}}, {"uniqueid": "w88426097:a76175203", "current_trial": 32, "dateTime": 1664555161085, "trialdata": {"rt": 877, "stimulus": "<p id='stroop-text' class='stroop-green'>BRAIN</p>", "response": "g", "stimulus-type": "unrelated", "word": "BRAIN", "color": "green", "correct_response": "g", "trial_id": "stroop-trial-1-unrelated-27", "trial_type": "html-keyboard-response", "trial_index": 32, "time_elapsed": 134726, "internal_node_id": "0.0-4.0-28.0"}}, {"uniqueid": "w88426097:a76175203", "current_trial": 33, "dateTime": 1664555162242, "trialdata": {"rt": 655, "stimulus": "<p id='stroop-text' class='stroop-blue'>GREEN</p>", "response": "b", "stimulus-type": "incongruent", "word": "green", "color": "blue", "correct_response": "b", "trial_id": "stroop-trial-1-incongruent-21", "trial_type": "html-keyboard-response", "trial_index": 33, "time_elapsed": 135883, "internal_node_id": "0.0-4.0-29.0"}}, {"uniqueid": "w88426097:a76175203", "current_trial": 34, "dateTime": 1664555163482, "trialdata": {"rt": 738, "stimulus": "<p id='stroop-text' class='stroop-yellow'>BOAT</p>", "response": "y", "stimulus-type": "unrelated", "word": "BOAT", "color": "yellow", "correct_response": "y", "trial_id": "stroop-trial-1-unrelated-14", "trial_type": "html-keyboard-response", "trial_index": 34, "time_elapsed": 137123, "internal_node_id": "0.0-4.0-30.0"}}, {"uniqueid": "w88426097:a76175203", "current_trial": 35, "dateTime": 1664555164526, "trialdata": {"rt": 542, "stimulus": "<p id='stroop-text' class='stroop-blue'>BLUE</p>", "response": "b", "stimulus-type": "congruent", "word": "blue", "color": "blue", "correct_response": "b", "trial_id": "stroop-trial-1-congruent-5", "trial_type": "html-keyboard-response", "trial_index": 35, "time_elapsed": 138167, "internal_node_id": "0.0-4.0-31.0"}}, {"uniqueid": "w88426097:a76175203", "current_trial": 36, "dateTime": 1664555165528, "trialdata": {"rt": 500, "stimulus": "<p id='stroop-text' class='stroop-blue'>BRIDGE</p>", "response": "b", "stimulus-type": "unrelated", "word": "BRIDGE", "color": "blue", "correct_response": "b", "trial_id": "stroop-trial-1-unrelated-15", "trial_type": "html-keyboard-response", "trial_index": 36, "time_elapsed": 139169, "internal_node_id": "0.0-4.0-32.0"}}, {"uniqueid": "w88426097:a76175203", "current_trial": 37, "dateTime": 1664555167161, "trialdata": {"rt": 1129, "stimulus": "<p id='stroop-text' class='stroop-green'>GREEN</p>", "response": "g", "stimulus-type": "congruent", "word": "green", "color": "green", "correct_response": "g", "trial_id": "stroop-trial-1-congruent-10", "trial_type": "html-keyboard-response", "trial_index": 37, "time_elapsed": 140802, "internal_node_id": "0.0-4.0-33.0"}}, {"uniqueid": "w88426097:a76175203", "current_trial": 38, "dateTime": 1664555168608, "trialdata": {"rt": 935, "stimulus": "<p id='stroop-text' class='stroop-yellow'>GREEN</p>", "response": "y", "stimulus-type": "incongruent", "word": "green", "color": "yellow", "correct_response": "y", "trial_id": "stroop-trial-1-incongruent-29", "trial_type": "html-keyboard-response", "trial_index": 38, "time_elapsed": 142248, "internal_node_id": "0.0-4.0-34.0"}}, {"uniqueid": "w88426097:a76175203", "current_trial": 39, "dateTime": 1664555169566, "trialdata": {"rt": 455, "stimulus": "<p id='stroop-text' class='stroop-red'>BOAT</p>", "response": "r", "stimulus-type": "unrelated", "word": "BOAT", "color": "red", "correct_response": "r", "trial_id": "stroop-trial-1-unrelated-23", "trial_type": "html-keyboard-response", "trial_index": 39, "time_elapsed": 143206, "internal_node_id": "0.0-4.0-35.0"}}, {"uniqueid": "w88426097:a76175203", "current_trial": 40, "dateTime": 1664555170513, "trialdata": {"rt": 444, "stimulus": "<p id='stroop-text' class='stroop-red'>GREEN</p>", "response": "r", "stimulus-type": "incongruent", "word": "green", "color": "red", "correct_response": "r", "trial_id": "stroop-trial-1-incongruent-24", "trial_type": "html-keyboard-response", "trial_index": 40, "time_elapsed": 144153, "internal_node_id": "0.0-4.0-36.0"}}, {"uniqueid": "w88426097:a76175203", "current_trial": 41, "dateTime": 1664555171538, "trialdata": {"rt": 524, "stimulus": "<p id='stroop-text' class='stroop-yellow'>YELLOW</p>", "response": "y", "stimulus-type": "congruent", "word": "yellow", "color": "yellow", "correct_response": "y", "trial_id": "stroop-trial-1-congruent-14", "trial_type": "html-keyboard-response", "trial_index": 41, "time_elapsed": 145179, "internal_node_id": "0.0-4.0-37.0"}}, {"uniqueid": "w88426097:a76175203", "current_trial": 42, "dateTime": 1664555172694, "trialdata": {"rt": 654, "stimulus": "<p id='stroop-text' class='stroop-red'>RED</p>", "response": "r", "stimulus-type": "congruent", "word": "red", "color": "red", "correct_response": "r", "trial_id": "stroop-trial-1-congruent-12", "trial_type": "html-keyboard-response", "trial_index": 42, "time_elapsed": 146334, "internal_node_id": "0.0-4.0-38.0"}}, {"uniqueid": "w88426097:a76175203", "current_trial": 43, "dateTime": 1664555174168, "trialdata": {"rt": 972, "stimulus": "<p id='stroop-text' class='stroop-red'>YELLOW</p>", "response": "r", "stimulus-type": "incongruent", "word": "yellow", "color": "red", "correct_response": "r", "trial_id": "stroop-trial-1-incongruent-20", "trial_type": "html-keyboard-response", "trial_index": 43, "time_elapsed": 147809, "internal_node_id": "0.0-4.0-39.0"}}, {"uniqueid": "w88426097:a76175203", "current_trial": 44, "dateTime": 1664555175137, "trialdata": {"rt": 467, "stimulus": "<p id='stroop-text' class='stroop-red'>YELLOW</p>", "response": "r", "stimulus-type": "incongruent", "word": "yellow", "color": "red", "correct_response": "r", "trial_id": "stroop-trial-1-incongruent-9", "trial_type": "html-keyboard-response", "trial_index": 44, "time_elapsed": 148777, "internal_node_id": "0.0-4.0-40.0"}}, {"uniqueid": "w88426097:a76175203", "current_trial": 45, "dateTime": 1664555176564, "trialdata": {"rt": 926, "stimulus": "<p id='stroop-text' class='stroop-blue'>BLUE</p>", "response": "b", "stimulus-type": "congruent", "word": "blue", "color": "blue", "correct_response": "b", "trial_id": "stroop-trial-1-congruent-9", "trial_type": "html-keyboard-response", "trial_index": 45, "time_elapsed": 150205, "internal_node_id": "0.0-4.0-41.0"}}, {"uniqueid": "w88426097:a76175203", "current_trial": 46, "dateTime": 1664555177684, "trialdata": {"rt": 616, "stimulus": "<p id='stroop-text' class='stroop-yellow'>YELLOW</p>", "response": "y", "stimulus-type": "congruent", "word": "yellow", "color": "yellow", "correct_response": "y", "trial_id": "stroop-trial-1-congruent-7", "trial_type": "html-keyboard-response", "trial_index": 46, "time_elapsed": 151325, "internal_node_id": "0.0-4.0-42.0"}}, {"uniqueid": "w88426097:a76175203", "current_trial": 47, "dateTime": 1664555178806, "trialdata": {"rt": 620, "stimulus": "<p id='stroop-text' class='stroop-yellow'>BRAIN</p>", "response": "y", "stimulus-type": "unrelated", "word": "BRAIN", "color": "yellow", "correct_response": "y", "trial_id": "stroop-trial-1-unrelated-21", "trial_type": "html-keyboard-response", "trial_index": 47, "time_elapsed": 152446, "internal_node_id": "0.0-4.0-43.0"}}, {"uniqueid": "w88426097:a76175203", "current_trial": 48, "dateTime": 1664555180005, "trialdata": {"rt": 697, "stimulus": "<p id='stroop-text' class='stroop-red'>FORK</p>", "response": "r", "stimulus-type": "unrelated", "word": "FORK", "color": "red", "correct_response": "r", "trial_id": "stroop-trial-1-unrelated-1", "trial_type": "html-keyboard-response", "trial_index": 48, "time_elapsed": 153646, "internal_node_id": "0.0-4.0-44.0"}}, {"uniqueid": "w88426097:a76175203", "current_trial": 49, "dateTime": 1664555181124, "trialdata": {"rt": 617, "stimulus": "<p id='stroop-text' class='stroop-yellow'>MONKEY</p>", "response": "y", "stimulus-type": "unrelated", "word": "MONKEY", "color": "yellow", "correct_response": "y", "trial_id": "stroop-trial-1-unrelated-10", "trial_type": "html-keyboard-response", "trial_index": 49, "time_elapsed": 154765, "internal_node_id": "0.0-4.0-45.0"}}, {"uniqueid": "w88426097:a76175203", "current_trial": 50, "dateTime": 1664555183766, "trialdata": {"rt": 2140, "stimulus": "<p id='stroop-text' class='stroop-red'>DOG</p>", "response": "r", "stimulus-type": "unrelated", "word": "DOG", "color": "red", "correct_response": "r", "trial_id": "stroop-trial-1-unrelated-18", "trial_type": "html-keyboard-response", "trial_index": 50, "time_elapsed": 157407, "internal_node_id": "0.0-4.0-46.0"}}, {"uniqueid": "w88426097:a76175203", "current_trial": 51, "dateTime": 1664555184844, "trialdata": {"rt": 576, "stimulus": "<p id='stroop-text' class='stroop-blue'>BRIDGE</p>", "response": "b", "stimulus-type": "unrelated", "word": "BRIDGE", "color": "blue", "correct_response": "b", "trial_id": "stroop-trial-1-unrelated-5", "trial_type": "html-keyboard-response", "trial_index": 51, "time_elapsed": 158485, "internal_node_id": "0.0-4.0-47.0"}}, {"uniqueid": "w88426097:a76175203", "current_trial": 52, "dateTime": 1664555185842, "trialdata": {"rt": 496, "stimulus": "<p id='stroop-text' class='stroop-blue'>BLUE</p>", "response": "b", "stimulus-type": "congruent", "word": "blue", "color": "blue", "correct_response": "b", "trial_id": "stroop-trial-1-congruent-13", "trial_type": "html-keyboard-response", "trial_index": 52, "time_elapsed": 159483, "internal_node_id": "0.0-4.0-48.0"}}, {"uniqueid": "w88426097:a76175203", "current_trial": 53, "dateTime": 1664555186915, "trialdata": {"rt": 570, "stimulus": "<p id='stroop-text' class='stroop-yellow'>YELLOW</p>", "response": "y", "stimulus-type": "congruent", "word": "yellow", "color": "yellow", "correct_response": "y", "trial_id": "stroop-trial-1-congruent-25", "trial_type": "html-keyboard-response", "trial_index": 53, "time_elapsed": 160556, "internal_node_id": "0.0-4.0-49.0"}}, {"uniqueid": "w88426097:a76175203", "current_trial": 54, "dateTime": 1664555187949, "trialdata": {"rt": 532, "stimulus": "<p id='stroop-text' class='stroop-green'>DOG</p>", "response": "g", "stimulus-type": "unrelated", "word": "DOG", "color": "green", "correct_response": "g", "trial_id": "stroop-trial-1-unrelated-8", "trial_type": "html-keyboard-response", "trial_index": 54, "time_elapsed": 161589, "internal_node_id": "0.0-4.0-50.0"}}, {"uniqueid": "w88426097:a76175203", "current_trial": 55, "dateTime": 1664555189008, "trialdata": {"rt": 557, "stimulus": "<p id='stroop-text' class='stroop-blue'>BLUE</p>", "response": "b", "stimulus-type": "congruent", "word": "blue", "color": "blue", "correct_response": "b", "trial_id": "stroop-trial-1-congruent-2", "trial_type": "html-keyboard-response", "trial_index": 55, "time_elapsed": 162649, "internal_node_id": "0.0-4.0-51.0"}}, {"uniqueid": "w88426097:a76175203", "current_trial": 56, "dateTime": 1664555190011, "trialdata": {"rt": 492, "stimulus": "<p id='stroop-text' class='stroop-yellow'>YELLOW</p>", "response": "y", "stimulus-type": "congruent", "word": "yellow", "color": "yellow", "correct_response": "y", "trial_id": "stroop-trial-1-congruent-27", "trial_type": "html-keyboard-response", "trial_index": 56, "time_elapsed": 163651, "internal_node_id": "0.0-4.0-52.0"}}, {"uniqueid": "w88426097:a76175203", "current_trial": 57, "dateTime": 1664555191189, "trialdata": {"rt": 676, "stimulus": "<p id='stroop-text' class='stroop-green'>GREEN</p>", "response": "g", "stimulus-type": "congruent", "word": "green", "color": "green", "correct_response": "g", "trial_id": "stroop-trial-1-congruent-23", "trial_type": "html-keyboard-response", "trial_index": 57, "time_elapsed": 164830, "internal_node_id": "0.0-4.0-53.0"}}, {"uniqueid": "w88426097:a76175203", "current_trial": 58, "dateTime": 1664555192239, "trialdata": {"rt": 548, "stimulus": "<p id='stroop-text' class='stroop-yellow'>YELLOW</p>", "response": "y", "stimulus-type": "congruent", "word": "yellow", "color": "yellow", "correct_response": "y", "trial_id": "stroop-trial-1-congruent-28", "trial_type": "html-keyboard-response", "trial_index": 58, "time_elapsed": 165879, "internal_node_id": "0.0-4.0-54.0"}}, {"uniqueid": "w88426097:a76175203", "current_trial": 59, "dateTime": 1664555193352, "trialdata": {"rt": 611, "stimulus": "<p id='stroop-text' class='stroop-green'>GREEN</p>", "response": "g", "stimulus-type": "congruent", "word": "green", "color": "green", "correct_response": "g", "trial_id": "stroop-trial-1-congruent-24", "trial_type": "html-keyboard-response", "trial_index": 59, "time_elapsed": 166993, "internal_node_id": "0.0-4.0-55.0"}}, {"uniqueid": "w88426097:a76175203", "current_trial": 60, "dateTime": 1664555194519, "trialdata": {"rt": 656, "stimulus": "<p id='stroop-text' class='stroop-blue'>MONKEY</p>", "response": "b", "stimulus-type": "unrelated", "word": "MONKEY", "color": "blue", "correct_response": "b", "trial_id": "stroop-trial-1-unrelated-24", "trial_type": "html-keyboard-response", "trial_index": 60, "time_elapsed": 168160, "internal_node_id": "0.0-4.0-56.0"}}, {"uniqueid": "w88426097:a76175203", "current_trial": 61, "dateTime": 1664555196357, "trialdata": {"rt": 1336, "stimulus": "<p id='stroop-text' class='stroop-green'>RED</p>", "response": "g", "stimulus-type": "incongruent", "word": "red", "color": "green", "correct_response": "g", "trial_id": "stroop-trial-1-incongruent-17", "trial_type": "html-keyboard-response", "trial_index": 61, "time_elapsed": 169998, "internal_node_id": "0.0-4.0-57.0"}}, {"uniqueid": "w88426097:a76175203", "current_trial": 62, "dateTime": 1664555197454, "trialdata": {"rt": 595, "stimulus": "<p id='stroop-text' class='stroop-green'>BLUE</p>", "response": "g", "stimulus-type": "incongruent", "word": "blue", "color": "green", "correct_response": "g", "trial_id": "stroop-trial-1-incongruent-7", "trial_type": "html-keyboard-response", "trial_index": 62, "time_elapsed": 171095, "internal_node_id": "0.0-4.0-58.0"}}, {"uniqueid": "w88426097:a76175203", "current_trial": 63, "dateTime": 1664555198518, "trialdata": {"rt": 562, "stimulus": "<p id='stroop-text' class='stroop-red'>RED</p>", "response": "r", "stimulus-type": "congruent", "word": "red", "color": "red", "correct_response": "r", "trial_id": "stroop-trial-1-congruent-19", "trial_type": "html-keyboard-response", "trial_index": 63, "time_elapsed": 172158, "internal_node_id": "0.0-4.0-59.0"}}, {"uniqueid": "w88426097:a76175203", "current_trial": 64, "dateTime": 1664555199617, "trialdata": {"rt": 590, "stimulus": "<p id='stroop-text' class='stroop-blue'>BLUE</p>", "response": "b", "stimulus-type": "congruent", "word": "blue", "color": "blue", "correct_response": "b", "trial_id": "stroop-trial-1-congruent-20", "trial_type": "html-keyboard-response", "trial_index": 64, "time_elapsed": 173257, "internal_node_id": "0.0-4.0-60.0"}}, {"uniqueid": "w88426097:a76175203", "current_trial": 65, "dateTime": 1664555200916, "trialdata": {"rt": 797, "stimulus": "<p id='stroop-text' class='stroop-blue'>RED</p>", "response": "b", "stimulus-type": "incongruent", "word": "red", "color": "blue", "correct_response": "b", "trial_id": "stroop-trial-1-incongruent-30", "trial_type": "html-keyboard-response", "trial_index": 65, "time_elapsed": 174556, "internal_node_id": "0.0-4.0-61.0"}}, {"uniqueid": "w88426097:a76175203", "current_trial": 66, "dateTime": 1664555202216, "trialdata": {"rt": 798, "stimulus": "<p id='stroop-text' class='stroop-green'>STONE</p>", "response": "g", "stimulus-type": "unrelated", "word": "STONE", "color": "green", "correct_response": "g", "trial_id": "stroop-trial-1-unrelated-6", "trial_type": "html-keyboard-response", "trial_index": 66, "time_elapsed": 175857, "internal_node_id": "0.0-4.0-62.0"}}, {"uniqueid": "w88426097:a76175203", "current_trial": 67, "dateTime": 1664555203378, "trialdata": {"rt": 659, "stimulus": "<p id='stroop-text' class='stroop-blue'>BLUE</p>", "response": "b", "stimulus-type": "congruent", "word": "blue", "color": "blue", "correct_response": "b", "trial_id": "stroop-trial-1-congruent-18", "trial_type": "html-keyboard-response", "trial_index": 67, "time_elapsed": 177018, "internal_node_id": "0.0-4.0-63.0"}}, {"uniqueid": "w88426097:a76175203", "current_trial": 68, "dateTime": 1664555205669, "trialdata": {"rt": 1790, "stimulus": "<p id='stroop-text' class='stroop-red'>BLUE</p>", "response": "r", "stimulus-type": "incongruent", "word": "blue", "color": "red", "correct_response": "r", "trial_id": "stroop-trial-1-incongruent-8", "trial_type": "html-keyboard-response", "trial_index": 68, "time_elapsed": 179310, "internal_node_id": "0.0-4.0-64.0"}}, {"uniqueid": "w88426097:a76175203", "current_trial": 69, "dateTime": 1664555206859, "trialdata": {"rt": 688, "stimulus": "<p id='stroop-text' class='stroop-blue'>GREEN</p>", "response": "b", "stimulus-type": "incongruent", "word": "green", "color": "blue", "correct_response": "b", "trial_id": "stroop-trial-1-incongruent-26", "trial_type": "html-keyboard-response", "trial_index": 69, "time_elapsed": 180499, "internal_node_id": "0.0-4.0-65.0"}}, {"uniqueid": "w88426097:a76175203", "current_trial": 70, "dateTime": 1664555208022, "trialdata": {"rt": 662, "stimulus": "<p id='stroop-text' class='stroop-yellow'>YELLOW</p>", "response": "y", "stimulus-type": "congruent", "word": "yellow", "color": "yellow", "correct_response": "y", "trial_id": "stroop-trial-1-congruent-11", "trial_type": "html-keyboard-response", "trial_index": 70, "time_elapsed": 181663, "internal_node_id": "0.0-4.0-66.0"}}, {"uniqueid": "w88426097:a76175203", "current_trial": 71, "dateTime": 1664555209272, "trialdata": {"rt": 748, "stimulus": "<p id='stroop-text' class='stroop-blue'>BLUE</p>", "response": "b", "stimulus-type": "congruent", "word": "blue", "color": "blue", "correct_response": "b", "trial_id": "stroop-trial-1-congruent-17", "trial_type": "html-keyboard-response", "trial_index": 71, "time_elapsed": 182913, "internal_node_id": "0.0-4.0-67.0"}}, {"uniqueid": "w88426097:a76175203", "current_trial": 72, "dateTime": 1664555211842, "trialdata": {"rt": 2067, "stimulus": "<p id='stroop-text' class='stroop-yellow'>YELLOW</p>", "response": "y", "stimulus-type": "congruent", "word": "yellow", "color": "yellow", "correct_response": "y", "trial_id": "stroop-trial-1-congruent-3", "trial_type": "html-keyboard-response", "trial_index": 72, "time_elapsed": 185483, "internal_node_id": "0.0-4.0-68.0"}}, {"uniqueid": "w88426097:a76175203", "current_trial": 73, "dateTime": 1664555213232, "trialdata": {"rt": 887, "stimulus": "<p id='stroop-text' class='stroop-yellow'>YELLOW</p>", "response": "y", "stimulus-type": "congruent", "word": "yellow", "color": "yellow", "correct_response": "y", "trial_id": "stroop-trial-1-congruent-1", "trial_type": "html-keyboard-response", "trial_index": 73, "time_elapsed": 186872, "internal_node_id": "0.0-4.0-69.0"}}, {"uniqueid": "w88426097:a76175203", "current_trial": 74, "dateTime": 1664555214402, "trialdata": {"rt": 669, "stimulus": "<p id='stroop-text' class='stroop-blue'>BLUE</p>", "response": "b", "stimulus-type": "congruent", "word": "blue", "color": "blue", "correct_response": "b", "trial_id": "stroop-trial-1-congruent-4", "trial_type": "html-keyboard-response", "trial_index": 74, "time_elapsed": 188043, "internal_node_id": "0.0-4.0-70.0"}}, {"uniqueid": "w88426097:a76175203", "current_trial": 75, "dateTime": 1664555215507, "trialdata": {"rt": 604, "stimulus": "<p id='stroop-text' class='stroop-yellow'>BRIDGE</p>", "response": "y", "stimulus-type": "unrelated", "word": "BRIDGE", "color": "yellow", "correct_response": "y", "trial_id": "stroop-trial-1-unrelated-19", "trial_type": "html-keyboard-response", "trial_index": 75, "time_elapsed": 189148, "internal_node_id": "0.0-4.0-71.0"}}, {"uniqueid": "w88426097:a76175203", "current_trial": 76, "dateTime": 1664555216885, "trialdata": {"rt": 876, "stimulus": "<p id='stroop-text' class='stroop-green'>YELLOW</p>", "response": "g", "stimulus-type": "incongruent", "word": "yellow", "color": "green", "correct_response": "g", "trial_id": "stroop-trial-1-incongruent-6", "trial_type": "html-keyboard-response", "trial_index": 76, "time_elapsed": 190526, "internal_node_id": "0.0-4.0-72.0"}}, {"uniqueid": "w88426097:a76175203", "current_trial": 77, "dateTime": 1664555217918, "trialdata": {"rt": 530, "stimulus": "<p id='stroop-text' class='stroop-green'>BLUE</p>", "response": "g", "stimulus-type": "incongruent", "word": "blue", "color": "green", "correct_response": "g", "trial_id": "stroop-trial-1-incongruent-3", "trial_type": "html-keyboard-response", "trial_index": 77, "time_elapsed": 191559, "internal_node_id": "0.0-4.0-73.0"}}, {"uniqueid": "w88426097:a76175203", "current_trial": 78, "dateTime": 1664555218801, "trialdata": {"rt": 374, "stimulus": "<p id='stroop-text' class='stroop-red'>GREEN</p>", "response": "r", "stimulus-type": "incongruent", "word": "green", "color": "red", "correct_response": "r", "trial_id": "stroop-trial-1-incongruent-14", "trial_type": "html-keyboard-response", "trial_index": 78, "time_elapsed": 192442, "internal_node_id": "0.0-4.0-74.0"}}, {"uniqueid": "w88426097:a76175203", "current_trial": 79, "dateTime": 1664555219981, "trialdata": {"rt": 677, "stimulus": "<p id='stroop-text' class='stroop-yellow'>RED</p>", "response": "y", "stimulus-type": "incongruent", "word": "red", "color": "yellow", "correct_response": "y", "trial_id": "stroop-trial-1-incongruent-4", "trial_type": "html-keyboard-response", "trial_index": 79, "time_elapsed": 193622, "internal_node_id": "0.0-4.0-75.0"}}, {"uniqueid": "w88426097:a76175203", "current_trial": 80, "dateTime": 1664555221033, "trialdata": {"rt": 550, "stimulus": "<p id='stroop-text' class='stroop-blue'>RED</p>", "response": "b", "stimulus-type": "incongruent", "word": "red", "color": "blue", "correct_response": "b", "trial_id": "stroop-trial-1-incongruent-25", "trial_type": "html-keyboard-response", "trial_index": 80, "time_elapsed": 194674, "internal_node_id": "0.0-4.0-76.0"}}, {"uniqueid": "w88426097:a76175203", "current_trial": 81, "dateTime": 1664555222491, "trialdata": {"rt": 955, "stimulus": "<p id='stroop-text' class='stroop-red'>GREEN</p>", "response": "r", "stimulus-type": "incongruent", "word": "green", "color": "red", "correct_response": "r", "trial_id": "stroop-trial-1-incongruent-10", "trial_type": "html-keyboard-response", "trial_index": 81, "time_elapsed": 196132, "internal_node_id": "0.0-4.0-77.0"}}, {"uniqueid": "w88426097:a76175203", "current_trial": 82, "dateTime": 1664555225767, "trialdata": {"rt": 2773, "stimulus": "<p id='stroop-text' class='stroop-yellow'>SHIP</p>", "response": "y", "stimulus-type": "unrelated", "word": "SHIP", "color": "yellow", "correct_response": "y", "trial_id": "stroop-trial-1-unrelated-25", "trial_type": "html-keyboard-response", "trial_index": 82, "time_elapsed": 199407, "internal_node_id": "0.0-4.0-78.0"}}, {"uniqueid": "w88426097:a76175203", "current_trial": 83, "dateTime": 1664555226794, "trialdata": {"rt": 525, "stimulus": "<p id='stroop-text' class='stroop-yellow'>DOG</p>", "response": "y", "stimulus-type": "unrelated", "word": "DOG", "color": "yellow", "correct_response": "y", "trial_id": "stroop-trial-1-unrelated-20", "trial_type": "html-keyboard-response", "trial_index": 83, "time_elapsed": 200435, "internal_node_id": "0.0-4.0-79.0"}}, {"uniqueid": "w88426097:a76175203", "current_trial": 84, "dateTime": 1664555227896, "trialdata": {"rt": 600, "stimulus": "<p id='stroop-text' class='stroop-red'>BRIDGE</p>", "response": "r", "stimulus-type": "unrelated", "word": "BRIDGE", "color": "red", "correct_response": "r", "trial_id": "stroop-trial-1-unrelated-30", "trial_type": "html-keyboard-response", "trial_index": 84, "time_elapsed": 201537, "internal_node_id": "0.0-4.0-80.0"}}, {"uniqueid": "w88426097:a76175203", "current_trial": 85, "dateTime": 1664555228992, "trialdata": {"rt": 591, "stimulus": "<p id='stroop-text' class='stroop-blue'>SHIP</p>", "response": "b", "stimulus-type": "unrelated", "word": "SHIP", "color": "blue", "correct_response": "b", "trial_id": "stroop-trial-1-unrelated-22", "trial_type": "html-keyboard-response", "trial_index": 85, "time_elapsed": 202633, "internal_node_id": "0.0-4.0-81.0"}}, {"uniqueid": "w88426097:a76175203", "current_trial": 86, "dateTime": 1664555230356, "trialdata": {"rt": 862, "stimulus": "<p id='stroop-text' class='stroop-yellow'>FORK</p>", "response": "y", "stimulus-type": "unrelated", "word": "FORK", "color": "yellow", "correct_response": "y", "trial_id": "stroop-trial-1-unrelated-11", "trial_type": "html-keyboard-response", "trial_index": 86, "time_elapsed": 203996, "internal_node_id": "0.0-4.0-82.0"}}, {"uniqueid": "w88426097:a76175203", "current_trial": 87, "dateTime": 1664555231745, "trialdata": {"rt": 888, "stimulus": "<p id='stroop-text' class='stroop-blue'>BRAIN</p>", "response": "b", "stimulus-type": "unrelated", "word": "BRAIN", "color": "blue", "correct_response": "b", "trial_id": "stroop-trial-1-unrelated-12", "trial_type": "html-keyboard-response", "trial_index": 87, "time_elapsed": 205386, "internal_node_id": "0.0-4.0-83.0"}}, {"uniqueid": "w88426097:a76175203", "current_trial": 88, "dateTime": 1664555232926, "trialdata": {"rt": 679, "stimulus": "<p id='stroop-text' class='stroop-blue'>RED</p>", "response": "b", "stimulus-type": "incongruent", "word": "red", "color": "blue", "correct_response": "b", "trial_id": "stroop-trial-1-incongruent-23", "trial_type": "html-keyboard-response", "trial_index": 88, "time_elapsed": 206567, "internal_node_id": "0.0-4.0-84.0"}}, {"uniqueid": "w88426097:a76175203", "current_trial": 89, "dateTime": 1664555234278, "trialdata": {"rt": 850, "stimulus": "<p id='stroop-text' class='stroop-yellow'>BLUE</p>", "response": "y", "stimulus-type": "incongruent", "word": "blue", "color": "yellow", "correct_response": "y", "trial_id": "stroop-trial-1-incongruent-19", "trial_type": "html-keyboard-response", "trial_index": 89, "time_elapsed": 207919, "internal_node_id": "0.0-4.0-85.0"}}, {"uniqueid": "w88426097:a76175203", "current_trial": 90, "dateTime": 1664555235501, "trialdata": {"rt": 715, "stimulus": "<p id='stroop-text' class='stroop-blue'>STONE</p>", "response": "b", "stimulus-type": "unrelated", "word": "STONE", "color": "blue", "correct_response": "b", "trial_id": "stroop-trial-1-unrelated-16", "trial_type": "html-keyboard-response", "trial_index": 90, "time_elapsed": 209142, "internal_node_id": "0.0-4.0-86.0"}}, {"uniqueid": "w88426097:a76175203", "current_trial": 91, "dateTime": 1664555236572, "trialdata": {"rt": 568, "stimulus": "<p id='stroop-text' class='stroop-red'>RED</p>", "response": "r", "stimulus-type": "congruent", "word": "red", "color": "red", "correct_response": "r", "trial_id": "stroop-trial-1-congruent-16", "trial_type": "html-keyboard-response", "trial_index": 91, "time_elapsed": 210213, "internal_node_id": "0.0-4.0-87.0"}}, {"uniqueid": "w88426097:a76175203", "current_trial": 92, "dateTime": 1664555238177, "trialdata": {"rt": 1104, "stimulus": "<p id='stroop-text' class='stroop-blue'>BLUE</p>", "response": "y", "stimulus-type": "congruent", "word": "blue", "color": "blue", "correct_response": "b", "trial_id": "stroop-trial-1-congruent-21", "trial_type": "html-keyboard-response", "trial_index": 92, "time_elapsed": 211818, "internal_node_id": "0.0-4.0-88.0"}}, {"uniqueid": "w88426097:a76175203", "current_trial": 93, "dateTime": 1664555239845, "trialdata": {"rt": 1166, "stimulus": "<p id='stroop-text' class='stroop-yellow'>GREEN</p>", "response": "y", "stimulus-type": "incongruent", "word": "green", "color": "yellow", "correct_response": "y", "trial_id": "stroop-trial-1-incongruent-16", "trial_type": "html-keyboard-response", "trial_index": 93, "time_elapsed": 213486, "internal_node_id": "0.0-4.0-89.0"}}, {"uniqueid": "w88426097:a76175203", "current_trial": 94, "dateTime": 1664555252827, "trialdata": {"rt": 12478, "stimulus": "  <h1> End of block! </h1>\n\n  You have reached the end of the block 1/5. If you need a short break, feel free to take one now before moving on.\n\n  <br><br>\n  In the next block, you will complete another 90 rounds of this game.\n\n  <br><br>\n  <div style='text-align: center;'>Press <code>space</code> to begin.</div>\n  <br><br>\n<div style='text-align: center;'>(If the experiment doesn't continue, try clicking on the text and then pressing <code>space</code>.)</div>", "response": " ", "trial_id": "stroop_1_ready_2", "trial_type": "html-keyboard-response", "trial_index": 94, "time_elapsed": 226468, "internal_node_id": "0.0-5.0"}}, {"uniqueid": "w88426097:a76175203", "current_trial": 95, "dateTime": 1664555255216, "trialdata": {"rt": 2387, "stimulus": "<p id='stroop-text' class='stroop-green'>YELLOW</p>", "response": "g", "stimulus-type": "incongruent", "word": "yellow", "color": "green", "correct_response": "g", "trial_id": "stroop-trial-1-incongruent-2", "trial_type": "html-keyboard-response", "trial_index": 95, "time_elapsed": 228857, "internal_node_id": "0.0-6.0-0.0"}}, {"uniqueid": "w88426097:a76175203", "current_trial": 96, "dateTime": 1664555256844, "trialdata": {"rt": 1126, "stimulus": "<p id='stroop-text' class='stroop-yellow'>RED</p>", "response": "y", "stimulus-type": "incongruent", "word": "red", "color": "yellow", "correct_response": "y", "trial_id": "stroop-trial-1-incongruent-14", "trial_type": "html-keyboard-response", "trial_index": 96, "time_elapsed": 230485, "internal_node_id": "0.0-6.0-1.0"}}, {"uniqueid": "w88426097:a76175203", "current_trial": 97, "dateTime": 1664555257949, "trialdata": {"rt": 603, "stimulus": "<p id='stroop-text' class='stroop-red'>RED</p>", "response": "r", "stimulus-type": "congruent", "word": "red", "color": "red", "correct_response": "r", "trial_id": "stroop-trial-1-congruent-30", "trial_type": "html-keyboard-response", "trial_index": 97, "time_elapsed": 231590, "internal_node_id": "0.0-6.0-2.0"}}, {"uniqueid": "w88426097:a76175203", "current_trial": 98, "dateTime": 1664555259203, "trialdata": {"rt": 752, "stimulus": "<p id='stroop-text' class='stroop-green'>RED</p>", "response": "g", "stimulus-type": "incongruent", "word": "red", "color": "green", "correct_response": "g", "trial_id": "stroop-trial-1-incongruent-27", "trial_type": "html-keyboard-response", "trial_index": 98, "time_elapsed": 232843, "internal_node_id": "0.0-6.0-3.0"}}, {"uniqueid": "w88426097:a76175203", "current_trial": 99, "dateTime": 1664555260808, "trialdata": {"rt": 1103, "stimulus": "<p id='stroop-text' class='stroop-green'>CHAIR</p>", "response": "g", "stimulus-type": "unrelated", "word": "CHAIR", "color": "green", "correct_response": "g", "trial_id": "stroop-trial-1-unrelated-21", "trial_type": "html-keyboard-response", "trial_index": 99, "time_elapsed": 234448, "internal_node_id": "0.0-6.0-4.0"}}, {"uniqueid": "w88426097:a76175203", "current_trial": 100, "dateTime": 1664555262051, "trialdata": {"rt": 740, "stimulus": "<p id='stroop-text' class='stroop-yellow'>BRAIN</p>", "response": "y", "stimulus-type": "unrelated", "word": "BRAIN", "color": "yellow", "correct_response": "y", "trial_id": "stroop-trial-1-unrelated-19", "trial_type": "html-keyboard-response", "trial_index": 100, "time_elapsed": 235691, "internal_node_id": "0.0-6.0-5.0"}}, {"uniqueid": "w88426097:a76175203", "current_trial": 101, "dateTime": 1664555263160, "trialdata": {"rt": 606, "stimulus": "<p id='stroop-text' class='stroop-blue'>MONKEY</p>", "response": "b", "stimulus-type": "unrelated", "word": "MONKEY", "color": "blue", "correct_response": "b", "trial_id": "stroop-trial-1-unrelated-27", "trial_type": "html-keyboard-response", "trial_index": 101, "time_elapsed": 236800, "internal_node_id": "0.0-6.0-6.0"}}, {"uniqueid": "w88426097:a76175203", "current_trial": 102, "dateTime": 1664555264076, "trialdata": {"rt": 414, "stimulus": "<p id='stroop-text' class='stroop-blue'>BLUE</p>", "response": "b", "stimulus-type": "congruent", "word": "blue", "color": "blue", "correct_response": "b", "trial_id": "stroop-trial-1-congruent-19", "trial_type": "html-keyboard-response", "trial_index": 102, "time_elapsed": 237717, "internal_node_id": "0.0-6.0-7.0"}}, {"uniqueid": "w88426097:a76175203", "current_trial": 103, "dateTime": 1664555265262, "trialdata": {"rt": 684, "stimulus": "<p id='stroop-text' class='stroop-yellow'>BOTTLE</p>", "response": "y", "stimulus-type": "unrelated", "word": "BOTTLE", "color": "yellow", "correct_response": "y", "trial_id": "stroop-trial-1-unrelated-18", "trial_type": "html-keyboard-response", "trial_index": 103, "time_elapsed": 238903, "internal_node_id": "0.0-6.0-8.0"}}, {"uniqueid": "w88426097:a76175203", "current_trial": 104, "dateTime": 1664555266224, "trialdata": {"rt": 459, "stimulus": "<p id='stroop-text' class='stroop-yellow'>CHAIR</p>", "response": "y", "stimulus-type": "unrelated", "word": "CHAIR", "color": "yellow", "correct_response": "y", "trial_id": "stroop-trial-1-unrelated-2", "trial_type": "html-keyboard-response", "trial_index": 104, "time_elapsed": 239865, "internal_node_id": "0.0-6.0-9.0"}}, {"uniqueid": "w88426097:a76175203", "current_trial": 105, "dateTime": 1664555267781, "trialdata": {"rt": 1045, "stimulus": "<p id='stroop-text' class='stroop-green'>RED</p>", "response": "g", "stimulus-type": "incongruent", "word": "red", "color": "green", "correct_response": "g", "trial_id": "stroop-trial-1-incongruent-25", "trial_type": "html-keyboard-response", "trial_index": 105, "time_elapsed": 241422, "internal_node_id": "0.0-6.0-10.0"}}, {"uniqueid": "w88426097:a76175203", "current_trial": 106, "dateTime": 1664555268924, "trialdata": {"rt": 640, "stimulus": "<p id='stroop-text' class='stroop-blue'>BOTTLE</p>", "response": "b", "stimulus-type": "unrelated", "word": "BOTTLE", "color": "blue", "correct_response": "b", "trial_id": "stroop-trial-1-unrelated-9", "trial_type": "html-keyboard-response", "trial_index": 106, "time_elapsed": 242564, "internal_node_id": "0.0-6.0-11.0"}}, {"uniqueid": "w88426097:a76175203", "current_trial": 107, "dateTime": 1664555269834, "trialdata": {"rt": 408, "stimulus": "<p id='stroop-text' class='stroop-blue'>BLUE</p>", "response": "b", "stimulus-type": "congruent", "word": "blue", "color": "blue", "correct_response": "b", "trial_id": "stroop-trial-1-congruent-11", "trial_type": "html-keyboard-response", "trial_index": 107, "time_elapsed": 243474, "internal_node_id": "0.0-6.0-12.0"}}, {"uniqueid": "w88426097:a76175203", "current_trial": 108, "dateTime": 1664555270684, "trialdata": {"rt": 349, "stimulus": "<p id='stroop-text' class='stroop-red'>FORK</p>", "response": "r", "stimulus-type": "unrelated", "word": "FORK", "color": "red", "correct_response": "r", "trial_id": "stroop-trial-1-unrelated-3", "trial_type": "html-keyboard-response", "trial_index": 108, "time_elapsed": 244325, "internal_node_id": "0.0-6.0-13.0"}}, {"uniqueid": "w88426097:a76175203", "current_trial": 109, "dateTime": 1664555272073, "trialdata": {"rt": 886, "stimulus": "<p id='stroop-text' class='stroop-green'>YELLOW</p>", "response": "g", "stimulus-type": "incongruent", "word": "yellow", "color": "green", "correct_response": "g", "trial_id": "stroop-trial-1-incongruent-16", "trial_type": "html-keyboard-response", "trial_index": 109, "time_elapsed": 245713, "internal_node_id": "0.0-6.0-14.0"}}, {"uniqueid": "w88426097:a76175203", "current_trial": 110, "dateTime": 1664555273180, "trialdata": {"rt": 605, "stimulus": "<p id='stroop-text' class='stroop-red'>BLUE</p>", "response": "r", "stimulus-type": "incongruent", "word": "blue", "color": "red", "correct_response": "r", "trial_id": "stroop-trial-1-incongruent-26", "trial_type": "html-keyboard-response", "trial_index": 110, "time_elapsed": 246821, "internal_node_id": "0.0-6.0-15.0"}}, {"uniqueid": "w88426097:a76175203", "current_trial": 111, "dateTime": 1664555274196, "trialdata": {"rt": 514, "stimulus": "<p id='stroop-text' class='stroop-blue'>STONE</p>", "response": "b", "stimulus-type": "unrelated", "word": "STONE", "color": "blue", "correct_response": "b", "trial_id": "stroop-trial-1-unrelated-15", "trial_type": "html-keyboard-response", "trial_index": 111, "time_elapsed": 247836, "internal_node_id": "0.0-6.0-16.0"}}, {"uniqueid": "w88426097:a76175203", "current_trial": 112, "dateTime": 1664555275339, "trialdata": {"rt": 641, "stimulus": "<p id='stroop-text' class='stroop-yellow'>RED</p>", "response": "y", "stimulus-type": "incongruent", "word": "red", "color": "yellow", "correct_response": "y", "trial_id": "stroop-trial-1-incongruent-22", "trial_type": "html-keyboard-response", "trial_index": 112, "time_elapsed": 248980, "internal_node_id": "0.0-6.0-17.0"}}, {"uniqueid": "w88426097:a76175203", "current_trial": 113, "dateTime": 1664555276559, "trialdata": {"rt": 718, "stimulus": "<p id='stroop-text' class='stroop-red'>YELLOW</p>", "response": "r", "stimulus-type": "incongruent", "word": "yellow", "color": "red", "correct_response": "r", "trial_id": "stroop-trial-1-incongruent-7", "trial_type": "html-keyboard-response", "trial_index": 113, "time_elapsed": 250200, "internal_node_id": "0.0-6.0-18.0"}}, {"uniqueid": "w88426097:a76175203", "current_trial": 114, "dateTime": 1664555277628, "trialdata": {"rt": 566, "stimulus": "<p id='stroop-text' class='stroop-green'>GREEN</p>", "response": "g", "stimulus-type": "congruent", "word": "green", "color": "green", "correct_response": "g", "trial_id": "stroop-trial-1-congruent-29", "trial_type": "html-keyboard-response", "trial_index": 114, "time_elapsed": 251268, "internal_node_id": "0.0-6.0-19.0"}}, {"uniqueid": "w88426097:a76175203", "current_trial": 115, "dateTime": 1664555278716, "trialdata": {"rt": 571, "stimulus": "<p id='stroop-text' class='stroop-red'>RED</p>", "response": "r", "stimulus-type": "congruent", "word": "red", "color": "red", "correct_response": "r", "trial_id": "stroop-trial-1-congruent-9", "trial_type": "html-keyboard-response", "trial_index": 115, "time_elapsed": 252357, "internal_node_id": "0.0-6.0-20.0"}}, {"uniqueid": "w88426097:a76175203", "current_trial": 116, "dateTime": 1664555279714, "trialdata": {"rt": 492, "stimulus": "<p id='stroop-text' class='stroop-red'>RED</p>", "response": "r", "stimulus-type": "congruent", "word": "red", "color": "red", "correct_response": "r", "trial_id": "stroop-trial-1-congruent-2", "trial_type": "html-keyboard-response", "trial_index": 116, "time_elapsed": 253355, "internal_node_id": "0.0-6.0-21.0"}}, {"uniqueid": "w88426097:a76175203", "current_trial": 117, "dateTime": 1664555280860, "trialdata": {"rt": 643, "stimulus": "<p id='stroop-text' class='stroop-green'>BLUE</p>", "response": "g", "stimulus-type": "incongruent", "word": "blue", "color": "green", "correct_response": "g", "trial_id": "stroop-trial-1-incongruent-23", "trial_type": "html-keyboard-response", "trial_index": 117, "time_elapsed": 254501, "internal_node_id": "0.0-6.0-22.0"}}, {"uniqueid": "w88426097:a76175203", "current_trial": 118, "dateTime": 1664555281828, "trialdata": {"rt": 465, "stimulus": "<p id='stroop-text' class='stroop-green'>STONE</p>", "response": "g", "stimulus-type": "unrelated", "word": "STONE", "color": "green", "correct_response": "g", "trial_id": "stroop-trial-1-unrelated-23", "trial_type": "html-keyboard-response", "trial_index": 118, "time_elapsed": 255468, "internal_node_id": "0.0-6.0-23.0"}}, {"uniqueid": "w88426097:a76175203", "current_trial": 119, "dateTime": 1664555282826, "trialdata": {"rt": 496, "stimulus": "<p id='stroop-text' class='stroop-blue'>YELLOW</p>", "response": "b", "stimulus-type": "incongruent", "word": "yellow", "color": "blue", "correct_response": "b", "trial_id": "stroop-trial-1-incongruent-8", "trial_type": "html-keyboard-response", "trial_index": 119, "time_elapsed": 256466, "internal_node_id": "0.0-6.0-24.0"}}, {"uniqueid": "w88426097:a76175203", "current_trial": 120, "dateTime": 1664555284543, "trialdata": {"rt": 1216, "stimulus": "<p id='stroop-text' class='stroop-green'>WINDOW</p>", "response": "g", "stimulus-type": "unrelated", "word": "WINDOW", "color": "green", "correct_response": "g", "trial_id": "stroop-trial-1-unrelated-1", "trial_type": "html-keyboard-response", "trial_index": 120, "time_elapsed": 258184, "internal_node_id": "0.0-6.0-25.0"}}, {"uniqueid": "w88426097:a76175203", "current_trial": 121, "dateTime": 1664555286366, "trialdata": {"rt": 1321, "stimulus": "<p id='stroop-text' class='stroop-blue'>MONKEY</p>", "response": "b", "stimulus-type": "unrelated", "word": "MONKEY", "color": "blue", "correct_response": "b", "trial_id": "stroop-trial-1-unrelated-16", "trial_type": "html-keyboard-response", "trial_index": 121, "time_elapsed": 260007, "internal_node_id": "0.0-6.0-26.0"}}, {"uniqueid": "w88426097:a76175203", "current_trial": 122, "dateTime": 1664555287321, "trialdata": {"rt": 453, "stimulus": "<p id='stroop-text' class='stroop-blue'>BRAIN</p>", "response": "b", "stimulus-type": "unrelated", "word": "BRAIN", "color": "blue", "correct_response": "b", "trial_id": "stroop-trial-1-unrelated-7", "trial_type": "html-keyboard-response", "trial_index": 122, "time_elapsed": 260962, "internal_node_id": "0.0-6.0-27.0"}}, {"uniqueid": "w88426097:a76175203", "current_trial": 123, "dateTime": 1664555288465, "trialdata": {"rt": 642, "stimulus": "<p id='stroop-text' class='stroop-red'>RED</p>", "response": "r", "stimulus-type": "congruent", "word": "red", "color": "red", "correct_response": "r", "trial_id": "stroop-trial-1-congruent-12", "trial_type": "html-keyboard-response", "trial_index": 123, "time_elapsed": 262106, "internal_node_id": "0.0-6.0-28.0"}}, {"uniqueid": "w88426097:a76175203", "current_trial": 124, "dateTime": 1664555289944, "trialdata": {"rt": 976, "stimulus": "<p id='stroop-text' class='stroop-red'>YELLOW</p>", "response": "r", "stimulus-type": "incongruent", "word": "yellow", "color": "red", "correct_response": "r", "trial_id": "stroop-trial-1-incongruent-29", "trial_type": "html-keyboard-response", "trial_index": 124, "time_elapsed": 263585, "internal_node_id": "0.0-6.0-29.0"}}, {"uniqueid": "w88426097:a76175203", "current_trial": 125, "dateTime": 1664555291018, "trialdata": {"rt": 572, "stimulus": "<p id='stroop-text' class='stroop-blue'>YELLOW</p>", "response": "b", "stimulus-type": "incongruent", "word": "yellow", "color": "blue", "correct_response": "b", "trial_id": "stroop-trial-1-incongruent-17", "trial_type": "html-keyboard-response", "trial_index": 125, "time_elapsed": 264658, "internal_node_id": "0.0-6.0-30.0"}}, {"uniqueid": "w88426097:a76175203", "current_trial": 126, "dateTime": 1664555292522, "trialdata": {"rt": 1003, "stimulus": "<p id='stroop-text' class='stroop-blue'>MONKEY</p>", "response": "b", "stimulus-type": "unrelated", "word": "MONKEY", "color": "blue", "correct_response": "b", "trial_id": "stroop-trial-1-unrelated-10", "trial_type": "html-keyboard-response", "trial_index": 126, "time_elapsed": 266163, "internal_node_id": "0.0-6.0-31.0"}}, {"uniqueid": "w88426097:a76175203", "current_trial": 127, "dateTime": 1664555293722, "trialdata": {"rt": 698, "stimulus": "<p id='stroop-text' class='stroop-yellow'>YELLOW</p>", "response": "y", "stimulus-type": "congruent", "word": "yellow", "color": "yellow", "correct_response": "y", "trial_id": "stroop-trial-1-congruent-25", "trial_type": "html-keyboard-response", "trial_index": 127, "time_elapsed": 267363, "internal_node_id": "0.0-6.0-32.0"}}, {"uniqueid": "w88426097:a76175203", "current_trial": 128, "dateTime": 1664555294870, "trialdata": {"rt": 646, "stimulus": "<p id='stroop-text' class='stroop-red'>BRIDGE</p>", "response": "r", "stimulus-type": "unrelated", "word": "BRIDGE", "color": "red", "correct_response": "r", "trial_id": "stroop-trial-1-unrelated-25", "trial_type": "html-keyboard-response", "trial_index": 128, "time_elapsed": 268511, "internal_node_id": "0.0-6.0-33.0"}}, {"uniqueid": "w88426097:a76175203", "current_trial": 129, "dateTime": 1664555295801, "trialdata": {"rt": 429, "stimulus": "<p id='stroop-text' class='stroop-green'>GREEN</p>", "response": "g", "stimulus-type": "congruent", "word": "green", "color": "green", "correct_response": "g", "trial_id": "stroop-trial-1-congruent-23", "trial_type": "html-keyboard-response", "trial_index": 129, "time_elapsed": 269441, "internal_node_id": "0.0-6.0-34.0"}}, {"uniqueid": "w88426097:a76175203", "current_trial": 130, "dateTime": 1664555297237, "trialdata": {"rt": 935, "stimulus": "<p id='stroop-text' class='stroop-red'>YELLOW</p>", "response": "r", "stimulus-type": "incongruent", "word": "yellow", "color": "red", "correct_response": "r", "trial_id": "stroop-trial-1-incongruent-18", "trial_type": "html-keyboard-response", "trial_index": 130, "time_elapsed": 270878, "internal_node_id": "0.0-6.0-35.0"}}, {"uniqueid": "w88426097:a76175203", "current_trial": 131, "dateTime": 1664555298171, "trialdata": {"rt": 422, "stimulus": "<p id='stroop-text' class='stroop-red'>RED</p>", "response": "r", "stimulus-type": "congruent", "word": "red", "color": "red", "correct_response": "r", "trial_id": "stroop-trial-1-congruent-7", "trial_type": "html-keyboard-response", "trial_index": 131, "time_elapsed": 271812, "internal_node_id": "0.0-6.0-36.0"}}, {"uniqueid": "w88426097:a76175203", "current_trial": 132, "dateTime": 1664555299283, "trialdata": {"rt": 610, "stimulus": "<p id='stroop-text' class='stroop-yellow'>GREEN</p>", "response": "y", "stimulus-type": "incongruent", "word": "green", "color": "yellow", "correct_response": "y", "trial_id": "stroop-trial-1-incongruent-4", "trial_type": "html-keyboard-response", "trial_index": 132, "time_elapsed": 272923, "internal_node_id": "0.0-6.0-37.0"}}, {"uniqueid": "w88426097:a76175203", "current_trial": 133, "dateTime": 1664555300388, "trialdata": {"rt": 604, "stimulus": "<p id='stroop-text' class='stroop-yellow'>SHIP</p>", "response": "y", "stimulus-type": "unrelated", "word": "SHIP", "color": "yellow", "correct_response": "y", "trial_id": "stroop-trial-1-unrelated-12", "trial_type": "html-keyboard-response", "trial_index": 133, "time_elapsed": 274029, "internal_node_id": "0.0-6.0-38.0"}}, {"uniqueid": "w88426097:a76175203", "current_trial": 134, "dateTime": 1664555303617, "trialdata": {"rt": 2725, "stimulus": "<p id='stroop-text' class='stroop-green'>BLUE</p>", "response": "g", "stimulus-type": "incongruent", "word": "blue", "color": "green", "correct_response": "g", "trial_id": "stroop-trial-1-incongruent-12", "trial_type": "html-keyboard-response", "trial_index": 134, "time_elapsed": 277257, "internal_node_id": "0.0-6.0-39.0"}}, {"uniqueid": "w88426097:a76175203", "current_trial": 135, "dateTime": 1664555304788, "trialdata": {"rt": 668, "stimulus": "<p id='stroop-text' class='stroop-green'>GREEN</p>", "response": "g", "stimulus-type": "congruent", "word": "green", "color": "green", "correct_response": "g", "trial_id": "stroop-trial-1-congruent-28", "trial_type": "html-keyboard-response", "trial_index": 135, "time_elapsed": 278428, "internal_node_id": "0.0-6.0-40.0"}}, {"uniqueid": "w88426097:a76175203", "current_trial": 136, "dateTime": 1664555307632, "trialdata": {"rt": 2342, "stimulus": "<p id='stroop-text' class='stroop-red'>BLUE</p>", "response": "r", "stimulus-type": "incongruent", "word": "blue", "color": "red", "correct_response": "r", "trial_id": "stroop-trial-1-incongruent-11", "trial_type": "html-keyboard-response", "trial_index": 136, "time_elapsed": 281273, "internal_node_id": "0.0-6.0-41.0"}}, {"uniqueid": "w88426097:a76175203", "current_trial": 137, "dateTime": 1664555313234, "trialdata": {"rt": 5098, "stimulus": "<p id='stroop-text' class='stroop-yellow'>BLUE</p>", "response": "y", "stimulus-type": "incongruent", "word": "blue", "color": "yellow", "correct_response": "y", "trial_id": "stroop-trial-1-incongruent-9", "trial_type": "html-keyboard-response", "trial_index": 137, "time_elapsed": 286874, "internal_node_id": "0.0-6.0-42.0"}}, {"uniqueid": "w88426097:a76175203", "current_trial": 138, "dateTime": 1664555314606, "trialdata": {"rt": 871, "stimulus": "<p id='stroop-text' class='stroop-blue'>BOTTLE</p>", "response": "b", "stimulus-type": "unrelated", "word": "BOTTLE", "color": "blue", "correct_response": "b", "trial_id": "stroop-trial-1-unrelated-30", "trial_type": "html-keyboard-response", "trial_index": 138, "time_elapsed": 288247, "internal_node_id": "0.0-6.0-43.0"}}, {"uniqueid": "w88426097:a76175203", "current_trial": 139, "dateTime": 1664555315773, "trialdata": {"rt": 665, "stimulus": "<p id='stroop-text' class='stroop-red'>RED</p>", "response": "r", "stimulus-type": "congruent", "word": "red", "color": "red", "correct_response": "r", "trial_id": "stroop-trial-1-congruent-27", "trial_type": "html-keyboard-response", "trial_index": 139, "time_elapsed": 289414, "internal_node_id": "0.0-6.0-44.0"}}, {"uniqueid": "w88426097:a76175203", "current_trial": 140, "dateTime": 1664555317163, "trialdata": {"rt": 888, "stimulus": "<p id='stroop-text' class='stroop-yellow'>RED</p>", "response": "y", "stimulus-type": "incongruent", "word": "red", "color": "yellow", "correct_response": "y", "trial_id": "stroop-trial-1-incongruent-19", "trial_type": "html-keyboard-response", "trial_index": 140, "time_elapsed": 290804, "internal_node_id": "0.0-6.0-45.0"}}, {"uniqueid": "w88426097:a76175203", "current_trial": 141, "dateTime": 1664555318409, "trialdata": {"rt": 742, "stimulus": "<p id='stroop-text' class='stroop-blue'>GREEN</p>", "response": "b", "stimulus-type": "incongruent", "word": "green", "color": "blue", "correct_response": "b", "trial_id": "stroop-trial-1-incongruent-28", "trial_type": "html-keyboard-response", "trial_index": 141, "time_elapsed": 292049, "internal_node_id": "0.0-6.0-46.0"}}, {"uniqueid": "w88426097:a76175203", "current_trial": 142, "dateTime": 1664555319321, "trialdata": {"rt": 409, "stimulus": "<p id='stroop-text' class='stroop-blue'>BLUE</p>", "response": "b", "stimulus-type": "congruent", "word": "blue", "color": "blue", "correct_response": "b", "trial_id": "stroop-trial-1-congruent-21", "trial_type": "html-keyboard-response", "trial_index": 142, "time_elapsed": 292962, "internal_node_id": "0.0-6.0-47.0"}}, {"uniqueid": "w88426097:a76175203", "current_trial": 143, "dateTime": 1664555320257, "trialdata": {"rt": 424, "stimulus": "<p id='stroop-text' class='stroop-blue'>RED</p>", "response": "b", "stimulus-type": "incongruent", "word": "red", "color": "blue", "correct_response": "b", "trial_id": "stroop-trial-1-incongruent-5", "trial_type": "html-keyboard-response", "trial_index": 143, "time_elapsed": 293898, "internal_node_id": "0.0-6.0-48.0"}}, {"uniqueid": "w88426097:a76175203", "current_trial": 144, "dateTime": 1664555321413, "trialdata": {"rt": 642, "stimulus": "<p id='stroop-text' class='stroop-red'>CHAIR</p>", "response": "r", "stimulus-type": "unrelated", "word": "CHAIR", "color": "red", "correct_response": "r", "trial_id": "stroop-trial-1-unrelated-5", "trial_type": "html-keyboard-response", "trial_index": 144, "time_elapsed": 295054, "internal_node_id": "0.0-6.0-49.0"}}, {"uniqueid": "w88426097:a76175203", "current_trial": 145, "dateTime": 1664555322936, "trialdata": {"rt": 1020, "stimulus": "<p id='stroop-text' class='stroop-yellow'>YELLOW</p>", "response": "y", "stimulus-type": "congruent", "word": "yellow", "color": "yellow", "correct_response": "y", "trial_id": "stroop-trial-1-congruent-3", "trial_type": "html-keyboard-response", "trial_index": 145, "time_elapsed": 296576, "internal_node_id": "0.0-6.0-50.0"}}, {"uniqueid": "w88426097:a76175203", "current_trial": 146, "dateTime": 1664555324084, "trialdata": {"rt": 645, "stimulus": "<p id='stroop-text' class='stroop-red'>WINDOW</p>", "response": "r", "stimulus-type": "unrelated", "word": "WINDOW", "color": "red", "correct_response": "r", "trial_id": "stroop-trial-1-unrelated-13", "trial_type": "html-keyboard-response", "trial_index": 146, "time_elapsed": 297724, "internal_node_id": "0.0-6.0-51.0"}}, {"uniqueid": "w88426097:a76175203", "current_trial": 147, "dateTime": 1664555325612, "trialdata": {"rt": 1025, "stimulus": "<p id='stroop-text' class='stroop-green'>RED</p>", "response": "g", "stimulus-type": "incongruent", "word": "red", "color": "green", "correct_response": "g", "trial_id": "stroop-trial-1-incongruent-1", "trial_type": "html-keyboard-response", "trial_index": 147, "time_elapsed": 299252, "internal_node_id": "0.0-6.0-52.0"}}, {"uniqueid": "w88426097:a76175203", "current_trial": 148, "dateTime": 1664555326666, "trialdata": {"rt": 552, "stimulus": "<p id='stroop-text' class='stroop-red'>RED</p>", "response": "y", "stimulus-type": "congruent", "word": "red", "color": "red", "correct_response": "r", "trial_id": "stroop-trial-1-congruent-16", "trial_type": "html-keyboard-response", "trial_index": 148, "time_elapsed": 300306, "internal_node_id": "0.0-6.0-53.0"}}, {"uniqueid": "w88426097:a76175203", "current_trial": 149, "dateTime": 1664555327801, "trialdata": {"rt": 626, "stimulus": "<p id='stroop-text' class='stroop-yellow'>GREEN</p>", "response": "y", "stimulus-type": "incongruent", "word": "green", "color": "yellow", "correct_response": "y", "trial_id": "stroop-trial-1-incongruent-13", "trial_type": "html-keyboard-response", "trial_index": 149, "time_elapsed": 301442, "internal_node_id": "0.0-6.0-54.0"}}, {"uniqueid": "w88426097:a76175203", "current_trial": 150, "dateTime": 1664555329099, "trialdata": {"rt": 797, "stimulus": "<p id='stroop-text' class='stroop-green'>YELLOW</p>", "response": "g", "stimulus-type": "incongruent", "word": "yellow", "color": "green", "correct_response": "g", "trial_id": "stroop-trial-1-incongruent-21", "trial_type": "html-keyboard-response", "trial_index": 150, "time_elapsed": 302740, "internal_node_id": "0.0-6.0-55.0"}}, {"uniqueid": "w88426097:a76175203", "current_trial": 151, "dateTime": 1664555330557, "trialdata": {"rt": 953, "stimulus": "<p id='stroop-text' class='stroop-yellow'>RED</p>", "response": "y", "stimulus-type": "incongruent", "word": "red", "color": "yellow", "correct_response": "y", "trial_id": "stroop-trial-1-incongruent-30", "trial_type": "html-keyboard-response", "trial_index": 151, "time_elapsed": 304197, "internal_node_id": "0.0-6.0-56.0"}}, {"uniqueid": "w88426097:a76175203", "current_trial": 152, "dateTime": 1664555331493, "trialdata": {"rt": 434, "stimulus": "<p id='stroop-text' class='stroop-green'>GREEN</p>", "response": "g", "stimulus-type": "congruent", "word": "green", "color": "green", "correct_response": "g", "trial_id": "stroop-trial-1-congruent-4", "trial_type": "html-keyboard-response", "trial_index": 152, "time_elapsed": 305133, "internal_node_id": "0.0-6.0-57.0"}}, {"uniqueid": "w88426097:a76175203", "current_trial": 153, "dateTime": 1664555332546, "trialdata": {"rt": 551, "stimulus": "<p id='stroop-text' class='stroop-red'>BLUE</p>", "response": "r", "stimulus-type": "incongruent", "word": "blue", "color": "red", "correct_response": "r", "trial_id": "stroop-trial-1-incongruent-15", "trial_type": "html-keyboard-response", "trial_index": 153, "time_elapsed": 306187, "internal_node_id": "0.0-6.0-58.0"}}, {"uniqueid": "w88426097:a76175203", "current_trial": 154, "dateTime": 1664555333586, "trialdata": {"rt": 537, "stimulus": "<p id='stroop-text' class='stroop-blue'>STONE</p>", "response": "b", "stimulus-type": "unrelated", "word": "STONE", "color": "blue", "correct_response": "b", "trial_id": "stroop-trial-1-unrelated-20", "trial_type": "html-keyboard-response", "trial_index": 154, "time_elapsed": 307226, "internal_node_id": "0.0-6.0-59.0"}}, {"uniqueid": "w88426097:a76175203", "current_trial": 155, "dateTime": 1664555334826, "trialdata": {"rt": 737, "stimulus": "<p id='stroop-text' class='stroop-yellow'>CHAIR</p>", "response": "y", "stimulus-type": "unrelated", "word": "CHAIR", "color": "yellow", "correct_response": "y", "trial_id": "stroop-trial-1-unrelated-22", "trial_type": "html-keyboard-response", "trial_index": 155, "time_elapsed": 308467, "internal_node_id": "0.0-6.0-60.0"}}, {"uniqueid": "w88426097:a76175203", "current_trial": 156, "dateTime": 1664555336037, "trialdata": {"rt": 710, "stimulus": "<p id='stroop-text' class='stroop-green'>BLUE</p>", "response": "g", "stimulus-type": "incongruent", "word": "blue", "color": "green", "correct_response": "g", "trial_id": "stroop-trial-1-incongruent-3", "trial_type": "html-keyboard-response", "trial_index": 156, "time_elapsed": 309678, "internal_node_id": "0.0-6.0-61.0"}}, {"uniqueid": "w88426097:a76175203", "current_trial": 157, "dateTime": 1664555337127, "trialdata": {"rt": 588, "stimulus": "<p id='stroop-text' class='stroop-yellow'>BLUE</p>", "response": "y", "stimulus-type": "incongruent", "word": "blue", "color": "yellow", "correct_response": "y", "trial_id": "stroop-trial-1-incongruent-20", "trial_type": "html-keyboard-response", "trial_index": 157, "time_elapsed": 310768, "internal_node_id": "0.0-6.0-62.0"}}, {"uniqueid": "w88426097:a76175203", "current_trial": 158, "dateTime": 1664555338246, "trialdata": {"rt": 617, "stimulus": "<p id='stroop-text' class='stroop-yellow'>BRAIN</p>", "response": "y", "stimulus-type": "unrelated", "word": "BRAIN", "color": "yellow", "correct_response": "y", "trial_id": "stroop-trial-1-unrelated-24", "trial_type": "html-keyboard-response", "trial_index": 158, "time_elapsed": 311887, "internal_node_id": "0.0-6.0-63.0"}}, {"uniqueid": "w88426097:a76175203", "current_trial": 159, "dateTime": 1664555339213, "trialdata": {"rt": 465, "stimulus": "<p id='stroop-text' class='stroop-green'>GREEN</p>", "response": "g", "stimulus-type": "congruent", "word": "green", "color": "green", "correct_response": "g", "trial_id": "stroop-trial-1-congruent-10", "trial_type": "html-keyboard-response", "trial_index": 159, "time_elapsed": 312854, "internal_node_id": "0.0-6.0-64.0"}}, {"uniqueid": "w88426097:a76175203", "current_trial": 160, "dateTime": 1664555340256, "trialdata": {"rt": 540, "stimulus": "<p id='stroop-text' class='stroop-red'>RED</p>", "response": "r", "stimulus-type": "congruent", "word": "red", "color": "red", "correct_response": "r", "trial_id": "stroop-trial-1-congruent-20", "trial_type": "html-keyboard-response", "trial_index": 160, "time_elapsed": 313897, "internal_node_id": "0.0-6.0-65.0"}}, {"uniqueid": "w88426097:a76175203", "current_trial": 161, "dateTime": 1664555341232, "trialdata": {"rt": 474, "stimulus": "<p id='stroop-text' class='stroop-blue'>FORK</p>", "response": "b", "stimulus-type": "unrelated", "word": "FORK", "color": "blue", "correct_response": "b", "trial_id": "stroop-trial-1-unrelated-4", "trial_type": "html-keyboard-response", "trial_index": 161, "time_elapsed": 314873, "internal_node_id": "0.0-6.0-66.0"}}, {"uniqueid": "w88426097:a76175203", "current_trial": 162, "dateTime": 1664555342322, "trialdata": {"rt": 587, "stimulus": "<p id='stroop-text' class='stroop-red'>GREEN</p>", "response": "r", "stimulus-type": "incongruent", "word": "green", "color": "red", "correct_response": "r", "trial_id": "stroop-trial-1-incongruent-6", "trial_type": "html-keyboard-response", "trial_index": 162, "time_elapsed": 315962, "internal_node_id": "0.0-6.0-67.0"}}, {"uniqueid": "w88426097:a76175203", "current_trial": 163, "dateTime": 1664555343448, "trialdata": {"rt": 625, "stimulus": "<p id='stroop-text' class='stroop-yellow'>YELLOW</p>", "response": "y", "stimulus-type": "congruent", "word": "yellow", "color": "yellow", "correct_response": "y", "trial_id": "stroop-trial-1-congruent-13", "trial_type": "html-keyboard-response", "trial_index": 163, "time_elapsed": 317089, "internal_node_id": "0.0-6.0-68.0"}}, {"uniqueid": "w88426097:a76175203", "current_trial": 164, "dateTime": 1664555344633, "trialdata": {"rt": 675, "stimulus": "<p id='stroop-text' class='stroop-red'>YELLOW</p>", "response": "r", "stimulus-type": "incongruent", "word": "yellow", "color": "red", "correct_response": "r", "trial_id": "stroop-trial-1-incongruent-24", "trial_type": "html-keyboard-response", "trial_index": 164, "time_elapsed": 318274, "internal_node_id": "0.0-6.0-69.0"}}, {"uniqueid": "w88426097:a76175203", "current_trial": 165, "dateTime": 1664555345943, "trialdata": {"rt": 808, "stimulus": "<p id='stroop-text' class='stroop-yellow'>BOTTLE</p>", "response": "y", "stimulus-type": "unrelated", "word": "BOTTLE", "color": "yellow", "correct_response": "y", "trial_id": "stroop-trial-1-unrelated-17", "trial_type": "html-keyboard-response", "trial_index": 165, "time_elapsed": 319584, "internal_node_id": "0.0-6.0-70.0"}}, {"uniqueid": "w88426097:a76175203", "current_trial": 166, "dateTime": 1664555346841, "trialdata": {"rt": 395, "stimulus": "<p id='stroop-text' class='stroop-yellow'>WINDOW</p>", "response": "y", "stimulus-type": "unrelated", "word": "WINDOW", "color": "yellow", "correct_response": "y", "trial_id": "stroop-trial-1-unrelated-26", "trial_type": "html-keyboard-response", "trial_index": 166, "time_elapsed": 320481, "internal_node_id": "0.0-6.0-71.0"}}, {"uniqueid": "w88426097:a76175203", "current_trial": 167, "dateTime": 1664555347668, "trialdata": {"rt": 324, "stimulus": "<p id='stroop-text' class='stroop-yellow'>YELLOW</p>", "response": "y", "stimulus-type": "congruent", "word": "yellow", "color": "yellow", "correct_response": "y", "trial_id": "stroop-trial-1-congruent-18", "trial_type": "html-keyboard-response", "trial_index": 167, "time_elapsed": 321308, "internal_node_id": "0.0-6.0-72.0"}}, {"uniqueid": "w88426097:a76175203", "current_trial": 168, "dateTime": 1664555349092, "trialdata": {"rt": 915, "stimulus": "<p id='stroop-text' class='stroop-red'>WINDOW</p>", "response": "r", "stimulus-type": "unrelated", "word": "WINDOW", "color": "red", "correct_response": "r", "trial_id": "stroop-trial-1-unrelated-28", "trial_type": "html-keyboard-response", "trial_index": 168, "time_elapsed": 322732, "internal_node_id": "0.0-6.0-73.0"}}, {"uniqueid": "w88426097:a76175203", "current_trial": 169, "dateTime": 1664555351237, "trialdata": {"rt": 1643, "stimulus": "<p id='stroop-text' class='stroop-blue'>BLUE</p>", "response": "b", "stimulus-type": "congruent", "word": "blue", "color": "blue", "correct_response": "b", "trial_id": "stroop-trial-1-congruent-26", "trial_type": "html-keyboard-response", "trial_index": 169, "time_elapsed": 324878, "internal_node_id": "0.0-6.0-74.0"}}, {"uniqueid": "w88426097:a76175203", "current_trial": 170, "dateTime": 1664555352199, "trialdata": {"rt": 459, "stimulus": "<p id='stroop-text' class='stroop-blue'>BLUE</p>", "response": "b", "stimulus-type": "congruent", "word": "blue", "color": "blue", "correct_response": "b", "trial_id": "stroop-trial-1-congruent-15", "trial_type": "html-keyboard-response", "trial_index": 170, "time_elapsed": 325840, "internal_node_id": "0.0-6.0-75.0"}}, {"uniqueid": "w88426097:a76175203", "current_trial": 171, "dateTime": 1664555353127, "trialdata": {"rt": 426, "stimulus": "<p id='stroop-text' class='stroop-green'>GREEN</p>", "response": "g", "stimulus-type": "congruent", "word": "green", "color": "green", "correct_response": "g", "trial_id": "stroop-trial-1-congruent-17", "trial_type": "html-keyboard-response", "trial_index": 171, "time_elapsed": 326768, "internal_node_id": "0.0-6.0-76.0"}}, {"uniqueid": "w88426097:a76175203", "current_trial": 172, "dateTime": 1664555354216, "trialdata": {"rt": 587, "stimulus": "<p id='stroop-text' class='stroop-blue'>BLUE</p>", "response": "b", "stimulus-type": "congruent", "word": "blue", "color": "blue", "correct_response": "b", "trial_id": "stroop-trial-1-congruent-6", "trial_type": "html-keyboard-response", "trial_index": 172, "time_elapsed": 327857, "internal_node_id": "0.0-6.0-77.0"}}, {"uniqueid": "w88426097:a76175203", "current_trial": 173, "dateTime": 1664555355404, "trialdata": {"rt": 684, "stimulus": "<p id='stroop-text' class='stroop-green'>WINDOW</p>", "response": "g", "stimulus-type": "unrelated", "word": "WINDOW", "color": "green", "correct_response": "g", "trial_id": "stroop-trial-1-unrelated-11", "trial_type": "html-keyboard-response", "trial_index": 173, "time_elapsed": 329044, "internal_node_id": "0.0-6.0-78.0"}}, {"uniqueid": "w88426097:a76175203", "current_trial": 174, "dateTime": 1664555356452, "trialdata": {"rt": 545, "stimulus": "<p id='stroop-text' class='stroop-red'>WINDOW</p>", "response": "r", "stimulus-type": "unrelated", "word": "WINDOW", "color": "red", "correct_response": "r", "trial_id": "stroop-trial-1-unrelated-29", "trial_type": "html-keyboard-response", "trial_index": 174, "time_elapsed": 330093, "internal_node_id": "0.0-6.0-79.0"}}, {"uniqueid": "w88426097:a76175203", "current_trial": 175, "dateTime": 1664555357990, "trialdata": {"rt": 1035, "stimulus": "<p id='stroop-text' class='stroop-green'>GREEN</p>", "response": "b", "stimulus-type": "congruent", "word": "green", "color": "green", "correct_response": "g", "trial_id": "stroop-trial-1-congruent-22", "trial_type": "html-keyboard-response", "trial_index": 175, "time_elapsed": 331630, "internal_node_id": "0.0-6.0-80.0"}}, {"uniqueid": "w88426097:a76175203", "current_trial": 176, "dateTime": 1664555360501, "trialdata": {"rt": 2009, "stimulus": "<p id='stroop-text' class='stroop-blue'>BLUE</p>", "response": "b", "stimulus-type": "congruent", "word": "blue", "color": "blue", "correct_response": "b", "trial_id": "stroop-trial-1-congruent-14", "trial_type": "html-keyboard-response", "trial_index": 176, "time_elapsed": 334142, "internal_node_id": "0.0-6.0-81.0"}}, {"uniqueid": "w88426097:a76175203", "current_trial": 177, "dateTime": 1664555364014, "trialdata": {"rt": 3009, "stimulus": "<p id='stroop-text' class='stroop-red'>RED</p>", "response": "r", "stimulus-type": "congruent", "word": "red", "color": "red", "correct_response": "r", "trial_id": "stroop-trial-1-congruent-24", "trial_type": "html-keyboard-response", "trial_index": 177, "time_elapsed": 337654, "internal_node_id": "0.0-6.0-82.0"}}, {"uniqueid": "w88426097:a76175203", "current_trial": 178, "dateTime": 1664555365270, "trialdata": {"rt": 754, "stimulus": "<p id='stroop-text' class='stroop-green'>DOG</p>", "response": "g", "stimulus-type": "unrelated", "word": "DOG", "color": "green", "correct_response": "g", "trial_id": "stroop-trial-1-unrelated-6", "trial_type": "html-keyboard-response", "trial_index": 178, "time_elapsed": 338911, "internal_node_id": "0.0-6.0-83.0"}}, {"uniqueid": "w88426097:a76175203", "current_trial": 179, "dateTime": 1664555366979, "trialdata": {"rt": 1206, "stimulus": "<p id='stroop-text' class='stroop-yellow'>RED</p>", "response": "y", "stimulus-type": "incongruent", "word": "red", "color": "yellow", "correct_response": "y", "trial_id": "stroop-trial-1-incongruent-10", "trial_type": "html-keyboard-response", "trial_index": 179, "time_elapsed": 340619, "internal_node_id": "0.0-6.0-84.0"}}, {"uniqueid": "w88426097:a76175203", "current_trial": 180, "dateTime": 1664555367915, "trialdata": {"rt": 433, "stimulus": "<p id='stroop-text' class='stroop-yellow'>YELLOW</p>", "response": "y", "stimulus-type": "congruent", "word": "yellow", "color": "yellow", "correct_response": "y", "trial_id": "stroop-trial-1-congruent-1", "trial_type": "html-keyboard-response", "trial_index": 180, "time_elapsed": 341556, "internal_node_id": "0.0-6.0-85.0"}}, {"uniqueid": "w88426097:a76175203", "current_trial": 181, "dateTime": 1664555368797, "trialdata": {"rt": 378, "stimulus": "<p id='stroop-text' class='stroop-yellow'>YELLOW</p>", "response": "y", "stimulus-type": "congruent", "word": "yellow", "color": "yellow", "correct_response": "y", "trial_id": "stroop-trial-1-congruent-8", "trial_type": "html-keyboard-response", "trial_index": 181, "time_elapsed": 342437, "internal_node_id": "0.0-6.0-86.0"}}, {"uniqueid": "w88426097:a76175203", "current_trial": 182, "dateTime": 1664555370807, "trialdata": {"rt": 1508, "stimulus": "<p id='stroop-text' class='stroop-red'>RED</p>", "response": "r", "stimulus-type": "congruent", "word": "red", "color": "red", "correct_response": "r", "trial_id": "stroop-trial-1-congruent-5", "trial_type": "html-keyboard-response", "trial_index": 182, "time_elapsed": 344448, "internal_node_id": "0.0-6.0-87.0"}}, {"uniqueid": "w88426097:a76175203", "current_trial": 183, "dateTime": 1664555371795, "trialdata": {"rt": 485, "stimulus": "<p id='stroop-text' class='stroop-red'>CHAIR</p>", "response": "r", "stimulus-type": "unrelated", "word": "CHAIR", "color": "red", "correct_response": "r", "trial_id": "stroop-trial-1-unrelated-8", "trial_type": "html-keyboard-response", "trial_index": 183, "time_elapsed": 345436, "internal_node_id": "0.0-6.0-88.0"}}, {"uniqueid": "w88426097:a76175203", "current_trial": 184, "dateTime": 1664555372911, "trialdata": {"rt": 613, "stimulus": "<p id='stroop-text' class='stroop-yellow'>STONE</p>", "response": "y", "stimulus-type": "unrelated", "word": "STONE", "color": "yellow", "correct_response": "y", "trial_id": "stroop-trial-1-unrelated-14", "trial_type": "html-keyboard-response", "trial_index": 184, "time_elapsed": 346552, "internal_node_id": "0.0-6.0-89.0"}}, {"uniqueid": "w88426097:a76175203", "current_trial": 185, "dateTime": 1664555376120, "trialdata": {"rt": 2707, "stimulus": "  <h1> End of block! </h1>\n\n  You have reached the end of the block 2/5. If you need a short break, feel free to take one now before moving on.\n\n  <br><br>\n  In the next block, you will complete another 90 rounds of this game.\n\n  <br><br>\n  <div style='text-align: center;'>Press <code>space</code> to begin.</div>\n  <br><br>\n<div style='text-align: center;'>(If the experiment doesn't continue, try clicking on the text and then pressing <code>space</code>.)</div>", "response": " ", "trial_id": "stroop_1_ready_3", "trial_type": "html-keyboard-response", "trial_index": 185, "time_elapsed": 349761, "internal_node_id": "0.0-7.0"}}, {"uniqueid": "w88426097:a76175203", "current_trial": 186, "dateTime": 1664555377309, "trialdata": {"rt": 1186, "stimulus": "<p id='stroop-text' class='stroop-blue'>DOG</p>", "response": "b", "stimulus-type": "unrelated", "word": "DOG", "color": "blue", "correct_response": "b", "trial_id": "stroop-trial-1-unrelated-21", "trial_type": "html-keyboard-response", "trial_index": 186, "time_elapsed": 350950, "internal_node_id": "0.0-8.0-0.0"}}, {"uniqueid": "w88426097:a76175203", "current_trial": 187, "dateTime": 1664555378507, "trialdata": {"rt": 696, "stimulus": "<p id='stroop-text' class='stroop-red'>GREEN</p>", "response": "r", "stimulus-type": "incongruent", "word": "green", "color": "red", "correct_response": "r", "trial_id": "stroop-trial-1-incongruent-18", "trial_type": "html-keyboard-response", "trial_index": 187, "time_elapsed": 352147, "internal_node_id": "0.0-8.0-1.0"}}, {"uniqueid": "w88426097:a76175203", "current_trial": 188, "dateTime": 1664555380822, "trialdata": {"rt": 1813, "stimulus": "<p id='stroop-text' class='stroop-red'>BOAT</p>", "response": "r", "stimulus-type": "unrelated", "word": "BOAT", "color": "red", "correct_response": "r", "trial_id": "stroop-trial-1-unrelated-27", "trial_type": "html-keyboard-response", "trial_index": 188, "time_elapsed": 354463, "internal_node_id": "0.0-8.0-2.0"}}, {"uniqueid": "w88426097:a76175203", "current_trial": 189, "dateTime": 1664555382015, "trialdata": {"rt": 690, "stimulus": "<p id='stroop-text' class='stroop-yellow'>BOTTLE</p>", "response": "y", "stimulus-type": "unrelated", "word": "BOTTLE", "color": "yellow", "correct_response": "y", "trial_id": "stroop-trial-1-unrelated-2", "trial_type": "html-keyboard-response", "trial_index": 189, "time_elapsed": 355656, "internal_node_id": "0.0-8.0-3.0"}}, {"uniqueid": "w88426097:a76175203", "current_trial": 190, "dateTime": 1664555383216, "trialdata": {"rt": 699, "stimulus": "<p id='stroop-text' class='stroop-red'>WINDOW</p>", "response": "r", "stimulus-type": "unrelated", "word": "WINDOW", "color": "red", "correct_response": "r", "trial_id": "stroop-trial-1-unrelated-3", "trial_type": "html-keyboard-response", "trial_index": 190, "time_elapsed": 356857, "internal_node_id": "0.0-8.0-4.0"}}, {"uniqueid": "w88426097:a76175203", "current_trial": 191, "dateTime": 1664555384395, "trialdata": {"rt": 675, "stimulus": "<p id='stroop-text' class='stroop-red'>RED</p>", "response": "r", "stimulus-type": "congruent", "word": "red", "color": "red", "correct_response": "r", "trial_id": "stroop-trial-1-congruent-2", "trial_type": "html-keyboard-response", "trial_index": 191, "time_elapsed": 358035, "internal_node_id": "0.0-8.0-5.0"}}, {"uniqueid": "w88426097:a76175203", "current_trial": 192, "dateTime": 1664555515766, "trialdata": {"rt": 130869, "stimulus": "<p id='stroop-text' class='stroop-blue'>BLUE</p>", "response": "b", "stimulus-type": "congruent", "word": "blue", "color": "blue", "correct_response": "b", "trial_id": "stroop-trial-1-congruent-21", "trial_type": "html-keyboard-response", "trial_index": 192, "time_elapsed": 489407, "internal_node_id": "0.0-8.0-6.0"}}, {"uniqueid": "w88426097:a76175203", "current_trial": 193, "dateTime": 1664555518988, "trialdata": {"rt": 2717, "stimulus": "<p id='stroop-text' class='stroop-blue'>GREEN</p>", "response": "b", "stimulus-type": "incongruent", "word": "green", "color": "blue", "correct_response": "b", "trial_id": "stroop-trial-1-incongruent-2", "trial_type": "html-keyboard-response", "trial_index": 193, "time_elapsed": 492629, "internal_node_id": "0.0-8.0-7.0"}}, {"uniqueid": "w88426097:a76175203", "current_trial": 194, "dateTime": 1664555521169, "trialdata": {"rt": 1680, "stimulus": "<p id='stroop-text' class='stroop-red'>RED</p>", "response": "r", "stimulus-type": "congruent", "word": "red", "color": "red", "correct_response": "r", "trial_id": "stroop-trial-1-congruent-28", "trial_type": "html-keyboard-response", "trial_index": 194, "time_elapsed": 494810, "internal_node_id": "0.0-8.0-8.0"}}, {"uniqueid": "w88426097:a76175203", "current_trial": 195, "dateTime": 1664555523445, "trialdata": {"rt": 1773, "stimulus": "<p id='stroop-text' class='stroop-blue'>RED</p>", "response": "b", "stimulus-type": "incongruent", "word": "red", "color": "blue", "correct_response": "b", "trial_id": "stroop-trial-1-incongruent-3", "trial_type": "html-keyboard-response", "trial_index": 195, "time_elapsed": 497086, "internal_node_id": "0.0-8.0-9.0"}}, {"uniqueid": "w88426097:a76175203", "current_trial": 196, "dateTime": 1664555530704, "trialdata": {"rt": 6756, "stimulus": "<p id='stroop-text' class='stroop-green'>YELLOW</p>", "response": "g", "stimulus-type": "incongruent", "word": "yellow", "color": "green", "correct_response": "g", "trial_id": "stroop-trial-1-incongruent-22", "trial_type": "html-keyboard-response", "trial_index": 196, "time_elapsed": 504345, "internal_node_id": "0.0-8.0-10.0"}}, {"uniqueid": "w88426097:a76175203", "current_trial": 197, "dateTime": 1664555533044, "trialdata": {"rt": 1837, "stimulus": "<p id='stroop-text' class='stroop-green'>GREEN</p>", "response": "g", "stimulus-type": "congruent", "word": "green", "color": "green", "correct_response": "g", "trial_id": "stroop-trial-1-congruent-6", "trial_type": "html-keyboard-response", "trial_index": 197, "time_elapsed": 506685, "internal_node_id": "0.0-8.0-11.0"}}, {"uniqueid": "w88426097:a76175203", "current_trial": 198, "dateTime": 1664555535101, "trialdata": {"rt": 1555, "stimulus": "<p id='stroop-text' class='stroop-yellow'>BLUE</p>", "response": "y", "stimulus-type": "incongruent", "word": "blue", "color": "yellow", "correct_response": "y", "trial_id": "stroop-trial-1-incongruent-8", "trial_type": "html-keyboard-response", "trial_index": 198, "time_elapsed": 508742, "internal_node_id": "0.0-8.0-12.0"}}, {"uniqueid": "w88426097:a76175203", "current_trial": 199, "dateTime": 1664555536092, "trialdata": {"rt": 488, "stimulus": "<p id='stroop-text' class='stroop-yellow'>YELLOW</p>", "response": "y", "stimulus-type": "congruent", "word": "yellow", "color": "yellow", "correct_response": "y", "trial_id": "stroop-trial-1-congruent-15", "trial_type": "html-keyboard-response", "trial_index": 199, "time_elapsed": 509733, "internal_node_id": "0.0-8.0-13.0"}}, {"uniqueid": "w88426097:a76175203", "current_trial": 200, "dateTime": 1664555543409, "trialdata": {"rt": 6813, "stimulus": "<p id='stroop-text' class='stroop-green'>WINDOW</p>", "response": "g", "stimulus-type": "unrelated", "word": "WINDOW", "color": "green", "correct_response": "g", "trial_id": "stroop-trial-1-unrelated-25", "trial_type": "html-keyboard-response", "trial_index": 200, "time_elapsed": 517049, "internal_node_id": "0.0-8.0-14.0"}}, {"uniqueid": "w88426097:a76175203", "current_trial": 201, "dateTime": 1664555544673, "trialdata": {"rt": 762, "stimulus": "<p id='stroop-text' class='stroop-blue'>BLUE</p>", "response": "b", "stimulus-type": "congruent", "word": "blue", "color": "blue", "correct_response": "b", "trial_id": "stroop-trial-1-congruent-23", "trial_type": "html-keyboard-response", "trial_index": 201, "time_elapsed": 518313, "internal_node_id": "0.0-8.0-15.0"}}, {"uniqueid": "w88426097:a76175203", "current_trial": 202, "dateTime": 1664555546752, "trialdata": {"rt": 1565, "stimulus": "<p id='stroop-text' class='stroop-blue'>WINDOW</p>", "response": "b", "stimulus-type": "unrelated", "word": "WINDOW", "color": "blue", "correct_response": "b", "trial_id": "stroop-trial-1-unrelated-20", "trial_type": "html-keyboard-response", "trial_index": 202, "time_elapsed": 520392, "internal_node_id": "0.0-8.0-16.0"}}, {"uniqueid": "w88426097:a76175203", "current_trial": 203, "dateTime": 1664555547957, "trialdata": {"rt": 702, "stimulus": "<p id='stroop-text' class='stroop-blue'>BLUE</p>", "response": "b", "stimulus-type": "congruent", "word": "blue", "color": "blue", "correct_response": "b", "trial_id": "stroop-trial-1-congruent-13", "trial_type": "html-keyboard-response", "trial_index": 203, "time_elapsed": 521597, "internal_node_id": "0.0-8.0-17.0"}}, {"uniqueid": "w88426097:a76175203", "current_trial": 204, "dateTime": 1664555558444, "trialdata": {"rt": 9986, "stimulus": "<p id='stroop-text' class='stroop-yellow'>MONKEY</p>", "response": "y", "stimulus-type": "unrelated", "word": "MONKEY", "color": "yellow", "correct_response": "y", "trial_id": "stroop-trial-1-unrelated-7", "trial_type": "html-keyboard-response", "trial_index": 204, "time_elapsed": 532085, "internal_node_id": "0.0-8.0-18.0"}}, {"uniqueid": "w88426097:a76175203", "current_trial": 205, "dateTime": 1664555560193, "trialdata": {"rt": 1245, "stimulus": "<p id='stroop-text' class='stroop-red'>RED</p>", "response": "r", "stimulus-type": "congruent", "word": "red", "color": "red", "correct_response": "r", "trial_id": "stroop-trial-1-congruent-29", "trial_type": "html-keyboard-response", "trial_index": 205, "time_elapsed": 533833, "internal_node_id": "0.0-8.0-19.0"}}, {"uniqueid": "w88426097:a76175203", "current_trial": 206, "dateTime": 1664555582070, "trialdata": {"rt": 21374, "stimulus": "<p id='stroop-text' class='stroop-green'>BLUE</p>", "response": "g", "stimulus-type": "incongruent", "word": "blue", "color": "green", "correct_response": "g", "trial_id": "stroop-trial-1-incongruent-30", "trial_type": "html-keyboard-response", "trial_index": 206, "time_elapsed": 555711, "internal_node_id": "0.0-8.0-20.0"}}, {"uniqueid": "w88426097:a76175203", "current_trial": 207, "dateTime": 1664555585536, "trialdata": {"rt": 2963, "stimulus": "<p id='stroop-text' class='stroop-green'>BRIDGE</p>", "response": "g", "stimulus-type": "unrelated", "word": "BRIDGE", "color": "green", "correct_response": "g", "trial_id": "stroop-trial-1-unrelated-17", "trial_type": "html-keyboard-response", "trial_index": 207, "time_elapsed": 559177, "internal_node_id": "0.0-8.0-21.0"}}, {"uniqueid": "w88426097:a76175203", "current_trial": 208, "dateTime": 1664555587532, "trialdata": {"rt": 1493, "stimulus": "<p id='stroop-text' class='stroop-red'>YELLOW</p>", "response": "r", "stimulus-type": "incongruent", "word": "yellow", "color": "red", "correct_response": "r", "trial_id": "stroop-trial-1-incongruent-19", "trial_type": "html-keyboard-response", "trial_index": 208, "time_elapsed": 561173, "internal_node_id": "0.0-8.0-22.0"}}, {"uniqueid": "w88426097:a76175203", "current_trial": 209, "dateTime": 1664555588792, "trialdata": {"rt": 757, "stimulus": "<p id='stroop-text' class='stroop-blue'>BLUE</p>", "response": "b", "stimulus-type": "congruent", "word": "blue", "color": "blue", "correct_response": "b", "trial_id": "stroop-trial-1-congruent-17", "trial_type": "html-keyboard-response", "trial_index": 209, "time_elapsed": 562432, "internal_node_id": "0.0-8.0-23.0"}}, {"uniqueid": "w88426097:a76175203", "current_trial": 210, "dateTime": 1664555589958, "trialdata": {"rt": 664, "stimulus": "<p id='stroop-text' class='stroop-red'>DOG</p>", "response": "r", "stimulus-type": "unrelated", "word": "DOG", "color": "red", "correct_response": "r", "trial_id": "stroop-trial-1-unrelated-22", "trial_type": "html-keyboard-response", "trial_index": 210, "time_elapsed": 563598, "internal_node_id": "0.0-8.0-24.0"}}, {"uniqueid": "w88426097:a76175203", "current_trial": 211, "dateTime": 1664555591023, "trialdata": {"rt": 563, "stimulus": "<p id='stroop-text' class='stroop-red'>BLUE</p>", "response": "r", "stimulus-type": "incongruent", "word": "blue", "color": "red", "correct_response": "r", "trial_id": "stroop-trial-1-incongruent-26", "trial_type": "html-keyboard-response", "trial_index": 211, "time_elapsed": 564663, "internal_node_id": "0.0-8.0-25.0"}}, {"uniqueid": "w88426097:a76175203", "current_trial": 212, "dateTime": 1664555592029, "trialdata": {"rt": 504, "stimulus": "<p id='stroop-text' class='stroop-yellow'>YELLOW</p>", "response": "y", "stimulus-type": "congruent", "word": "yellow", "color": "yellow", "correct_response": "y", "trial_id": "stroop-trial-1-congruent-30", "trial_type": "html-keyboard-response", "trial_index": 212, "time_elapsed": 565670, "internal_node_id": "0.0-8.0-26.0"}}, {"uniqueid": "w88426097:a76175203", "current_trial": 213, "dateTime": 1664555593342, "trialdata": {"rt": 809, "stimulus": "<p id='stroop-text' class='stroop-green'>FORK</p>", "response": "g", "stimulus-type": "unrelated", "word": "FORK", "color": "green", "correct_response": "g", "trial_id": "stroop-trial-1-unrelated-8", "trial_type": "html-keyboard-response", "trial_index": 213, "time_elapsed": 566982, "internal_node_id": "0.0-8.0-27.0"}}, {"uniqueid": "w88426097:a76175203", "current_trial": 214, "dateTime": 1664555597008, "trialdata": {"rt": 3163, "stimulus": "<p id='stroop-text' class='stroop-red'>DOG</p>", "response": "r", "stimulus-type": "unrelated", "word": "DOG", "color": "red", "correct_response": "r", "trial_id": "stroop-trial-1-unrelated-6", "trial_type": "html-keyboard-response", "trial_index": 214, "time_elapsed": 570649, "internal_node_id": "0.0-8.0-28.0"}}, {"uniqueid": "w88426097:a76175203", "current_trial": 215, "dateTime": 1664555598078, "trialdata": {"rt": 559, "stimulus": "<p id='stroop-text' class='stroop-red'>BOTTLE</p>", "response": "r", "stimulus-type": "unrelated", "word": "BOTTLE", "color": "red", "correct_response": "r", "trial_id": "stroop-trial-1-unrelated-14", "trial_type": "html-keyboard-response", "trial_index": 215, "time_elapsed": 571719, "internal_node_id": "0.0-8.0-29.0"}}, {"uniqueid": "w88426097:a76175203", "current_trial": 216, "dateTime": 1664555599050, "trialdata": {"rt": 470, "stimulus": "<p id='stroop-text' class='stroop-red'>GREEN</p>", "response": "r", "stimulus-type": "incongruent", "word": "green", "color": "red", "correct_response": "r", "trial_id": "stroop-trial-1-incongruent-17", "trial_type": "html-keyboard-response", "trial_index": 216, "time_elapsed": 572691, "internal_node_id": "0.0-8.0-30.0"}}, {"uniqueid": "w88426097:a76175203", "current_trial": 217, "dateTime": 1664555600089, "trialdata": {"rt": 537, "stimulus": "<p id='stroop-text' class='stroop-blue'>YELLOW</p>", "response": "b", "stimulus-type": "incongruent", "word": "yellow", "color": "blue", "correct_response": "b", "trial_id": "stroop-trial-1-incongruent-14", "trial_type": "html-keyboard-response", "trial_index": 217, "time_elapsed": 573730, "internal_node_id": "0.0-8.0-31.0"}}, {"uniqueid": "w88426097:a76175203", "current_trial": 218, "dateTime": 1664555601038, "trialdata": {"rt": 446, "stimulus": "<p id='stroop-text' class='stroop-yellow'>GREEN</p>", "response": "y", "stimulus-type": "incongruent", "word": "green", "color": "yellow", "correct_response": "y", "trial_id": "stroop-trial-1-incongruent-6", "trial_type": "html-keyboard-response", "trial_index": 218, "time_elapsed": 574678, "internal_node_id": "0.0-8.0-32.0"}}, {"uniqueid": "w88426097:a76175203", "current_trial": 219, "dateTime": 1664555601970, "trialdata": {"rt": 429, "stimulus": "<p id='stroop-text' class='stroop-red'>MONKEY</p>", "response": "r", "stimulus-type": "unrelated", "word": "MONKEY", "color": "red", "correct_response": "r", "trial_id": "stroop-trial-1-unrelated-30", "trial_type": "html-keyboard-response", "trial_index": 219, "time_elapsed": 575611, "internal_node_id": "0.0-8.0-33.0"}}, {"uniqueid": "w88426097:a76175203", "current_trial": 220, "dateTime": 1664555603019, "trialdata": {"rt": 545, "stimulus": "<p id='stroop-text' class='stroop-green'>GREEN</p>", "response": "g", "stimulus-type": "congruent", "word": "green", "color": "green", "correct_response": "g", "trial_id": "stroop-trial-1-congruent-1", "trial_type": "html-keyboard-response", "trial_index": 220, "time_elapsed": 576659, "internal_node_id": "0.0-8.0-34.0"}}, {"uniqueid": "w88426097:a76175203", "current_trial": 221, "dateTime": 1664555604872, "trialdata": {"rt": 1350, "stimulus": "<p id='stroop-text' class='stroop-red'>RED</p>", "response": "r", "stimulus-type": "congruent", "word": "red", "color": "red", "correct_response": "r", "trial_id": "stroop-trial-1-congruent-14", "trial_type": "html-keyboard-response", "trial_index": 221, "time_elapsed": 578512, "internal_node_id": "0.0-8.0-35.0"}}, {"uniqueid": "w88426097:a76175203", "current_trial": 222, "dateTime": 1664555606657, "trialdata": {"rt": 1283, "stimulus": "<p id='stroop-text' class='stroop-blue'>GREEN</p>", "response": "b", "stimulus-type": "incongruent", "word": "green", "color": "blue", "correct_response": "b", "trial_id": "stroop-trial-1-incongruent-5", "trial_type": "html-keyboard-respons