{"condition": 1, "counterbalance": 0, "assignmentId": "a88301634", "workerId": "w21090716", "hitId": "h12487396", "currenttrial": 143, "bonus": 0, "data": [{"uniqueid": "w21090716:a88301634", "current_trial": 0, "dateTime": 1664463988552, "trialdata": {"success": true, "trial_type": "fullscreen", "trial_index": 0, "time_elapsed": 6638, "internal_node_id": "0.0-0.0"}}, {"uniqueid": "w21090716:a88301634", "current_trial": 1, "dateTime": 1664464009311, "trialdata": {"view_history": [{"page_index": 0, "viewing_time": 20742}], "rt": 20743, "trial_id": "exp_instructions_no_distractor", "trial_type": "instructions", "trial_index": 1, "time_elapsed": 27398, "internal_node_id": "0.0-1.0"}}, {"uniqueid": "w21090716:a88301634", "current_trial": 2, "dateTime": 1664464013358, "trialdata": {"success": true, "trial_type": "fullscreen", "trial_index": 2, "time_elapsed": 31445, "internal_node_id": "0.0-2.0-0.0"}}, {"uniqueid": "w21090716:a88301634", "current_trial": 3, "dateTime": 1664464189510, "trialdata": {"view_history": [{"page_index": 0, "viewing_time": 61442}, {"page_index": 1, "viewing_time": 47660}, {"page_index": 2, "viewing_time": 11985}, {"page_index": 1, "viewing_time": 10410}, {"page_index": 2, "viewing_time": 2969}, {"page_index": 3, "viewing_time": 11250}, {"page_index": 4, "viewing_time": 30429}], "rt": 176145, "trial_id": "mouselab_instructions_1", "trial_type": "instructions", "trial_index": 3, "time_elapsed": 207597, "internal_node_id": "0.0-2.0-1.0"}}, {"uniqueid": "w21090716:a88301634", "current_trial": 4, "dateTime": 1664464218459, "trialdata": {"revealed_states": [], "num_clicks_accrued": [0, 0, 0, 0, 0, 0, 0, 0, 0, 0, 0, 0, 0], "stateRewards": ["", -10, 10, 10, -10, -10, -10, 10, 10, 10, 10, 10, -10], "withholdReward": false, "trial_id": "practice_1", "block": "test", "trialIndex": 0, "score": 31, "costs": -1, "simulationMode": [null, null, null], "rewards": [10, 10, 10], "path": ["0", "0", "9", "10", "11"], "rt": [15876, 499, 513], "actions": ["left", "left", "up"], "actionTimes": [18934, 19950, 20980], "queries": {"click": {"state": {"target": ["5", "9", "10", "11"], "time": [8747, 10474, 14612, 16876]}, "edge": {"target": [], "time": []}}, "mouseover": {"state": {"target": ["0", "5", "0", "9", "1", "1", "1", "10", "11"], "time": [6506, 6766, 9368, 9767, 11135, 12769, 13854, 14367, 15334]}, "edge": {"target": [], "time": []}}, "mouseout": {"state": {"target": ["5", "0", "0", "5", "0", "9", "1", "1", "1", "10", "11"], "time": [151, 2118, 6536, 9220, 9435, 10851, 12383, 13634, 14052, 15084, 17352]}, "edge": {"target": [], "time": []}}}, "displayed_time": "21.48", "trialTime": 28645, "trial_type": "mouselab-mdp", "trial_index": 4, "time_elapsed": 236545, "internal_node_id": "0.0-2.0-2.0-0.0"}}, {"uniqueid": "w21090716:a88301634", "current_trial": 5, "dateTime": 1664464230281, "trialdata": {"revealed_states": [], "num_clicks_accrued": [0, 0, 0, 0, 0, 0, 0, 0, 0, 0, 0, 0, 0], "stateRewards": ["", -10, -10, -10, 10, 10, 10, 10, 10, 10, -10, -10, -10], "withholdReward": false, "trial_id": "practice_2", "block": "test", "trialIndex": 1, "score": 30.5, "costs": -1.5, "simulationMode": [null, null, null], "rewards": [10, 10, 10], "path": ["0", "0", "5", "6", "8"], "rt": [6753, 100, 131], "actions": ["right", "right", "down"], "actionTimes": [8601, 9209, 9841], "queries": {"click": {"state": {"target": ["9", "10", "1", "5", "6", "8"], "time": [2914, 3704, 4847, 5461, 6261, 6967]}, "edge": {"target": [], "time": []}}, "mouseover": {"state": {"target": ["9", "0", "10", "1", "5", "6", "8"], "time": [2442, 3242, 3493, 4661, 5342, 5942, 6794]}, "edge": {"target": [], "time": []}}, "mouseout": {"state": {"target": ["9", "0", "9", "10", "1", "5", "6", "8"], "time": [3175, 3345, 3442, 4326, 5109, 5775, 6726, 7759]}, "edge": {"target": [], "time": []}}}, "displayed_time": "10.34", "trialTime": 11761, "trial_type": "mouselab-mdp", "trial_index": 5, "time_elapsed": 248368, "internal_node_id": "0.0-2.0-2.0-1.0"}}, {"uniqueid": "w21090716:a88301634", "current_trial": 6, "dateTime": 1664464303271, "trialdata": {"view_history": [{"page_index": 0, "viewing_time": 41849}, {"page_index": 1, "viewing_time": 20864}, {"page_index": 2, "viewing_time": 10272}], "rt": 72985, "trial_id": "mouselab_instructions_2_scarce", "trial_type": "instructions", "trial_index": 6, "time_elapsed": 321358, "internal_node_id": "0.0-2.0-3.0"}}, {"uniqueid": "w21090716:a88301634", "current_trial": 7, "dateTime": 1664464374197, "trialdata": {"rt": 70922, "response": {"Q0": "$-48 to $48", "Q1": "The cost is always $0.25.", "Q2": "The better I perform the higher my bonus will be.", "Q3": "Yes.", "Q4": "The values of the nodes walked through from start to finish.", "Q5": "No, the spider might forget to count the money on some rounds."}, "question_order": [0, 1, 2, 3, 4, 5], "correct": {"Q0": "$-48 to $48", "Q1": "The cost is always $0.25.", "Q2": "The better I perform the higher my bonus will be.", "Q3": "No, the amount of cash at each node of the web may be different each time.", "Q4": "The values of the nodes walked through from start to finish.", "Q5": "No, the spider might forget to count the money on some rounds."}, "trial_id": "mouselab_quiz_scarce", "trial_type": "survey-multi-choice", "trial_index": 7, "time_elapsed": 392284, "internal_node_id": "0.0-2.0-4.0"}}, {"uniqueid": "w21090716:a88301634", "current_trial": 8, "dateTime": 1664464384332, "trialdata": {"success": true, "trial_type": "fullscreen", "trial_index": 8, "time_elapsed": 402419, "internal_node_id": "0.0-2.1-0.1"}}, {"uniqueid": "w21090716:a88301634", "current_trial": 9, "dateTime": 1664464486548, "trialdata": {"view_history": [{"page_index": 0, "viewing_time": 20486}, {"page_index": 1, "viewing_time": 20576}, {"page_index": 2, "viewing_time": 9091}, {"page_index": 3, "viewing_time": 3362}, {"page_index": 4, "viewing_time": 48698}], "rt": 102213, "trial_id": "mouselab_instructions_1", "trial_type": "instructions", "trial_index": 9, "time_elapsed": 504635, "internal_node_id": "0.0-2.1-1.1"}}, {"uniqueid": "w21090716:a88301634", "current_trial": 10, "dateTime": 1664464497963, "trialdata": {"revealed_states": [], "num_clicks_accrued": [0, 0, 0, 0, 0, 0, 0, 0, 0, 0, 0, 0, 0], "stateRewards": ["", -10, 10, 10, -10, -10, -10, 10, 10, 10, 10, 10, -10], "withholdReward": false, "trial_id": "practice_1", "block": "test", "trialIndex": 2, "score": 30.75, "costs": -1.25, "simulationMode": [null, null, null], "rewards": [10, 10, 10], "path": ["0", "0", "9", "10", "11"], "rt": [6326, 253, 158], "actions": ["left", "left", "up"], "actionTimes": [7833, 8575, 9247], "queries": {"click": {"state": {"target": ["5", "1", "9", "10", "11"], "time": [3614, 4270, 4922, 5482, 6122]}, "edge": {"target": [], "time": []}}, "mouseover": {"state": {"target": ["0", "5", "1", "9", "10", "11"], "time": [3108, 3222, 4072, 4804, 5288, 5954]}, "edge": {"target": [], "time": []}}, "mouseout": {"state": {"target": ["12", "0", "0", "5", "5", "1", "9", "10", "11", "10"], "time": [537, 2922, 3172, 3839, 4005, 4471, 5204, 5687, 6290, 6404]}, "edge": {"target": [], "time": []}}}, "displayed_time": "9.76", "trialTime": 11352, "trial_type": "mouselab-mdp", "trial_index": 10, "time_elapsed": 516050, "internal_node_id": "0.0-2.1-2.1-0.1"}}, {"uniqueid": "w21090716:a88301634", "current_trial": 11, "dateTime": 1664464509209, "trialdata": {"revealed_states": [], "num_clicks_accrued": [0, 0, 0, 0, 0, 0, 0, 0, 0, 0, 0, 0, 0], "stateRewards": ["", -10, -10, -10, 10, 10, 10, 10, 10, 10, -10, -10, -10], "withholdReward": false, "trial_id": "practice_2", "block": "test", "trialIndex": 3, "score": 30.5, "costs": -1.5, "simulationMode": [null, null, null], "rewards": [10, 10, 10], "path": ["0", "0", "5", "6", "7"], "rt": [5847, 124, 152], "actions": ["right", "right", "up"], "actionTimes": [8024, 8665, 9336], "queries": {"click": {"state": {"target": ["9", "10", "1", "5", "6", "7"], "time": [3384, 4064, 4927, 5475, 6317, 6782]}, "edge": {"target": [], "time": []}}, "mouseover": {"state": {"target": ["0", "9", "10", "11", "1", "1", "5", "6", "6", "7"], "time": [2891, 3208, 3940, 4441, 4590, 4807, 5324, 5875, 6175, 6657]}, "edge": {"target": [], "time": []}}, "mouseout": {"state": {"target": ["10", "9", "0", "0", "9", "9", "10", "11", "1", "1", "5", "6", "6", "7"], "time": [1493, 1724, 2007, 3091, 3624, 3824, 4274, 4473, 4624, 5140, 5723, 5959, 6574, 7023]}, "edge": {"target": [], "time": []}}}, "displayed_time": "9.84", "trialTime": 11169, "trial_type": "mouselab-mdp", "trial_index": 11, "time_elapsed": 527296, "internal_node_id": "0.0-2.1-2.1-1.1"}}, {"uniqueid": "w21090716:a88301634", "current_trial": 12, "dateTime": 1664464578447, "trialdata": {"view_history": [{"page_index": 0, "viewing_time": 24802}, {"page_index": 1, "viewing_time": 27975}, {"page_index": 2, "viewing_time": 16456}], "rt": 69233, "trial_id": "mouselab_instructions_2_scarce", "trial_type": "instructions", "trial_index": 12, "time_elapsed": 596534, "internal_node_id": "0.0-2.1-3.1"}}, {"uniqueid": "w21090716:a88301634", "current_trial": 13, "dateTime": 1664464626718, "trialdata": {"rt": 48268, "response": {"Q0": "$-48 to $48", "Q1": "The cost is always $0.25.", "Q2": "The better I perform the higher my bonus will be.", "Q3": "No, the amount of cash at each node of the web may be different each time.", "Q4": "The values of the nodes walked through from start to finish.", "Q5": "No, the spider might forget to count the money on some rounds."}, "question_order": [0, 1, 2, 3, 4, 5], "correct": {"Q0": "$-48 to $48", "Q1": "The cost is always $0.25.", "Q2": "The better I perform the higher my bonus will be.", "Q3": "No, the amount of cash at each node of the web may be different each time.", "Q4": "The values of the nodes walked through from start to finish.", "Q5": "No, the spider might forget to count the money on some rounds."}, "trial_id": "mouselab_quiz_scarce", "trial_type": "survey-multi-choice", "trial_index": 13, "time_elapsed": 644805, "internal_node_id": "0.0-2.1-4.1"}}, {"uniqueid": "w21090716:a88301634", "current_trial": 14, "dateTime": 1664464652348, "trialdata": {"rt": 25620, "stimulus": "\n<h1> Get ready to start the game! </h1>\n\nThank you for reading the instructions. Get ready start with the first of 4 block(s) of this game.\n<br><br>\nIn this first block, you will complete 30 rounds of this game before moving on.\n<br><br>\nRemember, the more money the spider gets, the bigger your bonus will be!\n<br><br>\n<div style='text-align: center;'>Press <code>space</code> to begin.</div>\n\n<br><br>\n(If, at any point, the <code>space</code> key does not take you to the next page, click once on the text and try again.)", "response": " ", "trial_id": "mdp_ready_1", "trial_type": "html-keyboard-response", "trial_index": 14, "time_elapsed": 670435, "internal_node_id": "0.0-4.0-0.0"}}, {"uniqueid": "w21090716:a88301634", "current_trial": 15, "dateTime": 1664464672434, "trialdata": {"revealed_states": [], "num_clicks_accrued": [0, 0, 0, 0, 0, 0, 0, 0, 0, 0, 0, 0, 0], "stateRewards": ["", -4, -4, -24, 24, 4, 4, -24, -24, -4, 4, 24, 24], "withholdReward": false, "trial_id": "mdp_787781487383", "block": "test1", "trialIndex": 4, "score": -12.5, "costs": -1.5, "simulationMode": [null, null, null], "rewards": [4, 4, -24], "path": ["0", "0", "5", "6", "8"], "rt": [7641, 222, 6450], "actions": ["right", "right", "down"], "actionTimes": [9972, 10692, 17635], "queries": {"click": {"state": {"target": ["5", "1", "9", "6", "7", "8"], "time": [4477, 5261, 5893, 6667, 7270, 8330]}, "edge": {"target": [], "time": []}}, "mouseover": {"state": {"target": ["8", "5", "1", "9", "6", "7", "8"], "time": [2686, 4289, 4886, 5686, 6418, 7069, 8069]}, "edge": {"target": [], "time": []}}, "mouseout": {"state": {"target": ["11", "9", "0", "8", "0", "8", "5", "1", "9", "5", "6", "7", "6", "8", "6", "5"], "time": [587, 652, 702, 1186, 2603, 2920, 4822, 5485, 6052, 6371, 6835, 7452, 7936, 9118, 9169, 18985]}, "edge": {"target": [], "time": []}}}, "displayed_time": "18.15", "trialTime": 19996, "trial_type": "mouselab-mdp", "trial_index": 15, "time_elapsed": 690520, "internal_node_id": "0.0-4.0-1.0-0.0"}}, {"uniqueid": "w21090716:a88301634", "current_trial": 16, "dateTime": 1664464687539, "trialdata": {"revealed_states": [], "num_clicks_accrued": [0, 0, 0, 0, 0, 0, 0, 0, 0, 0, 0, 0, 0], "stateRewards": ["", 2, 4, -48, -48, 4, 4, -48, -48, -2, -8, 48, -24], "withholdReward": true, "trial_id": "mdp_175327338412", "block": "test1", "trialIndex": 5, "score": 40, "costs": -3, "simulationMode": [null, null, null], "rewards": [-2, -8, 48], "path": ["0", "0", "9", "10", "11"], "rt": [11331, 79, 79], "actions": ["left", "left", "up"], "actionTimes": [12331, 12907, 13491], "queries": {"click": {"state": {"target": ["9", "1", "5", "6", "7", "8", "2", "3", "4", "10", "11", "12"], "time": [2025, 2649, 3264, 4114, 4755, 5598, 6504, 7185, 7871, 9656, 10166, 10885]}, "edge": {"target": [], "time": []}}, "mouseover": {"state": {"target": ["9", "1", "5", "6", "7", "8", "2", "3", "4", "10", "11", "12"], "time": [1745, 2495, 3078, 3862, 4611, 5428, 6275, 7011, 7661, 8995, 10028, 10712]}, "edge": {"target": [], "time": []}}, "mouseout": {"state": {"target": ["0", "9", "1", "5", "6", "7", "6", "8", "5", "1", "2", "3", "2", "4", "10", "11", "10", "12"], "time": [1523, 2333, 2945, 3815, 4478, 5061, 5162, 5962, 6029, 6225, 6896, 7578, 7628, 8565, 9944, 10398, 10662, 11180]}, "edge": {"target": [], "time": []}}}, "displayed_time": "13.98", "trialTime": 15028, "trial_type": "mouselab-mdp", "trial_index": 16, "time_elapsed": 705625, "internal_node_id": "0.0-4.0-1.0-1.0"}}, {"uniqueid": "w21090716:a88301634", "current_trial": 17, "dateTime": 1664464701161, "trialdata": {"revealed_states": [], "num_clicks_accrued": [0, 0, 0, 0, 0, 0, 0, 0, 0, 0, 0, 0, 0], "stateRewards": ["", 4, 4, 48, -24, -4, -8, 24, -24, 2, -8, -24, 24], "withholdReward": true, "trial_id": "mdp_933201675789", "block": "test1", "trialIndex": 6, "score": 59.25, "costs": -1.75, "simulationMode": [null, null, null], "rewards": [4, 4, 48], "path": ["0", "0", "1", "2", "3"], "rt": [7609, 116, 177], "actions": ["up", "up", "right"], "actionTimes": [9291, 9923, 10619], "queries": {"click": {"state": {"target": ["9", "10", "11", "12", "1", "2", "3"], "time": [3396, 3870, 4394, 4990, 7074, 7525, 8112]}, "edge": {"target": [], "time": []}}, "mouseover": {"state": {"target": ["0", "9", "9", "10", "11", "12", "1", "2", "3"], "time": [1773, 2324, 2825, 3707, 4207, 4823, 6424, 7273, 7956]}, "edge": {"target": [], "time": []}}, "mouseout": {"state": {"target": ["9", "0", "0", "9", "9", "10", "11", "10", "12", "1", "2"], "time": [1275, 1357, 2160, 2640, 3641, 4090, 4623, 4756, 5190, 7206, 7890]}, "edge": {"target": [], "time": []}}}, "displayed_time": "11.12", "trialTime": 13547, "trial_type": "mouselab-mdp", "trial_index": 17, "time_elapsed": 719248, "internal_node_id": "0.0-4.0-1.0-2.0"}}, {"uniqueid": "w21090716:a88301634", "current_trial": 18, "dateTime": 1664464712267, "trialdata": {"revealed_states": [], "num_clicks_accrued": [0, 0, 0, 0, 0, 0, 0, 0, 0, 0, 0, 0, 0], "stateRewards": ["", 2, -4, 48, -48, 2, 4, -24, 24, -4, -8, 24, -48], "withholdReward": false, "trial_id": "mdp_238810765895", "block": "test1", "trialIndex": 7, "score": 49.25, "costs": -1.75, "simulationMode": [null, null, null], "rewards": [2, -4, 48], "path": ["0", "0", "1", "2", "3"], "rt": [6036, 60, 109], "actions": ["up", "up", "right"], "actionTimes": [7506, 8057, 8673], "queries": {"click": {"state": {"target": ["9", "10", "11", "12", "1", "2", "3"], "time": [2270, 2895, 3440, 4184, 5160, 5643, 6173]}, "edge": {"target": [], "time": []}}, "mouseover": {"state": {"target": ["9", "10", "11", "12", "1", "2", "3"], "time": [2113, 2664, 3363, 3796, 4712, 5479, 5997]}, "edge": {"target": [], "time": []}}, "mouseout": {"state": {"target": ["3", "1", "0", "9", "10", "11", "10", "12", "9", "1", "2", "3"], "time": [850, 1029, 1916, 2614, 3216, 3596, 3729, 4413, 4629, 5416, 5881, 6346]}, "edge": {"target": [], "time": []}}}, "displayed_time": "9.47", "trialTime": 11042, "trial_type": "mouselab-mdp", "trial_index": 18, "time_elapsed": 730354, "internal_node_id": "0.0-4.0-1.0-3.0"}}, {"uniqueid": "w21090716:a88301634", "current_trial": 19, "dateTime": 1664464724050, "trialdata": {"revealed_states": [], "num_clicks_accrued": [0, 0, 0, 0, 0, 0, 0, 0, 0, 0, 0, 0, 0], "stateRewards": ["", -2, 8, -48, 48, -4, -8, 24, 24, -2, -4, 48, -48], "withholdReward": true, "trial_id": "mdp_867247318592", "block": "test1", "trialIndex": 8, "score": 46.25, "costs": -0.75, "simulationMode": [null, null, null], "rewards": [-2, -4, 48], "path": ["0", "0", "9", "10", "11"], "rt": [3267, 25, 101], "actions": ["left", "left", "up"], "actionTimes": [5031, 5567, 6159], "queries": {"click": {"state": {"target": ["9", "10", "11"], "time": [2937, 3452, 3911]}, "edge": {"target": [], "time": []}}, "mouseover": {"state": {"target": ["9", "10", "11", "1"], "time": [2526, 3257, 3757, 4491]}, "edge": {"target": [], "time": []}}, "mouseout": {"state": {"target": ["0", "9", "10", "11", "1"], "time": [1543, 3157, 3657, 4141, 4507]}, "edge": {"target": [], "time": []}}}, "displayed_time": "9.76", "trialTime": 11688, "trial_type": "mouselab-mdp", "trial_index": 19, "time_elapsed": 742137, "internal_node_id": "0.0-4.0-1.0-4.0"}}, {"uniqueid": "w21090716:a88301634", "current_trial": 20, "dateTime": 1664464735267, "trialdata": {"revealed_states": [], "num_clicks_accrued": [0, 0, 0, 0, 0, 0, 0, 0, 0, 0, 0, 0, 0], "stateRewards": ["", -4, 8, -24, 48, 2, -8, 24, 48, 2, -8, -24, -48], "withholdReward": true, "trial_id": "mdp_493778446445", "block": "test1", "trialIndex": 9, "score": 55.25, "costs": -1.75, "simulationMode": [null, null, null], "rewards": [-4, 8, 48], "path": ["0", "0", "1", "2", "4"], "rt": [5611, 188, 169], "actions": ["up", "up", "left"], "actionTimes": [6762, 7471, 8168], "queries": {"click": {"state": {"target": ["9", "10", "11", "12", "1", "2", "4"], "time": [2503, 3059, 3573, 4279, 4869, 5381, 5826]}, "edge": {"target": [], "time": []}}, "mouseover": {"state": {"target": ["1", "9", "10", "11", "12", "1", "2", "4"], "time": [1600, 2249, 2916, 3450, 4015, 4699, 5201, 5698]}, "edge": {"target": [], "time": []}}, "mouseout": {"state": {"target": ["0", "1", "9", "10", "11", "10", "12", "9", "1", "2", "4", "2", "1"], "time": [1483, 2101, 2800, 3333, 3822, 3900, 4482, 4599, 5151, 5632, 6071, 6282, 6752]}, "edge": {"target": [], "time": []}}}, "displayed_time": "9.15", "trialTime": 11113, "trial_type": "mouselab-mdp", "trial_index": 20, "time_elapsed": 753353, "internal_node_id": "0.0-4.0-1.0-5.0"}}, {"uniqueid": "w21090716:a88301634", "current_trial": 21, "dateTime": 1664464748117, "trialdata": {"revealed_states": [], "num_clicks_accrued": [0, 0, 0, 0, 0, 0, 0, 0, 0, 0, 0, 0, 0], "stateRewards": ["", -4, -8, 48, 48, -4, 4, 48, -24, 4, 8, -24, -48], "withholdReward": true, "trial_id": "mdp_142906093415", "block": "test1", "trialIndex": 10, "score": 39.25, "costs": -1.75, "simulationMode": [null, null, null], "rewards": [-4, -8, 48], "path": ["0", "0", "1", "2", "4"], "rt": [4697, 125, 124], "actions": ["up", "up", "left"], "actionTimes": [5977, 6625, 7257], "queries": {"click": {"state": {"target": ["9", "10", "11", "12", "1", "2", "4"], "time": [2016, 2477, 2930, 3479, 4210, 4605, 4967]}, "edge": {"target": [], "time": []}}, "mouseover": {"state": {"target": ["9", "10", "11", "12", "1", "2", "4"], "time": [1851, 2316, 2766, 3382, 3866, 4432, 4832]}, "edge": {"target": [], "time": []}}, "mouseout": {"state": {"target": ["0", "0", "9", "10", "11", "10", "12", "9", "1", "2", "4", "2", "1", "5"], "time": [899, 1145, 2216, 2685, 3182, 3299, 3684, 3782, 4382, 4767, 5166, 5266, 5685, 11215]}, "edge": {"target": [], "time": []}}}, "displayed_time": "10.28", "trialTime": 12763, "trial_type": "mouselab-mdp", "trial_index": 21, "time_elapsed": 766203, "internal_node_id": "0.0-4.0-1.0-6.0"}}, {"uniqueid": "w21090716:a88301634", "current_trial": 22, "dateTime": 1664464758673, "trialdata": {"revealed_states": [], "num_clicks_accrued": [0, 0, 0, 0, 0, 0, 0, 0, 0, 0, 0, 0, 0], "stateRewards": ["", 2, 8, -24, -48, 2, 4, -24, 48, 2, -8, 48, -24], "withholdReward": true, "trial_id": "mdp_791659307216", "block": "test1", "trialIndex": 11, "score": 58, "costs": -1, "simulationMode": [null, null, null], "rewards": [2, 4, 48], "path": ["0", "0", "5", "6", "8"], "rt": [3466, 93, 199], "actions": ["right", "right", "down"], "actionTimes": [4511, 5110, 5799], "queries": {"click": {"state": {"target": ["5", "6", "7", "8"], "time": [1534, 1956, 2476, 2996]}, "edge": {"target": [], "time": []}}, "mouseover": {"state": {"target": ["5", "6", "7", "8"], "time": [1401, 1882, 2399, 2882]}, "edge": {"target": [], "time": []}}, "mouseout": {"state": {"target": ["5", "0", "5", "6", "7", "6", "8", "6", "6"], "time": [599, 1300, 1783, 2350, 2754, 2851, 3299, 8685, 9250]}, "edge": {"target": [], "time": []}}}, "displayed_time": "9.04", "trialTime": 10455, "trial_type": "mouselab-mdp", "trial_index": 22, "time_elapsed": 776760, "internal_node_id": "0.0-4.0-1.0-7.0"}}, {"uniqueid": "w21090716:a88301634", "current_trial": 23, "dateTime": 1664464769394, "trialdata": {"revealed_states": [], "num_clicks_accrued": [0, 0, 0, 0, 0, 0, 0, 0, 0, 0, 0, 0, 0], "stateRewards": ["", 4, -4, 48, -48, 2, 8, -48, 24, -2, -4, -24, 48], "withholdReward": false, "trial_id": "mdp_937564992306", "block": "test1", "trialIndex": 12, "score": 45, "costs": -2, "simulationMode": [null, null, null], "rewards": [-2, -4, 48], "path": ["0", "0", "9", "10", "12"], "rt": [6053, 139, 145], "actions": ["left", "left", "down"], "actionTimes": [7440, 8072, 8728], "queries": {"click": {"state": {"target": ["9", "10", "11", "12", "5", "6", "8", "7"], "time": [1930, 2440, 2904, 3351, 5103, 5456, 5853, 6569]}, "edge": {"target": [], "time": []}}, "mouseover": {"state": {"target": ["9", "10", "11", "12", "5", "6", "8", "7", "0"], "time": [1749, 2333, 2631, 3182, 4717, 5314, 5774, 6432, 7082]}, "edge": {"target": [], "time": []}}, "mouseout": {"state": {"target": ["5", "5", "0", "9", "10", "11", "10", "12", "9", "5", "6", "8", "7", "5", "0"], "time": [450, 966, 1651, 2183, 2581, 3038, 3164, 3549, 3649, 5249, 5681, 6133, 6831, 7031, 9182]}, "edge": {"target": [], "time": []}}}, "displayed_time": "9.39", "trialTime": 10642, "trial_type": "mouselab-mdp", "trial_index": 23, "time_elapsed": 787481, "internal_node_id": "0.0-4.0-1.0-8.0"}}, {"uniqueid": "w21090716:a88301634", "current_trial": 24, "dateTime": 1664464781345, "trialdata": {"revealed_states": [], "num_clicks_accrued": [0, 0, 0, 0, 0, 0, 0, 0, 0, 0, 0, 0, 0], "stateRewards": ["", -4, 8, 24, -24, -2, 4, -24, 48, -2, 8, -48, -24], "withholdReward": true, "trial_id": "mdp_799359103169", "block": "test1", "trialIndex": 13, "score": 52, "costs": -3, "simulationMode": [null, null, null], "rewards": [-2, 4, 48], "path": ["0", "0", "5", "6", "8"], "rt": [6507, 145, 224], "actions": ["right", "right", "down"], "actionTimes": [7571, 8226, 8938], "queries": {"click": {"state": {"target": ["9", "10", "11", "12", "1", "2", "4", "3", "5", "6", "7", "8"], "time": [2059, 2443, 2783, 3348, 3906, 4297, 4614, 5095, 5664, 6060, 6397, 6829]}, "edge": {"target": [], "time": []}}, "mouseover": {"state": {"target": ["9", "10", "11", "12", "0", "1", "2", "4", "3", "5", "6", "7", "8"], "time": [1682, 2330, 2697, 3063, 3614, 3796, 4097, 4513, 5013, 5513, 5913, 6313, 6730]}, "edge": {"target": [], "time": []}}, "mouseout": {"state": {"target": ["0", "9", "10", "11", "10", "12", "0", "1", "2", "4", "2", "3", "5", "6", "7", "6", "8"], "time": [1533, 2263, 2614, 2964, 3031, 3513, 3663, 4046, 4480, 4846, 4947, 5246, 5846, 6213, 6563, 6697, 7080]}, "edge": {"target": [], "time": []}}}, "displayed_time": "10.07", "trialTime": 11859, "trial_type": "mouselab-mdp", "trial_index": 24, "time_elapsed": 799432, "internal_node_id": "0.0-4.0-1.0-9.0"}}, {"uniqueid": "w21090716:a88301634", "current_trial": 25, "dateTime": 1664464791601, "trialdata": {"revealed_states": [], "num_clicks_accrued": [0, 0, 0, 0, 0, 0, 0, 0, 0, 0, 0, 0, 0], "stateRewards": ["", 4, 8, -48, -48, 2, 4, -24, -48, 2, 8, 48, -48], "withholdReward": false, "trial_id": "mdp_902172716465", "block": "test1", "trialIndex": 14, "score": 62, "costs": -1, "simulationMode": [null, null, null], "rewards": [2, 8, 48], "path": ["0", "0", "9", "10", "11"], "rt": [2864, 42, 126], "actions": ["left", "left", "up"], "actionTimes": [4003, 4571, 5204], "queries": {"click": {"state": {"target": ["9", "10", "12", "11"], "time": [1823, 2257, 2642, 3205]}, "edge": {"target": [], "time": []}}, "mouseover": {"state": {"target": ["9", "10", "12", "11", "0"], "time": [1646, 2128, 2561, 3128, 3711]}, "edge": {"target": [], "time": []}}, "mouseout": {"state": {"target": ["8", "0", "9", "10", "12", "11", "9", "0"], "time": [496, 1011, 2044, 2495, 2928, 3429, 3611, 9813]}, "edge": {"target": [], "time": []}}}, "displayed_time": "9.14", "trialTime": 10179, "trial_type": "mouselab-mdp", "trial_index": 25, "time_elapsed": 809687, "internal_node_id": "0.0-4.0-1.0-10.0"}}, {"uniqueid": "w21090716:a88301634", "current_trial": 26, "dateTime": 1664464801953, "trialdata": {"revealed_states": [], "num_clicks_accrued": [0, 0, 0, 0, 0, 0, 0, 0, 0, 0, 0, 0, 0], "stateRewards": ["", -4, 4, -24, 48, 2, 4, -48, 24, 4, -8, -24, 24], "withholdReward": true, "trial_id": "mdp_740130150937", "block": "test1", "trialIndex": 15, "score": 50.25, "costs": -2.75, "simulationMode": [null, null, null], "rewards": [-4, 4, 48], "path": ["0", "0", "1", "2", "4"], "rt": [5788, 126, 107], "actions": ["up", "up", "left"], "actionTimes": [6747, 7379, 7995], "queries": {"click": {"state": {"target": ["9", "10", "11", "12", "5", "6", "7", "8", "1", "2", "4"], "time": [1410, 1754, 2096, 2508, 3195, 3506, 3814, 4272, 5430, 5755, 6122]}, "edge": {"target": [], "time": []}}, "mouseover": {"state": {"target": ["9", "10", "11", "12", "5", "6", "7", "8", "1", "1", "2", "4"], "time": [1288, 1653, 1970, 2387, 3053, 3387, 3702, 4153, 4989, 5372, 5653, 6019]}, "edge": {"target": [], "time": []}}, "mouseout": {"state": {"target": ["0", "9", "10", "11", "10", "12", "5", "6", "7", "8", "5", "1", "1", "2", "4", "2"], "time": [687, 1586, 1887, 2270, 2336, 2686, 3320, 3653, 3969, 4669, 4720, 5004, 5619, 5953, 6286, 6519]}, "edge": {"target": [], "time": []}}}, "displayed_time": "8.96", "trialTime": 10291, "trial_type": "mouselab-mdp", "trial_index": 26, "time_elapsed": 820040, "internal_node_id": "0.0-4.0-1.0-11.0"}}, {"uniqueid": "w21090716:a88301634", "current_trial": 27, "dateTime": 1664464812393, "trialdata": {"revealed_states": [], "num_clicks_accrued": [0, 0, 0, 0, 0, 0, 0, 0, 0, 0, 0, 0, 0], "stateRewards": ["", 2, 8, 48, 24, -4, 4, -48, 24, 2, 8, 48, 48], "withholdReward": true, "trial_id": "mdp_367344599162", "block": "test1", "trialIndex": 16, "score": 62.25, "costs": -0.75, "simulationMode": [null, null, null], "rewards": [2, 8, 48], "path": ["0", "0", "9", "10", "12"], "rt": [2158, 120, 136], "actions": ["left", "left", "down"], "actionTimes": [3308, 3941, 4589], "queries": {"click": {"state": {"target": ["9", "10", "12"], "time": [1808, 2196, 2606]}, "edge": {"target": [], "time": []}}, "mouseover": {"state": {"target": ["9", "10", "12"], "time": [1604, 2104, 2486]}, "edge": {"target": [], "time": []}}, "mouseout": {"state": {"target": ["0", "0", "9", "10", "12", "10"], "time": [704, 1571, 2021, 2436, 2803, 2903]}, "edge": {"target": [], "time": []}}}, "displayed_time": "9.15", "trialTime": 10365, "trial_type": "mouselab-mdp", "trial_index": 27, "time_elapsed": 830480, "internal_node_id": "0.0-4.0-1.0-12.0"}}, {"uniqueid": "w21090716:a88301634", "current_trial": 28, "dateTime": 1664464826625, "trialdata": {"revealed_states": [], "num_clicks_accrued": [0, 0, 0, 0, 0, 0, 0, 0, 0, 0, 0, 0, 0], "stateRewards": ["", 2, 8, 48, -48, -2, -4, -24, 24, 4, -4, 48, -48], "withholdReward": false, "trial_id": "mdp_105734044587", "block": "test1", "trialIndex": 17, "score": 52, "costs": -1, "simulationMode": [null, null, null], "rewards": [4, -4, 48], "path": ["0", "0", "9", "10", "11"], "rt": [2434, 26, 62], "actions": ["left", "left", "up"], "actionTimes": [3197, 3739, 4307], "queries": {"click": {"state": {"target": ["9", "10", "12", "11"], "time": [1172, 1472, 1837, 2288]}, "edge": {"target": [], "time": []}}, "mouseover": {"state": {"target": ["0", "9", "10", "12", "11"], "time": [912, 1012, 1363, 1729, 2179]}, "edge": {"target": [], "time": []}}, "mouseout": {"state": {"target": ["0", "9", "10", "12", "10", "11", "9"], "time": [962, 1312, 1646, 2045, 2129, 2446, 2496]}, "edge": {"target": [], "time": []}}}, "displayed_time": "9.77", "trialTime": 14140, "trial_type": "mouselab-mdp", "trial_index": 28, "time_elapsed": 844712, "internal_node_id": "0.0-4.0-1.0-13.0"}}, {"uniqueid": "w21090716:a88301634", "current_trial": 29, "dateTime": 1664464839330, "trialdata": {"revealed_states": [], "num_clicks_accrued": [0, 0, 0, 0, 0, 0, 0, 0, 0, 0, 0, 0, 0], "stateRewards": ["", 2, 8, -48, 48, -4, -8, 24, 24, -2, -8, 24, -24], "withholdReward": false, "trial_id": "mdp_910248289075", "block": "test1", "trialIndex": 18, "score": 60.25, "costs": -2.75, "simulationMode": [null, null, null], "rewards": [2, 8, 48], "path": ["0", "0", "1", "2", "4"], "rt": [5887, 85, 4], "actions": ["up", "up", "left"], "actionTimes": [7562, 8155, 8674], "queries": {"click": {"state": {"target": ["9", "10", "11", "12", "5", "6", "7", "8", "1", "2", "4"], "time": [2532, 2858, 3241, 3809, 4342, 4617, 4962, 5337, 6114, 6598, 6961]}, "edge": {"target": [], "time": []}}, "mouseover": {"state": {"target": ["9", "9", "10", "11", "12", "0", "5", "6", "7", "8", "1", "2", "4"], "time": [1987, 2339, 2770, 3153, 3722, 4086, 4203, 4503, 4836, 5286, 6036, 6453, 6836]}, "edge": {"target": [], "time": []}}, "mouseout": {"state": {"target": ["0", "9", "9", "10", "11", "12", "0", "5", "6", "7", "6", "8", "6", "1", "2", "4", "2"], "time": [1922, 2053, 2703, 3020, 3469, 3970, 4153, 4453, 4786, 5120, 5236, 5556, 5606, 6303, 6803, 7136, 7286]}, "edge": {"target": [], "time": []}}}, "displayed_time": "10.68", "trialTime": 12619, "trial_type": "mouselab-mdp", "trial_index": 29, "time_elapsed": 857417, "internal_node_id": "0.0-4.0-1.0-14.0"}}, {"uniqueid": "w21090716:a88301634", "current_trial": 30, "dateTime": 1664464852163, "trialdata": {"revealed_states": [], "num_clicks_accrued": [0, 0, 0, 0, 0, 0, 0, 0, 0, 0, 0, 0, 0], "stateRewards": ["", 2, 8, -24, -48, -4, 8, -48, -48, -2, -8, -24, -24], "withholdReward": true, "trial_id": "mdp_978177451072", "block": "test1", "trialIndex": 19, "score": -12, "costs": -3, "simulationMode": [null, null, null], "rewards": [2, 8, -24], "path": ["0", "0", "1", "2", "3"], "rt": [9077, 110, 101], "actions": ["up", "up", "right"], "actionTimes": [10017, 10632, 11241], "queries": {"click": {"state": {"target": ["9", "10", "11", "12", "5", "6", "7", "8", "1", "2", "4", "3"], "time": [1286, 1697, 2024, 2413, 2899, 3158, 3478, 3862, 4542, 4871, 5186, 5596]}, "edge": {"target": [], "time": []}}, "mouseover": {"state": {"target": ["9", "10", "11", "12", "0", "5", "6", "7", "8", "1", "2", "4", "3"], "time": [1105, 1538, 1888, 2305, 2672, 2788, 3055, 3355, 3771, 4371, 4772, 5071, 5488]}, "edge": {"target": [], "time": []}}, "mouseout": {"state": {"target": ["2", "9", "10", "11", "10", "12", "0", "5", "6", "7", "6", "8", "6", "1", "2", "4", "2", "3", "1"], "time": [374, 1472, 1839, 2189, 2222, 2572, 2722, 3005, 3305, 3655, 3738, 4038, 4104, 4721, 5038, 5372, 5438, 6038, 12438]}, "edge": {"target": [], "time": []}}}, "displayed_time": "11.75", "trialTime": 12737, "trial_type": "mouselab-mdp", "trial_index": 30, "time_elapsed": 870249, "internal_node_id": "0.0-4.0-1.0-15.0"}}, {"uniqueid": "w21090716:a88301634", "current_trial": 31, "dateTime": 1664464866385, "trialdata": {"revealed_states": [], "num_clicks_accrued": [0, 0, 0, 0, 0, 0, 0, 0, 0, 0, 0, 0, 0], "stateRewards": ["", -2, -4, -48, -48, 4, -4, 48, 24, 4, 4, 48, 48], "withholdReward": true, "trial_id": "mdp_950960813932", "block": "test1", "trialIndex": 20, "score": 58.25, "costs": -2.75, "simulationMode": [null, null, null], "rewards": [4, 4, 48], "path": ["0", "0", "9", "10", "12"], "rt": [8230, 85, 61], "actions": ["left", "left", "down"], "actionTimes": [9223, 9814, 10390], "queries": {"click": {"state": {"target": ["9", "10", "11", "5", "6", "7", "8", "12", "1", "2", "4"], "time": [1380, 1695, 2074, 3893, 4348, 4622, 5083, 6117, 7694, 7996, 8292]}, "edge": {"target": [], "time": []}}, "mouseover": {"state": {"target": ["9", "10", "11", "12", "12", "0", "5", "6", "7", "8", "12", "1", "2", "4"], "time": [1294, 1561, 1980, 2395, 3462, 3645, 3762, 4078, 4528, 4961, 5895, 6832, 7911, 8195]}, "edge": {"target": [], "time": []}}, "mouseout": {"state": {"target": ["0", "9", "10", "11", "10", "12", "12", "0", "5", "6", "7", "6", "8", "12", "9", "1", "2", "4", "2"], "time": [1161, 1529, 1878, 2312, 2362, 2730, 3546, 3678, 4045, 4478, 4811, 4912, 5295, 6245, 6311, 7811, 8145, 8478, 8728]}, "edge": {"target": [], "time": []}}}, "displayed_time": "10.88", "trialTime": 14134, "trial_type": "mouselab-mdp", "trial_index": 31, "time_elapsed": 884472, "internal_node_id": "0.0-4.0-1.0-16.0"}}, {"uniqueid": "w21090716:a88301634", "current_trial": 32, "dateTime": 1664464877385, "trialdata": {"revealed_states": [], "num_clicks_accrued": [0, 0, 0, 0, 0, 0, 0, 0, 0, 0, 0, 0, 0], "stateRewards": ["", 2, 4, -48, -24, 2, 8, 24, 48, -2, 4, 48, -48], "withholdReward": true, "trial_id": "mdp_551894842204", "block": "test1", "trialIndex": 21, "score": 54, "costs": -1, "simulationMode": [null, null, null], "rewards": [-2, 4, 48], "path": ["0", "0", "9", "10", "11"], "rt": [2347, 52, 101], "actions": ["left", "left", "up"], "actionTimes": [3035, 3596, 4227], "queries": {"click": {"state": {"target": ["9", "10", "11", "12"], "time": [1377, 1663, 1950, 2600]}, "edge": {"target": [], "time": []}}, "mouseover": {"state": {"target": ["9", "10", "11", "12", "12"], "time": [1260, 1593, 1842, 2144, 2413]}, "edge": {"target": [], "time": []}}, "mouseout": {"state": {"target": ["1", "0", "9", "10", "11", "10", "12", "12", "9", "0"], "time": [429, 1198, 1542, 1809, 2092, 2126, 2225, 2809, 5110, 5244]}, "edge": {"target": [], "time": []}}}, "displayed_time": "9.69", "trialTime": 10899, "trial_type": "mouselab-mdp", "trial_index": 32, "time_elapsed": 895472, "internal_node_id": "0.0-4.0-1.0-17.0"}}, {"uniqueid": "w21090716:a88301634", "current_trial": 33, "dateTime": 1664464887446, "trialdata": {"revealed_states": [], "num_clicks_accrued": [0, 0, 0, 0, 0, 0, 0, 0, 0, 0, 0, 0, 0], "stateRewards": ["", -2, 8, -24, 48, -4, 4, -48, 24, 4, -8, 48, -24], "withholdReward": true, "trial_id": "mdp_425320427962", "block": "test1", "trialIndex": 22, "score": 48, "costs": -1, "simulationMode": [null, null, null], "rewards": [4, -8, 48], "path": ["0", "0", "9", "10", "11"], "rt": [2092, 137, 40], "actions": ["left", "left", "up"], "actionTimes": [3323, 3980, 4515], "queries": {"click": {"state": {"target": ["9", "10", "11", "12"], "time": [1642, 1963, 2268, 2700]}, "edge": {"target": [], "time": []}}, "mouseover": {"state": {"target": ["9", "10", "11", "12"], "time": [1474, 1858, 2208, 2541]}, "edge": {"target": [], "time": []}}, "mouseout": {"state": {"target": ["0", "9", "10", "11", "10", "12", "9"], "time": [1408, 1825, 2124, 2425, 2475, 2924, 9376]}, "edge": {"target": [], "time": []}}}, "displayed_time": "9.23", "trialTime": 9977, "trial_type": "mouselab-mdp", "trial_index": 33, "time_elapsed": 905533, "internal_node_id": "0.0-4.0-1.0-18.0"}}, {"uniqueid": "w21090716:a88301634", "current_trial": 34, "dateTime": 1664464896330, "trialdata": {"revealed_states": [], "num_clicks_accrued": [0, 0, 0, 0, 0, 0, 0, 0, 0, 0, 0, 0, 0], "stateRewards": ["", 4, -4, 48, 24, 2, 4, 24, -24, 2, 4, 24, 48], "withholdReward": true, "trial_id": "mdp_736351885282", "block": "test1", "trialIndex": 23, "score": 58, "costs": -1, "simulationMode": [null, null, null], "rewards": [2, 4, 48], "path": ["0", "0", "9", "10", "12"], "rt": [3452, 431, 137], "actions": ["left", "left", "down"], "actionTimes": [4726, 5662, 6317], "queries": {"click": {"state": {"target": ["9", "10", "11", "12"], "time": [1908, 2323, 2646, 3081]}, "edge": {"target": [], "time": []}}, "mouseover": {"state": {"target": ["9", "10", "11", "12", "5", "0"], "time": [1613, 2213, 2546, 2962, 3512, 3696]}, "edge": {"target": [], "time": []}}, "mouseout": {"state": {"target": ["0", "9", "10", "11", "10", "12", "9", "5", "0", "5", "5"], "time": [1547, 2163, 2513, 2862, 2929, 3279, 3329, 3598, 3796, 5564, 6712]}, "edge": {"target": [], "time": []}}}, "displayed_time": "8.28", "trialTime": 8782, "trial_type": "mouselab-mdp", "trial_index": 34, "time_elapsed": 914416, "internal_node_id": "0.0-4.0-1.0-19.0"}}, {"uniqueid": "w21090716:a88301634", "current_trial": 35, "dateTime": 1664464908096, "trialdata": {"revealed_states": [], "num_clicks_accrued": [0, 0, 0, 0, 0, 0, 0, 0, 0, 0, 0, 0, 0], "stateRewards": ["", 4, -8, -24, 24, 2, -4, 24, 24, 2, -4, 48, 48], "withholdReward": true, "trial_id": "mdp_457607480918", "block": "test1", "trialIndex": 24, "score": 50, "costs": -1, "simulationMode": [null, null, null], "rewards": [2, -4, 48], "path": ["0", "0", "9", "10", "12"], "rt": [2679, 143, 151], "actions": ["left", "left", "down"], "actionTimes": [4283, 4923, 5564], "queries": {"click": {"state": {"target": ["9", "10", "11", "12"], "time": [2423, 2736, 3080, 3664]}, "edge": {"target": [], "time": []}}, "mouseover": {"state": {"target": ["9", "9", "10", "11", "12"], "time": [1880, 2381, 2613, 2963, 3463]}, "edge": {"target": [], "time": []}}, "mouseout": {"state": {"target": ["0", "0", "9", "9", "10", "11", "10", "12", "9", "0"], "time": [996, 1846, 1912, 2580, 2896, 3247, 3313, 3898, 7582, 11512]}, "edge": {"target": [], "time": []}}}, "displayed_time": "10.61", "trialTime": 11683, "trial_type": "mouselab-mdp", "trial_index": 35, "time_elapsed": 926183, "internal_node_id": "0.0-4.0-1.0-20.0"}}, {"uniqueid": "w21090716:a88301634", "current_trial": 36, "dateTime": 1664464919657, "trialdata": {"revealed_states": [], "num_clicks_accrued": [0, 0, 0, 0, 0, 0, 0, 0, 0, 0, 0, 0, 0], "stateRewards": ["", -4, 4, -24, 24, 2, 4, -24, 48, -4, 8, -48, 48], "withholdReward": true, "trial_id": "mdp_422109108860", "block": "test1", "trialIndex": 25, "score": 58, "costs": -1, "simulationMode": [null, null, null], "rewards": [2, 4, 48], "path": ["0", "0", "5", "6", "8"], "rt": [3065, 27, 86], "actions": ["right", "right", "down"], "actionTimes": [5423, 5975, 6568], "queries": {"click": {"state": {"target": ["5", "6", "7", "8"], "time": [2791, 3242, 3634, 4148]}, "edge": {"target": [], "time": []}}, "mouseover": {"state": {"target": ["5", "6", "7", "8", "0"], "time": [2749, 3148, 3547, 4064, 4464]}, "edge": {"target": [], "time": []}}, "mouseout": {"state": {"target": ["9", "0", "5", "6", "7", "6", "8", "0", "5", "6", "6"], "time": [1781, 1831, 3098, 3481, 3831, 3964, 4331, 4766, 5164, 6714, 10649]}, "edge": {"target": [], "time": []}}}, "displayed_time": "10.36", "trialTime": 11495, "trial_type": "mouselab-mdp", "trial_index": 36, "time_elapsed": 937744, "internal_node_id": "0.0-4.0-1.0-21.0"}}, {"uniqueid": "w21090716:a88301634", "current_trial": 37, "dateTime": 1664464930641, "trialdata": {"revealed_states": [], "num_clicks_accrued": [0, 0, 0, 0, 0, 0, 0, 0, 0, 0, 0, 0, 0], "stateRewards": ["", -4, 8, -48, -48, -2, -8, -24, -48, 2, -4, -48, 24], "withholdReward": true, "trial_id": "mdp_743906784415", "block": "test1", "trialIndex": 26, "score": 24, "costs": -3, "simulationMode": [null, null, null], "rewards": [2, -4, 24], "path": ["0", "0", "9", "10", "12"], "rt": [6531, 75, 107], "actions": ["left", "left", "down"], "actionTimes": [7274, 7849, 8465], "queries": {"click": {"state": {"target": ["9", "10", "11", "12", "1", "2", "4", "3", "5", "6", "7", "8"], "time": [1250, 1597, 1930, 2322, 2793, 3098, 3498, 3886, 4347, 4651, 4983, 5348]}, "edge": {"target": [], "time": []}}, "mouseover": {"state": {"target": ["9", "10", "11", "12", "1", "2", "4", "3", "5", "6", "7", "8"], "time": [1159, 1491, 1808, 2191, 2641, 2975, 3425, 3807, 4290, 4558, 4874, 5308]}, "edge": {"target": [], "time": []}}, "mouseout": {"state": {"target": ["0", "9", "10", "11", "10", "12", "9", "1", "2", "4", "2", "3", "5", "6", "7", "6", "8"], "time": [1043, 1458, 1758, 2074, 2124, 2475, 2574, 2941, 3377, 3674, 3757, 4091, 4491, 4824, 5157, 5257, 5607]}, "edge": {"target": [], "time": []}}}, "displayed_time": "9.74", "trialTime": 10873, "trial_type": "mouselab-mdp", "trial_index": 37, "time_elapsed": 948728, "internal_node_id": "0.0-4.0-1.0-22.0"}}, {"uniqueid": "w21090716:a88301634", "current_trial": 38, "dateTime": 1664464945682, "trialdata": {"revealed_states": [], "num_clicks_accrued": [0, 0, 0, 0, 0, 0, 0, 0, 0, 0, 0, 0, 0], "stateRewards": ["", 4, 4, 48, -48, 4, 4, -48, 24, 2, 8, 24, -48], "withholdReward": false, "trial_id": "mdp_291674656283", "block": "test1", "trialIndex": 27, "score": 58, "costs": -3, "simulationMode": [null, null, null], "rewards": [4, 4, 48], "path": ["0", "0", "1", "2", "3"], "rt": [6655, 88, 98], "actions": ["up", "up", "right"], "actionTimes": [7355, 7955, 8563], "queries": {"click": {"state": {"target": ["9", "10", "11", "12", "5", "6", "7", "8", "1", "2", "4", "3"], "time": [1155, 1496, 1783, 2318, 3675, 3984, 4251, 4677, 5739, 6061, 6357, 6712]}, "edge": {"target": [], "time": []}}, "mouseover": {"state": {"target": ["9", "10", "11", "12", "0", "5", "6", "5", "6", "7", "8", "1", "1", "2", "4", "3"], "time": [1065, 1415, 1682, 2199, 2682, 2968, 3466, 3632, 3916, 4182, 4599, 5149, 5649, 5932, 6270, 6682]}, "edge": {"target": [], "time": []}}, "mouseout": {"state": {"target": ["9", "10", "11", "10", "12", "0", "5", "6", "5", "6", "7", "6", "8", "5", "1", "1", "2", "4", "2", "3"], "time": [1349, 1649, 1966, 2099, 2565, 2816, 3184, 3582, 3849, 4149, 4482, 4566, 4882, 5016, 5249, 5882, 6199, 6499, 6632, 7032]}, "edge": {"target": [], "time": []}}}, "displayed_time": "9.70", "trialTime": 14956, "trial_type": "mouselab-mdp", "trial_index": 38, "time_elapsed": 963769, "internal_node_id": "0.0-4.0-1.0-23.0"}}, {"uniqueid": "w21090716:a88301634", "current_trial": 39, "dateTime": 1664464959275, "trialdata": {"revealed_states": [], "num_clicks_accrued": [0, 0, 0, 0, 0, 0, 0, 0, 0, 0, 0, 0, 0], "stateRewards": ["", -2, 8, -48, -24, -2, 8, 48, -48, -4, 8, 24, 48], "withholdReward": false, "trial_id": "mdp_160707003673", "block": "test1", "trialIndex": 28, "score": 56, "costs": -3, "simulationMode": [null, null, null], "rewards": [-2, 8, 48], "path": ["0", "0", "5", "6", "7"], "rt": [9116, 112, 116], "actions": ["right", "right", "up"], "actionTimes": [10340, 10970, 11593], "queries": {"click": {"state": {"target": ["1", "2", "4", "3", "9", "10", "11", "12", "5", "6", "7", "8"], "time": [1716, 2154, 2466, 2784, 3244, 3539, 3855, 4200, 5762, 6004, 6246, 6581]}, "edge": {"target": [], "time": []}}, "mouseover": {"state": {"target": ["1", "2", "4", "3", "9", "10", "11", "12", "0", "5", "6", "7", "8"], "time": [1610, 2007, 2407, 2724, 3190, 3457, 3757, 4140, 4474, 4758, 5924, 6157, 6557]}, "edge": {"target": [], "time": []}}, "mouseout": {"state": {"target": ["1", "0", "1", "2", "4", "2", "3", "1", "9", "10", "11", "10", "12", "0", "5", "6", "7", "6", "8", "8"], "time": [924, 1390, 1924, 2357, 2607, 2707, 2974, 3107, 3407, 3691, 4007, 4107, 4374, 4557, 5874, 6141, 6391, 6473, 7126, 12758]}, "edge": {"target": [], "time": []}}}, "displayed_time": "12.09", "trialTime": 13508, "trial_type": "mouselab-mdp", "trial_index": 39, "time_elapsed": 977362, "internal_node_id": "0.0-4.0-1.0-24.0"}}, {"uniqueid": "w21090716:a88301634", "current_trial": 40, "dateTime": 1664464970436, "trialdata": {"revealed_states": [], "num_clicks_accrued": [0, 0, 0, 0, 0, 0, 0, 0, 0, 0, 0, 0, 0], "stateRewards": ["", -2, 4, -24, 24, -4, -8, 24, -48, -4, -4, -48, -24], "withholdReward": true, "trial_id": "mdp_753137520419", "block": "test1", "trialIndex": 29, "score": 28, "costs": -3, "simulationMode": [null, null, null], "rewards": [-2, 4, 24], "path": ["0", "0", "1", "2", "4"], "rt": [7061, 88, 64], "actions": ["up", "up", "left"], "actionTimes": [7983, 8588, 9164], "queries": {"click": {"state": {"target": ["5", "6", "7", "8", "1", "2", "3", "4", "9", "10", "11", "12"], "time": [1359, 1866, 2312, 2664, 3220, 3463, 3809, 4155, 4628, 4975, 5328, 5712]}, "edge": {"target": [], "time": []}}, "mouseover": {"state": {"target": ["5", "6", "7", "8", "1", "2", "3", "4", "9", "10", "11", "12"], "time": [1200, 1733, 2216, 2600, 3117, 3383, 3767, 4050, 4566, 4883, 5233, 5583]}, "edge": {"target": [], "time": []}}, "mouseout": {"state": {"target": ["0", "5", "6", "7", "6", "8", "6", "1", "2", "3", "2", "4", "9", "10", "11", "10", "12"], "time": [1051, 1620, 2150, 2483, 2566, 2867, 2900, 3350, 3702, 3967, 4033, 4417, 4850, 5133, 5467, 5550, 6201]}, "edge": {"target": [], "time": []}}}, "displayed_time": "9.67", "trialTime": 11080, "trial_type": "mouselab-mdp", "trial_index": 40, "time_elapsed": 988523, "internal_node_id": "0.0-4.0-1.0-25.0"}}, {"uniqueid": "w21090716:a88301634", "current_trial": 41, "dateTime": 1664464980873, "trialdata": {"revealed_states": [], "num_clicks_accrued": [0, 0, 0, 0, 0, 0, 0, 0, 0, 0, 0, 0, 0], "stateRewards": ["", 2, -4, -48, 24, 4, 4, 48, -48, -2, -4, -24, -48], "withholdReward": true, "trial_id": "mdp_858916930936", "block": "test1", "trialIndex": 30, "score": 58, "costs": -3, "simulationMode": [null, null, null], "rewards": [4, 4, 48], "path": ["0", "0", "5", "6", "7"], "rt": [5499, 160, 122], "actions": ["right", "right", "up"], "actionTimes": [6229, 6902, 7533], "queries": {"click": {"state": {"target": ["9", "10", "11", "12", "1", "2", "4", "3", "5", "6", "7", "8"], "time": [1081, 1411, 1726, 2192, 2689, 3005, 3349, 3826, 4235, 4570, 4871, 5274]}, "edge": {"target": [], "time": []}}, "mouseover": {"state": {"target": ["9", "10", "11", "12", "1", "2", "4", "3", "5", "6", "7", "8"], "time": [1041, 1366, 1641, 2141, 2508, 2891, 3225, 3725, 4108, 4508, 4758, 5191]}, "edge": {"target": [], "time": []}}, "mouseout": {"state": {"target": ["0", "9", "10", "11", "10", "12", "9", "1", "2", "4", "2", "3", "5", "6", "7", "6", "8"], "time": [875, 1324, 1591, 1925, 2058, 2391, 2458, 2841, 3174, 3560, 3675, 3991, 4391, 4724, 5041, 5124, 5558]}, "edge": {"target": [], "time": []}}}, "displayed_time": "9.73", "trialTime": 10342, "trial_type": "mouselab-mdp", "trial_index": 41, "time_elapsed": 998960, "internal_node_id": "0.0-4.0-1.0-26.0"}}, {"uniqueid": "w21090716:a88301634", "current_trial": 42, "dateTime": 1664464990745, "trialdata": {"revealed_states": [], "num_clicks_accrued": [0, 0, 0, 0, 0, 0, 0, 0, 0, 0, 0, 0, 0], "stateRewards": ["", -4, -4, -24, 48, 2, 4, -24, -48, -2, 4, 24, 24], "withholdReward": true, "trial_id": "mdp_360934723192", "block": "test1", "trialIndex": 31, "score": 42, "costs": -3, "simulationMode": [null, null, null], "rewards": [-4, -4, 48], "path": ["0", "0", "1", "2", "4"], "rt": [5845, 127, 100], "actions": ["up", "up", "left"], "actionTimes": [6830, 7470, 8062], "queries": {"click": {"state": {"target": ["9", "10", "11", "12", "1", "2", "4", "3", "5", "6", "7", "8"], "time": [1419, 1743, 2020, 2381, 3235, 3559, 3918, 4303, 4860, 5161, 5427, 5934]}, "edge": {"target": [], "time": []}}, "mouseover": {"state": {"target": ["9", "10", "11", "12", "1", "1", "2", "4", "3", "5", "6", "7", "8"], "time": [1328, 1643, 1926, 2310, 2726, 3043, 3443, 3876, 4209, 4776, 5093, 5360, 5843]}, "edge": {"target": [], "time": []}}, "mouseout": {"state": {"target": ["0", "9", "10", "11", "10", "12", "9", "1", "1", "2", "4", "2", "3", "5", "6", "7", "8"], "time": [776, 1610, 1893, 2193, 2260, 2560, 2660, 2843, 3393, 3793, 4060, 4176, 4560, 5026, 5326, 5593, 6328]}, "edge": {"target": [], "time": []}}}, "displayed_time": "8.99", "trialTime": 9783, "trial_type": "mouselab-mdp", "trial_index": 42, "time_elapsed": 1008832, "internal_node_id": "0.0-4.0-1.0-27.0"}}, {"uniqueid": "w21090716:a88301634", "current_trial": 43, "dateTime": 1664465003761, "trialdata": {"revealed_states": [], "num_clicks_accrued": [0, 0, 0, 0, 0, 0, 0, 0, 0, 0, 0, 0, 0], "stateRewards": ["", -2, -8, 48, 24, 4, -8, 24, 48, 4, -4, 24, -48], "withholdReward": true, "trial_id": "mdp_871576155740", "block": "test1", "trialIndex": 32, "score": 46, "costs": -3, "simulationMode": [null, null, null], "rewards": [4, -8, 48], "path": ["0", "0", "5", "6", "8"], "rt": [8144, 147, 40], "actions": ["right", "right", "down"], "actionTimes": [9460, 10124, 10682], "queries": {"click": {"state": {"target": ["9", "11", "10", "12", "5", "6", "7", "8", "1", "2", "4", "3"], "time": [1722, 2366, 2696, 2996, 3616, 3924, 4217, 5401, 6402, 6724, 7022, 7549]}, "edge": {"target": [], "time": []}}, "mouseover": {"state": {"target": ["9", "11", "10", "12", "5", "6", "7", "8", "8", "1", "2", "4", "3"], "time": [1642, 2243, 2592, 2909, 3342, 3842, 4109, 4642, 5101, 6242, 6592, 6908, 7475]}, "edge": {"target": [], "time": []}}, "mouseout": {"state": {"target": ["6", "5", "0", "0", "9", "11", "10", "12", "5", "6", "7", "6", "8", "8", "1", "2", "4", "2", "3"], "time": [510, 692, 725, 1475, 1892, 2525, 2859, 3176, 3775, 4075, 4442, 4526, 4909, 5642, 6542, 6858, 7227, 7409, 7792]}, "edge": {"target": [], "time": []}}}, "displayed_time": "11.19", "trialTime": 12931, "trial_type": "mouselab-mdp", "trial_index": 43, "time_elapsed": 1021848, "internal_node_id": "0.0-4.0-1.0-28.0"}}, {"uniqueid": "w21090716:a88301634", "current_trial": 44, "dateTime": 1664465014593, "trialdata": {"revealed_states": [], "num_clicks_accrued": [0, 0, 0, 0, 0, 0, 0, 0, 0, 0, 0, 0, 0], "stateRewards": ["", -2, -4, -48, 48, -4, 4, -48, 24, -4, -8, 24, 48], "withholdReward": true, "trial_id": "mdp_264482284450", "block": "test1", "trialIndex": 33, "score": 44, "costs": -3, "simulationMode": [null, null, null], "rewards": [-2, -4, 48], "path": ["0", "0", "1", "2", "4"], "rt": [6638, 66, 36], "actions": ["up", "up", "left"], "actionTimes": [7486, 8069, 8605], "queries": {"click": {"state": {"target": ["9", "10", "11", "12", "1", "2", "4", "3", "5", "7", "6", "8"], "time": [1254, 1549, 1883, 2231, 3161, 3479, 3791, 4109, 4536, 5394, 5775, 6176]}, "edge": {"target": [], "time": []}}, "mouseover": {"state": {"target": ["9", "10", "11", "12", "1", "2", "4", "3", "5", "6", "6", "7", "6", "8"], "time": [1169, 1502, 1769, 2119, 2652, 3385, 3685, 4019, 4436, 4802, 5218, 5285, 5669, 6103]}, "edge": {"target": [], "time": []}}, "mouseout": {"state": {"target": ["5", "0", "9", "10", "11", "10", "12", "9", "1", "2", "4", "2", "3", "5", "6", "6", "7", "6", "8", "6"], "time": [502, 952, 1419, 1710, 2035, 2069, 2469, 2569, 3319, 3635, 3902, 3985, 4252, 4719, 4985, 5252, 5585, 5969, 6435, 6970]}, "edge": {"target": [], "time": []}}}, "displayed_time": "9.85", "trialTime": 10757, "trial_type": "mouselab-mdp", "trial_index": 44, "time_elapsed": 1032680, "internal_node_id": "0.0-4.0-1.0-29.0"}}, {"uniqueid": "w21090716:a88301634", "current_trial": 45, "dateTime": 1664465020053, "trialdata": {"rt": 5451, "stimulus": "<h1> End of block! </h1>\n\nYou have reached the end of the block 1/4. If you need a short break, feel free to take one now before moving on.\n\n<br><br>\nIn the next block, you will complete another 30 rounds of this game.\n\n<br><br>\n<div style='text-align: center;'>Press <code>space</code> to begin.</div>\n<br><br>\n<div style='text-align: center;'>(If the experiment doesn't continue, try clicking on the text and then pressing <code>space</code>.)</div>", "response": " ", "trial_id": "mdp_ready_2", "trial_type": "html-keyboard-response", "trial_index": 45, "time_elapsed": 1038140, "internal_node_id": "0.0-4.0-2.0"}}, {"uniqueid": "w21090716:a88301634", "current_trial": 46, "dateTime": 1664465031714, "trialdata": {"revealed_states": [], "num_clicks_accrued": [0, 0, 0, 0, 0, 0, 0, 0, 0, 0, 0, 0, 0], "stateRewards": ["", -2, -4, 48, -24, -4, -4, -24, -24, -2, 4, -48, -24], "withholdReward": true, "trial_id": "mdp_410467837196", "block": "test2", "trialIndex": 34, "score": 44, "costs": -3, "simulationMode": [null, null, null], "rewards": [-2, -4, 48], "path": ["0", "0", "1", "2", "3"], "rt": [5944, 447, 218], "actions": ["up", "up", "right"], "actionTimes": [6874, 7834, 8539], "queries": {"click": {"state": {"target": ["9", "10", "12", "11", "1", "2", "4", "3", "5", "6", "7", "8"], "time": [1329, 1619, 2313, 2632, 3137, 3430, 3706, 4071, 4541, 4880, 5140, 5462]}, "edge": {"target": [], "time": []}}, "mouseover": {"state": {"target": ["9", "9", "10", "12", "11", "1", "2", "4", "3", "5", "6", "7", "8"], "time": [1170, 1319, 1503, 2252, 2553, 3020, 3320, 3620, 3987, 4437, 4786, 5036, 5403]}, "edge": {"target": [], "time": []}}, "mouseout": {"state": {"target": ["5", "1", "9", "9", "10", "10", "12", "10", "11", "1", "2", "4", "2", "3", "5", "6", "7", "6", "8", "6", "5", "5"], "time": [103, 553, 1269, 1436, 1753, 2136, 2453, 2519, 2786, 3286, 3570, 3854, 3953, 4253, 4703, 4986, 5253, 5353, 5637, 5703, 10187, 10836]}, "edge": {"target": [], "time": []}}}, "displayed_time": "10.93", "trialTime": 11564, "trial_type": "mouselab-mdp", "trial_index": 46, "time_elapsed": 1049801, "internal_node_id": "0.0-4.0-3.0-0.0"}}, {"uniqueid": "w21090716:a88301634", "current_trial": 47, "dateTime": 1664465042329, "trialdata": {"revealed_states": [], "num_clicks_accrued": [0, 0, 0, 0, 0, 0, 0, 0, 0, 0, 0, 0, 0], "stateRewards": ["", 2, 4, 48, -48, 2, 4, 24, -24, 2, -4, -24, -48], "withholdReward": true, "trial_id": "mdp_706591889062", "block": "test2", "trialIndex": 35, "score": 56, "costs": -3, "simulationMode": [null, null, null], "rewards": [2, 4, 48], "path": ["0", "0", "1", "2", "3"], "rt": [5904, 110, 108], "actions": ["up", "up", "right"], "actionTimes": [7082, 7698, 8313], "queries": {"click": {"state": {"target": ["9", "10", "11", "12", "1", "2", "4", "3", "5", "6", "7", "8"], "time": [1638, 1961, 2252, 2852, 3356, 3688, 3975, 4327, 4786, 5957, 6204, 6573]}, "edge": {"target": [], "time": []}}, "mouseover": {"state": {"target": ["9", "10", "11", "12", "12", "1", "2", "4", "3", "5", "6", "7", "8"], "time": [1589, 1871, 2171, 2439, 2704, 3289, 3571, 3904, 4205, 4771, 5938, 6154, 6521]}, "edge": {"target": [], "time": []}}, "mouseout": {"state": {"target": ["5", "0", "9", "10", "11", "10", "12", "12", "9", "1", "2", "4", "2", "3", "5", "6", "7", "6", "8", "6"], "time": [604, 1506, 1838, 2121, 2388, 2438, 2487, 3021, 3105, 3521, 3854, 4104, 4188, 4554, 5038, 6121, 6371, 6438, 6788, 6937]}, "edge": {"target": [], "time": []}}}, "displayed_time": "10.18", "trialTime": 10514, "trial_type": "mouselab-mdp", "trial_index": 47, "time_elapsed": 1060416, "internal_node_id": "0.0-4.0-3.0-1.0"}}, {"uniqueid": "w21090716:a88301634", "current_trial": 48, "dateTime": 1664465053882, "trialdata": {"revealed_states": [], "num_clicks_accrued": [0, 0, 0, 0, 0, 0, 0, 0, 0, 0, 0, 0, 0], "stateRewards": ["", 2, 8, -48, -24, 4, 4, 24, 48, 4, -4, -48, 48], "withholdReward": true, "trial_id": "mdp_665096999232", "block": "test2", "trialIndex": 36, "score": 58, "costs": -3, "simulationMode": [null, null, null], "rewards": [4, 4, 48], "path": ["0", "0", "5", "6", "8"], "rt": [6788, 144, 111], "actions": ["right", "right", "down"], "actionTimes": [8024, 8687, 9288], "queries": {"click": {"state": {"target": ["9", "10", "11", "12", "1", "2", "4", "3", "5", "6", "7", "8"], "time": [1844, 2154, 2455, 3185, 4147, 4829, 5130, 5412, 5833, 6085, 6366, 6814]}, "edge": {"target": [], "time": []}}, "mouseover": {"state": {"target": ["0", "9", "10", "9", "10", "11", "12", "1", "2", "4", "3", "5", "6", "7", "8"], "time": [1240, 1460, 1510, 1794, 2077, 2343, 3110, 3576, 4744, 5026, 5343, 5744, 5976, 6226, 6743]}, "edge": {"target": [], "time": []}}, "mouseout": {"state": {"target": ["0", "9", "10", "9", "10", "11", "12", "9", "1", "2", "4", "2", "3", "5", "6", "7", "6", "8", "5"], "time": [1443, 1494, 1695, 2026, 2310, 2610, 3360, 3427, 4694, 4993, 5244, 5310, 5576, 5959, 6209, 6543, 6676, 7093, 7827]}, "edge": {"target": [], "time": []}}}, "displayed_time": "9.79", "trialTime": 11473, "trial_type": "mouselab-mdp", "trial_index": 48, "time_elapsed": 1071969, "internal_node_id": "0.0-4.0-3.0-2.0"}}, {"uniqueid": "w21090716:a88301634", "current_trial": 49, "dateTime": 1664465068721, "trialdata": {"revealed_states": [], "num_clicks_accrued": [0, 0, 0, 0, 0, 0, 0, 0, 0, 0, 0, 0, 0], "stateRewards": ["", 4, -4, 48, -48, -4, -4, 48, -48, 4, 4, -48, -24], "withholdReward": false, "trial_id": "mdp_490058671112", "block": "test2", "trialIndex": 37, "score": 50, "costs": -3, "simulationMode": [null, null, null], "rewards": [4, -4, 48], "path": ["0", "0", "1", "2", "3"], "rt": [10799, 102, 79], "actions": ["up", "up", "right"], "actionTimes": [11745, 12352, 12929], "queries": {"click": {"state": {"target": ["9", "10", "11", "12", "5", "7", "6", "8", "2", "1", "4", "3"], "time": [1403, 1941, 2241, 2647, 3256, 3983, 4302, 4677, 5346, 5702, 6487, 8550]}, "edge": {"target": [], "time": []}}, "mouseover": {"state": {"target": ["9", "9", "10", "11", "12", "5", "6", "7", "6", "8", "2", "1", "4", "3"], "time": [1100, 1384, 1849, 2149, 2550, 3150, 3400, 3916, 4232, 4616, 5199, 5616, 6382, 8503]}, "edge": {"target": [], "time": []}}, "mouseout": {"state": {"target": ["5", "0", "9", "9", "10", "11", "10", "12", "5", "6", "7", "6", "8", "5", "2", "1", "4", "1", "3"], "time": [567, 1050, 1183, 1733, 2083, 2382, 2500, 2799, 3382, 3449, 4150, 4499, 4966, 5016, 5567, 5916, 7100, 7633, 8749]}, "edge": {"target": [], "time": []}}}, "displayed_time": "13.42", "trialTime": 14768, "trial_type": "mouselab-mdp", "trial_index": 49, "time_elapsed": 1086807, "internal_node_id": "0.0-4.0-3.0-3.0"}}, {"uniqueid": "w21090716:a88301634", "current_trial": 50, "dateTime": 1664465079674, "trialdata": {"revealed_states": [], "num_clicks_accrued": [0, 0, 0, 0, 0, 0, 0, 0, 0, 0, 0, 0, 0], "stateRewards": ["", 2, -4, 48, 24, 2, 8, 24, 24, -2, 4, 24, 24], "withholdReward": true, "trial_id": "mdp_813974524300", "block": "test2", "trialIndex": 38, "score": 48, "costs": -3, "simulationMode": [null, null, null], "rewards": [2, -4, 48], "path": ["0", "0", "1", "2", "3"], "rt": [5937, 167, 36], "actions": ["up", "up", "right"], "actionTimes": [7304, 7958, 8510], "queries": {"click": {"state": {"target": ["9", "10", "11", "12", "1", "2", "4", "3", "5", "6", "7", "8"], "time": [1774, 2048, 2415, 2803, 3339, 3613, 3951, 4249, 4638, 5253, 5564, 6078]}, "edge": {"target": [], "time": []}}, "mouseover": {"state": {"target": ["9", "10", "11", "12", "1", "2", "4", "3", "5", "6", "7", "8"], "time": [1625, 1957, 2307, 2723, 3240, 3540, 3873, 4190, 4573, 5057, 5540, 6040]}, "edge": {"target": [], "time": []}}, "mouseout": {"state": {"target": ["6", "5", "0", "9", "10", "11", "10", "12", "1", "2", "4", "2", "3", "5", "6", "7", "6", "8", "6"], "time": [376, 591, 1190, 1906, 2273, 2607, 2690, 2990, 3507, 3807, 4073, 4157, 4440, 5007, 5473, 5823, 5974, 6424, 6524]}, "edge": {"target": [], "time": []}}}, "displayed_time": "10.37", "trialTime": 10879, "trial_type": "mouselab-mdp", "trial_index": 50, "time_elapsed": 1097760, "internal_node_id": "0.0-4.0-3.0-4.0"}}, {"uniqueid": "w21090716:a88301634", "current_trial": 51, "dateTime": 1664465089529, "trialdata": {"revealed_states": [], "num_clicks_accrued": [0, 0, 0, 0, 0, 0, 0, 0, 0, 0, 0, 0, 0], "stateRewards": ["", -2, 8, -24, 48, -4, 4, -48, 24, 4, -8, 48, -24], "withholdReward": true, "trial_id": "mdp_425320427962", "block": "test2", "trialIndex": 39, "score": 56, "costs": -3, "simulationMode": [null, null, null], "rewards": [-2, 8, 48], "path": ["0", "0", "1", "2", "4"], "rt": [5515, 371, 80], "actions": ["up", "up", "left"], "actionTimes": [6209, 7113, 7704], "queries": {"click": {"state": {"target": ["9", "11", "10", "12", "1", "2", "4", "3", "5", "6", "7", "8"], "time": [1044, 1648, 1953, 2263, 2656, 2982, 3246, 3584, 4096, 4426, 4695, 5041]}, "edge": {"target": [], "time": []}}, "mouseover": {"state": {"target": ["9", "11", "10", "12", "1", "2", "4", "3", "5", "6", "7", "8"], "time": [891, 1524, 1841, 2157, 2541, 2841, 3157, 3491, 4007, 4341, 4624, 4940]}, "edge": {"target": [], "time": []}}, "mouseout": {"state": {"target": ["0", "0", "9", "11", "10", "12", "9", "1", "2", "4", "2", "3", "5", "6", "7", "6", "8", "6"], "time": [524, 774, 1224, 1808, 2091, 2407, 2491, 2807, 3108, 3357, 3457, 3774, 4257, 4574, 4824, 4890, 5391, 5741]}, "edge": {"target": [], "time": []}}}, "displayed_time": "8.70", "trialTime": 9753, "trial_type": "mouselab-mdp", "trial_index": 51, "time_elapsed": 1107616, "internal_node_id": "0.0-4.0-3.0-5.0"}}, {"uniqueid": "w21090716:a88301634", "current_trial": 52, "dateTime": 1664465100145, "trialdata": {"revealed_states": [], "num_clicks_accrued": [0, 0, 0, 0, 0, 0, 0, 0, 0, 0, 0, 0, 0], "stateRewards": ["", 2, -4, -48, 24, 4, 4, 48, -48, -2, -4, -24, -48], "withholdReward": true, "trial_id": "mdp_858916930936", "block": "test2", "trialIndex": 40, "score": 58, "costs": -3, "simulationMode": [null, null, null], "rewards": [4, 4, 48], "path": ["0", "0", "5", "6", "7"], "rt": [5511, 70, 86], "actions": ["right", "right", "up"], "actionTimes": [6158, 6735, 7334], "queries": {"click": {"state": {"target": ["1", "2", "4", "3", "9", "10", "11", "12", "5", "6", "7", "8"], "time": [1152, 1469, 1804, 2125, 2817, 3057, 3314, 3633, 4114, 4448, 5117, 5411]}, "edge": {"target": [], "time": []}}, "mouseover": {"state": {"target": ["1", "2", "4", "3", "9", "9", "10", "11", "12", "0", "5", "6", "7", "8"], "time": [1114, 1364, 1714, 2115, 2431, 2714, 2981, 3214, 3581, 3914, 4111, 4381, 5047, 5381]}, "edge": {"target": [], "time": []}}, "mouseout": {"state": {"target": ["0", "1", "2", "4", "2", "3", "1", "9", "9", "10", "11", "10", "12", "0", "5", "6", "7", "6", "8", "8"], "time": [814, 1331, 1664, 1948, 2031, 2264, 2364, 2447, 2948, 3181, 3464, 3547, 3831, 3964, 4347, 4614, 5247, 5314, 6034, 8617]}, "edge": {"target": [], "time": []}}}, "displayed_time": "9.65", "trialTime": 10543, "trial_type": "mouselab-mdp", "trial_index": 52, "time_elapsed": 1118232, "internal_node_id": "0.0-4.0-3.0-6.0"}}, {"uniqueid": "w21090716:a88301634", "current_trial": 53, "dateTime": 1664465109897, "trialdata": {"revealed_states": [], "num_clicks_accrued": [0, 0, 0, 0, 0, 0, 0, 0, 0, 0, 0, 0, 0], "stateRewards": ["", 2, -4, 24, 24, 4, -4, -24, 24, -4, -4, 48, 48], "withholdReward": false, "trial_id": "mdp_566306223773", "block": "test2", "trialIndex": 41, "score": 42, "costs": -3, "simulationMode": [null, null, null], "rewards": [-4, -4, 48], "path": ["0", "0", "9", "10", "12"], "rt": [6473, 67, 94], "actions": ["left", "left", "down"], "actionTimes": [7198, 7773, 8365], "queries": {"click": {"state": {"target": ["9", "10", "11", "12", "1", "2", "4", "3", "5", "6", "7", "8"], "time": [1441, 1774, 2087, 2505, 3028, 3347, 3652, 3951, 4328, 4640, 4899, 5240]}, "edge": {"target": [], "time": []}}, "mouseover": {"state": {"target": ["9", "9", "10", "11", "12", "1", "2", "4", "3", "5", "6", "7", "8"], "time": [971, 1221, 1705, 1971, 2388, 2871, 3238, 3571, 3904, 4239, 4504, 4822, 5155]}, "edge": {"target": [], "time": []}}, "mouseout": {"state": {"target": ["0", "9", "9", "10", "11", "10", "12", "9", "1", "2", "4", "2", "3", "5", "6", "7", "6", "8", "8"], "time": [955, 1021, 1655, 1938, 2239, 2354, 2738, 2805, 3204, 3521, 3754, 3871, 4121, 4471, 4788, 5071, 5121, 5488, 9455]}, "edge": {"target": [], "time": []}}}, "displayed_time": "8.87", "trialTime": 9685, "trial_type": "mouselab-mdp", "trial_index": 53, "time_elapsed": 1127984, "internal_node_id": "0.0-4.0-3.0-7.0"}}, {"uniqueid": "w21090716:a88301634", "current_trial": 54, "dateTime": 1664465120153, "trialdata": {"revealed_states": [], "num_clicks_accrued": [0, 0, 0, 0, 0, 0, 0, 0, 0, 0, 0, 0, 0], "stateRewards": ["", -4, 4, -48, -48, -2, -8, -48, -24, 4, 8, -24, 24], "withholdReward": true, "trial_id": "mdp_449260894259", "block": "test2", "trialIndex": 42, "score": 38, "costs": -3, "simulationMode": [null, null, null], "rewards": [4, 8, 24], "path": ["0", "0", "9", "10", "12"], "rt": [5218, 96, 72], "actions": ["left", "left", "down"], "actionTimes": [6986, 7571, 8130], "queries": {"click": {"state": {"target": ["9", "10", "11", "12", "1", "2", "4", "3", "5", "6", "7", "8"], "time": [2084, 2367, 2646, 2971, 3583, 3884, 4179, 4507, 4904, 5252, 5532, 5976]}, "edge": {"target": [], "time": []}}, "mouseover": {"state": {"target": ["0", "9", "10", "11", "12", "1", "2", "4", "3", "5", "6", "7", "8"], "time": [1924, 2024, 2291, 2543, 2958, 3508, 3791, 4058, 4424, 4808, 5190, 5458, 5941]}, "edge": {"target": [], "time": []}}, "mouseout": {"state": {"target": ["0", "0", "9", "10", "11", "10", "12", "9", "1", "2", "4", "2", "3", "5", "6", "7", "6", "8"], "time": [1779, 1941, 2241, 2508, 2791, 2874, 3277, 3375, 3758, 4024, 4308, 4408, 4691, 5141, 5408, 5724, 5875, 6342]}, "edge": {"target": [], "time": []}}}, "displayed_time": "9.78", "trialTime": 10179, "trial_type": "mouselab-mdp", "trial_index": 54, "time_elapsed": 1138240, "internal_node_id": "0.0-4.0-3.0-8.0"}}, {"uniqueid": "w21090716:a88301634", "current_trial": 55, "dateTime": 1664465131308, "trialdata": {"revealed_states": [], "num_clicks_accrued": [0, 0, 0, 0, 0, 0, 0, 0, 0, 0, 0, 0, 0], "stateRewards": ["", -2, -4, -24, -48, -2, 8, -48, 24, 4, -4, -24, -24], "withholdReward": false, "trial_id": "mdp_915304165774", "block": "test2", "trialIndex": 43, "score": 32, "costs": -3, "simulationMode": [null, null, null], "rewards": [-2, 8, 24], "path": ["0", "0", "5", "6", "8"], "rt": [6831, 141, 95], "actions": ["right", "right", "down"], "actionTimes": [7707, 8348, 8953], "queries": {"click": {"state": {"target": ["9", "10", "11", "12", "1", "2", "3", "4", "5", "6", "7", "8"], "time": [1162, 1925, 2301, 2642, 3124, 3452, 4176, 4544, 5006, 5373, 5743, 6091]}, "edge": {"target": [], "time": []}}, "mouseover": {"state": {"target": ["9", "11", "11", "10", "11", "12", "1", "2", "4", "3", "4", "5", "6", "7", "8"], "time": [1057, 1507, 1678, 1857, 2157, 2557, 2974, 3340, 3725, 4074, 4490, 5003, 5274, 5640, 6024]}, "edge": {"target": [], "time": []}}, "mouseout": {"state": {"target": ["0", "9", "11", "11", "10", "11", "10", "12", "9", "1", "2", "4", "2", "3", "2", "4", "5", "6", "7", "6", "8"], "time": [957, 1324, 1524, 1790, 2124, 2441, 2490, 2807, 2891, 3307, 3590, 3825, 3974, 4340, 4424, 4740, 5210, 5574, 5907, 5957, 6440]}, "edge": {"target": [], "time": []}}}, "displayed_time": "9.46", "trialTime": 11083, "trial_type": "mouselab-mdp", "trial_index": 55, "time_elapsed": 1149395, "internal_node_id": "0.0-4.0-3.0-9.0"}}, {"uniqueid": "w21090716:a88301634", "current_trial": 56, "dateTime": 1664465145633, "trialdata": {"revealed_states": [], "num_clicks_accrued": [0, 0, 0, 0, 0, 0, 0, 0, 0, 0, 0, 0, 0], "stateRewards": ["", 2, 4, 48, 24, -4, 8, 48, 48, 2, -4, -48, -24], "withholdReward": false, "trial_id": "mdp_822099887466", "block": "test2", "trialIndex": 44, "score": 56, "costs": -3, "simulationMode": [null, null, null], "rewards": [2, 4, 48], "path": ["0", "0", "1", "2", "3"], "rt": [10910, 12, 145], "actions": ["up", "up", "right"], "actionTimes": [11618, 12137, 12801], "queries": {"click": {"state": {"target": ["9", "10", "11", "12", "1", "2", "4", "3", "5", "6", "7", "8"], "time": [1682, 1991, 2268, 2838, 3259, 3503, 3845, 4246, 4659, 5487, 5779, 6697]}, "edge": {"target": [], "time": []}}, "mouseover": {"state": {"target": ["9", "10", "9", "9", "9", "10", "11", "12", "1", "2", "4", "3", "5", "6", "7", "8"], "time": [874, 907, 1157, 1390, 1574, 1940, 2174, 2724, 3091, 3390, 3807, 4124, 4640, 5425, 5690, 6306]}, "edge": {"target": [], "time": []}}, "mouseout": {"state": {"target": ["9", "10", "9", "9", "9", "10", "11", "12", "9", "1", "2", "4", "2", "3", "5", "6", "7", "6", "8"], "time": [890, 1107, 1174, 1423, 1857, 2123, 2390, 2958, 3023, 3374, 3723, 3990, 4090, 4440, 5326, 5640, 5923, 6058, 6974]}, "edge": {"target": [], "time": []}}}, "displayed_time": "13.29", "trialTime": 14225, "trial_type": "mouselab-mdp", "trial_index": 56, "time_elapsed": 1163720, "internal_node_id": "0.0-4.0-3.0-10.0"}}, {"uniqueid": "w21090716:a88301634", "current_trial": 57, "dateTime": 1664465156184, "trialdata": {"revealed_states": [], "num_clicks_accrued": [0, 0, 0, 0, 0, 0, 0, 0, 0, 0, 0, 0, 0], "stateRewards": ["", -2, -8, 48, 24, 2, 8, -48, 24, -4, 8, 48, 48], "withholdReward": true, "trial_id": "mdp_875436109858", "block": "test2", "trialIndex": 45, "score": 54, "costs": -3, "simulationMode": [null, null, null], "rewards": [-4, 8, 48], "path": ["0", "0", "9", "10", "12"], "rt": [5535, 133, 291], "actions": ["left", "left", "down"], "actionTimes": [6563, 7195, 8003], "queries": {"click": {"state": {"target": ["9", "10", "11", "12", "1", "2", "4", "3", "5", "6", "7", "8"], "time": [1494, 1838, 2443, 2764, 3399, 3692, 3953, 4250, 4613, 4915, 5189, 5516]}, "edge": {"target": [], "time": []}}, "mouseover": {"state": {"target": ["9", "10", "11", "12", "1", "2", "4", "3", "5", "6", "7", "8"], "time": [1478, 1729, 2262, 2695, 3045, 3579, 3878, 4145, 4496, 4795, 5095, 5479]}, "edge": {"target": [], "time": []}}, "mouseout": {"state": {"target": ["6", "5", "9", "10", "11", "10", "12", "9", "1", "2", "4", "2", "3", "5", "6", "7", "8", "8"], "time": [762, 845, 1696, 1962, 2579, 2662, 2912, 2995, 3546, 3829, 4079, 4129, 4395, 4762, 5029, 5312, 5795, 8779]}, "edge": {"target": [], "time": []}}}, "displayed_time": "10.03", "trialTime": 10483, "trial_type": "mouselab-mdp", "trial_index": 57, "time_elapsed": 1174271, "internal_node_id": "0.0-4.0-3.0-11.0"}}, {"uniqueid": "w21090716:a88301634", "current_trial": 58, "dateTime": 1664465166784, "trialdata": {"revealed_states": [], "num_clicks_accrued": [0, 0, 0, 0, 0, 0, 0, 0, 0, 0, 0, 0, 0], "stateRewards": ["", -4, -8, -24, 24, 4, 4, -48, -48, -4, -4, 24, -48], "withholdReward": false, "trial_id": "mdp_431592223624", "block": "test2", "trialIndex": 46, "score": 18, "costs": -3, "simulationMode": [null, null, null], "rewards": [-4, -4, 24], "path": ["0", "0", "9", "10", "11"], "rt": [6527, 467, 164], "actions": ["left", "left", "up"], "actionTimes": [7245, 8228, 8892], "queries": {"click": {"state": {"target": ["9", "10", "11", "12", "1", "2", "4", "3", "5", "6", "7", "8"], "time": [1072, 1363, 1651, 1952, 2358, 2654, 2909, 3228, 3600, 4011, 4367, 4722]}, "edge": {"target": [], "time": []}}, "mouseover": {"state": {"target": ["9", "10", "11", "12", "1", "2", "4", "3", "5", "6", "7", "8"], "time": [928, 1278, 1528, 1894, 2228, 2561, 2811, 3161, 3494, 3811, 4278, 4595]}, "edge": {"target": [], "time": []}}, "mouseout": {"state": {"target": ["0", "9", "10", "11", "10", "12", "9", "1", "2", "4", "2", "3", "5", "6", "7", "6", "8", "8"], "time": [628, 1228, 1495, 1778, 1828, 2062, 2179, 2528, 2778, 3045, 3111, 3378, 3744, 4244, 4495, 4561, 6631, 9494]}, "edge": {"target": [], "time": []}}}, "displayed_time": "9.72", "trialTime": 10516, "trial_type": "mouselab-mdp", "trial_index": 58, "time_elapsed": 1184871, "internal_node_id": "0.0-4.0-3.0-12.0"}}, {"uniqueid": "w21090716:a88301634", "current_trial": 59, "dateTime": 1664465177092, "trialdata": {"revealed_states": [], "num_clicks_accrued": [0, 0, 0, 0, 0, 0, 0, 0, 0, 0, 0, 0, 0], "stateRewards": ["", -2, 8, 48, 48, 2, 4, -48, 24, -4, -8, 48, 24], "withholdReward": true, "trial_id": "mdp_572910394648", "block": "test2", "trialIndex": 47, "score": 56, "costs": -3, "simulationMode": [null, null, null], "rewards": [-2, 8, 48], "path": ["0", "0", "1", "2", "3"], "rt": [5987, 252, 94], "actions": ["up", "up", "right"], "actionTimes": [6861, 7621, 8229], "queries": {"click": {"state": {"target": ["9", "11", "10", "12", "1", "2", "4", "3", "5", "6", "7", "8"], "time": [1314, 1972, 2287, 2615, 3102, 3416, 3700, 4022, 4512, 4814, 5081, 5776]}, "edge": {"target": [], "time": []}}, "mouseover": {"state": {"target": ["9", "11", "10", "12", "1", "2", "4", "3", "5", "6", "7", "8"], "time": [1219, 1852, 2185, 2502, 3068, 3302, 3618, 3935, 4402, 4673, 4968, 5595]}, "edge": {"target": [], "time": []}}, "mouseout": {"state": {"target": ["0", "9", "11", "10", "12", "12", "1", "2", "4", "2", "3", "5", "6", "7", "6", "8", "8"], "time": [1035, 1518, 2135, 2468, 2636, 2818, 3285, 3552, 3819, 3885, 4236, 4635, 4935, 5319, 5386, 5968, 9586]}, "edge": {"target": [], "time": []}}}, "displayed_time": "9.87", "trialTime": 10232, "trial_type": "mouselab-mdp", "trial_index": 59, "time_elapsed": 1195179, "internal_node_id": "0.0-4.0-3.0-13.0"}}, {"uniqueid": "w21090716:a88301634", "current_trial": 60, "dateTime": 1664465188009, "trialdata": {"revealed_states": [], "num_clicks_accrued": [0, 0, 0, 0, 0, 0, 0, 0, 0, 0, 0, 0, 0], "stateRewards": ["", -2, -8, -24, 24, -2, -8, -48, 24, -2, -8, 24, 24], "withholdReward": true, "trial_id": "mdp_336617436097", "block": "test2", "trialIndex": 48, "score": 16, "costs": -3, "simulationMode": [null, null, null], "rewards": [-2, -8, 24], "path": ["0", "0", "1", "2", "4"], "rt": [7249, 91, 67], "actions": ["up", "up", "left"], "actionTimes": [7940, 8539, 9115], "queries": {"click": {"state": {"target": ["9", "10", "11", "12", "1", "2", "4", "3", "6", "5", "7", "8"], "time": [1078, 1846, 2154, 2497, 2909, 3231, 3516, 3849, 4580, 4951, 5222, 5583]}, "edge": {"target": [], "time": []}}, "mouseover": {"state": {"target": ["9", "11", "10", "11", "12", "1", "2", "4", "3", "5", "6", "5", "7", "8"], "time": [1031, 1515, 1681, 2048, 2398, 2798, 3098, 3465, 3781, 4265, 4514, 4881, 5131, 5481]}, "edge": {"target": [], "time": []}}, "mouseout": {"state": {"target": ["9", "11", "10", "11", "10", "12", "1", "2", "4", "2", "3", "5", "6", "5", "7", "6", "8"], "time": [1281, 1631, 2015, 2314, 2364, 2665, 3064, 3348, 3664, 3747, 4031, 4448, 4833, 5081, 5381, 5448, 9948]}, "edge": {"target": [], "time": []}}}, "displayed_time": "9.63", "trialTime": 10811, "trial_type": "mouselab-mdp", "trial_index": 60, "time_elapsed": 1206096, "internal_node_id": "0.0-4.0-3.0-14.0"}}, {"uniqueid": "w21090716:a88301634", "current_trial": 61, "dateTime": 1664465198745, "trialdata": {"revealed_states": [], "num_clicks_accrued": [0, 0, 0, 0, 0, 0, 0, 0, 0, 0, 0, 0, 0], "stateRewards": ["", -4, -8, -48, 24, -4, -4, -24, -48, 2, -8, -24, -48], "withholdReward": true, "trial_id": "mdp_628181832088", "block": "test2", "trialIndex": 49, "score": 14, "costs": -3, "simulationMode": [null, null, null], "rewards": [-4, -8, 24], "path": ["0", "0", "1", "2", "4"], "rt": [5715, 86, 84], "actions": ["up", "up", "left"], "actionTimes": [6983, 7583, 8181], "queries": {"click": {"state": {"target": ["9", "11", "10", "12", "1", "2", "4", "3", "5", "6", "7", "8"], "time": [1923, 2251, 2547, 2865, 3477, 3808, 4147, 4621, 5092, 5401, 5690, 6009]}, "edge": {"target": [], "time": []}}, "mouseover": {"state": {"target": ["9", "9", "11", "10", "12", "1", "1", "2", "4", "3", "5", "6", "7", "8"], "time": [1413, 1796, 2146, 2463, 2762, 3179, 3380, 3696, 4046, 4446, 4963, 5296, 5596, 5946]}, "edge": {"target": [], "time": []}}, "mouseout": {"state": {"target": ["0", "9", "9", "11", "10", "12", "9", "1", "1", "2", "4", "2", "3", "5", "6", "7", "6", "8"], "time": [1396, 1446, 2080, 2413, 2713, 3046, 3113, 3196, 3646, 3980, 4296, 4413, 4779, 5247, 5546, 5830, 5863, 8629]}, "edge": {"target": [], "time": []}}}, "displayed_time": "10.27", "trialTime": 10646, "trial_type": "mouselab-mdp", "trial_index": 61, "time_elapsed": 1216832, "internal_node_id": "0.0-4.0-3.0-15.0"}}, {"uniqueid": "w21090716:a88301634", "current_trial": 62, "dateTime": 1664465207945, "trialdata": {"revealed_states": [], "num_clicks_accrued": [0, 0, 0, 0, 0, 0, 0, 0, 0, 0, 0, 0, 0], "stateRewards": ["", -2, -4, -24, 48, -4, 8, 48, 48, 2, 8, -48, -24], "withholdReward": true, "trial_id": "mdp_136376573354", "block": "test2", "trialIndex": 50, "score": 54, "costs": -3, "simulationMode": [null, null, null], "rewards": [-4, 8, 48], "path": ["0", "0", "5", "6", "7"], "rt": [5377, 122, 113], "actions": ["right", "right", "up"], "actionTimes": [6171, 6808, 7415], "queries": {"click": {"state": {"target": ["9", "11", "10", "12", "1", "2", "4", "3", "5", "6", "7", "8"], "time": [1187, 1946, 2264, 2554, 3011, 3362, 3680, 4025, 4459, 4769, 5060, 5387]}, "edge": {"target": [], "time": []}}, "mouseover": {"state": {"target": ["9", "10", "11", "10", "12", "1", "2", "4", "3", "5", "6", "7", "8"], "time": [935, 1603, 1852, 2185, 2435, 2902, 3269, 3602, 3919, 4419, 4669, 4935, 5353]}, "edge": {"target": [], "time": []}}, "mouseout": {"state": {"target": ["0", "9", "10", "11", "10", "12", "9", "1", "2", "4", "2", "3", "5", "6", "7", "6", "8", "8"], "time": [885, 1419, 1802, 2119, 2419, 2702, 2785, 3235, 3518, 3802, 3886, 4218, 4619, 4902, 5202, 5286, 5719, 8435]}, "edge": {"target": [], "time": []}}}, "displayed_time": "8.80", "trialTime": 9119, "trial_type": "mouselab-mdp", "trial_index": 62, "time_elapsed": 1226032, "internal_node_id": "0.0-4.0-3.0-16.0"}}, {"uniqueid": "w21090716:a88301634", "current_trial": 63, "dateTime": 1664465217329, "trialdata": {"revealed_states": [], "num_clicks_accrued": [0, 0, 0, 0, 0, 0, 0, 0, 0, 0, 0, 0, 0], "stateRewards": ["", -2, 8, 48, 48, 4, -8, -48, 48, 2, -4, -48, 48], "withholdReward": false, "trial_id": "mdp_132958048709", "block": "test2", "trialIndex": 51, "score": 56, "costs": -3, "simulationMode": [null, null, null], "rewards": [-2, 8, 48], "path": ["0", "0", "1", "2", "3"], "rt": [6035, 4, 31], "actions": ["up", "up", "right"], "actionTimes": [6637, 7148, 7709], "queries": {"click": {"state": {"target": ["9", "10", "11", "12", "1", "2", "4", "3", "5", "6", "7", "8"], "time": [955, 1247, 1565, 1929, 2413, 2744, 3023, 3348, 3811, 4100, 4391, 5013]}, "edge": {"target": [], "time": []}}, "mouseover": {"state": {"target": ["9", "10", "11", "12", "1", "2", "4", "3", "5", "6", "7", "8"], "time": [827, 1193, 1443, 1893, 2293, 2610, 2943, 3277, 3677, 4060, 4310, 4677]}, "edge": {"target": [], "time": []}}, "mouseout": {"state": {"target": ["0", "9", "10", "11", "10", "12", "9", "1", "2", "4", "2", "3", "5", "6", "7", "6", "8"], "time": [560, 1127, 1410, 1743, 1827, 2193, 2260, 2577, 2894, 3144, 3243, 3526, 3993, 4277, 4526, 4610, 5193]}, "edge": {"target": [], "time": []}}}, "displayed_time": "8.60", "trialTime": 9228, "trial_type": "mouselab-mdp", "trial_index": 63, "time_elapsed": 1235416, "internal_node_id": "0.0-4.0-3.0-17.0"}}, {"uniqueid": "w21090716:a88301634", "current_trial": 64, "dateTime": 1664465227569, "trialdata": {"revealed_states": [], "num_clicks_accrued": [0, 0, 0, 0, 0, 0, 0, 0, 0, 0, 0, 0, 0], "stateRewards": ["", 4, -8, 48, 48, 2, 4, 48, -48, 4, -4, -48, 48], "withholdReward": true, "trial_id": "mdp_519605841135", "block": "test2", "trialIndex": 52, "score": 56, "costs": -3, "simulationMode": [null, null, null], "rewards": [2, 4, 48], "path": ["0", "0", "5", "6", "7"], "rt": [5409, 93, 69], "actions": ["right", "right", "up"], "actionTimes": [6341, 6940, 7517], "queries": {"click": {"state": {"target": ["9", "11", "10", "12", "1", "2", "4", "3", "5", "6", "7", "8"], "time": [1287, 1870, 2166, 2526, 2975, 3444, 3736, 4314, 4742, 5085, 5377, 5729]}, "edge": {"target": [], "time": []}}, "mouseover": {"state": {"target": ["9", "11", "10", "12", "1", "2", "4", "3", "5", "6", "7", "8"], "time": [1146, 1747, 2113, 2430, 2747, 3330, 3663, 4230, 4730, 4981, 5263, 5646]}, "edge": {"target": [], "time": []}}, "mouseout": {"state": {"target": ["6", "0", "9", "11", "10", "12", "9", "1", "2", "4", "3", "5", "6", "7", "6", "8"], "time": [446, 1080, 1430, 2031, 2380, 2680, 2713, 3146, 3630, 3880, 4513, 4946, 5213, 5530, 5596, 6000]}, "edge": {"target": [], "time": []}}}, "displayed_time": "8.93", "trialTime": 10156, "trial_type": "mouselab-mdp", "trial_index": 64, "time_elapsed": 1245656, "internal_node_id": "0.0-4.0-3.0-18.0"}}, {"uniqueid": "w21090716:a88301634", "current_trial": 65, "dateTime": 1664465238825, "trialdata": {"revealed_states": [], "num_clicks_accrued": [0, 0, 0, 0, 0, 0, 0, 0, 0, 0, 0, 0, 0], "stateRewards": ["", 2, -8, -24, 48, 4, -8, -24, -24, 2, 8, -24, 24], "withholdReward": true, "trial_id": "mdp_480787552818", "block": "test2", "trialIndex": 53, "score": 44, "costs": -3, "simulationMode": [null, null, null], "rewards": [2, -8, 48], "path": ["0", "0", "1", "2", "4"], "rt": [6958, 127, 142], "actions": ["up", "up", "left"], "actionTimes": [8242, 8873, 9505], "queries": {"click": {"state": {"target": ["9", "10", "11", "12", "1", "2", "4", "3", "5", "6", "7", "8"], "time": [1713, 1986, 2291, 2646, 3172, 3490, 3801, 4568, 4910, 5237, 5529, 5862]}, "edge": {"target": [], "time": []}}, "mouseover": {"state": {"target": ["9", "10", "11", "12", "1", "2", "4", "3", "3", "3", "5", "6", "7", "8"], "time": [1513, 1896, 2179, 2563, 2979, 3346, 3729, 3979, 4280, 4496, 4846, 5162, 5446, 5779]}, "edge": {"target": [], "time": []}}, "mouseout": {"state": {"target": ["8", "0", "9", "10", "11", "10", "12", "9", "1", "2", "4", "2", "3", "3", "3", "5", "6", "7", "6", "8", "6"], "time": [564, 1499, 1846, 2129, 2479, 2546, 2863, 2930, 3312, 3679, 3896, 3963, 4062, 4296, 4729, 5112, 5395, 5679, 5745, 6162, 10313]}, "edge": {"target": [], "time": []}}}, "displayed_time": "10.29", "trialTime": 11162, "trial_type": "mouselab-mdp", "trial_index": 65, "time_elapsed": 1256912, "internal_node_id": "0.0-4.0-3.0-19.0"}}, {"uniqueid": "w21090716:a88301634", "current_trial": 66, "dateTime": 1664465249297, "trialdata": {"revealed_states": [], "num_clicks_accrued": [0, 0, 0, 0, 0, 0, 0, 0, 0, 0, 0, 0, 0], "stateRewards": ["", -2, 8, 48, -24, 2, 4, -48, -24, -4, 8, -48, -48], "withholdReward": true, "trial_id": "mdp_539167561933", "block": "test2", "trialIndex": 54, "score": 56, "costs": -3, "simulationMode": [null, null, null], "rewards": [-2, 8, 48], "path": ["0", "0", "1", "2", "3"], "rt": [4980, 116, 58], "actions": ["up", "up", "right"], "actionTimes": [5895, 6510, 7085], "queries": {"click": {"state": {"target": ["9", "10", "11", "12", "1", "2", "4", "3", "5", "6", "7", "8"], "time": [1330, 1622, 1926, 2271, 2725, 3033, 3280, 3639, 3994, 4323, 4593, 4900]}, "edge": {"target": [], "time": []}}, "mouseover": {"state": {"target": ["9", "10", "11", "12", "1", "2", "4", "3", "5", "6", "7", "8"], "time": [1193, 1559, 1809, 2209, 2593, 2943, 3209, 3543, 3909, 4242, 4492, 4826]}, "edge": {"target": [], "time": []}}, "mouseout": {"state": {"target": ["0", "9", "10", "11", "10", "12", "9", "1", "2", "4", "2", "3", "5", "6", "7", "6", "8", "5"], "time": [1026, 1509, 1760, 2093, 2176, 2443, 2526, 2876, 3159, 3393, 3493, 3793, 4193, 4459, 4726, 4793, 5244, 5460]}, "edge": {"target": [], "time": []}}}, "displayed_time": "9.91", "trialTime": 10398, "trial_type": "mouselab-mdp", "trial_index": 66, "time_elapsed": 1267384, "internal_node_id": "0.0-4.0-3.0-20.0"}}, {"uniqueid": "w21090716:a88301634", "current_trial": 67, "dateTime": 1664465259561, "trialdata": {"revealed_states": [], "num_clicks_accrued": [0, 0, 0, 0, 0, 0, 0, 0, 0, 0, 0, 0, 0], "stateRewards": ["", -4, -4, 24, -24, 4, 4, 24, 48, 4, -4, 48, -48], "withholdReward": true, "trial_id": "mdp_522385334882", "block": "test2", "trialIndex": 55, "score": 58, "costs": -3, "simulationMode": [null, null, null], "rewards": [4, 4, 48], "path": ["0", "0", "5", "6", "8"], "rt": [6818, 47, 80], "actions": ["right", "right", "down"], "actionTimes": [7356, 7891, 8475], "queries": {"click": {"state": {"target": ["9", "10", "11", "12", "1", "2", "4", "3", "5", "6", "7", "8"], "time": [1842, 2121, 2461, 3063, 3584, 3884, 4207, 4720, 5129, 5404, 5700, 6043]}, "edge": {"target": [], "time": []}}, "mouseover": {"state": {"target": ["9", "9", "9", "10", "11", "12", "1", "2", "4", "3", "5", "6", "7", "8"], "time": [811, 1188, 1778, 2027, 2344, 3027, 3411, 3794, 4094, 4644, 5061, 5310, 5611, 5961]}, "edge": {"target": [], "time": []}}, "mouseout": {"state": {"target": ["9", "9", "9", "10", "11", "10", "12", "9", "1", "2", "4", "2", "3", "5", "6", "7", "6"], "time": [928, 1267, 1961, 2311, 2627, 2696, 3295, 3361, 3761, 4061, 4327, 4361, 4894, 5277, 5577, 5861, 5944]}, "edge": {"target": [], "time": []}}}, "displayed_time": "9.54", "trialTime": 10163, "trial_type": "mouselab-mdp", "trial_index": 67, "time_elapsed": 1277648, "internal_node_id": "0.0-4.0-3.0-21.0"}}, {"uniqueid": "w21090716:a88301634", "current_trial": 68, "dateTime": 1664465270026, "trialdata": {"revealed_states": [], "num_clicks_accrued": [0, 0, 0, 0, 0, 0, 0, 0, 0, 0, 0, 0, 0], "stateRewards": ["", 4, 8, -48, 24, -2, 8, -48, -48, -4, 4, 48, -48], "withholdReward": false, "trial_id": "mdp_693807815190", "block": "test2", "trialIndex": 56, "score": 50, "costs": -3, "simulationMode": [null, null, null], "rewards": [-4, 4, 48], "path": ["0", "0", "9", "10", "11"], "rt": [7001, 16, 75], "actions": ["left", "left", "up"], "actionTimes": [7674, 8185, 8777], "queries": {"click": {"state": {"target": ["9", "10", "11", "12", "1", "2", "4", "3", "5", "6", "7", "8"], "time": [1046, 1380, 1689, 2079, 2733, 3064, 3352, 4023, 4480, 4724, 5019, 5370]}, "edge": {"target": [], "time": []}}, "mouseover": {"state": {"target": ["9", "10", "11", "12", "1", "1", "2", "4", "3", "3", "5", "6", "7", "8"], "time": [853, 1303, 1603, 1970, 2337, 2653, 2970, 3253, 3586, 3919, 4352, 4636, 4936, 5352]}, "edge": {"target": [], "time": []}}, "mouseout": {"state": {"target": ["8", "0", "9", "10", "11", "10", "12", "9", "1", "1", "2", "4", "2", "3", "3", "5", "6", "7", "6", "8", "6", "6", "8"], "time": [355, 820, 1237, 1553, 1837, 1936, 2237, 2304, 2370, 2903, 3204, 3486, 3569, 3652, 4269, 4603, 4885, 5169, 5253, 5888, 6235, 9602, 9786]}, "edge": {"target": [], "time": []}}}, "displayed_time": "9.29", "trialTime": 10371, "trial_type": "mouselab-mdp", "trial_index": 68, "time_elapsed": 1288112, "internal_node_id": "0.0-4.0-3.0-22.0"}}, {"uniqueid": "w21090716:a88301634", "current_trial": 69, "dateTime": 1664465280353, "trialdata": {"revealed_states": [], "num_clicks_accrued": [0, 0, 0, 0, 0, 0, 0, 0, 0, 0, 0, 0, 0], "stateRewards": ["", 4, 4, -24, -48, 2, 4, 24, -48, 2, 4, 24, 24], "withholdReward": false, "trial_id": "mdp_223558518218", "block": "test2", "trialIndex": 57, "score": 32, "costs": -3, "simulationMode": [null, null, null], "rewards": [2, 4, 24], "path": ["0", "0", "9", "10", "12"], "rt": [6555, 5, 144], "actions": ["left", "left", "down"], "actionTimes": [7463, 7982, 8655], "queries": {"click": {"state": {"target": ["9", "10", "11", "12", "1", "2", "4", "3", "5", "6", "7", "8"], "time": [1931, 2376, 2689, 3072, 3487, 3838, 4161, 4455, 4913, 5173, 5465, 5870]}, "edge": {"target": [], "time": []}}, "mouseover": {"state": {"target": ["9", "10", "11", "12", "1", "2", "4", "3", "5", "6", "7", "8"], "time": [1547, 2160, 2561, 3010, 3361, 3727, 4078, 4394, 4744, 5077, 5377, 5810]}, "edge": {"target": [], "time": []}}, "mouseout": {"state": {"target": ["8", "0", "9", "10", "11", "10", "12", "9", "1", "2", "4", "2", "3", "5", "6", "7", "6", "8", "8"], "time": [377, 1060, 2111, 2527, 2827, 2910, 3244, 3310, 3694, 4044, 4294, 4360, 4677, 5043, 5360, 5644, 5727, 6160, 6377]}, "edge": {"target": [], "time": []}}}, "displayed_time": "9.91", "trialTime": 10223, "trial_type": "mouselab-mdp", "trial_index": 69, "time_elapsed": 1298440, "internal_node_id": "0.0-4.0-3.0-23.0"}}, {"uniqueid": "w21090716:a88301634", "current_trial": 70, "dateTime": 1664465290554, "trialdata": {"revealed_states": [], "num_clicks_accrued": [0, 0, 0, 0, 0, 0, 0, 0, 0, 0, 0, 0, 0], "stateRewards": ["", 2, 8, 24, 24, 2, -8, -24, -48, 2, 8, -48, 48], "withholdReward": true, "trial_id": "mdp_745175888812", "block": "test2", "trialIndex": 58, "score": 60, "costs": -3, "simulationMode": [null, null, null], "rewards": [2, 8, 48], "path": ["0", "0", "9", "10", "12"], "rt": [5822, 31, 34], "actions": ["left", "left", "down"], "actionTimes": [6374, 6910, 7463], "queries": {"click": {"state": {"target": ["9", "10", "11", "12", "1", "2", "4", "3", "5", "6", "7", "8"], "time": [1171, 1512, 1769, 2105, 3302, 3599, 3889, 4285, 4654, 4950, 5264, 5530]}, "edge": {"target": [], "time": []}}, "mouseover": {"state": {"target": ["9", "10", "11", "12", "1", "1", "1", "2", "4", "3", "5", "6", "7", "8"], "time": [996, 1394, 1661, 1995, 2345, 2628, 2978, 3478, 3795, 4211, 4578, 4845, 5161, 5461]}, "edge": {"target": [], "time": []}}, "mouseout": {"state": {"target": ["8", "0", "9", "10", "11", "10", "12", "9", "1", "1", "1", "2", "4", "2", "3", "5", "6", "7", "6", "8"], "time": [28, 813, 1345, 1645, 1928, 1978, 2245, 2295, 2378, 2678, 3429, 3745, 4028, 4095, 4462, 4812, 5128, 5361, 5428, 5795]}, "edge": {"target": [], "time": []}}}, "displayed_time": "9.55", "trialTime": 9959, "trial_type": "mouselab-mdp", "trial_index": 70, "time_elapsed": 1308640, "internal_node_id": "0.0-4.0-3.0-24.0"}}, {"uniqueid": "w21090716:a88301634", "current_trial": 71, "dateTime": 1664465301618, "trialdata": {"revealed_states": [], "num_clicks_accrued": [0, 0, 0, 0, 0, 0, 0, 0, 0, 0, 0, 0, 0], "stateRewards": ["", -2, -4, -48, -48, 4, -4, 48, 24, 4, 4, 48, 48], "withholdReward": true, "trial_id": "mdp_950960813932", "block": "test2", "trialIndex": 59, "score": 58, "costs": -3, "simulationMode": [null, null, null], "rewards": [4, 4, 48], "path": ["0", "0", "9", "10", "11"], "rt": [7259, 10, 39], "actions": ["left", "left", "up"], "actionTimes": [8218, 8745, 9291], "queries": {"click": {"state": {"target": ["9", "10", "11", "12", "1", "2", "4", "3", "5", "6", "7", "8"], "time": [1380, 1842, 2242, 2613, 3463, 3826, 4148, 4498, 4884, 5408, 5707, 6314]}, "edge": {"target": [], "time": []}}, "mouseover": {"state": {"target": ["9", "10", "11", "12", "1", "2", "4", "3", "5", "6", "7", "8", "0"], "time": [1202, 1702, 2135, 2518, 3169, 3635, 4018, 4435, 4818, 5118, 5601, 5985, 6652]}, "edge": {"target": [], "time": []}}, "mouseout": {"state": {"target": ["0", "9", "10", "11", "10", "12", "9", "1", "2", "4", "2", "3", "5", "6", "7", "6", "8", "0"], "time": [785, 1602, 2035, 2418, 2485, 2819, 2902, 3602, 3951, 4252, 4368, 4669, 5070, 5536, 5885, 5952, 6568, 6668]}, "edge": {"target": [], "time": []}}}, "displayed_time": "9.80", "trialTime": 10947, "trial_type": "mouselab-mdp", "trial_index": 71, "time_elapsed": 1319704, "internal_node_id": "0.0-4.0-3.0-25.0"}}, {"uniqueid": "w21090716:a88301634", "current_trial": 72, "dateTime": 1664465312433, "trialdata": {"revealed_states": [], "num_clicks_accrued": [0, 0, 0, 0, 0, 0, 0, 0, 0, 0, 0, 0, 0], "stateRewards": ["", -2, 4, -24, 48, 4, -8, 48, -48, 2, -8, 48, 24], "withholdReward": true, "trial_id": "mdp_501111216502", "block": "test2", "trialIndex": 60, "score": 52, "costs": -3, "simulationMode": [null, null, null], "rewards": [-2, 4, 48], "path": ["0", "0", "1", "2", "4"], "rt": [7368, 119, 55], "actions": ["up", "up", "left"], "actionTimes": [8106, 8722, 9297], "queries": {"click": {"state": {"target": ["9", "10", "11", "12", "2", "1", "4", "3", "5", "6", "7", "8"], "time": [1066, 1370, 1678, 2056, 3121, 3405, 3789, 4139, 4889, 5213, 5530, 6006]}, "edge": {"target": [], "time": []}}, "mouseover": {"state": {"target": ["9", "10", "11", "12", "1", "2", "1", "4", "3", "5", "6", "7", "8"], "time": [870, 1219, 1553, 1920, 2703, 3006, 3286, 3736, 4053, 4603, 5070, 5420, 5836]}, "edge": {"target": [], "time": []}}, "mouseout": {"state": {"target": ["9", "0", "9", "10", "11", "10", "12", "9", "1", "2", "1", "4", "2", "3", "5", "6", "7", "6", "8", "5"], "time": [322, 837, 1170, 1503, 1836, 1903, 2253, 2387, 2770, 3269, 3603, 3903, 3986, 4320, 5020, 5369, 5686, 5770, 6755, 6970]}, "edge": {"target": [], "time": []}}}, "displayed_time": "9.80", "trialTime": 10715, "trial_type": "mouselab-mdp", "trial_index": 72, "time_elapsed": 1330520, "internal_node_id": "0.0-4.0-3.0-26.0"}}, {"uniqueid": "w21090716:a88301634", "current_trial": 73, "dateTime": 1664465329145, "trialdata": {"revealed_states": [], "num_clicks_accrued": [0, 0, 0, 0, 0, 0, 0, 0, 0, 0, 0, 0, 0], "stateRewards": ["", 2, -4, 48, -48, -2, 8, -48, 24, -2, -8, 48, 48], "withholdReward": true, "trial_id": "mdp_949326095747", "block": "test2", "trialIndex": 61, "score": 48, "costs": -3, "simulationMode": [null, null, null], "rewards": [2, -4, 48], "path": ["0", "0", "1", "2", "3"], "rt": [13089, 169, 70], "actions": ["up", "up", "right"], "actionTimes": [14019, 14706, 15290], "queries": {"click": {"state": {"target": ["9", "10", "11", "1", "2", "4", "5", "6", "7", "8", "12", "3"], "time": [1398, 1753, 1997, 2778, 3089, 3450, 4021, 4392, 4852, 5854, 9343, 9990]}, "edge": {"target": [], "time": []}}, "mouseover": {"state": {"target": ["9", "10", "11", "4", "2", "1", "2", "4", "5", "6", "7", "8", "3", "12", "3"], "time": [1137, 1636, 1902, 2353, 2469, 2669, 2986, 3352, 3936, 4319, 4735, 5737, 6252, 8685, 9852]}, "edge": {"target": [], "time": []}}, "mouseout": {"state": {"target": ["5", "0", "9", "10", "11", "4", "2", "1", "2", "4", "1", "5", "6", "7", "6", "8", "6", "3", "1", "9", "12", "9", "1", "3"], "time": [719, 1123, 1553, 1869, 2219, 2369, 2502, 2936, 3253, 3636, 3752, 4252, 4669, 5086, 5520, 6069, 6119, 8219, 8319, 8502, 9556, 9653, 9769, 10436]}, "edge": {"target": [], "time": []}}}, "displayed_time": "15.80", "trialTime": 16627, "trial_type": "mouselab-mdp", "trial_index": 73, "time_elapsed": 1347232, "internal_node_id": "0.0-4.0-3.0-27.0"}}, {"uniqueid": "w21090716:a88301634", "current_trial": 74, "dateTime": 1664465340120, "trialdata": {"revealed_states": [], "num_clicks_accrued": [0, 0, 0, 0, 0, 0, 0, 0, 0, 0, 0, 0, 0], "stateRewards": ["", -2, 8, -48, 48, -4, 8, -24, 24, 4, -4, 24, -48], "withholdReward": true, "trial_id": "mdp_904238083902", "block": "test2", "trialIndex": 62, "score": 56, "costs": -3, "simulationMode": [null, null, null], "rewards": [-2, 8, 48], "path": ["0", "0", "1", "2", "4"], "rt": [5808, 479, 128], "actions": ["up", "up", "left"], "actionTimes": [7201, 8177, 8810], "queries": {"click": {"state": {"target": ["9", "10", "11", "12", "1", "2", "4", "3", "5", "6", "7", "8"], "time": [1799, 2086, 2591, 2904, 3380, 3743, 4036, 4362, 4920, 5221, 5494, 5854]}, "edge": {"target": [], "time": []}}, "mouseover": {"state": {"target": ["9", "10", "11", "12", "1", "2", "4", "3", "5", "6", "7", "8"], "time": [1580, 2047, 2530, 2797, 3247, 3630, 3947, 4280, 4880, 5147, 5397, 5763]}, "edge": {"target": [], "time": []}}, "mouseout": {"state": {"target": ["3", "1", "9", "0", "9", "10", "11", "10", "12", "9", "1", "2", "4", "2", "3", "5", "6", "7", "6", "8", "5"], "time": [348, 514, 580, 1531, 1963, 2480, 2714, 2781, 3048, 3181, 3597, 3897, 4180, 4246, 4700, 5097, 5380, 5663, 5747, 6282, 9583]}, "edge": {"target": [], "time": []}}}, "displayed_time": "10.39", "trialTime": 10897, "trial_type": "mouselab-mdp", "trial_index": 74, "time_elapsed": 1358207, "internal_node_id": "0.0-4.0-3.0-28.0"}}, {"uniqueid": "w21090716:a88301634", "current_trial": 75, "dateTime": 1664465350435, "trialdata": {"revealed_states": [], "num_clicks_accrued": [0, 0, 0, 0, 0, 0, 0, 0, 0, 0, 0, 0, 0], "stateRewards": ["", -4, 8, 24, 24, 2, 4, -48, 24, -2, -4, -24, -24], "withholdReward": true, "trial_id": "mdp_752328329546", "block": "test2", "trialIndex": 63, "score": 30, "costs": -3, "simulationMode": [null, null, null], "rewards": [-4, 8, 24], "path": ["0", "0", "1", "2", "3"], "rt": [6394, 122, 98], "actions": ["up", "up", "right"], "actionTimes": [6985, 7601, 8194], "queries": {"click": {"state": {"target": ["1", "2", "4", "3", "9", "10", "11", "12", "5", "6", "7", "8"], "time": [1179, 1458, 1774, 2118, 2598, 2904, 3192, 3814, 4273, 4578, 4871, 5296]}, "edge": {"target": [], "time": []}}, "mouseover": {"state": {"target": ["1", "2", "4", "3", "9", "10", "11", "12", "0", "5", "6", "7", "8"], "time": [1029, 1345, 1695, 2028, 2429, 2795, 3095, 3745, 4079, 4145, 4495, 4762, 5245]}, "edge": {"target": [], "time": []}}, "mouseout": {"state": {"target": ["0", "1", "2", "4", "2", "3", "1", "9", "10", "11", "10", "12", "0", "5", "6", "7", "6", "8", "6"], "time": [695, 1295, 1645, 1895, 1995, 2312, 2379, 2762, 3045, 3329, 3379, 4012, 4112, 4428, 4728, 5029, 5162, 5478, 9647]}, "edge": {"target": [], "time": []}}}, "displayed_time": "8.71", "trialTime": 10242, "trial_type": "mouselab-mdp", "trial_index": 75, "time_elapsed": 1368521, "internal_node_id": "0.0-4.0-3.0-29.0"}}, {"uniqueid": "w21090716:a88301634", "current_trial": 76, "dateTime": 1664465354507, "trialdata": {"rt": 4057, "stimulus": "<h1> End of block! </h1>\n\nYou have reached the end of the block 2/4. If you need a short break, feel free to take one now before moving on.\n\n<br><br>\nIn the next block, you will complete another 30 rounds of this game.\n\n<br><br>\n<div style='text-align: center;'>Press <code>space</code> to begin.</div>\n<br><br>\n<div style='text-align: center;'>(If the experiment doesn't continue, try clicking on the text and then pressing <code>space</code>.)</div>", "response": " ", "trial_id": "mdp_ready_3", "trial_type": "html-keyboard-response", "trial_index": 76, "time_elapsed": 1372594, "internal_node_id": "0.0-4.0-4.0"}}, {"uniqueid": "w21090716:a88301634", "current_trial": 77, "dateTime": 1664465365521, "trialdata": {"revealed_states": [], "num_clicks_accrued": [0, 0, 0, 0, 0, 0, 0, 0, 0, 0, 0, 0, 0], "stateRewards": ["", -2, -8, 48, 24, 2, 8, -48, 24, -4, 8, 48, 48], "withholdReward": false, "trial_id": "mdp_875436109858", "block": "test3", "trialIndex": 64, "score": 54, "costs": -3, "simulationMode": [null, null, null], "rewards": [-4, 8, 48], "path": ["0", "0", "9", "10", "12"], "rt": [7508, 44, 54], "actions": ["left", "left", "down"], "actionTimes": [8532, 9090, 9651], "queries": {"click": {"state": {"target": ["9", "10", "11", "12", "1", "2", "4", "3", "5", "6", "7", "8"], "time": [1715, 2128, 2496, 2847, 3418, 3743, 4030, 4815, 5164, 5475, 5767, 6472]}, "edge": {"target": [], "time": []}}, "mouseover": {"state": {"target": ["9", "10", "11", "12", "1", "2", "4", "3", "3", "5", "6", "7", "8"], "time": [1414, 1997, 2396, 2796, 3348, 3663, 3930, 4563, 4746, 5080, 5380, 5680, 6313]}, "edge": {"target": [], "time": []}}, "mouseout": {"state": {"target": ["0", "9", "10", "11", "10", "12", "9", "1", "2", "4", "2", "3", "3", "5", "6", "7", "6", "8", "5", "5"], "time": [1349, 1946, 2364, 2680, 2763, 3079, 3264, 3613, 3913, 4213, 4280, 4613, 4963, 5346, 5646, 5896, 6046, 6780, 8014, 9980]}, "edge": {"target": [], "time": []}}}, "displayed_time": "10.16", "trialTime": 10932, "trial_type": "mouselab-mdp", "trial_index": 77, "time_elapsed": 1383608, "internal_node_id": "0.0-4.0-5.0-0.0"}}, {"uniqueid": "w21090716:a88301634", "current_trial": 78, "dateTime": 1664465374905, "trialdata": {"revealed_states": [], "num_clicks_accrued": [0, 0, 0, 0, 0, 0, 0, 0, 0, 0, 0, 0, 0], "stateRewards": ["", -2, 4, -24, 24, -4, -8, 24, -48, -4, -4, -48, -24], "withholdReward": true, "trial_id": "mdp_753137520419", "block": "test3", "trialIndex": 65, "score": 28, "costs": -3, "simulationMode": [null, null, null], "rewards": [-2, 4, 24], "path": ["0", "0", "1", "2", "4"], "rt": [6027, 112, 29], "actions": ["up", "up", "left"], "actionTimes": [6861, 7486, 8021], "queries": {"click": {"state": {"target": ["9", "10", "11", "12", "1", "2", "4", "3", "5", "6", "7", "8"], "time": [1180, 1493, 1807, 2137, 2617, 2922, 3223, 4002, 4339, 4659, 4933, 5628]}, "edge": {"target": [], "time": []}}, "mouseover": {"state": {"target": ["0", "9", "10", "11", "12", "1", "2", "4", "3", "3", "5", "6", "7", "8"], "time": [991, 1107, 1424, 1757, 2041, 2407, 2824, 3157, 3724, 3924, 4258, 4528, 4841, 5590]}, "edge": {"target": [], "time": []}}, "mouseout": {"state": {"target": ["0", "0", "9", "10", "11", "10", "12", "9", "1", "2", "4", "2", "3", "3", "5", "6", "7", "6", "8"], "time": [924, 1024, 1374, 1691, 1957, 2007, 2307, 2357, 2791, 3090, 3357, 3424, 3741, 4163, 4490, 4824, 5107, 5207, 5975]}, "edge": {"target": [], "time": []}}}, "displayed_time": "8.84", "trialTime": 9294, "trial_type": "mouselab-mdp", "trial_index": 78, "time_elapsed": 1392992, "internal_node_id": "0.0-4.0-5.0-1.0"}}, {"uniqueid": "w21090716:a88301634", "current_trial": 79, "dateTime":