{"condition": 1, "counterbalance": 0, "assignmentId": "a60600942", "workerId": "w96349225", "hitId": "h86521545", "currenttrial": 137, "bonus": 0, "data": [{"uniqueid": "w96349225:a60600942", "current_trial": 0, "dateTime": 1664463930611, "trialdata": {"success": true, "trial_type": "fullscreen", "trial_index": 0, "time_elapsed": 7159, "internal_node_id": "0.0-0.0"}}, {"uniqueid": "w96349225:a60600942", "current_trial": 1, "dateTime": 1664463957470, "trialdata": {"view_history": [{"page_index": 0, "viewing_time": 26855}], "rt": 26856, "trial_id": "exp_instructions_no_distractor", "trial_type": "instructions", "trial_index": 1, "time_elapsed": 34018, "internal_node_id": "0.0-1.0"}}, {"uniqueid": "w96349225:a60600942", "current_trial": 2, "dateTime": 1664463962113, "trialdata": {"success": true, "trial_type": "fullscreen", "trial_index": 2, "time_elapsed": 38661, "internal_node_id": "0.0-2.0-0.0"}}, {"uniqueid": "w96349225:a60600942", "current_trial": 3, "dateTime": 1664464070409, "trialdata": {"view_history": [{"page_index": 0, "viewing_time": 40509}, {"page_index": 1, "viewing_time": 24756}, {"page_index": 2, "viewing_time": 14297}, {"page_index": 3, "viewing_time": 5820}, {"page_index": 4, "viewing_time": 22913}], "rt": 108295, "trial_id": "mouselab_instructions_1", "trial_type": "instructions", "trial_index": 3, "time_elapsed": 146957, "internal_node_id": "0.0-2.0-1.0"}}, {"uniqueid": "w96349225:a60600942", "current_trial": 4, "dateTime": 1664464092869, "trialdata": {"revealed_states": [], "num_clicks_accrued": [0, 0, 0, 0, 0, 0, 0, 0, 0, 0, 0, 0, 0], "stateRewards": ["", 10, -10, 10, 10, 10, -10, 10, -10, -10, -10, 10, 10], "withholdReward": false, "trial_id": "practice_1", "block": "test", "trialIndex": 0, "score": -8.25, "costs": -0.25, "simulationMode": [null, null, null], "rewards": [10, -10, -10], "path": ["0", "0", "5", "6", "8"], "rt": [12694, 790, 1214], "actions": ["right", "right", "down"], "actionTimes": [15595, 16892, 18614], "queries": {"click": {"state": {"target": ["5"], "time": [13377]}, "edge": {"target": [], "time": []}}, "mouseover": {"state": {"target": ["5"], "time": [12820]}, "edge": {"target": [], "time": []}}, "mouseout": {"state": {"target": ["5"], "time": [14052]}, "edge": {"target": [], "time": []}}}, "displayed_time": "19.13", "trialTime": 22096, "trial_type": "mouselab-mdp", "trial_index": 4, "time_elapsed": 169417, "internal_node_id": "0.0-2.0-2.0-0.0"}}, {"uniqueid": "w96349225:a60600942", "current_trial": 5, "dateTime": 1664464100953, "trialdata": {"revealed_states": [], "num_clicks_accrued": [0, 0, 0, 0, 0, 0, 0, 0, 0, 0, 0, 0, 0], "stateRewards": ["", 10, -10, 10, -10, 10, 10, 10, -10, 10, 10, -10, -10], "withholdReward": false, "trial_id": "practice_2", "block": "test", "trialIndex": 1, "score": 12, "costs": 0, "simulationMode": [null, null, null], "rewards": [10, 10, -10], "path": ["0", "0", "9", "10", "11"], "rt": [1262, 220, 264], "actions": ["left", "left", "up"], "actionTimes": [3223, 3947, 4723], "queries": {"click": {"state": {"target": [], "time": []}, "edge": {"target": [], "time": []}}, "mouseover": {"state": {"target": [], "time": []}, "edge": {"target": [], "time": []}}, "mouseout": {"state": {"target": ["0"], "time": [1477]}, "edge": {"target": [], "time": []}}}, "displayed_time": "5.22", "trialTime": 8047, "trial_type": "mouselab-mdp", "trial_index": 5, "time_elapsed": 177501, "internal_node_id": "0.0-2.0-2.0-1.0"}}, {"uniqueid": "w96349225:a60600942", "current_trial": 6, "dateTime": 1664464162429, "trialdata": {"view_history": [{"page_index": 0, "viewing_time": 33944}, {"page_index": 1, "viewing_time": 16220}, {"page_index": 2, "viewing_time": 11312}], "rt": 61475, "trial_id": "mouselab_instructions_2_scarce", "trial_type": "instructions", "trial_index": 6, "time_elapsed": 238977, "internal_node_id": "0.0-2.0-3.0"}}, {"uniqueid": "w96349225:a60600942", "current_trial": 7, "dateTime": 1664464199730, "trialdata": {"rt": 37296, "response": {"Q0": "$-48 to $48", "Q1": "The cost is always $0.25.", "Q2": "The better I perform the higher my bonus will be.", "Q3": "No, the amount of cash at each node of the web may be different each time.", "Q4": "The values of the nodes walked through from start to finish.", "Q5": "No, the spider might forget to count the money on some rounds."}, "question_order": [0, 1, 2, 3, 4, 5], "correct": {"Q0": "$-48 to $48", "Q1": "The cost is always $0.25.", "Q2": "The better I perform the higher my bonus will be.", "Q3": "No, the amount of cash at each node of the web may be different each time.", "Q4": "The values of the nodes walked through from start to finish.", "Q5": "No, the spider might forget to count the money on some rounds."}, "trial_id": "mouselab_quiz_scarce", "trial_type": "survey-multi-choice", "trial_index": 7, "time_elapsed": 276278, "internal_node_id": "0.0-2.0-4.0"}}, {"uniqueid": "w96349225:a60600942", "current_trial": 8, "dateTime": 1664464217265, "trialdata": {"rt": 17527, "stimulus": "\n<h1> Get ready to start the game! </h1>\n\nThank you for reading the instructions. Get ready start with the first of 4 block(s) of this game.\n<br><br>\nIn this first block, you will complete 30 rounds of this game before moving on.\n<br><br>\nRemember, the more money the spider gets, the bigger your bonus will be!\n<br><br>\n<div style='text-align: center;'>Press <code>space</code> to begin.</div>\n\n<br><br>\n(If, at any point, the <code>space</code> key does not take you to the next page, click once on the text and try again.)", "response": " ", "trial_id": "mdp_ready_1", "trial_type": "html-keyboard-response", "trial_index": 8, "time_elapsed": 293813, "internal_node_id": "0.0-4.0-0.0"}}, {"uniqueid": "w96349225:a60600942", "current_trial": 9, "dateTime": 1664464233184, "trialdata": {"revealed_states": [], "num_clicks_accrued": [0, 0, 0, 0, 0, 0, 0, 0, 0, 0, 0, 0, 0], "stateRewards": ["", 2, 4, -48, -24, -4, 4, -24, 24, -2, -8, -24, 24], "withholdReward": true, "trial_id": "mdp_640720803523", "block": "test1", "trialIndex": 2, "score": -37.25, "costs": -0.25, "simulationMode": [null, null, null], "rewards": [2, 4, -48], "path": ["0", "0", "1", "2", "3"], "rt": [6564, 450, 1406], "actions": ["up", "up", "right"], "actionTimes": [9297, 10242, 12164], "queries": {"click": {"state": {"target": ["1"], "time": [4988]}, "edge": {"target": [], "time": []}}, "mouseover": {"state": {"target": ["1", "2"], "time": [4579, 6978]}, "edge": {"target": [], "time": []}}, "mouseout": {"state": {"target": ["0", "1", "1"], "time": [4529, 6261, 6978]}, "edge": {"target": [], "time": []}}}, "displayed_time": "12.67", "trialTime": 15884, "trial_type": "mouselab-mdp", "trial_index": 9, "time_elapsed": 309731, "internal_node_id": "0.0-4.0-1.0-0.0"}}, {"uniqueid": "w96349225:a60600942", "current_trial": 10, "dateTime": 1664464250804, "trialdata": {"revealed_states": [], "num_clicks_accrued": [0, 0, 0, 0, 0, 0, 0, 0, 0, 0, 0, 0, 0], "stateRewards": ["", -2, 4, 24, 48, 2, 4, -48, -48, -2, 8, 48, -24], "withholdReward": false, "trial_id": "mdp_305701202606", "block": "test1", "trialIndex": 3, "score": -37.75, "costs": -0.75, "simulationMode": [null, null, null], "rewards": [2, 4, -48], "path": ["0", "0", "5", "6", "7"], "rt": [11456, 204, 216], "actions": ["right", "right", "up"], "actionTimes": [13959, 14680, 15408], "queries": {"click": {"state": {"target": ["5", "6", "8"], "time": [4667, 7696, 9448]}, "edge": {"target": [], "time": []}}, "mouseover": {"state": {"target": ["5", "6", "8"], "time": [4279, 7015, 8863]}, "edge": {"target": [], "time": []}}, "mouseout": {"state": {"target": ["2", "1", "5", "6"], "time": [1719, 1935, 6965, 8763]}, "edge": {"target": [], "time": []}}}, "displayed_time": "15.93", "trialTime": 17589, "trial_type": "mouselab-mdp", "trial_index": 10, "time_elapsed": 327352, "internal_node_id": "0.0-4.0-1.0-1.0"}}, {"uniqueid": "w96349225:a60600942", "current_trial": 11, "dateTime": 1664464261967, "trialdata": {"revealed_states": [], "num_clicks_accrued": [0, 0, 0, 0, 0, 0, 0, 0, 0, 0, 0, 0, 0], "stateRewards": ["", 4, -8, -48, 24, 4, 4, -24, -24, 2, 4, -48, 24], "withholdReward": true, "trial_id": "mdp_626971397185", "block": "test1", "trialIndex": 4, "score": -47, "costs": 0, "simulationMode": [null, null, null], "rewards": [4, -8, -48], "path": ["0", "0", "1", "2", "3"], "rt": [1420, 101, 147], "actions": ["up", "up", "right"], "actionTimes": [3379, 3997, 4659], "queries": {"click": {"state": {"target": [], "time": []}, "edge": {"target": [], "time": []}}, "mouseover": {"state": {"target": [], "time": []}, "edge": {"target": [], "time": []}}, "mouseout": {"state": {"target": ["8", "0"], "time": [1332, 1734]}, "edge": {"target": [], "time": []}}}, "displayed_time": "9.96", "trialTime": 11127, "trial_type": "mouselab-mdp", "trial_index": 11, "time_elapsed": 338515, "internal_node_id": "0.0-4.0-1.0-2.0"}}, {"uniqueid": "w96349225:a60600942", "current_trial": 12, "dateTime": 1664464275610, "trialdata": {"revealed_states": [], "num_clicks_accrued": [0, 0, 0, 0, 0, 0, 0, 0, 0, 0, 0, 0, 0], "stateRewards": ["", -4, -8, -24, 24, 4, 4, -48, -48, -4, -4, 24, -48], "withholdReward": true, "trial_id": "mdp_431592223624", "block": "test1", "trialIndex": 5, "score": -31, "costs": 0, "simulationMode": [null, null, null], "rewards": [-4, -8, -24], "path": ["0", "0", "1", "2", "3"], "rt": [5355, 187, 220], "actions": ["up", "up", "right"], "actionTimes": [9430, 10112, 10844], "queries": {"click": {"state": {"target": [], "time": []}, "edge": {"target": [], "time": []}}, "mouseover": {"state": {"target": ["1"], "time": [5463]}, "edge": {"target": [], "time": []}}, "mouseout": {"state": {"target": ["0"], "time": [2900]}, "edge": {"target": [], "time": []}}}, "displayed_time": "12.08", "trialTime": 13613, "trial_type": "mouselab-mdp", "trial_index": 12, "time_elapsed": 352158, "internal_node_id": "0.0-4.0-1.0-3.0"}}, {"uniqueid": "w96349225:a60600942", "current_trial": 13, "dateTime": 1664464285802, "trialdata": {"revealed_states": [], "num_clicks_accrued": [0, 0, 0, 0, 0, 0, 0, 0, 0, 0, 0, 0, 0], "stateRewards": ["", 2, 4, 48, -48, 2, 4, 24, -24, 2, -4, -24, -48], "withholdReward": true, "trial_id": "mdp_706591889062", "block": "test1", "trialIndex": 6, "score": 59, "costs": 0, "simulationMode": [null, null, null], "rewards": [2, 4, 48], "path": ["0", "0", "1", "2", "3"], "rt": [1356, 363, 425], "actions": ["up", "up", "right"], "actionTimes": [2640, 3515, 4443], "queries": {"click": {"state": {"target": [], "time": []}, "edge": {"target": [], "time": []}}, "mouseover": {"state": {"target": [], "time": []}, "edge": {"target": [], "time": []}}, "mouseout": {"state": {"target": ["1"], "time": [754]}, "edge": {"target": [], "time": []}}}, "displayed_time": "8.29", "trialTime": 10155, "trial_type": "mouselab-mdp", "trial_index": 13, "time_elapsed": 362350, "internal_node_id": "0.0-4.0-1.0-4.0"}}, {"uniqueid": "w96349225:a60600942", "current_trial": 14, "dateTime": 1664464297332, "trialdata": {"revealed_states": [], "num_clicks_accrued": [0, 0, 0, 0, 0, 0, 0, 0, 0, 0, 0, 0, 0], "stateRewards": ["", -4, -4, -24, 24, -4, 4, -24, 48, -2, 4, 48, -48], "withholdReward": false, "trial_id": "mdp_774757609669", "block": "test1", "trialIndex": 7, "score": -27, "costs": 0, "simulationMode": [null, null, null], "rewards": [-4, -4, -24], "path": ["0", "0", "1", "2", "3"], "rt": [1081, 869, 1025], "actions": ["up", "up", "right"], "actionTimes": [3055, 4438, 5977], "queries": {"click": {"state": {"target": [], "time": []}, "edge": {"target": [], "time": []}}, "mouseover": {"state": {"target": [], "time": []}, "edge": {"target": [], "time": []}}, "mouseout": {"state": {"target": [], "time": []}, "edge": {"target": [], "time": []}}}, "displayed_time": "8.97", "trialTime": 11495, "trial_type": "mouselab-mdp", "trial_index": 14, "time_elapsed": 373880, "internal_node_id": "0.0-4.0-1.0-5.0"}}, {"uniqueid": "w96349225:a60600942", "current_trial": 15, "dateTime": 1664464322169, "trialdata": {"revealed_states": [], "num_clicks_accrued": [0, 0, 0, 0, 0, 0, 0, 0, 0, 0, 0, 0, 0], "stateRewards": ["", -2, 8, -48, -24, -2, 8, 48, -48, -4, 8, 24, 48], "withholdReward": true, "trial_id": "mdp_160707003673", "block": "test1", "trialIndex": 8, "score": 31.5, "costs": -1.5, "simulationMode": [null, null, null], "rewards": [-4, 8, 24], "path": ["0", "0", "9", "10", "11"], "rt": [19823, 347, 370], "actions": ["left", "left", "up"], "actionTimes": [21008, 21844, 22733], "queries": {"click": {"state": {"target": ["1", "9", "3", "4", "2", "11"], "time": [2608, 8150, 11830, 14219, 15310, 18938]}, "edge": {"target": [], "time": []}}, "mouseover": {"state": {"target": ["1", "2", "9", "9", "2", "2", "3", "2", "4", "2", "5", "0", "10", "11", "11"], "time": [2047, 3111, 4311, 4509, 10088, 10675, 10771, 13568, 13768, 14851, 16283, 18032, 18099, 18148, 18448]}, "edge": {"target": [], "time": []}}, "mouseout": {"state": {"target": ["0", "1", "2", "1", "9", "9", "2", "2", "3", "2", "4", "2", "5", "0", "9", "10", "11"], "time": [1962, 3045, 4111, 4192, 4409, 10039, 10205, 10721, 13518, 13635, 14769, 15934, 18017, 18066, 18082, 18115, 18165]}, "edge": {"target": [], "time": []}}}, "displayed_time": "23.25", "trialTime": 24799, "trial_type": "mouselab-mdp", "trial_index": 15, "time_elapsed": 398716, "internal_node_id": "0.0-4.0-1.0-6.0"}}, {"uniqueid": "w96349225:a60600942", "current_trial": 16, "dateTime": 1664464334189, "trialdata": {"revealed_states": [], "num_clicks_accrued": [0, 0, 0, 0, 0, 0, 0, 0, 0, 0, 0, 0, 0], "stateRewards": ["", 4, -4, 48, -48, 2, 8, -48, 24, -2, -4, -24, 48], "withholdReward": false, "trial_id": "mdp_937564992306", "block": "test1", "trialIndex": 9, "score": 52.5, "costs": -0.5, "simulationMode": [null, null, null], "rewards": [4, -4, 48], "path": ["0", "0", "1", "2", "3"], "rt": [6392, 267, 240], "actions": ["up", "up", "right"], "actionTimes": [8372, 9151, 9908], "queries": {"click": {"state": {"target": ["3", "1"], "time": [3870, 7478]}, "edge": {"target": [], "time": []}}, "mouseover": {"state": {"target": ["3", "1"], "time": [2973, 6969]}, "edge": {"target": [], "time": []}}, "mouseout": {"state": {"target": ["11", "0", "0", "3"], "time": [974, 1040, 2856, 6836]}, "edge": {"target": [], "time": []}}}, "displayed_time": "10.42", "trialTime": 11985, "trial_type": "mouselab-mdp", "trial_index": 16, "time_elapsed": 410737, "internal_node_id": "0.0-4.0-1.0-7.0"}}, {"uniqueid": "w96349225:a60600942", "current_trial": 17, "dateTime": 1664464345844, "trialdata": {"revealed_states": [], "num_clicks_accrued": [0, 0, 0, 0, 0, 0, 0, 0, 0, 0, 0, 0, 0], "stateRewards": ["", -2, 8, 48, 24, 2, -8, -24, -48, -4, 8, -48, 24], "withholdReward": true, "trial_id": "mdp_224053025943", "block": "test1", "trialIndex": 10, "score": 32.5, "costs": -0.5, "simulationMode": [null, null, null], "rewards": [-4, 8, 24], "path": ["0", "0", "9", "10", "12"], "rt": [6442, 207, 498], "actions": ["left", "left", "down"], "actionTimes": [8253, 8976, 9983], "queries": {"click": {"state": {"target": ["12", "10"], "time": [4842, 7009]}, "edge": {"target": [], "time": []}}, "mouseover": {"state": {"target": ["9", "10", "12", "10"], "time": [3140, 3374, 3772, 6103]}, "edge": {"target": [], "time": []}}, "mouseout": {"state": {"target": ["1", "0", "0", "9", "10", "12"], "time": [1125, 1242, 1441, 3239, 3739, 5888]}, "edge": {"target": [], "time": []}}}, "displayed_time": "10.50", "trialTime": 11617, "trial_type": "mouselab-mdp", "trial_index": 17, "time_elapsed": 422391, "internal_node_id": "0.0-4.0-1.0-8.0"}}, {"uniqueid": "w96349225:a60600942", "current_trial": 18, "dateTime": 1664464357927, "trialdata": {"revealed_states": [], "num_clicks_accrued": [0, 0, 0, 0, 0, 0, 0, 0, 0, 0, 0, 0, 0], "stateRewards": ["", -2, -8, 48, 24, 2, 8, -48, 24, -4, 8, 48, 48], "withholdReward": true, "trial_id": "mdp_875436109858", "block": "test1", "trialIndex": 11, "score": 38.5, "costs": -0.5, "simulationMode": [null, null, null], "rewards": [2, 8, 24], "path": ["0", "0", "5", "6", "8"], "rt": [6538, 384, 374], "actions": ["right", "right", "down"], "actionTimes": [8266, 9154, 10026], "queries": {"click": {"state": {"target": ["8", "6"], "time": [3682, 5894]}, "edge": {"target": [], "time": []}}, "mouseover": {"state": {"target": ["6", "8", "6", "6"], "time": [2923, 3157, 4738, 5138]}, "edge": {"target": [], "time": []}}, "mouseout": {"state": {"target": ["10", "9", "0", "6", "8", "6"], "time": [956, 1059, 2773, 3023, 4723, 4772]}, "edge": {"target": [], "time": []}}}, "displayed_time": "10.53", "trialTime": 12044, "trial_type": "mouselab-mdp", "trial_index": 18, "time_elapsed": 434475, "internal_node_id": "0.0-4.0-1.0-9.0"}}, {"uniqueid": "w96349225:a60600942", "current_trial": 19, "dateTime": 1664464381914, "trialdata": {"revealed_states": [], "num_clicks_accrued": [0, 0, 0, 0, 0, 0, 0, 0, 0, 0, 0, 0, 0], "stateRewards": ["", -2, -4, -24, -48, -4, -8, -48, 24, -4, -8, -24, -48], "withholdReward": true, "trial_id": "mdp_475782454549", "block": "test1", "trialIndex": 12, "score": 15.25, "costs": -1.75, "simulationMode": [null, null, null], "rewards": [-4, -8, 24], "path": ["0", "0", "5", "6", "8"], "rt": [17779, 283, 189], "actions": ["right", "right", "down"], "actionTimes": [20866, 21664, 22369], "queries": {"click": {"state": {"target": ["3", "4", "12", "7", "8", "6", "5"], "time": [5514, 8417, 10286, 12080, 14708, 16330, 19248]}, "edge": {"target": [], "time": []}}, "mouseover": {"state": {"target": ["1", "3", "1", "4", "10", "12", "9", "1", "7", "6", "8", "6", "5"], "time": [4727, 5010, 6642, 6891, 9472, 9656, 11488, 11538, 11673, 13770, 13870, 15701, 17533]}, "edge": {"target": [], "time": []}}, "mouseout": {"state": {"target": ["6", "5", "0", "1", "3", "1", "4", "10", "12", "9", "1", "7", "6", "8", "6"], "time": [2379, 2446, 2712, 4810, 6559, 6708, 9340, 9589, 11472, 11521, 11556, 13720, 13836, 15651, 17400]}, "edge": {"target": [], "time": []}}}, "displayed_time": "22.88", "trialTime": 23945, "trial_type": "mouselab-mdp", "trial_index": 19, "time_elapsed": 458462, "internal_node_id": "0.0-4.0-1.0-10.0"}}, {"uniqueid": "w96349225:a60600942", "current_trial": 20, "dateTime": 1664464394746, "trialdata": {"revealed_states": [], "num_clicks_accrued": [0, 0, 0, 0, 0, 0, 0, 0, 0, 0, 0, 0, 0], "stateRewards": ["", -4, -4, -24, 48, 2, 4, -24, -48, -2, 4, 24, 24], "withholdReward": true, "trial_id": "mdp_360934723192", "block": "test1", "trialIndex": 13, "score": 30, "costs": -1, "simulationMode": [null, null, null], "rewards": [-2, 4, 24], "path": ["0", "0", "9", "10", "12"], "rt": [8340, 128, 187], "actions": ["left", "left", "down"], "actionTimes": [9752, 10398, 11090], "queries": {"click": {"state": {"target": ["12", "9", "10", "11"], "time": [3574, 4833, 6732, 8292]}, "edge": {"target": [], "time": []}}, "mouseover": {"state": {"target": ["5", "9", "10", "12", "9", "10", "11"], "time": [2525, 2808, 2908, 3174, 4424, 6272, 7588]}, "edge": {"target": [], "time": []}}, "mouseout": {"state": {"target": ["5", "0", "5", "9", "10", "12", "9", "10"], "time": [943, 1027, 2559, 2858, 3107, 4340, 6189, 7505]}, "edge": {"target": [], "time": []}}}, "displayed_time": "11.60", "trialTime": 12794, "trial_type": "mouselab-mdp", "trial_index": 20, "time_elapsed": 471294, "internal_node_id": "0.0-4.0-1.0-11.0"}}, {"uniqueid": "w96349225:a60600942", "current_trial": 21, "dateTime": 1664464406732, "trialdata": {"revealed_states": [], "num_clicks_accrued": [0, 0, 0, 0, 0, 0, 0, 0, 0, 0, 0, 0, 0], "stateRewards": ["", 2, 4, 48, -48, 2, 8, -24, 48, 4, 8, 48, -48], "withholdReward": true, "trial_id": "mdp_110142964375", "block": "test1", "trialIndex": 14, "score": 58.5, "costs": -0.5, "simulationMode": [null, null, null], "rewards": [2, 4, 48], "path": ["0", "0", "1", "2", "3"], "rt": [6096, 244, 192], "actions": ["up", "up", "right"], "actionTimes": [7551, 8308, 9004], "queries": {"click": {"state": {"target": ["3", "2"], "time": [4476, 6126]}, "edge": {"target": [], "time": []}}, "mouseover": {"state": {"target": ["1", "3", "2"], "time": [3650, 4082, 5664]}, "edge": {"target": [], "time": []}}, "mouseout": {"state": {"target": ["11", "1", "3"], "time": [769, 3716, 5432]}, "edge": {"target": [], "time": []}}}, "displayed_time": "10.46", "trialTime": 11949, "trial_type": "mouselab-mdp", "trial_index": 21, "time_elapsed": 483280, "internal_node_id": "0.0-4.0-1.0-12.0"}}, {"uniqueid": "w96349225:a60600942", "current_trial": 22, "dateTime": 1664464424676, "trialdata": {"revealed_states": [], "num_clicks_accrued": [0, 0, 0, 0, 0, 0, 0, 0, 0, 0, 0, 0, 0], "stateRewards": ["", -4, -4, -24, 24, 4, 4, -24, -24, -4, 4, 24, 24], "withholdReward": true, "trial_id": "mdp_787781487383", "block": "test1", "trialIndex": 15, "score": 20, "costs": -1, "simulationMode": [null, null, null], "rewards": [-4, -4, 24], "path": ["0", "0", "1", "2", "4"], "rt": [13041, 210, 187], "actions": ["up", "up", "left"], "actionTimes": [15081, 15808, 16502], "queries": {"click": {"state": {"target": ["9", "4", "1", "3"], "time": [4107, 7612, 8844, 13766]}, "edge": {"target": [], "time": []}}, "mouseover": {"state": {"target": ["9", "9", "4", "1", "2", "2", "3"], "time": [3541, 3741, 7238, 8453, 11735, 12121, 13284]}, "edge": {"target": [], "time": []}}, "mouseout": {"state": {"target": ["2", "1", "9", "9", "4", "1", "2", "2"], "time": [1292, 1409, 3558, 6988, 8354, 11701, 11869, 13216]}, "edge": {"target": [], "time": []}}}, "displayed_time": "17.01", "trialTime": 17910, "trial_type": "mouselab-mdp", "trial_index": 22, "time_elapsed": 501224, "internal_node_id": "0.0-4.0-1.0-13.0"}}, {"uniqueid": "w96349225:a60600942", "current_trial": 23, "dateTime": 1664464435944, "trialdata": {"revealed_states": [], "num_clicks_accrued": [0, 0, 0, 0, 0, 0, 0, 0, 0, 0, 0, 0, 0], "stateRewards": ["", -2, -4, -48, -48, 4, 8, 24, -48, 4, -8, 24, 24], "withholdReward": true, "trial_id": "mdp_749799219195", "block": "test1", "trialIndex": 16, "score": 40.5, "costs": -0.5, "simulationMode": [null, null, null], "rewards": [4, 8, 24], "path": ["0", "0", "5", "6", "7"], "rt": [4323, 307, 368], "actions": ["right", "right", "up"], "actionTimes": [6438, 7234, 8110], "queries": {"click": {"state": {"target": ["7", "5"], "time": [3781, 5231]}, "edge": {"target": [], "time": []}}, "mouseover": {"state": {"target": ["7", "5"], "time": [3395, 4610]}, "edge": {"target": [], "time": []}}, "mouseout": {"state": {"target": ["3", "0", "7"], "time": [1212, 3061, 4510]}, "edge": {"target": [], "time": []}}}, "displayed_time": "10.12", "trialTime": 11230, "trial_type": "mouselab-mdp", "trial_index": 23, "time_elapsed": 512492, "internal_node_id": "0.0-4.0-1.0-14.0"}}, {"uniqueid": "w96349225:a60600942", "current_trial": 24, "dateTime": 1664464449257, "trialdata": {"revealed_states": [], "num_clicks_accrued": [0, 0, 0, 0, 0, 0, 0, 0, 0, 0, 0, 0, 0], "stateRewards": ["", 4, -4, 48, 24, 2, -8, 24, -48, -2, -4, -48, -48], "withholdReward": true, "trial_id": "mdp_655302318695", "block": "test1", "trialIndex": 17, "score": 52, "costs": -1, "simulationMode": [null, null, null], "rewards": [4, -4, 48], "path": ["0", "0", "1", "2", "3"], "rt": [5853, 274, 263], "actions": ["up", "up", "right"], "actionTimes": [9222, 10007, 10778], "queries": {"click": {"state": {"target": ["12", "11", "4", "3"], "time": [4524, 5534, 6892, 7966]}, "edge": {"target": [], "time": []}}, "mouseover": {"state": {"target": ["9", "12", "10", "11", "11", "4", "4", "2", "3"], "time": [3886, 4125, 4936, 4969, 5218, 6136, 6368, 7434, 7616]}, "edge": {"target": [], "time": []}}, "mouseout": {"state": {"target": ["5", "9", "12", "10", "11", "11", "4", "4", "2"], "time": [2821, 3904, 4936, 4952, 5086, 6101, 6151, 7401, 7484]}, "edge": {"target": [], "time": []}}}, "displayed_time": "12.37", "trialTime": 13278, "trial_type": "mouselab-mdp", "trial_index": 24, "time_elapsed": 525805, "internal_node_id": "0.0-4.0-1.0-15.0"}}, {"uniqueid": "w96349225:a60600942", "current_trial": 25, "dateTime": 1664464463621, "trialdata": {"revealed_states": [], "num_clicks_accrued": [0, 0, 0, 0, 0, 0, 0, 0, 0, 0, 0, 0, 0], "stateRewards": ["", -2, -4, -24, 24, -2, 4, -24, -24, -4, 4, 24, -24], "withholdReward": false, "trial_id": "mdp_999419261719", "block": "test1", "trialIndex": 18, "score": 22.5, "costs": -0.5, "simulationMode": [null, null, null], "rewards": [-2, -4, 24], "path": ["0", "0", "1", "2", "4"], "rt": [5899, 204, 159], "actions": ["up", "up", "left"], "actionTimes": [10039, 10753, 11424], "queries": {"click": {"state": {"target": ["7", "4"], "time": [5110, 6322]}, "edge": {"target": [], "time": []}}, "mouseover": {"state": {"target": ["7", "2", "4"], "time": [4687, 5787, 5953]}, "edge": {"target": [], "time": []}}, "mouseout": {"state": {"target": ["3", "1", "7", "2"], "time": [3504, 3571, 5680, 5869]}, "edge": {"target": [], "time": []}}}, "displayed_time": "13.14", "trialTime": 14321, "trial_type": "mouselab-mdp", "trial_index": 25, "time_elapsed": 540169, "internal_node_id": "0.0-4.0-1.0-16.0"}}, {"uniqueid": "w96349225:a60600942", "current_trial": 26, "dateTime": 1664464477034, "trialdata": {"revealed_states": [], "num_clicks_accrued": [0, 0, 0, 0, 0, 0, 0, 0, 0, 0, 0, 0, 0], "stateRewards": ["", -2, 4, -48, -48, 4, 4, 48, -48, 2, 8, 24, 48], "withholdReward": true, "trial_id": "mdp_686771069745", "block": "test1", "trialIndex": 19, "score": 60.5, "costs": -0.5, "simulationMode": [null, null, null], "rewards": [4, 4, 48], "path": ["0", "0", "5", "6", "7"], "rt": [4545, 220, 204], "actions": ["right", "right", "up"], "actionTimes": [7702, 8431, 9148], "queries": {"click": {"state": {"target": ["7", "5"], "time": [5345, 6961]}, "edge": {"target": [], "time": []}}, "mouseover": {"state": {"target": ["7", "7", "5"], "time": [4697, 4980, 6511]}, "edge": {"target": [], "time": []}}, "mouseout": {"state": {"target": ["4", "1", "0", "7", "7", "5"], "time": [2416, 2549, 4632, 4714, 6246, 12890]}, "edge": {"target": [], "time": []}}}, "displayed_time": "12.16", "trialTime": 13373, "trial_type": "mouselab-mdp", "trial_index": 26, "time_elapsed": 553582, "internal_node_id": "0.0-4.0-1.0-17.0"}}, {"uniqueid": "w96349225:a60600942", "current_trial": 27, "dateTime": 1664464489222, "trialdata": {"revealed_states": [], "num_clicks_accrued": [0, 0, 0, 0, 0, 0, 0, 0, 0, 0, 0, 0, 0], "stateRewards": ["", -2, 8, -48, 48, -4, -8, 24, 24, -2, -4, 48, -48], "withholdReward": false, "trial_id": "mdp_867247318592", "block": "test1", "trialIndex": 20, "score": 58.75, "costs": -0.25, "simulationMode": [null, null, null], "rewards": [-2, 8, 48], "path": ["0", "0", "1", "2", "4"], "rt": [3155, 232, 221], "actions": ["up", "up", "left"], "actionTimes": [5135, 5872, 6609], "queries": {"click": {"state": {"target": ["4"], "time": [3386]}, "edge": {"target": [], "time": []}}, "mouseover": {"state": {"target": ["1", "4", "1"], "time": [2758, 3008, 4523]}, "edge": {"target": [], "time": []}}, "mouseout": {"state": {"target": ["0", "1", "4", "1", "0"], "time": [1641, 2792, 4273, 9718, 9785]}, "edge": {"target": [], "time": []}}}, "displayed_time": "10.98", "trialTime": 12148, "trial_type": "mouselab-mdp", "trial_index": 27, "time_elapsed": 565770, "internal_node_id": "0.0-4.0-1.0-18.0"}}, {"uniqueid": "w96349225:a60600942", "current_trial": 28, "dateTime": 1664464501224, "trialdata": {"revealed_states": [], "num_clicks_accrued": [0, 0, 0, 0, 0, 0, 0, 0, 0, 0, 0, 0, 0], "stateRewards": ["", 2, -4, -24, 24, 2, 8, 48, 48, 2, -8, 48, -24], "withholdReward": false, "trial_id": "mdp_330392242530", "block": "test1", "trialIndex": 21, "score": 46.75, "costs": -0.25, "simulationMode": [null, null, null], "rewards": [2, -8, 48], "path": ["0", "0", "9", "10", "11"], "rt": [2170, 245, 244], "actions": ["left", "left", "up"], "actionTimes": [4060, 4804, 5553], "queries": {"click": {"state": {"target": ["11"], "time": [2941]}, "edge": {"target": [], "time": []}}, "mouseover": {"state": {"target": ["9", "10", "11"], "time": [2360, 2427, 2593]}, "edge": {"target": [], "time": []}}, "mouseout": {"state": {"target": ["0", "9", "10"], "time": [2344, 2393, 2443]}, "edge": {"target": [], "time": []}}}, "displayed_time": "10.89", "trialTime": 11962, "trial_type": "mouselab-mdp", "trial_index": 28, "time_elapsed": 577772, "internal_node_id": "0.0-4.0-1.0-19.0"}}, {"uniqueid": "w96349225:a60600942", "current_trial": 29, "dateTime": 1664464512112, "trialdata": {"revealed_states": [], "num_clicks_accrued": [0, 0, 0, 0, 0, 0, 0, 0, 0, 0, 0, 0, 0], "stateRewards": ["", 4, 8, -48, 24, -2, 8, -48, -48, -4, 4, 48, -48], "withholdReward": true, "trial_id": "mdp_693807815190", "block": "test1", "trialIndex": 22, "score": 40.75, "costs": -0.25, "simulationMode": [null, null, null], "rewards": [4, 8, 24], "path": ["0", "0", "1", "2", "4"], "rt": [5186, 131, 131], "actions": ["up", "up", "left"], "actionTimes": [6763, 7389, 8039], "queries": {"click": {"state": {"target": ["4"], "time": [3013]}, "edge": {"target": [], "time": []}}, "mouseover": {"state": {"target": ["1", "4"], "time": [2379, 2612]}, "edge": {"target": [], "time": []}}, "mouseout": {"state": {"target": ["11", "0", "1"], "time": [879, 2341, 2395]}, "edge": {"target": [], "time": []}}}, "displayed_time": "9.58", "trialTime": 10845, "trial_type": "mouselab-mdp", "trial_index": 29, "time_elapsed": 588660, "internal_node_id": "0.0-4.0-1.0-20.0"}}, {"uniqueid": "w96349225:a60600942", "current_trial": 30, "dateTime": 1664464523591, "trialdata": {"revealed_states": [], "num_clicks_accrued": [0, 0, 0, 0, 0, 0, 0, 0, 0, 0, 0, 0, 0], "stateRewards": ["", -2, 4, -48, -48, -4, -8, 48, -48, 2, 4, 48, -48], "withholdReward": true, "trial_id": "mdp_258647270500", "block": "test1", "trialIndex": 23, "score": 40.75, "costs": -0.25, "simulationMode": [null, null, null], "rewards": [-4, -8, 48], "path": ["0", "0", "5", "6", "7"], "rt": [2216, 168, 200], "actions": ["right", "right", "up"], "actionTimes": [3916, 4598, 5313], "queries": {"click": {"state": {"target": ["7"], "time": [2939]}, "edge": {"target": [], "time": []}}, "mouseover": {"state": {"target": ["7"], "time": [2480]}, "edge": {"target": [], "time": []}}, "mouseout": {"state": {"target": ["4", "0"], "time": [950, 1432]}, "edge": {"target": [], "time": []}}}, "displayed_time": "10.70", "trialTime": 11435, "trial_type": "mouselab-mdp", "trial_index": 30, "time_elapsed": 600139, "internal_node_id": "0.0-4.0-1.0-21.0"}}, {"uniqueid": "w96349225:a60600942", "current_trial": 31, "dateTime": 1664464535385, "trialdata": {"revealed_states": [], "num_clicks_accrued": [0, 0, 0, 0, 0, 0, 0, 0, 0, 0, 0, 0, 0], "stateRewards": ["", -2, -4, -24, -24, 4, 8, 24, 24, -2, 8, 48, 48], "withholdReward": true, "trial_id": "mdp_620787912291", "block": "test1", "trialIndex": 24, "score": 58.75, "costs": -0.25, "simulationMode": [null, null, null], "rewards": [-2, 8, 48], "path": ["0", "0", "9", "10", "12"], "rt": [2585, 164, 122], "actions": ["left", "left", "down"], "actionTimes": [4682, 5360, 6000], "queries": {"click": {"state": {"target": ["12"], "time": [3759]}, "edge": {"target": [], "time": []}}, "mouseover": {"state": {"target": ["12"], "time": [3412]}, "edge": {"target": [], "time": []}}, "mouseout": {"state": {"target": ["7", "0"], "time": [1331, 3013]}, "edge": {"target": [], "time": []}}}, "displayed_time": "11.10", "trialTime": 11754, "trial_type": "mouselab-mdp", "trial_index": 31, "time_elapsed": 611933, "internal_node_id": "0.0-4.0-1.0-22.0"}}, {"uniqueid": "w96349225:a60600942", "current_trial": 32, "dateTime": 1664464545923, "trialdata": {"revealed_states": [], "num_clicks_accrued": [0, 0, 0, 0, 0, 0, 0, 0, 0, 0, 0, 0, 0], "stateRewards": ["", -4, -4, -24, -24, -2, 4, 48, -24, -2, -4, -24, 48], "withholdReward": false, "trial_id": "mdp_855903341564", "block": "test1", "trialIndex": 25, "score": 54.75, "costs": -0.25, "simulationMode": [null, null, null], "rewards": [-2, 4, 48], "path": ["0", "0", "5", "6", "7"], "rt": [2166, 153, 123], "actions": ["right", "right", "up"], "actionTimes": [3682, 4340, 4977], "queries": {"click": {"state": {"target": ["7"], "time": [2671]}, "edge": {"target": [], "time": []}}, "mouseover": {"state": {"target": ["7"], "time": [2238]}, "edge": {"target": [], "time": []}}, "mouseout": {"state": {"target": ["12", "0"], "time": [773, 1156]}, "edge": {"target": [], "time": []}}}, "displayed_time": "9.52", "trialTime": 10492, "trial_type": "mouselab-mdp", "trial_index": 32, "time_elapsed": 622471, "internal_node_id": "0.0-4.0-1.0-23.0"}}, {"uniqueid": "w96349225:a60600942", "current_trial": 33, "dateTime": 1664464556438, "trialdata": {"revealed_states": [], "num_clicks_accrued": [0, 0, 0, 0, 0, 0, 0, 0, 0, 0, 0, 0, 0], "stateRewards": ["", 4, 4, 24, 24, 4, -4, 48, 48, 4, 4, 24, -48], "withholdReward": true, "trial_id": "mdp_454251689008", "block": "test1", "trialIndex": 26, "score": 36.75, "costs": -0.25, "simulationMode": [null, null, null], "rewards": [4, 4, 24], "path": ["0", "0", "1", "2", "4"], "rt": [4334, 196, 145], "actions": ["up", "up", "left"], "actionTimes": [5811, 6506, 7155], "queries": {"click": {"state": {"target": ["4"], "time": [3142]}, "edge": {"target": [], "time": []}}, "mouseover": {"state": {"target": ["1", "4"], "time": [2612, 2795]}, "edge": {"target": [], "time": []}}, "mouseout": {"state": {"target": ["7", "5", "0", "1"], "time": [749, 781, 1015, 2629]}, "edge": {"target": [], "time": []}}}, "displayed_time": "9.48", "trialTime": 10474, "trial_type": "mouselab-mdp", "trial_index": 33, "time_elapsed": 632986, "internal_node_id": "0.0-4.0-1.0-24.0"}}, {"uniqueid": "w96349225:a60600942", "current_trial": 34, "dateTime": 1664464566783, "trialdata": {"revealed_states": [], "num_clicks_accrued": [0, 0, 0, 0, 0, 0, 0, 0, 0, 0, 0, 0, 0], "stateRewards": ["", -4, -8, 48, -24, 4, -8, 48, 48, -2, 4, -48, -24], "withholdReward": false, "trial_id": "mdp_925905402462", "block": "test1", "trialIndex": 27, "score": 48.5, "costs": -0.5, "simulationMode": [null, null, null], "rewards": [4, -8, 48], "path": ["0", "0", "5", "6", "7"], "rt": [4403, 169, 62], "actions": ["right", "right", "up"], "actionTimes": [5791, 6469, 7045], "queries": {"click": {"state": {"target": ["11", "7"], "time": [2989, 4928]}, "edge": {"target": [], "time": []}}, "mouseover": {"state": {"target": ["10", "11", "11", "3", "7"], "time": [2136, 2254, 2603, 3985, 4301]}, "edge": {"target": [], "time": []}}, "mouseout": {"state": {"target": ["4", "10", "11", "11", "3"], "time": [705, 2204, 2303, 3936, 4002]}, "edge": {"target": [], "time": []}}}, "displayed_time": "9.39", "trialTime": 10302, "trial_type": "mouselab-mdp", "trial_index": 34, "time_elapsed": 643331, "internal_node_id": "0.0-4.0-1.0-25.0"}}, {"uniqueid": "w96349225:a60600942", "current_trial": 35, "dateTime": 1664464582078, "trialdata": {"revealed_states": [], "num_clicks_accrued": [0, 0, 0, 0, 0, 0, 0, 0, 0, 0, 0, 0, 0], "stateRewards": ["", 2, -8, -24, 48, -4, -8, 24, -48, 4, -8, -24, -24], "withholdReward": true, "trial_id": "mdp_928911266656", "block": "test1", "trialIndex": 28, "score": 45.75, "costs": -1.25, "simulationMode": [null, null, null], "rewards": [2, -8, 48], "path": ["0", "0", "1", "2", "4"], "rt": [10651, 136, 230], "actions": ["up", "up", "left"], "actionTimes": [12579, 13215, 13958], "queries": {"click": {"state": {"target": ["3", "8", "11", "12", "4"], "time": [4851, 6724, 8446, 10058, 11417]}, "edge": {"target": [], "time": []}}, "mouseover": {"state": {"target": ["3", "7", "6", "8", "11", "11", "10", "12", "12", "4"], "time": [4419, 6051, 6168, 6334, 7916, 8166, 9149, 9231, 9581, 10997]}, "edge": {"target": [], "time": []}}, "mouseout": {"state": {"target": ["7", "5", "0", "3", "7", "6", "8", "11", "11", "10", "12", "12"], "time": [1055, 1138, 4219, 5892, 6101, 6251, 7667, 7950, 9115, 9199, 9316, 10647]}, "edge": {"target": [], "time": []}}}, "displayed_time": "14.46", "trialTime": 15255, "trial_type": "mouselab-mdp", "trial_index": 35, "time_elapsed": 658626, "internal_node_id": "0.0-4.0-1.0-26.0"}}, {"uniqueid": "w96349225:a60600942", "current_trial": 36, "dateTime": 1664464594587, "trialdata": {"revealed_states": [], "num_clicks_accrued": [0, 0, 0, 0, 0, 0, 0, 0, 0, 0, 0, 0, 0], "stateRewards": ["", -4, -8, -48, -48, 4, -8, 48, 48, 2, 8, 48, 24], "withholdReward": true, "trial_id": "mdp_880437222492", "block": "test1", "trialIndex": 29, "score": 48.5, "costs": -0.5, "simulationMode": [null, null, null], "rewards": [4, -8, 48], "path": ["0", "0", "5", "6", "8"], "rt": [4924, 182, 118], "actions": ["right", "right", "down"], "actionTimes": [7456, 8152, 8773], "queries": {"click": {"state": {"target": ["3", "8"], "time": [5054, 6541]}, "edge": {"target": [], "time": []}}, "mouseover": {"state": {"target": ["3", "6", "8", "8"], "time": [4674, 5923, 6006, 6223]}, "edge": {"target": [], "time": []}}, "mouseout": {"state": {"target": ["4", "3", "6", "8"], "time": [1744, 5856, 5939, 6140]}, "edge": {"target": [], "time": []}}}, "displayed_time": "11.53", "trialTime": 12466, "trial_type": "mouselab-mdp", "trial_index": 36, "time_elapsed": 671135, "internal_node_id": "0.0-4.0-1.0-27.0"}}, {"uniqueid": "w96349225:a60600942", "current_trial": 37, "dateTime": 1664464606452, "trialdata": {"revealed_states": [], "num_clicks_accrued": [0, 0, 0, 0, 0, 0, 0, 0, 0, 0, 0, 0, 0], "stateRewards": ["", 2, 4, 48, -24, 2, -8, -24, -24, 2, -8, -24, -48], "withholdReward": true, "trial_id": "mdp_274832552938", "block": "test1", "trialIndex": 30, "score": 58.5, "costs": -0.5, "simulationMode": [null, null, null], "rewards": [2, 4, 48], "path": ["0", "0", "1", "2", "3"], "rt": [4367, 36, 158], "actions": ["up", "up", "right"], "actionTimes": [6060, 6606, 7293], "queries": {"click": {"state": {"target": ["11", "3"], "time": [3313, 4897]}, "edge": {"target": [], "time": []}}, "mouseover": {"state": {"target": ["9", "11", "4", "3"], "time": [2807, 2939, 4172, 4505]}, "edge": {"target": [], "time": []}}, "mouseout": {"state": {"target": ["8", "9", "0", "9", "11", "4"], "time": [907, 1107, 2773, 2823, 4146, 4190]}, "edge": {"target": [], "time": []}}}, "displayed_time": "10.69", "trialTime": 11821, "trial_type": "mouselab-mdp", "trial_index": 37, "time_elapsed": 683000, "internal_node_id": "0.0-4.0-1.0-28.0"}}, {"uniqueid": "w96349225:a60600942", "current_trial": 38, "dateTime": 1664464617311, "trialdata": {"revealed_states": [], "num_clicks_accrued": [0, 0, 0, 0, 0, 0, 0, 0, 0, 0, 0, 0, 0], "stateRewards": ["", 2, -8, 24, 24, 2, 4, -48, -48, 4, 4, -24, 48], "withholdReward": true, "trial_id": "mdp_985707010949", "block": "test1", "trialIndex": 31, "score": 22.75, "costs": -0.25, "simulationMode": [null, null, null], "rewards": [2, -8, 24], "path": ["0", "0", "1", "2", "4"], "rt": [4017, 65, 56], "actions": ["up", "up", "left"], "actionTimes": [5571, 6144, 6717], "queries": {"click": {"state": {"target": ["4"], "time": [3169]}, "edge": {"target": [], "time": []}}, "mouseover": {"state": {"target": ["4"], "time": [2381]}, "edge": {"target": [], "time": []}}, "mouseout": {"state": {"target": ["3", "0"], "time": [733, 2230]}, "edge": {"target": [], "time": []}}}, "displayed_time": "9.55", "trialTime": 10815, "trial_type": "mouselab-mdp", "trial_index": 38, "time_elapsed": 693859, "internal_node_id": "0.0-4.0-1.0-29.0"}}, {"uniqueid": "w96349225:a60600942", "current_trial": 39, "dateTime": 1664464743307, "trialdata": {"rt": 125992, "stimulus": "<h1> End of block! </h1>\n\nYou have reached the end of the block 1/4. If you need a short break, feel free to take one now before moving on.\n\n<br><br>\nIn the next block, you will complete another 30 rounds of this game.\n\n<br><br>\n<div style='text-align: center;'>Press <code>space</code> to begin.</div>\n<br><br>\n<div style='text-align: center;'>(If the experiment doesn't continue, try clicking on the text and then pressing <code>space</code>.)</div>", "response": " ", "trial_id": "mdp_ready_2", "trial_type": "html-keyboard-response", "trial_index": 39, "time_elapsed": 819855, "internal_node_id": "0.0-4.0-2.0"}}, {"uniqueid": "w96349225:a60600942", "current_trial": 40, "dateTime": 1664464754580, "trialdata": {"revealed_states": [], "num_clicks_accrued": [0, 0, 0, 0, 0, 0, 0, 0, 0, 0, 0, 0, 0], "stateRewards": ["", -4, -8, -48, 24, -4, -4, -24, -48, 2, -8, -24, -48], "withholdReward": false, "trial_id": "mdp_628181832088", "block": "test2", "trialIndex": 32, "score": 16.75, "costs": -0.25, "simulationMode": [null, null, null], "rewards": [-4, -8, 24], "path": ["0", "0", "1", "2", "4"], "rt": [5187, 315, 49], "actions": ["up", "up", "left"], "actionTimes": [7598, 8425, 8993], "queries": {"click": {"state": {"target": ["4"], "time": [4107]}, "edge": {"target": [], "time": []}}, "mouseover": {"state": {"target": ["1", "4"], "time": [3364, 3730]}, "edge": {"target": [], "time": []}}, "mouseout": {"state": {"target": ["4", "2", "1", "0", "1"], "time": [1218, 1316, 1583, 1966, 3381]}, "edge": {"target": [], "time": []}}}, "displayed_time": "10.41", "trialTime": 11231, "trial_type": "mouselab-mdp", "trial_index": 40, "time_elapsed": 831128, "internal_node_id": "0.0-4.0-3.0-0.0"}}, {"uniqueid": "w96349225:a60600942", "current_trial": 41, "dateTime": 1664464772451, "trialdata": {"revealed_states": [], "num_clicks_accrued": [0, 0, 0, 0, 0, 0, 0, 0, 0, 0, 0, 0, 0], "stateRewards": ["", -2, -8, 24, -48, -4, 8, -48, -24, 4, 8, -24, 24], "withholdReward": true, "trial_id": "mdp_940444641142", "block": "test2", "trialIndex": 33, "score": 39.5, "costs": -1.5, "simulationMode": [null, null, null], "rewards": [4, 8, 24], "path": ["0", "0", "9", "10", "12"], "rt": [12475, 175, 101], "actions": ["left", "left", "down"], "actionTimes": [14998, 15663, 16270], "queries": {"click": {"state": {"target": ["7", "8", "11", "12", "3", "4"], "time": [4384, 6720, 8151, 9258, 10903, 11986]}, "edge": {"target": [], "time": []}}, "mouseover": {"state": {"target": ["7", "6", "8", "8", "10", "11", "10", "12", "3", "2", "4"], "time": [4029, 5328, 5412, 6327, 7377, 7743, 8726, 8842, 10507, 11424, 11640]}, "edge": {"target": [], "time": []}}, "mouseout": {"state": {"target": ["4", "0", "7", "6", "8", "8", "10", "11", "10", "12", "3", "2"], "time": [1915, 3630, 5264, 5379, 5580, 7277, 7477, 8709, 8792, 10044, 11390, 11523]}, "edge": {"target": [], "time": []}}}, "displayed_time": "16.79", "trialTime": 17826, "trial_type": "mouselab-mdp", "trial_index": 41, "time_elapsed": 848998, "internal_node_id": "0.0-4.0-3.0-1.0"}}, {"uniqueid": "w96349225:a60600942", "current_trial": 42, "dateTime": 1664464785057, "trialdata": {"revealed_states": [], "num_clicks_accrued": [0, 0, 0, 0, 0, 0, 0, 0, 0, 0, 0, 0, 0], "stateRewards": ["", -2, 4, -48, -48, 4, 4, 48, -48, 2, 8, 24, 48], "withholdReward": true, "trial_id": "mdp_686771069745", "block": "test2", "trialIndex": 34, "score": 38.5, "costs": -0.5, "simulationMode": [null, null, null], "rewards": [2, 8, 24], "path": ["0", "0", "9", "10", "11"], "rt": [4984, 104, 790], "actions": ["left", "left", "up"], "actionTimes": [6464, 7076, 8379], "queries": {"click": {"state": {"target": ["3", "11"], "time": [3829, 5438]}, "edge": {"target": [], "time": []}}, "mouseover": {"state": {"target": ["3", "3", "2", "4", "11"], "time": [2525, 3507, 4424, 4507, 5100]}, "edge": {"target": [], "time": []}}, "mouseout": {"state": {"target": ["4", "1", "3", "3", "2", "4"], "time": [843, 1061, 2592, 4407, 4474, 4890]}, "edge": {"target": [], "time": []}}}, "displayed_time": "11.48", "trialTime": 12559, "trial_type": "mouselab-mdp", "trial_index": 42, "time_elapsed": 861605, "internal_node_id": "0.0-4.0-3.0-2.0"}}, {"uniqueid": "w96349225:a60600942", "current_trial": 43, "dateTime": 1664464801427, "trialdata": {"revealed_states": [], "num_clicks_accrued": [0, 0, 0, 0, 0, 0, 0, 0, 0, 0, 0, 0, 0], "stateRewards": ["", -2, -8, -24, -48, 4, -8, 48, 24, 2, 4, -48, -48], "withholdReward": false, "trial_id": "mdp_898082967464", "block": "test2", "trialIndex": 35, "score": 48.75, "costs": -0.25, "simulationMode": [null, null, null], "rewards": [4, -8, 48], "path": ["0", "0", "5", "6", "7"], "rt": [2342, 147, 324], "actions": ["right", "right", "up"], "actionTimes": [3770, 4426, 5238], "queries": {"click": {"state": {"target": ["7"], "time": [2930]}, "edge": {"target": [], "time": []}}, "mouseover": {"state": {"target": ["5", "7"], "time": [2314, 2548]}, "edge": {"target": [], "time": []}}, "mouseout": {"state": {"target": ["11", "0", "5"], "time": [716, 1115, 2348]}, "edge": {"target": [], "time": []}}}, "displayed_time": "10.43", "trialTime": 16327, "trial_type": "mouselab-mdp", "trial_index": 43, "time_elapsed": 877974, "internal_node_id": "0.0-4.0-3.0-3.0"}}, {"uniqueid": "w96349225:a60600942", "current_trial": 44, "dateTime": 1664464812550, "trialdata": {"revealed_states": [], "num_clicks_accrued": [0, 0, 0, 0, 0, 0, 0, 0, 0, 0, 0, 0, 0], "stateRewards": ["", 4, 4, 48, -24, -4, -8, 24, -24, 2, -8, -24, 24], "withholdReward": true, "trial_id": "mdp_933201675789", "block": "test2", "trialIndex": 36, "score": 22.5, "costs": -0.5, "simulationMode": [null, null, null], "rewards": [2, -8, 24], "path": ["0", "0", "9", "10", "12"], "rt": [3896, 70, 41], "actions": ["left", "left", "down"], "actionTimes": [5583, 6163, 6717], "queries": {"click": {"state": {"target": ["11", "12"], "time": [3292, 4603]}, "edge": {"target": [], "time": []}}, "mouseover": {"state": {"target": ["9", "11", "10", "12"], "time": [2597, 2829, 4078, 4195]}, "edge": {"target": [], "time": []}}, "mouseout": {"state": {"target": ["7", "9", "11", "10"], "time": [981, 2663, 4062, 4128]}, "edge": {"target": [], "time": []}}}, "displayed_time": "9.69", "trialTime": 11080, "trial_type": "mouselab-mdp", "trial_index": 44, "time_elapsed": 889097, "internal_node_id": "0.0-4.0-3.0-4.0"}}, {"uniqueid": "w96349225:a60600942", "current_trial": 45, "dateTime": 1664464827701, "trialdata": {"revealed_states": [], "num_clicks_accrued": [0, 0, 0, 0, 0, 0, 0, 0, 0, 0, 0, 0, 0], "stateRewards": ["", -4, -4, -24, 48, 2, 4, -24, -48, -2, 4, 24, 24], "withholdReward": false, "trial_id": "mdp_360934723192", "block": "test2", "trialIndex": 37, "score": 44, "costs": -1, "simulationMode": [null, null, null], "rewards": [-4, -4, 48], "path": ["0", "0", "1", "2", "4"], "rt": [7468, 31, 61], "actions": ["up", "up", "left"], "actionTimes": [10533, 11074, 11637], "queries": {"click": {"state": {"target": ["7", "3", "8", "4"], "time": [4423, 6049, 8094, 9520]}, "edge": {"target": [], "time": []}}, "mouseover": {"state": {"target": ["7", "7", "3", "8", "5", "1", "4", "4"], "time": [3849, 4082, 5648, 7746, 8711, 8761, 8894, 9228]}, "edge": {"target": [], "time": []}}, "mouseout": {"state": {"target": ["12", "0", "7", "7", "3", "8", "5", "1", "4"], "time": [2483, 2802, 4015, 5447, 7463, 8695, 8745, 8778, 8911]}, "edge": {"target": [], "time": []}}}, "displayed_time": "12.14", "trialTime": 15111, "trial_type": "mouselab-mdp", "trial_index": 45, "time_elapsed": 904249, "internal_node_id": "0.0-4.0-3.0-5.0"}}, {"uniqueid": "w96349225:a60600942", "current_trial": 46, "dateTime": 1664464839363, "trialdata": {"revealed_states": [], "num_clicks_accrued": [0, 0, 0, 0, 0, 0, 0, 0, 0, 0, 0, 0, 0], "stateRewards": ["", 4, 4, 48, -48, 4, 4, -48, 24, 2, 8, 24, -48], "withholdReward": true, "trial_id": "mdp_291674656283", "block": "test2", "trialIndex": 38, "score": 38.75, "costs": -0.25, "simulationMode": [null, null, null], "rewards": [2, 8, 24], "path": ["0", "0", "9", "10", "11"], "rt": [2281, 111, 55], "actions": ["left", "left", "up"], "actionTimes": [4379, 5025, 5586], "queries": {"click": {"state": {"target": ["11"], "time": [3513]}, "edge": {"target": [], "time": []}}, "mouseover": {"state": {"target": ["11"], "time": [3164]}, "edge": {"target": [], "time": []}}, "mouseout": {"state": {"target": ["4"], "time": [1516]}, "edge": {"target": [], "time": []}}}, "displayed_time": "11.10", "trialTime": 11618, "trial_type": "mouselab-mdp", "trial_index": 46, "time_elapsed": 915911, "internal_node_id": "0.0-4.0-3.0-6.0"}}, {"uniqueid": "w96349225:a60600942", "current_trial": 47, "dateTime": 1664464850074, "trialdata": {"revealed_states": [], "num_clicks_accrued": [0, 0, 0, 0, 0, 0, 0, 0, 0, 0, 0, 0, 0], "stateRewards": ["", -4, 8, 24, 24, -2, 8, -48, 48, 4, -8, 48, -48], "withholdReward": true, "trial_id": "mdp_295249220524", "block": "test2", "trialIndex": 39, "score": 32.5, "costs": -0.5, "simulationMode": [null, null, null], "rewards": [-4, 8, 24], "path": ["0", "0", "1", "2", "3"], "rt": [4444, 94, 207], "actions": ["up", "up", "right"], "actionTimes": [5842, 6451, 7165], "queries": {"click": {"state": {"target": ["7", "3"], "time": [2641, 4708]}, "edge": {"target": [], "time": []}}, "mouseover": {"state": {"target": ["7", "3"], "time": [2209, 4339]}, "edge": {"target": [], "time": []}}, "mouseout": {"state": {"target": ["11", "9", "7", "3", "0"], "time": [711, 896, 4109, 10075, 10220]}, "edge": {"target": [], "time": []}}}, "displayed_time": "9.40", "trialTime": 10666, "trial_type": "mouselab-mdp", "trial_index": 47, "time_elapsed": 926622, "internal_node_id": "0.0-4.0-3.0-7.0"}}, {"uniqueid": "w96349225:a60600942", "current_trial": 48, "dateTime": 1664464860740, "trialdata": {"revealed_states": [], "num_clicks_accrued": [0, 0, 0, 0, 0, 0, 0, 0, 0, 0, 0, 0, 0], "stateRewards": ["", 2, -4, -48, 24, 4, 4, 48, -48, -2, -4, -24, -48], "withholdReward": false, "trial_id": "mdp_858916930936", "block": "test2", "trialIndex": 40, "score": 26.75, "costs": -0.25, "simulationMode": [null, null, null], "rewards": [2, -4, 24], "path": ["0", "0", "1", "2", "4"], "rt": [3515, 39, 580], "actions": ["up", "up", "left"], "actionTimes": [5015, 5562, 6668], "queries": {"click": {"state": {"target": ["4"], "time": [3691]}, "edge": {"target": [], "time": []}}, "mouseover": {"state": {"target": ["1", "4", "4"], "time": [2191, 2425, 3274]}, "edge": {"target": [], "time": []}}, "mouseout": {"state": {"target": ["0", "1", "4"], "time": [1109, 2258, 2491]}, "edge": {"target": [], "time": []}}}, "displayed_time": "9.50", "trialTime": 10622, "trial_type": "mouselab-mdp", "trial_index": 48, "time_elapsed": 937288, "internal_node_id": "0.0-4.0-3.0-8.0"}}, {"uniqueid": "w96349225:a60600942", "current_trial": 49, "dateTime": 1664464871504, "trialdata": {"revealed_states": [], "num_clicks_accrued": [0, 0, 0, 0, 0, 0, 0, 0, 0, 0, 0, 0, 0], "stateRewards": ["", 2, 4, 48, -48, 2, -4, 48, 24, -2, -8, -24, 48], "withholdReward": true, "trial_id": "mdp_962424406744", "block": "test2", "trialIndex": 41, "score": 50.75, "costs": -0.25, "simulationMode": [null, null, null], "rewards": [2, -4, 48], "path": ["0", "0", "5", "6", "7"], "rt": [2758, 217, 152], "actions": ["right", "right", "up"], "actionTimes": [4975, 5697, 6347], "queries": {"click": {"state": {"target": ["7"], "time": [4177]}, "edge": {"target": [], "time": []}}, "mouseover": {"state": {"target": ["7"], "time": [3746]}, "edge": {"target": [], "time": []}}, "mouseout": {"state": {"target": ["4", "1", "0"], "time": [1632, 1732, 3414]}, "edge": {"target": [], "time": []}}}, "displayed_time": "10.22", "trialTime": 10719, "trial_type": "mouselab-mdp", "trial_index": 49, "time_elapsed": 948052, "internal_node_id": "0.0-4.0-3.0-9.0"}}, {"uniqueid": "w96349225:a60600942", "current_trial": 50, "dateTime": 1664464882115, "trialdata": {"revealed_states": [], "num_clicks_accrued": [0, 0, 0, 0, 0, 0, 0, 0, 0, 0, 0, 0, 0], "stateRewards": ["", 2, 8, 48, -48, -2, -4, -24, 24, 4, -4, 48, -48], "withholdReward": true, "trial_id": "mdp_105734044587", "block": "test2", "trialIndex": 42, "score": 52.5, "costs": -0.5, "simulationMode": [null, null, null], "rewards": [4, -4, 48], "path": ["0", "0", "9", "10", "11"], "rt": [3748, 141, 1169], "actions": ["left", "left", "up"], "actionTimes": [5323, 5969, 7645], "queries": {"click": {"state": {"target": ["12", "11"], "time": [2478, 4237]}, "edge": {"target": [], "time": []}}, "mouseover": {"state": {"target": ["9", "12", "10", "11", "11"], "time": [1929, 2012, 3395, 3445, 3728]}, "edge": {"target": [], "time": []}}, "mouseout": {"state": {"target": ["7", "9", "12", "10", "11"], "time": [814, 1964, 3329, 3429, 3479]}, "edge": {"target": [], "time": []}}}, "displayed_time": "9.58", "trialTime": 10570, "trial_type": "mouselab-mdp", "trial_index": 50, "time_elapsed": 958663, "internal_node_id": "0.0-4.0-3.0-10.0"}}, {"uniqueid": "w96349225:a60600942", "current_trial": 51, "dateTime": 1664464892176, "trialdata": {"revealed_states": [], "num_clicks_accrued": [0, 0, 0, 0, 0, 0, 0, 0, 0, 0, 0, 0, 0], "stateRewards": ["", 4, 4, -48, -24, -2, -4, 48, 24, -4, 4, 24, -48], "withholdReward": true, "trial_id": "mdp_617383046444", "block": "test2", "trialIndex": 43, "score": 46.5, "costs": -0.5, "simulationMode": [null, null, null], "rewards": [-2, -4, 48], "path": ["0", "0", "5", "6", "7"], "rt": [3838, 138, 184], "actions": ["right", "right", "up"], "actionTimes": [5340, 5991, 6686], "queries": {"click": {"state": {"target": ["4", "7"], "time": [2934, 4593]}, "edge": {"target": [], "time": []}}, "mouseover": {"state": {"target": ["1", "4", "2", "3", "7"], "time": [2038, 2504, 3920, 3970, 4219]}, "edge": {"target": [], "time": []}}, "mouseout": {"state": {"target": ["11", "9", "1", "4", "2", "3"], "time": [789, 905, 2054, 3904, 3954, 4003]}, "edge": {"target": [], "time": []}}}, "displayed_time": "9.50", "trialTime": 10015, "trial_type": "mouselab-mdp", "trial_index": 51, "time_elapsed": 968724, "internal_node_id": "0.0-4.0-3.0-11.0"}}, {"uniqueid": "w96349225:a60600942", "current_trial": 52, "dateTime": 1664464904202, "trialdata": {"revealed_states": [], "num_clicks_accrued": [0, 0, 0, 0, 0, 0, 0, 0, 0, 0, 0, 0, 0], "stateRewards": ["", -2, -4, -24, 24, -2, 4, -24, -24, -4, 4, 24, -24], "withholdReward": true, "trial_id": "mdp_999419261719", "block": "test2", "trialIndex": 44, "score": 28.75, "costs": -0.25, "simulationMode": [null, null, null], "rewards": [-4, 4, 24], "path": ["0", "0", "9", "10", "11"], "rt": [2163, 118, 434], "actions": ["left", "left", "up"], "actionTimes": [3753, 4382, 5331], "queries": {"click": {"state": {"target": ["11"], "time": [2638]}, "edge": {"target": [], "time": []}}, "mouseover": {"state": {"target": ["11"], "time": [2166]}, "edge": {"target": [], "time": []}}, "mouseout": {"state": {"target": ["7", "5", "0"], "time": [732, 915, 1999]}, "edge": {"target": [], "time": []}}}, "displayed_time": "10.59", "trialTime": 11976, "trial_type": "mouselab-mdp", "trial_index": 52, "time_elapsed": 980750, "internal_node_id": "0.0-4.0-3.0-12.0"}}, {"uniqueid": "w96349225:a60600942", "current_trial": 53, "dateTime": 1664464915510, "trialdata": {"revealed_states": [], "num_clicks_accrued": [0, 0, 0, 0, 0, 0, 0, 0, 0, 0, 0, 0, 0], "stateRewards": ["", 2, -4, -48, 24, -4, 4, 24, 24, 2, -8, -24, -48], "withholdReward": true, "trial_id": "mdp_807654778305", "block": "test2", "trialIndex": 45, "score": 28.75, "costs": -0.25, "simulationMode": [null, null, null], "rewards": [-4, 4, 24], "path": ["0", "0", "5", "6", "8"], "rt": [1935, 107, 139], "actions": ["right", "right", "down"], "actionTimes": [3320, 3939, 4586], "queries": {"click": {"state": {"target": ["8"], "time": [2504]}, "edge": {"target": [], "time": []}}, "mouseover": {"state": {"target": ["5", "8"], "time": [1983, 2099]}, "edge": {"target": [], "time": []}}, "mouseout": {"state": {"target": ["11", "9", "0", "5", "8"], "time": [717, 851, 1967, 2032, 10780]}, "edge": {"target": [], "time": []}}}, "displayed_time": "10.39", "trialTime": 11261, "trial_type": "mouselab-mdp", "trial_index": 53, "time_elapsed": 992058, "internal_node_id": "0.0-4.0-3.0-13.0"}}, {"uniqueid": "w96349225:a60600942", "current_trial": 54, "dateTime": 1664464927166, "trialdata": {"revealed_states": [], "num_clicks_accrued": [0, 0, 0, 0, 0, 0, 0, 0, 0, 0, 0, 0, 0], "stateRewards": ["", -2, 8, 48, 24, 2, -4, 48, -48, 2, 8, 24, -24], "withholdReward": true, "trial_id": "mdp_176207245985", "block": "test2", "trialIndex": 46, "score": 58.75, "costs": -0.25, "simulationMode": [null, null, null], "rewards": [-2, 8, 48], "path": ["0", "0", "1", "2", "3"], "rt": [2787, 338, 303], "actions": ["up", "up", "right"], "actionTimes": [4654, 5499, 6315], "queries": {"click": {"state": {"target": ["3"], "time": [2854]}, "edge": {"target": [], "time": []}}, "mouseover": {"state": {"target": ["3"], "time": [2482]}, "edge": {"target": [], "time": []}}, "mouseout": {"state": {"target": ["0"], "time": [1499]}, "edge": {"target": [], "time": []}}}, "displayed_time": "10.87", "trialTime": 11609, "trial_type": "mouselab-mdp", "trial_index": 54, "time_elapsed": 1003714, "internal_node_id": "0.0-4.0-3.0-14.0"}}, {"uniqueid": "w96349225:a60600942", "current_trial": 55, "dateTime": 1664464940110, "trialdata": {"revealed_states": [], "num_clicks_accrued": [0, 0, 0, 0, 0, 0, 0, 0, 0, 0, 0, 0, 0], "stateRewards": ["", 4, 8, -24, 48, 4, -8, -48, 48, -4, 8, -24, -48], "withholdReward": true, "trial_id": "mdp_376126356841", "block": "test2", "trialIndex": 47, "score": 48, "costs": -1, "simulationMode": [null, null, null], "rewards": [4, -8, 48], "path": ["0", "0", "5", "6", "8"], "rt": [6385, 105, 191], "actions": ["right", "right", "down"], "actionTimes": [8036, 8649, 9351], "queries": {"click": {"state": {"target": ["11", "12", "7", "8"], "time": [2875, 4610, 5856, 7229]}, "edge": {"target": [], "time": []}}, "mouseover": {"state": {"target": ["9", "10", "11", "10", "12", "12", "1", "7", "6", "8"], "time": [2200, 2266, 2449, 3615, 3716, 4215, 5164, 5481, 6662, 6845]}, "edge": {"target": [], "time": []}}, "mouseout": {"state": {"target": ["3", "0", "9", "10", "11", "10", "12", "12", "1", "7", "6"], "time": [884, 2183, 2250, 2300, 3580, 3665, 3815, 5131, 5181, 6612, 6762]}, "edge": {"target": [], "time": []}}}, "displayed_time": "10.65", "trialTime": 12896, "trial_type": "mouselab-mdp", "trial_index": 55, "time_elapsed": 1016658, "internal_node_id": "0.0-4.0-3.0-15.0"}}, {"uniqueid": "w96349225:a60600942", "current_trial": 56, "dateTime": 1664464951511, "trialdata": {"revealed_states": [], "num_clicks_accrued": [0, 0, 0, 0, 0, 0, 0, 0, 0, 0, 0, 0, 0], "stateRewards": ["", -4, 8, 24, 24, 2, 4, -48, 24, -2, -4, -24, -24], "withholdReward": true, "trial_id": "mdp_752328329546", "block": "test2", "trialIndex": 48, "score": 32.75, "costs": -0.25, "simulationMode": [null, null, null], "rewards": [-4, 8, 24], "path": ["0", "0", "1", "2", "4"], "rt": [2644, 156, 110], "actions": ["up", "up", "left"], "actionTimes": [4314, 4982, 5602], "queries": {"click": {"state": {"target": ["4"], "time": [3128]}, "edge": {"target": [], "time": []}}, "mouseover": {"state": {"target": ["4"], "time": [2710]}, "edge": {"target": [], "time": []}}, "mouseout": {"state": {"target": ["8", "0"], "time": [862, 2304]}, "edge": {"target": [], "time": []}}}, "displayed_time": "10.67", "trialTime": 11353, "trial_type": "mouselab-mdp", "trial_index": 56, "time_elapsed": 1028059, "internal_node_id": "0.0-4.0-3.0-16.0"}}, {"uniqueid": "w96349225:a60600942", "current_trial": 57, "dateTime": 1664464962088, "trialdata": {"revealed_states": [], "num_clicks_accrued": [0, 0, 0, 0, 0, 0, 0, 0, 0, 0, 0, 0, 0], "stateRewards": ["", 2, 8, 48, 24, -4, 4, -48, 24, 2, 8, 48, 48], "withholdReward": true, "trial_id": "mdp_367344599162", "block": "test2", "trialIndex": 49, "score": 62.75, "costs": -0.25, "simulationMode": [null, null, null], "rewards": [2, 8, 48], "path": ["0", "0", "1", "2", "3"], "rt": [2483, 62, 172], "actions": ["up", "up", "right"], "actionTimes": [4137, 4713, 5390], "queries": {"click": {"state": {"target": ["3"], "time": [2949]}, "edge": {"target": [], "time": []}}, "mouseover": {"state": {"target": ["3"], "time": [2536]}, "edge": {"target": [], "time": []}}, "mouseout": {"state": {"target": ["4", "3"], "time": [903, 9629]}, "edge": {"target": [], "time": []}}}, "displayed_time": "9.65", "trialTime": 10531, "trial_type": "mouselab-mdp", "trial_index": 57, "time_elapsed": 1038636, "internal_node_id": "0.0-4.0-3.0-17.0"}}, {"uniqueid": "w96349225:a60600942", "current_trial": 58, "dateTime": 1664464973246, "trialdata": {"revealed_states": [], "num_clicks_accrued": [0, 0, 0, 0, 0, 0, 0, 0, 0, 0, 0, 0, 0], "stateRewards": ["", 2, -8, 24, 24, 2, 4, -48, -48, 4, 4, -24, 48], "withholdReward": true, "trial_id": "mdp_985707010949", "block": "test2", "trialIndex": 50, "score": 60, "costs": -1, "simulationMode": [null, null, null], "rewards": [4, 4, 48], "path": ["0", "0", "9", "10", "12"], "rt": [6775, 136, 51], "actions": ["left", "left", "down"], "actionTimes": [8319, 8960, 9524], "queries": {"click": {"state": {"target": ["11", "7", "8", "12"], "time": [3048, 4733, 5894, 7272]}, "edge": {"target": [], "time": []}}, "mouseover": {"state": {"target": ["9", "11", "7", "7", "6", "8", "12"], "time": [2229, 2428, 4094, 4378, 5378, 5477, 6842]}, "edge": {"target": [], "time": []}}, "mouseout": {"state": {"target": ["0", "9", "11", "7", "7", "6", "8"], "time": [2229, 2279, 3998, 4128, 5344, 5444, 6537]}, "edge": {"target": [], "time": []}}}, "displayed_time": "10.55", "trialTime": 11107, "trial_type": "mouselab-mdp", "trial_index": 58, "time_elapsed": 1049794, "internal_node_id": "0.0-4.0-3.0-18.0"}}, {"uniqueid": "w96349225:a60600942", "current_trial": 59, "dateTime": 1664464984877, "trialdata": {"revealed_states": [], "num_clicks_accrued": [0, 0, 0, 0, 0, 0, 0, 0, 0, 0, 0, 0, 0], "stateRewards": ["", -2, 4, 24, 48, 2, 4, -48, -48, 2, 8, 48, -48], "withholdReward": false, "trial_id": "mdp_409609775558", "block": "test2", "trialIndex": 51, "score": 62.5, "costs": -0.5, "simulationMode": [null, null, null], "rewards": [2, 8, 48], "path": ["0", "0", "9", "10", "11"], "rt": [3550, 75, 135], "actions": ["left", "left", "up"], "actionTimes": [4992, 5578, 6222], "queries": {"click": {"state": {"target": ["7", "11"], "time": [2372, 4090]}, "edge": {"target": [], "time": []}}, "mouseover": {"state": {"target": ["7", "1", "11"], "time": [1906, 3588, 3671]}, "edge": {"target": [], "time": []}}, "mouseout": {"state": {"target": ["12", "0", "7", "1"], "time": [757, 1805, 3537, 3605]}, "edge": {"target": [], "time": []}}}, "displayed_time": "10.44", "trialTime": 11590, "trial_type": "mouselab-mdp", "trial_index": 59, "time_elapsed": 1061425, "internal_node_id": "0.0-4.0-3.0-19.0"}}, {"uniqueid": "w96349225:a60600942", "current_trial": 60, "dateTime": 1664464998676, "trialdata": {"revealed_states": [], "num_clicks_accrued": [0, 0, 0, 0, 0, 0, 0, 0, 0, 0, 0, 0, 0], "stateRewards": ["", 2, -4, -48, -48, -2, -4, -24, -48, -2, 8, 24, 24], "withholdReward": false, "trial_id": "mdp_656069446729", "block": "test2", "trialIndex": 52, "score": 34.25, "costs": -0.75, "simulationMode": [null, null, null], "rewards": [-2, 8, 24], "path": ["0", "0", "9", "10", "11"], "rt": [7597, 92, 113], "actions": ["left", "left", "up"], "actionTimes": [9266, 9860, 10480], "queries": {"click": {"state": {"target": ["3", "8", "11"], "time": [4059, 6763, 8078]}, "edge": {"target": [], "time": []}}, "mouseover": {"state": {"target": ["1", "3", "2", "3", "6", "8", "0", "9", "11"], "time": [2574, 2823, 2973, 3473, 6171, 6353, 7488, 7520, 7636]}, "edge": {"target": [], "time": []}}, "mouseout": {"state": {"target": ["11", "0", "1", "3", "2", "3", "6", "8", "0", "9"], "time": [908, 2507, 2624, 2940, 3456, 6071, 6254, 7453, 7503, 7553]}, "edge": {"target": [], "time": []}}}, "displayed_time": "10.98", "trialTime": 13751, "trial_type": "mouselab-mdp", "trial_index": 60, "time_elapsed": 1075224, "internal_node_id": "0.0-4.0-3.0-20.0"}}, {"uniqueid": "w96349225:a60600942", "current_trial": 61, "dateTime": 1664465014443, "trialdata": {"revealed_states": [], "num_clicks_accrued": [0, 0, 0, 0, 0, 0, 0, 0, 0, 0, 0, 0, 0], "stateRewards": ["", 4, -8, -48, -24, 2, -8, -48, 48, -4, 8, 48, -48], "withholdReward": true, "trial_id": "mdp_605757196263", "block": "test2", "trialIndex": 53, "score": 55.75, "costs": -1.25, "simulationMode": [null, null, null], "rewards": [-4, 8, 48], "path": ["0", "0", "9", "10", "11"], "rt": [8868, 1153, 364], "actions": ["left", "left", "up"], "actionTimes": [10394, 12058, 12935], "queries": {"click": {"state": {"target": ["4", "12", "7", "3", "11"], "time": [2698, 4264, 5614, 7295, 9372]}, "edge": {"target": [], "time": []}}, "mouseover": {"state": {"target": ["4", "11", "10", "12", "7", "7", "3", "2", "11"], "time": [2262, 3545, 3644, 3993, 4993, 5309, 6476, 8041, 8969]}, "edge": {"target": [], "time": []}}, "mouseout": {"state": {"target": ["11", "9", "0", "4", "11", "10", "12", "7", "7", "3", "2"], "time": [913, 1030, 2113, 3445, 3611, 3694, 4905, 5076, 6243, 8025, 8058]}, "edge": {"target": [], "time": []}}}, "displayed_time": "13.44", "trialTime": 15717, "trial_type": "mouselab-mdp", "trial_index": 61, "time_elapsed": 1090991, "internal_node_id": "0.0-4.0-3.0-21.0"}}, {"uniqueid": "w96349225:a60600942", "current_trial": 62, "dateTime": 1664465025443, "trialdata": {"revealed_states": [], "num_clicks_accrued": [0, 0, 0, 0, 0, 0, 0, 0, 0, 0, 0, 0, 0], "stateRewards": ["", -4, 4, 24, 24, -2, 8, 24, -48, 4, -8, -24, -48], "withholdReward": true, "trial_id": "mdp_651542905861", "block": "test2", "trialIndex": 54, "score": 34.5, "costs": -0.5, "simulationMode": [null, null, null], "rewards": [-2, 8, 24], "path": ["0", "0", "5", "6", "7"], "rt": [3220, 105, 93], "actions": ["right", "right", "up"], "actionTimes": [4982, 5601, 6204], "queries": {"click": {"state": {"target": ["8", "7"], "time": [2804, 3849]}, "edge": {"target": [], "time": []}}, "mouseover": {"state": {"target": ["8", "6", "7"], "time": [2398, 3344, 3397]}, "edge": {"target": [], "time": []}}, "mouseout": {"state": {"target": ["11", "0", "8", "6", "7"], "time": [1099, 2283, 3343, 3347, 4379]}, "edge": {"target": [], "time": []}}}, "displayed_time": "9.76", "trialTime": 10950, "trial_type": "mouselab-mdp", "trial_index": 62, "time_elapsed": 1101991, "internal_node_id": "0.0-4.0-3.0-22.0"}}, {"uniqueid": "w96349225:a60600942", "current_trial": 63, "dateTime": 1664465035925, "trialdata": {"revealed_states": [], "num_clicks_accrued": [0, 0, 0, 0, 0, 0, 0, 0, 0, 0, 0, 0, 0], "stateRewards": ["", 4, 4, 24, -24, -4, -8, 48, -24, 4, 4, 48, 24], "withholdReward": true, "trial_id": "mdp_822446942217", "block": "test2", "trialIndex": 55, "score": 60.5, "costs": -0.5, "simulationMode": [null, null, null], "rewards": [4, 4, 48], "path": ["0", "0", "9", "10", "11"], "rt": [3426, 139, 204], "actions": ["left", "left", "up"], "actionTimes": [5277, 5913, 6611], "queries": {"click": {"state": {"target": ["4", "11"], "time": [3033, 4357]}, "edge": {"target": [], "time": []}}, "mouseover": {"state": {"target": ["1", "4", "11"], "time": [2276, 2676, 3992]}, "edge": {"target": [], "time": []}}, "mouseout": {"state": {"target": ["0", "1", "4"], "time": [2233, 2409, 3891]}, "edge": {"target": [], "time": []}}}, "displayed_time": "9.85", "trialTime": 10435, "trial_type": "mouselab-mdp", "trial_index": 63, "time_elapsed": 1112472, "internal_node_id": "0.0-4.0-3.0-23.0"}}, {"uniqueid": "w96349225:a60600942", "current_trial": 64, "dateTime": 1664465047639, "trialdata": {"revealed_states": [], "num_clicks_accrued": [0, 0, 0, 0, 0, 0, 0, 0, 0, 0, 0, 0, 0], "stateRewards": ["", -2, 4, -48, 24, -4, 8, 48, 24, -2, 4, -48, -24], "withholdReward": true, "trial_id": "mdp_740882974347", "block": "test2", "trialIndex": 56, "score": 30, "costs": -1, "simulationMode": [null, null, null], "rewards": [-2, 4, 24], "path": ["0", "0", "1", "2", "4"], "rt": [7081, 12, 584], "actions": ["up", "up", "left"], "actionTimes": [8577, 9106, 10211], "queries": {"click": {"state": {"target": ["3", "12", "11", "4"], "time": [2545, 4565, 5690, 7504]}, "edge": {"target": [], "time": []}}, "mouseover": {"state": {"target": ["3", "1", "9", "12", "10", "11", "4", "4"], "time": [2230, 3832, 3949, 4198, 5132, 5349, 6163, 7116]}, "edge": {"target": [], "time": []}}, "mouseout": {"state": {"target": ["11", "9", "0", "3", "1", "9", "12", "10", "11", "4"], "time": [917, 1051, 1217, 3799, 3865, 4048, 5097, 5214, 6113, 6329]}, "edge": {"target": [], "time": []}}}, "displayed_time": "10.73", "trialTime": 11664, "trial_type": "mouselab-mdp", "trial_index": 64, "time_elapsed": 1124186, "internal_node_id": "0.0-4.0-3.0-24.0"}}, {"uniqueid": "w96349225:a60600942", "current_trial": 65, "dateTime": 1664465059248, "trialdata": {"revealed_states": [], "num_clicks_accrued": [0, 0, 0, 0, 0, 0, 0, 0, 0, 0, 0, 0, 0], "stateRewards": ["", -2, -4, -48, -48, 4, -4, 48, 24, 4, 4, 48, 48], "withholdReward": true, "trial_id": "mdp_950960813932", "block": "test2", "trialIndex": 57, "score": 52.75, "costs": -0.25, "simulationMode": [null, null, null], "rewards": [4, -4, 48], "path": ["0", "0", "5", "6", "7"], "rt": [2173, 90, 378], "actions": ["right", "right", "up"], "actionTimes": [3871, 4468, 5355], "queries": {"click": {"state": {"target": ["7"], "time": [2993]}, "edge": {"target": [], "time": []}}, "mouseover": {"state": {"target": ["5", "6", "7"], "time": [2345, 2378, 2645]}, "edge": {"target": [], "time": []}}, "mouseout": {"state": {"target": ["4", "0", "5", "6", "7", "5"], "time": [980, 2327, 2361, 2511, 11035, 11089]}, "edge": {"target": [], "time": []}}}, "displayed_time": "10.70", "trialTime": 11563, "trial_type": "mouselab-mdp", "trial_index": 65, "time_elapsed": 1135796, "internal_node_id": "0.0-4.0-3.0-25.0"}}, {"uniqueid": "w96349225:a60600942", "current_trial": 66, "dateTime": 1664465069631, "trialdata": {"revealed_states": [], "num_clicks_accrued": [0, 0, 0, 0, 0, 0, 0, 0, 0, 0, 0, 0, 0], "stateRewards": ["", 2, 4, 48, 48, 4, -8, 24, -48, -4, -8, -24, -48], "withholdReward": true, "trial_id": "mdp_343818007251", "block": "test2", "trialIndex": 58, "score": 58.5, "costs": -0.5, "simulationMode": [null, null, null], "rewards": [2, 4, 48], "path": ["0", "0", "1", "2", "4"], "rt": [3441, 139, 235], "actions": ["up", "up", "left"], "actionTimes": [4811, 5461, 6206], "queries": {"click": {"state": {"target": ["8", "4"], "time": [2374, 3805]}, "edge": {"target": [], "time": []}}, "mouseover": {"state": {"target": ["8", "5", "1", "2", "4"], "time": [1925, 3041, 3124, 3274, 3458]}, "edge": {"target": [], "time": []}}, "mouseout": {"state": {"target": ["0", "8", "5", "1", "2", "4"], "time": [1743, 3008, 3075, 3191, 3340, 9864]}, "edge": {"target": [], "time": []}}}, "displayed_time": "9.37", "trialTime": 10335, "trial_type": "mouselab-mdp", "trial_index": 66, "time_elapsed": 1146179, "internal_node_id": "0.0-4.0-3.0-26.0"}}, {"uniqueid": "w96349225:a60600942", "current_trial": 67, "dateTime": 1664465080634, "trialdata": {"revealed_states": [], "num_clicks_accrued": [0, 0, 0, 0, 0, 0, 0, 0, 0, 0, 0, 0, 0], "stateRewards": ["", 2, -8, -24, 48, 4, -8, -24, -24, 2, 8, -24, 24], "withholdReward": false, "trial_id": "mdp_480787552818", "block": "test2", "trialIndex": 59, "score": 38.75, "costs": -0.25, "simulationMode": [null, null, null], "rewards": [2, 8, 24], "path": ["0", "0", "9", "10", "12"], "rt": [2092, 41, 113], "actions": ["left", "left", "down"], "actionTimes": [3629, 4176, 4814], "queries": {"click": {"state": {"target": ["12"], "time": [2694]}, "edge": {"target": [], "time": []}}, "mouseover": {"state": {"target": ["9", "10", "12"], "time": [2087, 2186, 2352]}, "edge": {"target": [], "time": []}}, "mouseout": {"state": {"target": ["0", "9", "10", "12"], "time": [2053, 2120, 2236, 10054]}, "edge": {"target": [], "time": []}}}, "displayed_time": "9.54", "trialTime": 10958, "trial_type": "mouselab-mdp", "trial_index": 67, "time_elapsed": 1157182, "internal_node_id": "0.0-4.0-3.0-27.0"}}, {"uniqueid": "w96349225:a60600942", "current_trial": 68, "dateTime": 1664465092208, "trialdata": {"revealed_states": [], "num_clicks_accrued": [0, 0, 0, 0, 0, 0, 0, 0, 0, 0, 0, 0, 0], "stateRewards": ["", 4, -8, -24, 48, -4, 8, -24, -48, -4, -4, 24, 48], "withholdReward": true, "trial_id": "mdp_282352776624", "block": "test2", "trialIndex": 60, "score": 48.25, "costs": -0.75, "simulationMode": [null, null, null], "rewards": [4, -8, 48], "path": ["0", "0", "1", "2", "4"], "rt": [5227, 26, 29], "actions": ["up", "up", "left"], "actionTimes": [6932, 7493, 8028], "queries": {"click": {"state": {"target": ["7", "3", "4"], "time": [2789, 4241, 5961]}, "edge": {"target": [], "time": []}}, "mouseover": {"state": {"target": ["7", "3", "2", "4", "4"], "time": [2321, 3871, 4819, 4886, 5602]}, "edge": {"target": [], "time": []}}, "mouseout": {"state": {"target": ["0", "7", "3", "2", "4"], "time": [989, 3480, 4786, 4853, 5019]}, "edge": {"target": [], "time": []}}}, "displayed_time": "9.71", "trialTime": 11526, "trial_type": "mouselab-mdp", "trial_index": 68, "time_elapsed": 1168756, "internal_node_id": "0.0-4.0-3.0-28.0"}}, {"uniqueid": "w96349225:a60600942", "current_trial": 69, "dateTime": 1664465102717, "trialdata": {"revealed_states": [], "num_clicks_accrued": [0, 0, 0, 0, 0, 0, 0, 0, 0, 0, 0, 0, 0], "stateRewards": ["", -4, 4, -24, 24, -2, -4, 48, 24, 2, 8, -48, 24], "withholdReward": false, "trial_id": "mdp_150340189492", "block": "test2", "trialIndex": 61, "score": 38.75, "costs": -0.25, "simulationMode": [null, null, null], "rewards": [2, 8, 24], "path": ["0", "0", "9", "10", "12"], "rt": [2190, 55, 73], "actions": ["left", "left", "down"], "actionTimes": [3643, 4209, 4794], "queries": {"click": {"state": {"target": ["12"], "time": [2578]}, "edge": {"target": [], "time": []}}, "mouseover": {"state": {"target": ["9", "12"], "time": [2089, 2173]}, "edge": {"target": [], "time": []}}, "mouseout": {"state": {"target": ["4", "1", "9"], "time": [807, 973, 2106]}, "edge": {"target": [], "time": []}}}, "displayed_time": "9.45", "trialTime": 10461, "trial_type": "mouselab-mdp", "trial_index": 69, "time_elapsed": 1179264, "internal_node_id": "0.0-4.0-3.0-29.0"}}, {"uniqueid": "w96349225:a60600942", "current_trial": 70, "dateTime": 1664465104708, "trialdata": {"rt": 1988, "stimulus": "<h1> End of block! </h1>\n\nYou have reached the end of the block 2/4. If you need a short break, feel free to take one now before moving on.\n\n<br><br>\nIn the next block, you will complete another 30 rounds of this game.\n\n<br><br>\n<div style='text-align: center;'>Press <code>space</code> to begin.</div>\n<br><br>\n<div style='text-align: center;'>(If the experiment doesn't continue, try clicking on the text and then pressing <code>space</code>.)</div>", "response": " ", "trial_id": "mdp_ready_3", "trial_type": "html-keyboard-response", "trial_index": 70, "time_elapsed": 1181256, "internal_node_id": "0.0-4.0-4.0"}}, {"uniqueid": "w96349225:a60600942", "current_trial": 71, "dateTime": 1664465116272, "trialdata": {"revealed_states": [], "num_clicks_accrued": [0, 0, 0, 0, 0, 0, 0, 0, 0, 0, 0, 0, 0], "stateRewards": ["", 2, 8, -48, 24, -4, 8, 48, -24, 2, 8, 24, 24], "withholdReward": false, "trial_id": "mdp_175372499314", "block": "test3", "trialIndex": 62, "score": 38.75, "costs": -0.25, "simulationMode": [null, null, null], "rewards": [2, 8, 24], "path": ["0", "0", "9", "10", "11"], "rt": [1963, 66, 7], "actions": ["left", "left", "up"], "actionTimes": [3533, 4106, 4630], "queries": {"click": {"state": {"target": ["11"], "time": [2644]}, "edge": {"target": [], "time": []}}, "mouseover": {"state": {"target": ["9", "11"], "time": [2075, 2275]}, "edge": {"target": [], "time": []}}, "mouseout": {"state": {"target": ["12", "0", "9"], "time": [859, 2041, 2158]}, "edge": {"target": [], "time": []}}}, "displayed_time": "10.57", "trialTime": 11514, "trial_type": "mouselab-mdp", "trial_index": 71, "time_elapsed": 1192820, "internal_node_id": "0.0-4.0-5.0-0.0"}}, {"uniqueid": "w96349225:a60600942", "current_trial": 72, "dateTime": 1664465127247, "trialdata": {"revealed_states": [], "num_clicks_accrued": [0, 0, 0, 0, 0, 0, 0, 0, 0, 0, 0, 0, 0], "stateRewards": ["", -4, -4, 24, -24, 4, 4, 24, 48, 4, -4, 48, -48], "withholdReward": true, "trial_id": "mdp_522385334882", "block": "test3", "trialIndex": 63, "score": 20.75, "costs": -0.25, "simulationMode": [null, null, null], "rewards": [-4, -4, 24], "path": ["0", "0", "1", "2", "3"], "rt": [2739, 14, 97], "actions": ["up", "up", "right"], "actionTimes": [4114, 4645, 5261], "queries": {"click": {"state": {"target": ["3"], "time": [3275]}, "edge": {"target": [], "time": []}}, "mouseover": {"state": {"target": ["3"], "time": [2875]}, "edge": {"target": [], "time": []}}, "mouseout": {"state": {"target": ["11", "9", "0"], "time": [751, 851, 1767]}, "edge": {"target": [], "time": []}}}, "displayed_time": "10.38", "trialTime": 10924, "trial_type": "mouselab-mdp", "trial_index": 72, "time_elapsed": 1203795, "internal_node_id": "0.0-4.0-5.0-1.0"}}, {"uniqueid": "w96349225:a60600942", "current_trial": 73, "dateTime": 1664465138406, "trialdata": {"revealed_states": [], "num_clicks_accrued": [0, 0, 0, 0, 0, 0, 0, 0, 0, 0, 0, 0, 0], "stateRewards": ["", 4, -8, 48, 48, 2, 4, 48, -48, 4, -4, -48, 48], "withholdReward": true, "trial_id": "mdp_519605841135", "block": "test3", "trialIndex": 64, "score": 52.75, "costs": -0.25, "simulationMode": [null, null, null], "rewards": [4, -4, 48], "path": ["0", "0", "9", "10", "12"], "rt": [1950, 95, 26], "actions": ["left", "left", "down"], "actionTimes": [3456, 4062, 4594], "queries": {"click": {"state": {"target": ["12"], "time": [2652]}, "edge": {"target": [], "time": []}}, "mouseover": {"state": {"target": ["9", "10", "12"], "time": [1919, 2002, 2269]}, "edge": {"target": [], "time": []}}, "mouseout": {"state": {"target": ["3", "0", "9", "10", "12"], "time": [770, 1902, 1952, 2151, 6153]}, "edge": {"target": [], "time": []}}}, "displayed_time": "10.51", "trialTime": 11110, "trial_type": "mouselab-mdp", "trial_index": 73, "time_elapsed": 1214954, "internal_node_id": "0.0-4.0-5.0-2.0"}}, {"uniqueid": "w96349225:a60600942", "current_trial": 74, "dateTime": 1664465149630, "trialdata": {"revealed_states": [], "num_clicks_accrued": [0, 0, 0, 0, 0, 0, 0, 0, 0, 0, 0, 0, 0], "stateRewards": ["", -2, 8, 48, 24, 2, -8, -24, -48, -4, 8, -48, 24], "withholdReward": true, "trial_id": "mdp_224053025943", "block": "test3", "trialIndex": 65, "score": 58.5, "costs": -0.5, "simulationMode": [null, null, null], "rewards": [-2, 8, 48], "path": ["0", "0", "1", "2", "3"], "rt": [3704, 77, 55], "actions": ["up", "up", "right"], "actionTimes": [5267, 5860, 6421], "queries": {"click": {"state": {"target": ["7", "3"], "time": [2554, 3924]}, "edge": {"target": [], "time": []}}, "mouseover": {"state": {"target": ["7", "3"], "time": [2152, 3434]}, "edge": {"target": [], "time": []}}, "mouseout": {"state": {"target": ["7"], "time": [3318]}, "edge": {"target": [], "time": []}}}, "displayed_time": "10.56", "trialTime": 11177, "trial_type": "mouselab-mdp", "trial_index": 74, "time_elapsed": 1226178, "internal_node_id": "0.0-4.0-5.0-3.0"}}, {"uniqueid": "w96349225:a60600942", "current_trial": 75, "dateTime": 1664465161537, "trialdata": {"revealed_states": [], "num_clicks_accrued": [0, 0, 0, 0, 0, 0, 0, 0, 0, 0, 0, 0, 0], "stateRewards": ["", -4, 8, 24, -24, 4, -8, -24, -24, -2, 8, -48, 24], "withholdReward": true, "trial_id": "mdp_240302100183", "block": "test3", "trialIndex": 66, "score": 31.75, "costs": -1.25, "simulationMode": [null, null, null], "rewards": [-4, 8, 24], "path": ["0", "0", "1", "2", "3"], "rt": [7431, 155, 85], "actions": ["up", "up", "right"], "actionTimes": [9468, 10129, 10726], "queries": {"click": {"state": {"target": ["11", "4", "8", "7", "3"], "time": [2970, 4079, 5445, 6626, 7665]}, "edge": {"target": [], "time": []}}, "mouseover": {"state": {"target": ["11", "4", "2", "7", "6", "8", "6", "7", "7", "3"], "time": [2547, 3629, 4645, 4763, 4945, 5045, 6027, 6110, 6310, 7293]}, "edge": {"target": [], "time": []}}, "mouseout": {"state": {"target": ["3", "0", "0", "0", "11", "4", "2", "7", "6", "8", "6", "7", "7"], "time": [732, 864, 1114, 2347, 3579, 4629, 4679, 4795, 4995, 6010, 6060, 6144, 7176]}, "edge": {"target": [], "time": []}}}, "displayed_time": "11.24", "trialTime": 11855, "trial_type": "mouselab-mdp", "trial_index": 75, "time_elapsed": 1238085, "internal_node_id": "0.0-4.0-5.0-4.0"}}, {"uniqueid": "w96349225:a60600942", "current_trial": 76, "dateTime": 1664465172645, "trialdata": {"revealed_states": [], "num_clicks_accrued": [0, 0, 0, 0, 0, 0, 0, 0, 0, 0, 0, 0, 0], "stateRewards": ["", 2, 4, 48, 48, -2, 4, 48, -24, -4, 8, -48, 48], "withholdReward": true, "trial_id": "mdp_407586865939", "block": "test3", "trialIndex": 67, "score": 56.75, "costs": -0.25, "simulationMode": [null, null, null], "rewards": [-4, 8, 48], "path": ["0", "0", "9", "10", "12"], "rt": [1727, 50, 31], "actions": ["left", "left", "down"], "actionTimes": [3179, 3744, 4292], "queries": {"click": {"state": {"target": ["12"], "time": [2345]}, "edge": {"target": [], "time": []}}, "mouseover": {"state": {"target": ["0", "12"], "time": [1694, 1979]}, "edge": {"target": [], "time": []}}, "mouseout": {"state": {"target": ["3", "1", "0"], "time": [729, 879, 1729]}, "edge": {"target": [], "time": []}}}, "displayed_time": "10.45", "trialTime": 11054, "trial_type": "mouselab-mdp", "trial_index": 76, "time_elapsed": 1249193, "internal_node_id": "0.0-4.0-5.0-5.0"}}, {"uniqueid": "w96349225:a60600942", "current_trial": 77, "dateTime": 1664465184287, "trialdata": {"revealed_states": [], "num_clicks_accrued": [0, 0, 0, 0, 0, 0, 0, 0, 0, 0, 0, 0, 0], "stateRewards": ["", 4, 4, -24, -48, -4, 4, -48, 24, 4, -8, -48, 48], "withholdReward": false, "trial_id": "mdp_566768794366", "block": "test3", "trialIndex": 68, "score": 28, "costs": -1, "simulationMode": [null, null, null], "rewards": [-4, 4, 24], "path": ["0", "0", "5", "6", "8"], "rt": [7167, 164, 105], "actions": ["right", "right", "down"], "actionTimes": [8741, 9409, 10032], "queries": {"click": {"state": {"target": ["11", "3", "4", "8"], "time": [2546, 5150, 6247, 7861]}, "edge": {"target": [], "time": []}}, "mouseover": {"state": {"target": ["11", "2", "3", "2", "4", "7", "8"], "time": [2200, 4447, 4497, 5747, 5864, 6897, 7481]}, "edge": {"target": [], "time": []}}, "mouseout": {"state": {"target": ["12", "0", "11", "2", "3", "2", "4", "7"], "time": [768, 1267, 4366, 4464, 5714, 5780, 6797, 7129]}, "edge": {"target": [], "time": []}}}, "displayed_time": "10.54", "trialTime": 11593, "trial_type": "mouselab-mdp", "trial_index": 77, "time_elapsed": 1260835, "internal_node_id": "0.0-4.0-5.0-6.0"}}, {"uniqueid": "w96349225:a60600942", "current_trial": 78, "dateTime": 1664465195501, "trialdata": {"revealed_states": [], "num_clicks_accrued": [0, 0, 0, 0, 0, 0, 0, 0, 0, 0, 0, 0, 0], "stateRewards": ["", -2, 4, -24, 48, 4, -8, 48, -48, 2, -8, 48, 24], "withholdReward": true, "trial_id": "mdp_501111216502", "block": "test3", "trialIndex": 69, "score": 54.5, "costs": -0.5, "simulationMode": [null, null, null], "rewards": [-2, 4, 48], "path": ["0", "0", "1", "2", "4"], "rt": [4646, 113, 79], "actions": ["up", "up", "left"], "actionTimes": [6118, 6740, 7325], "queries": {"click": {"state": {"target": ["3", "4"], "time": [3066, 5164]}, "edge": {"target": [], "time": []}}, "mouseover": {"state": {"target": ["1", "3", "2", "4", "4"], "time": [2414, 2680, 3779, 3862, 4779]}, "edge": {"target": [], "time": []}}, "mouseout": {"state": {"target": ["8", "0", "1", "3", "2", "4"], "time": [865, 1048, 2447, 3763, 3829, 4030]}, "edge": {"target": [], "time": []}}}, "displayed_time": "10.47", "trialTime": 11164, "trial_type": "mouselab-mdp", "trial_index": 78, "time_elapsed": 1272049, "internal_node_id": "0.0-4.0-5.0-7.0"}}, {"uniqueid": "w96349225:a60600942", "current_trial": 79, "dateTime": 1664465205905, "trialdata": {"revealed_states": [], "num_clicks_accrued": [0, 0, 0, 0, 0, 0, 0, 0, 0, 0, 0, 0, 0], "stateRewards": ["", -2, 8, 48, 24, 2, -4, 48, -48, 2, 8, 24, -24], "withholdReward": false, "trial_id": "mdp_176207245985", "block": "test3", "trialIndex": 70, "score": 50.75, "costs": -0.25, "simulationMode": [null, null, null], "rewards": [2, -4, 48], "path": ["0", "0", "5", "6", "7"], "rt": [1833, 78, 207], "actions": ["right", "right", "up"], "actionTimes": [3352, 3949, 4660], "queries": {"click": {"state": {"target": ["7"], "time": [2487]}, "edge": {"target": [], "time": []}}, "mouseover": {"state": {"target": ["5", "7"], "time": [1906, 2022]}, "edge": {"target": [], "time": []}}, "mouseout": {"state": {"target": ["4", "0", "5"], "time": [840, 1889, 1923]}, "edge": {"target": [], "time": []}}}, "displayed_time": "9.52", "trialTime": 10351, "trial_type": "mouselab-mdp", "trial_index": 79, "time_elapsed": 1282452, "internal_node_id": "0.0-4.0-5.0-8.0"}}, {"uniqueid": "w96349225:a60600942", "current_trial": 80, "dateTime": 1664465216288, "trialdata": {"revealed_states": [], "num_clicks_accrued": [0, 0, 0, 0, 0, 0, 0, 0, 0, 0, 0, 0, 0], "stateRewards": ["", 2, 4, 24, 48, -2, 8, 24, -24, -4, -4, 48, 48], "withholdReward": true, "trial_id": "mdp_753439303214", "block": "test3", "trialIndex": 71, "score": 44.75, "costs": -0.25, "simulationMode": [null, null, null], "rewards": [-4, -4, 48], "path": ["0", "0", "9", "10", "11"], "rt": [2453, 93, 273], "actions": ["left", "left", "up"], "actionTimes": [4120, 4730, 5510], "queries": {"click": {"state": {"target": ["11"], "time": [3057]}, "edge": {"target": [], "time": []}}, "mouseover": {"state": {"target": ["1", "11"], "time": [2373, 2689]}, "edge": {"target": [], "time": []}}, "mouseout": {"state": {"target": ["7", "1"], "time": [956, 2439]}, "edge": {"target": [], "time": []}}}, "displayed_time": "9.67", "trialTime": 10327, "trial_type": "mouselab-mdp", "trial_index": 80, "time_elapsed": 1292836, "internal_node_id": "0.0-4.0-5.0-9.0"}}, {"uniqueid": "w96349225:a60600942", "current_trial": 81, "dateTime": 1664465227418, "trialdata": {"revealed_states": [], "num_clicks_accrued": [0, 0, 0, 0, 0, 0, 0, 0, 0, 0, 0, 0, 0], "stateRewards": ["", -2, -4, -24, -48, 2, -8, -24, -24, 4, -8, 48, 48], "withholdReward": false, "trial_id": "mdp_950599994674", "block": "test3", "trialIndex": 72, "score": 48.5, "costs": -0.5, "simulationMode": [null, null, null], "rewards": [4, -8, 48], "path": ["0", "0", "9", "10", "11"], "rt": [4655, 100, 110], "actions": ["left", "left", "up"], "actionTimes": [6163, 6766, 7392], "queries": {"click": {"state": {"target": ["3", "11"], "time": [2481, 5092]}, "edge": {"target": [], "time": []}}, "mouseover": {"state": {"target": ["3", "2", "4", "11"], "time": [2035, 3084, 3201, 4710]}, "edge": {"target": [], "time": []}}, "mouseout": {"state": {"target": ["11", "3", "2", "4"], "time": [770, 3052, 3134, 3351]}, "edge": {"target": [], "time": []}}}, "displayed_time": "10.51", "trialTime": 11079, "trial_type": "mouselab-mdp", "trial_index": 81, "time_elapsed": 1303966, "internal_node_id": "0.0-4.0-5.0-10.0"}}, {"uniqueid": "w96349225:a60600942", "current_trial": 82, "dateTime": 1664465237701, "trialdata": {"revealed_states": [], "num_clicks_accrued": [0, 0, 0, 0, 0, 0, 0, 0, 0, 0, 0, 0, 0], "stateRewards": ["", -2, 8, -48, 48, -4, 8, -24, 24, 4, -4, 24, -48], "withholdReward": true, "trial_id": "mdp_904238083902", "block": "test3", "trialIndex": 73, "score": 32.75, "costs": -0.25, "simulationMode": [null, null, null], "rewards": [-4, 8, 24], "path": ["0", "0", "5", "6", "8"], "rt": [2053, 72, 15], "actions": ["right", "right", "down"], "actionTimes": [3682, 4271, 4796], "queries": {"click": {"state": {"target": ["8"], "time": [2659]}, "edge": {"target": [], "time": []}}, "mouseover": {"state": {"target": ["0", "8"], "time": [2034, 2169]}, "edge": {"target": [], "time": []}}, "mouseout": {"state": {"target": ["11", "0", "0", "0"], "time": [852, 1068, 1309, 2050]}, "edge": {"target": [], "time": []}}}, "displayed_time": "9.63", "trialTime": 10236, "trial_type": "mouselab-mdp", "trial_index": 82, "time_elapsed": 1314249, "internal_node_id": "0.0-4.0-5.0-11.0"}}, {"uniqueid": "w96349225:a60600942", "current_trial": 83, "dateTime": 1664465249013, "trialdata": {"revealed_states": [], "num_clicks_accrued": [0, 0, 0, 0, 0, 0, 0, 0, 0, 0, 0, 0, 0], "stateRewards": ["", 4, -4, 24, 48, 4, 8, -24, -24, -2, 4, 48, 48], "withholdReward": false, "trial_id": "mdp_624998450453", "block": "test3", "trialIndex": 74, "score": 54.75, "costs": -0.25, "simulationMode": [null, null, null], "rewards": [-2, 4, 48], "path": ["0", "0", "9", "10", "12"], "rt": [2145, 54, 494], "actions": ["left", "left", "down"], "actionTimes": [3504, 4073, 5080], "queries": {"click": {"state": {"target": ["12"], "time": [2530]}, "edge": {"target": [], "time": []}}, "mouseover": {"state": {"target": ["12"], "time": [2070]}, "edge": {"target": [], "time": []}}, "mouseout": {"state": {"target": ["8", "0"], "time": [705, 1771]}, "edge": {"target": [], "time": []}}}, "displayed_time": "10.36", "trialTime": 11260, "trial_type": "mouselab-mdp", "trial_index": 83, "time_elapsed": 1325561, "internal_node_id": "0.0-4.0-5.0-12.0"}}, {"uniqueid": "w96349225:a60600942", "current_trial": 84, "dateTime": 1664465260693, "trialdata": {"revealed_states": [], "num_clicks_accrued": [0, 0, 0, 0, 0, 0, 0, 0, 0, 0, 0, 0, 0], "stateRewards": ["", 2, 4, 48, -48, 2, -4, 48, 24, -2, -8, -24, 48], "withholdReward": true, "trial_id": "mdp_962424406744", "block": "test3", "trialIndex": 75, "score": 58.75, "costs": -0.25, "simulationMode": [null, null, null], "rewards": [2, 4, 48], "path": ["0", "0", "1", "2", "3"], "rt": [2048, 118, 163], "actions": ["up", "up", "right"], "actionTimes": [3435, 4066, 4743], "queries": {"click": {"state": {"target": ["3"], "time": [2509]}, "edge": {"target": [], "time": []}}, "mouseover": {"state": {"target": ["3"], "time": [2015]}, "edge": {"target": [], "time": []}}, "mouseout": {"state": {"target": ["12", "0"], "time": [701, 1765]}, "edge": {"target": [], "time": []}}}, "displayed_time": "9.39", "trialTime": 11628, "trial_type": "mouselab-mdp", "trial_index": 84, "time_elapsed": 1337241, "internal_node_id": "0.0-4.0-5.0-13.0"}}, {"uniqueid": "w96349225:a60600942", "current_trial": 85, "dateTime": 1664465271578, "trialdata": {"revealed_states": [], "num_clicks_accrued": [0, 0, 0, 0, 0, 0, 0, 0, 0, 0, 0, 0, 0], "stateRewards": ["", -2, 4, -48, 24, -4, 8, 48, 24, -2, 4, -48, -24], "withholdReward": true, "trial_id": "mdp_740882974347", "block": "test3", "trialIndex": 76, "score": 30.75, "costs": -0.25, "simulationMode": [null, null, null], "rewards": [-2, 4, 24], "path": ["0", "0", "1", "2", "4"], "rt": [2125, 104, 96], "actions": ["up", "up", "left"], "actionTimes": [3886, 4494, 5102], "queries": {"click": {"state": {"target": ["4"], "time": [2949]}, "edge": {"target": [], "time": []}}, "mouseover": {"state": {"target": ["4"], "time": [2574]}, "edge": {"target": [], "time": []}}, "mouseout": {"state": {"target": ["3", "1", "0"], "time": [1043, 1126, 2125]}, "edge": {"target": [], "time": []}}}, "displayed_time": "9.76", "trialTime": 10831, "trial_type": "mouselab-mdp", "trial_index": 85, "time_elapsed": 1348126, "internal_node_id": "0.0-4.0-5.0-14.0"}}, {"uniqueid": "w96349225:a60600942", "current_trial": 86, "dateTime": 1664465283901, "trialdata": {"revealed_states": [], "num_clicks_accrued": [0, 0, 0, 0, 0, 0, 0, 0, 0, 0, 0, 0, 0], "stateRewards": ["", -2, -8, 24, -24, 4, -8, 48, 48, -4, -8, -24, -48], "withholdReward": false, "trial_id": "mdp_286767261523", "block": "test3", "trialIndex": 77, "score": 48.25, "costs": -0.75, "simulationMode": [null, null, null], "rewards": [4, -8, 48], "path": ["0", "0", "5", "6", "7"], "rt": [4657, 59, 109], "actions": ["right", "right", "up"], "actionTimes": [6817, 7386, 8003], "queries": {"click": {"state": {"target": ["11", "12", "7"], "time": [3505, 4979, 6097]}, "edge": {"target": [], "time": []}}, "mouseover": {"state": {"target": ["9", "11", "10", "12", "12", "9", "1", "7"], "time": [2698, 3047, 4147, 4180, 4496, 5445, 5463, 5806]}, "edge": {"target": [], "time": []}}, "mouseout": {"state": {"target": ["4", "1", "9", "11", "10", "12", "12", "9", "1", "7", "7"], "time": [1532, 1682, 2798, 4129, 4163, 4247, 5429, 5463, 5478, 11861, 11890]}, "edge": {"target": [], "time": []}}}, "displayed_time": "11.16", "trialTime": 12270, "trial_type": "mouselab-mdp", "trial_index": 86, "time_elapsed": 1360449, "internal_node_id": "0.0-4.0-5.0-15.0"}}, {"uniqueid": "w96349225:a60600942", "current_trial": 87, "dateTime": 1664465293803, "trialdata": {"revealed_states": [], "num_clicks_accrued": [0, 0, 0, 0, 0, 0, 0, 0, 0, 0, 0, 0, 0], "stateRewards": ["", 2, 4, 48, -48, 2, 4, 24, -24, 2, -4, -24, -48], "withholdReward": true, "trial_id": "mdp_706591889062", "block": "test3", "trialIndex": 78, "score": 58.75, "costs": -0.25, "simulationMode": [null, null, null], "rewards": [2, 4, 48], "path": ["0", "0", "1", "2", "3"], "rt": [2084, 32, 140], "actions": ["up", "up", "right"], "actionTimes": [3455, 4004, 4679], "queries": {"click": {"state": {"target": ["3"], "time": [2607]}, "edge": {"target": [], "time": []}}, "mouseover": {"state": {"target": ["3"], "time": [2174]}, "edge": {"target": [], "time": []}}, "mouseout": {"state": {"target": ["0"], "time": [1073]}, "edge": {"target": [], "time": []}}}, "displayed_time": "9.37", "trialTime": 9841, "trial_type": "mouselab-mdp", "trial_index": 87, "time_elapsed": 1370351, "internal_node_id": "0.0-4.0-5.0-16.0"}}, {"uniqueid": "w96349225:a60600942", "current_trial": 88, "dateTime": 1664465306327, "trialdata": {"revealed_states": [], "num_clicks_accrued": [0, 0, 0, 0, 0, 0, 0, 0, 0, 0, 0, 0, 0], "stateRewards": ["", 2, 8, -24, -48, -4, 8, -48, -48, -2, -8, -24, -24], "withholdReward": true, "trial_id": "mdp_978177451072", "block": "test3", "trialIndex": 79, "score": -40.25, "costs": -1.25, "simulationMode": [null, null, null], "rewards": [-4, 8, -48], "path": ["0", "0", "5", "6", "8"], "rt": [7379, 151, 107], "actions": ["right", "right", "down"], "actionTimes": [9697, 10365, 10987], "queries": {"click": {"state": {"target": ["4", "11", "12", "7", "3"], "time": [3279, 4494, 5783, 6971, 8048]}, "edge": {"target": [], "time": []}}, "mouseover": {"state": {"target": ["4", "11", "10", "12", "9", "1", "7", "3", "6", "8"], "time": [2937, 3985, 5119, 5352, 6251, 6283, 6633, 7633, 8732, 8982]}, "edge": {"target": [], "time": []}}, "mouseout": {"state": {"target": ["3", "1", "0", "0", "0", "4", "11", "10", "12", "9", "1", "7", "3", "6"], "time": [855, 905, 921, 1405, 2670, 3869, 5087, 5201, 6227, 6268, 6301, 7450, 8649, 8815]}, "edge": {"target": [], "time": []}}}, "displayed_time": "11.50", "trialTime": 12470, "trial_type": "mouselab-mdp", "trial_index": 88, "time_elapsed": 1382875, "internal_node_id": "0.0-4.0-5.0-17.0"}}, {"uniqueid": "w96349225:a60600942", "current_trial": 89, "dateTime": 1664465317989, "trialdata": {"revealed_states": [], "num_clicks_accrued": [0, 0, 0, 0, 0, 0, 0, 0, 0, 0, 0, 0, 0], "stateRewards": ["", -4, 8, -24, 48, 2, -8, 24, 48, 2, -8, -24, -48], "withholdReward": true, "trial_id": "mdp_493778446445", "block": "test3", "trialIndex": 80, "score": 56.75, "costs": -0.25, "simulationMode": [null, null, null], "rewards": [-4, 8, 48], "path": ["0", "0", "1", "2", "4"], "rt": [1924, 69, 170], "actions": ["up", "up", "left"], "actionTimes": [3770, 4355, 5039], "queries": {"click": {"state": {"target": ["4"], "time": [2857]}, "edge": {"target": [], "time": []}}, "mouseover": {"state": {"target": ["4"], "time": [2370]}, "edge": {"target": [], "time": []}}, "mouseout": {"state": {"target": ["8", "0"], "time": [1054, 1138]}, "edge": {"target": [], "time": []}}}, "displayed_time": "10.85", "trialTime": 11608, "trial_type": "mouselab-mdp", "trial_index": 89, "time_elapsed": 1394536, "internal_node_id": "0.0-4.0-5.0-18.0"}}, {"uniqueid": "w96349225:a60600942", "current_trial": 90, "dateTime": 1664465328828, "trialdata": {"revealed_states": [], "num_clicks_accrued": [0, 0, 0, 0, 0, 0, 0, 0, 0, 0, 0, 0, 0], "stateRewards": ["", -4, -4, -48, -24, 2, 8, 24, -48, 4, 4, 48, 48], "withholdReward": true, "trial_id": "mdp_693501840209", "block": "test3", "trialIndex": 81, "score": 60.75, "costs": -0.25, "simulationMode": [null, null, null], "rewards": [4, 4, 48], "path": ["0", "0", "9", "10", "11"], "rt": [3060, 68, 115], "actions": ["left", "left", "up"], "actionTimes": [4564, 5145, 5775], "queries": {"click": {"state": {"target": ["11"], "time": [3397]}, "edge": {"target": [], "time": []}}, "mouseover": {"state": {"target": ["11"], "time": [2671]}, "edge": {"target": [], "time": []}}, "mouseout": {"state": {"target": ["4", "0"], "time": [697, 2213]}, "edge": {"target": [], "time": []}}}, "displayed_time": "9.51", "trialTime": 10783, "trial_type": "mouselab-mdp", "trial_index": 90, "time_elapsed": 1405376, "internal_node_id": "0.0-4.0-5.0-19.0"}}, {"uniqueid": "w96349225:a60600942", "current_trial": 91, "dateTime": 1664465341553, "trialdata": {"revealed_states": [], "num_clicks_accrued": [0, 0, 0, 0, 0, 0, 0, 0, 0, 0, 0, 0, 0], "stateRewards": ["", -2, -4, -24, -48, -4, -8, -48, 24, -4, -8, -24, -48], "withholdReward": true, "trial_id": "mdp_475782454549", "block": "test3", "trialIndex": 82, "score": 16.5, "costs": -0.5, "simulationMode": [null, null, null], "rewards": [-4, -8, 24], "path": ["0", "0", "5", "6", "8"], "rt": [4372, 326, 469], "actions": ["right", "right", "down"], "actionTimes": [5964, 6805, 7781], "queries": {"click": {"state": {"target": ["7", "8"], "time": [2688, 4672]}, "edge": {"target": [], "time": []}}, "mouseover": {"state": {"target": ["7", "6", "8", "8"], "time": [2232, 3282, 3383, 4263]}, "edge": {"target": [], "time": []}}, "mouseout": {"state": {"target": ["11", "7", "6", "8"], "time": [934, 3266, 3331, 3581]}, "edge": {"target": [], "time": []}}}, "displayed_time": "8.59", "trialTime": 12669, "trial_type": "mouselab-mdp", "trial_index": 91, "time_elapsed": 1418100, "internal_node_id": "0.0-4.0-5.0-20.0"}}, {"uniqueid": "w96349225:a60600942", "current_trial": 92, "dateTime": 1664465352080, "trialdata": {"revealed_states": [], "num_clicks_accrued": [0, 0, 0, 0, 0, 0, 0, 0, 0, 0, 0, 0, 0], "stateRewards": ["", 2, -4, 48, -24, 4, -8, -24, 48, -2, -4, 24, -48], "withholdReward": true, "trial_id": "mdp_357328205509", "block": "test3", "trialIndex": 83, "score": 50.5, "costs": -0.5, "simulationMode": [null, null, null], "rewards": [2, -4, 48], "path": ["0", "0", "1", "2", "3"], "rt": [3278, 370, 256], "actions": ["up", "up", "right"], "actionTimes": [4994, 5880, 6649], "queries": {"click": {"state": {"target": ["4", "3"], "time": [3008, 4028]}, "edge": {"target": [], "time": []}}, "mouseover": {"state": {"target": ["1", "4", "4", "2", "3"], "time": [2330, 2414, 2596, 3512, 3629]}, "edge": {"target": [], "time": []}}, "mouseout": {"state": {"target": ["8", "0", "1", "4", "4", "2"], "time": [764, 1128, 2347, 2430, 3479, 3563]}, "edge": {"target": [], "time": []}}}, "displayed_time": "9.72", "trialTime": 10472, "trial_type": "mouselab-mdp", "trial_index": 92, "time_elapsed": 1428628, "internal_node_id": "0.0-4.0-5.0-21.0"}}, {"uniqueid": "w96349225:a60600942", "current_trial": 93, "dateTime": 1664465361278, "trialdata": {"revealed_states": [], "num_clicks_accrued": [0, 0, 0, 0, 0, 0, 0, 0, 0, 0, 0, 0, 0], "stateRewards": ["", 2, 8, 48, -48, -2, -4, -24, 24, 4, -4, 48, -48], "withholdReward": true, "trial_id": "mdp_105734044587", "block": "test3", "trialIndex": 84, "score": 52.5, "costs": -0.5, "simulationMode": [null, null, null], "rewards": [4, -4, 48], "path": ["0", "0", "9", "10", "11"], "rt": [3387, 399, 572], "actions": ["left", "left", "up"], "actionTimes": [4750, 5653, 6759], "queries": {"click": {"state": {"target": ["12", "11"], "time": [2562, 3785]}, "edge": {"target": [], "time": []}}, "mouseover": {"state": {"target": ["0", "12", "11"], "time": [1893, 2174, 3372]}, "edge": {"target": [], "time": []}}, "mouseout": {"state": {"target": ["3", "1", "0", "12"], "time": [684, 775, 1907, 3061]}, "edge": {"target": [], "time": []}}}, "displayed_time": "8.36", "trialTime": 9138, "trial_type": "mouselab-mdp", "trial_index": 93, "time_elapsed": 1437826, "internal_node_id": "0.0-4.0-5.0-22.0"}}, {"uniqueid": "w96349225:a60600942", "current_trial": 94, "dateTime": 1664465373294, "trialdata": {"revealed_states": [], "num_clicks_accrued": [0, 0, 0, 0, 0, 0, 0, 0, 0, 0, 0, 0, 0], "stateRewards": ["", -2, 8, -48, 48, -4, -8, 24, 24, -2, -4, 48, -48], "withholdReward": true, "trial_id": "mdp_867247318592", "block": "test3", "trialIndex": 85, "score": 16.5, "costs": -0.5, "simulationMode": [null, null, null], "rewards": [-4, -8, 24], "path": 