{"condition": 1, "counterbalance": 0, "assignmentId": "a71644549", "workerId": "w94241674", "hitId": "h73032485", "currenttrial": 137, "bonus": 0, "data": [{"uniqueid": "w94241674:a71644549", "current_trial": 0, "dateTime": 1664368052386, "trialdata": {"success": true, "trial_type": "fullscreen", "trial_index": 0, "time_elapsed": 93471, "internal_node_id": "0.0-0.0"}}, {"uniqueid": "w94241674:a71644549", "current_trial": 1, "dateTime": 1664368074510, "trialdata": {"view_history": [{"page_index": 0, "viewing_time": 22117}], "rt": 22119, "trial_id": "exp_instructions_no_distractor", "trial_type": "instructions", "trial_index": 1, "time_elapsed": 115598, "internal_node_id": "0.0-1.0"}}, {"uniqueid": "w94241674:a71644549", "current_trial": 2, "dateTime": 1664368077780, "trialdata": {"success": true, "trial_type": "fullscreen", "trial_index": 2, "time_elapsed": 118868, "internal_node_id": "0.0-2.0-0.0"}}, {"uniqueid": "w94241674:a71644549", "current_trial": 3, "dateTime": 1664368182893, "trialdata": {"view_history": [{"page_index": 0, "viewing_time": 46860}, {"page_index": 1, "viewing_time": 24383}, {"page_index": 2, "viewing_time": 9783}, {"page_index": 3, "viewing_time": 6201}, {"page_index": 4, "viewing_time": 17883}], "rt": 105111, "trial_id": "mouselab_instructions_1", "trial_type": "instructions", "trial_index": 3, "time_elapsed": 223980, "internal_node_id": "0.0-2.0-1.0"}}, {"uniqueid": "w94241674:a71644549", "current_trial": 4, "dateTime": 1664368192905, "trialdata": {"revealed_states": [], "num_clicks_accrued": [0, 0, 0, 0, 0, 0, 0, 0, 0, 0, 0, 0, 0], "stateRewards": ["", 10, 10, -10, -10, 10, 10, 10, -10, -10, 10, -10, 10], "withholdReward": false, "trial_id": "practice_1", "block": "test", "trialIndex": 0, "score": 31.25, "costs": -0.75, "simulationMode": [null, null, null], "rewards": [10, 10, 10], "path": ["0", "0", "5", "6", "7"], "rt": [5028, 198, 138], "actions": ["right", "right", "up"], "actionTimes": [6706, 7411, 8067], "queries": {"click": {"state": {"target": ["5", "7", "6"], "time": [2786, 4367, 5201]}, "edge": {"target": [], "time": []}}, "mouseover": {"state": {"target": ["5", "1", "6", "7", "6"], "time": [2327, 3228, 3894, 4144, 4811]}, "edge": {"target": [], "time": []}}, "mouseout": {"state": {"target": ["0", "0", "0", "5", "1", "6", "7", "6", "5", "5"], "time": [911, 1177, 2296, 3144, 3712, 3977, 4777, 5561, 5761, 5944]}, "edge": {"target": [], "time": []}}}, "displayed_time": "8.58", "trialTime": 9927, "trial_type": "mouselab-mdp", "trial_index": 4, "time_elapsed": 233992, "internal_node_id": "0.0-2.0-2.0-0.0"}}, {"uniqueid": "w94241674:a71644549", "current_trial": 5, "dateTime": 1664368207868, "trialdata": {"revealed_states": [], "num_clicks_accrued": [0, 0, 0, 0, 0, 0, 0, 0, 0, 0, 0, 0, 0], "stateRewards": ["", -10, -10, -10, 10, 10, -10, 10, 10, -10, 10, -10, 10], "withholdReward": false, "trial_id": "practice_2", "block": "test", "trialIndex": 1, "score": 10.5, "costs": -1.5, "simulationMode": [null, null, null], "rewards": [10, -10, 10], "path": ["0", "0", "5", "6", "8"], "rt": [9774, 494, 324], "actions": ["right", "right", "down"], "actionTimes": [11351, 12345, 13176], "queries": {"click": {"state": {"target": ["1", "9", "5", "7", "6", "8"], "time": [2790, 3589, 4456, 5673, 6905, 7841]}, "edge": {"target": [], "time": []}}, "mouseover": {"state": {"target": ["1", "9", "0", "5", "6", "7", "6", "8", "6", "8", "0", "0"], "time": [2467, 3483, 4067, 4115, 4932, 5448, 6050, 6283, 6799, 7583, 8899, 9250]}, "edge": {"target": [], "time": []}}, "mouseout": {"state": {"target": ["0", "1", "9", "0", "5", "6", "7", "6", "8", "6", "8", "5", "9", "9", "0", "0", "5", "10"], "time": [2350, 3083, 4066, 4099, 4916, 5416, 6016, 6099, 6649, 7466, 8349, 8417, 8615, 8882, 8965, 9767, 9933, 14716]}, "edge": {"target": [], "time": []}}}, "displayed_time": "13.69", "trialTime": 14929, "trial_type": "mouselab-mdp", "trial_index": 5, "time_elapsed": 248956, "internal_node_id": "0.0-2.0-2.0-1.0"}}, {"uniqueid": "w94241674:a71644549", "current_trial": 6, "dateTime": 1664368268876, "trialdata": {"view_history": [{"page_index": 0, "viewing_time": 29988}, {"page_index": 1, "viewing_time": 25083}, {"page_index": 2, "viewing_time": 5933}], "rt": 61004, "trial_id": "mouselab_instructions_2_scarce", "trial_type": "instructions", "trial_index": 6, "time_elapsed": 309964, "internal_node_id": "0.0-2.0-3.0"}}, {"uniqueid": "w94241674:a71644549", "current_trial": 7, "dateTime": 1664368301263, "trialdata": {"rt": 32379, "response": {"Q0": "$-48 to $48", "Q1": "The cost is always $0.25.", "Q2": "The better I perform the higher my bonus will be.", "Q3": "No, the amount of cash at each node of the web may be different each time.", "Q4": "The values of the nodes walked through from start to finish.", "Q5": "No, the spider might forget to count the money on some rounds."}, "question_order": [0, 1, 2, 3, 4, 5], "correct": {"Q0": "$-48 to $48", "Q1": "The cost is always $0.25.", "Q2": "The better I perform the higher my bonus will be.", "Q3": "No, the amount of cash at each node of the web may be different each time.", "Q4": "The values of the nodes walked through from start to finish.", "Q5": "No, the spider might forget to count the money on some rounds."}, "trial_id": "mouselab_quiz_scarce", "trial_type": "survey-multi-choice", "trial_index": 7, "time_elapsed": 342351, "internal_node_id": "0.0-2.0-4.0"}}, {"uniqueid": "w94241674:a71644549", "current_trial": 8, "dateTime": 1664368312087, "trialdata": {"rt": 10812, "stimulus": "\n<h1> Get ready to start the game! </h1>\n\nThank you for reading the instructions. Get ready start with the first of 4 block(s) of this game.\n<br><br>\nIn this first block, you will complete 30 rounds of this game before moving on.\n<br><br>\nRemember, the more money the spider gets, the bigger your bonus will be!\n<br><br>\n<div style='text-align: center;'>Press <code>space</code> to begin.</div>\n\n<br><br>\n(If, at any point, the <code>space</code> key does not take you to the next page, click once on the text and try again.)", "response": " ", "trial_id": "mdp_ready_1", "trial_type": "html-keyboard-response", "trial_index": 8, "time_elapsed": 353175, "internal_node_id": "0.0-4.0-0.0"}}, {"uniqueid": "w94241674:a71644549", "current_trial": 9, "dateTime": 1664368326888, "trialdata": {"revealed_states": [], "num_clicks_accrued": [0, 0, 0, 0, 0, 0, 0, 0, 0, 0, 0, 0, 0], "stateRewards": ["", 2, 4, -48, 24, -4, 4, -24, 48, -2, -8, -48, 48], "withholdReward": true, "trial_id": "mdp_424193661731", "block": "test1", "trialIndex": 2, "score": 33.75, "costs": -1.25, "simulationMode": [null, null, null], "rewards": [2, 4, 24], "path": ["0", "0", "1", "2", "4"], "rt": [6041, 324, 244], "actions": ["up", "up", "left"], "actionTimes": [8953, 9793, 10546], "queries": {"click": {"state": {"target": ["1", "9", "5", "3", "4"], "time": [3590, 4375, 5057, 6474, 7224]}, "edge": {"target": [], "time": []}}, "mouseover": {"state": {"target": ["1", "9", "5", "7", "7", "4", "4", "2", "3", "3", "2", "4", "2"], "time": [3351, 3950, 4750, 5450, 5717, 5817, 5933, 6001, 6117, 6302, 6817, 6967, 7750]}, "edge": {"target": [], "time": []}}, "mouseout": {"state": {"target": ["0", "0", "1", "9", "5", "7", "7", "1", "4", "4", "2", "3", "3", "2", "4", "2", "1"], "time": [2133, 3168, 3901, 4668, 5434, 5467, 5733, 5784, 5850, 5984, 6083, 6151, 6784, 6916, 7600, 8050, 8434]}, "edge": {"target": [], "time": []}}}, "displayed_time": "11.92", "trialTime": 14767, "trial_type": "mouselab-mdp", "trial_index": 9, "time_elapsed": 367976, "internal_node_id": "0.0-4.0-1.0-0.0"}}, {"uniqueid": "w94241674:a71644549", "current_trial": 10, "dateTime": 1664368342869, "trialdata": {"revealed_states": [], "num_clicks_accrued": [0, 0, 0, 0, 0, 0, 0, 0, 0, 0, 0, 0, 0], "stateRewards": ["", -2, 4, -24, -48, -4, 8, -24, 48, 4, 4, -48, 24], "withholdReward": true, "trial_id": "mdp_341117665701", "block": "test1", "trialIndex": 3, "score": 35.5, "costs": -1.5, "simulationMode": [null, null, null], "rewards": [4, 4, 24], "path": ["0", "0", "9", "10", "12"], "rt": [5361, 125, 141], "actions": ["left", "left", "down"], "actionTimes": [7259, 7893, 8541], "queries": {"click": {"state": {"target": ["1", "9", "5", "11", "12", "10"], "time": [2671, 3337, 3971, 4955, 5623, 6387]}, "edge": {"target": [], "time": []}}, "mouseover": {"state": {"target": ["1", "1", "9", "0", "5", "10", "11", "10", "12", "10"], "time": [2231, 2530, 3147, 3564, 3680, 4430, 4797, 5297, 5499, 5981]}, "edge": {"target": [], "time": []}}, "mouseout": {"state": {"target": ["1", "0", "0", "1", "1", "9", "0", "5", "9", "10", "11", "10", "12", "10"], "time": [1030, 1646, 2151, 2346, 3064, 3530, 3647, 4247, 4381, 4563, 5248, 5365, 5949, 6714]}, "edge": {"target": [], "time": []}}}, "displayed_time": "10.90", "trialTime": 15945, "trial_type": "mouselab-mdp", "trial_index": 10, "time_elapsed": 383957, "internal_node_id": "0.0-4.0-1.0-1.0"}}, {"uniqueid": "w94241674:a71644549", "current_trial": 11, "dateTime": 1664368355802, "trialdata": {"revealed_states": [], "num_clicks_accrued": [0, 0, 0, 0, 0, 0, 0, 0, 0, 0, 0, 0, 0], "stateRewards": ["", -2, -4, -48, -48, 4, -4, 48, 24, 4, 4, 48, 48], "withholdReward": true, "trial_id": "mdp_950960813932", "block": "test1", "trialIndex": 4, "score": 51.75, "costs": -1.25, "simulationMode": [null, null, null], "rewards": [4, -4, 48], "path": ["0", "0", "5", "6", "7"], "rt": [7084, 228, 176], "actions": ["right", "right", "up"], "actionTimes": [8565, 9313, 9994], "queries": {"click": {"state": {"target": ["1", "9", "5", "7", "6"], "time": [3440, 3991, 4790, 5989, 7539]}, "edge": {"target": [], "time": []}}, "mouseover": {"state": {"target": ["3", "1", "9", "0", "5", "6", "6", "5", "6", "7", "6", "8", "8", "6", "6"], "time": [2435, 3083, 3767, 4283, 4300, 4317, 4484, 4649, 5317, 5700, 6401, 6449, 6733, 7067, 7333]}, "edge": {"target": [], "time": []}}, "mouseout": {"state": {"target": ["1", "0", "0", "3", "1", "9", "0", "5", "6", "6", "5", "6", "7", "6", "8", "8", "6", "7", "6"], "time": [1134, 1383, 2267, 3050, 3684, 4266, 4300, 4316, 4367, 4617, 5301, 5649, 6400, 6417, 6533, 6817, 7083, 7300, 7817]}, "edge": {"target": [], "time": []}}}, "displayed_time": "10.50", "trialTime": 12897, "trial_type": "mouselab-mdp", "trial_index": 11, "time_elapsed": 396890, "internal_node_id": "0.0-4.0-1.0-2.0"}}, {"uniqueid": "w94241674:a71644549", "current_trial": 12, "dateTime": 1664368376436, "trialdata": {"revealed_states": [], "num_clicks_accrued": [0, 0, 0, 0, 0, 0, 0, 0, 0, 0, 0, 0, 0], "stateRewards": ["", -2, -4, -48, -48, -2, -8, 48, -48, 4, -8, -48, 24], "withholdReward": true, "trial_id": "mdp_468495641521", "block": "test1", "trialIndex": 5, "score": 40.25, "costs": -2.75, "simulationMode": [null, null, null], "rewards": [-2, -8, 48], "path": ["0", "0", "5", "6", "7"], "rt": [12251, 240, 361], "actions": ["right", "right", "up"], "actionTimes": [14881, 15626, 16497], "queries": {"click": {"state": {"target": ["1", "9", "5", "11", "12", "10", "4", "3", "7", "8", "6"], "time": [3908, 4524, 5074, 6573, 7257, 8306, 10192, 10808, 11474, 12107, 13124]}, "edge": {"target": [], "time": []}}, "mouseover": {"state": {"target": ["1", "9", "0", "5", "10", "11", "10", "12", "2", "4", "10", "4", "2", "3", "7", "6", "8", "6"], "time": [3716, 4317, 4766, 4816, 5633, 6399, 6966, 7049, 7651, 7784, 7967, 9917, 10518, 10568, 11200, 11817, 11884, 12784]}, "edge": {"target": [], "time": []}}, "mouseout": {"state": {"target": ["7", "0", "1", "9", "0", "5", "9", "10", "11", "10", "12", "2", "4", "10", "4", "2", "3", "7", "6", "8", "6", "5"], "time": [2000, 2450, 4233, 4733, 4800, 5449, 5550, 6316, 6916, 7017, 7567, 7701, 7884, 8584, 10501, 10551, 11101, 11801, 11850, 12467, 13501, 19884]}, "edge": {"target": [], "time": []}}}, "displayed_time": "17.00", "trialTime": 20598, "trial_type": "mouselab-mdp", "trial_index": 12, "time_elapsed": 417524, "internal_node_id": "0.0-4.0-1.0-3.0"}}, {"uniqueid": "w94241674:a71644549", "current_trial": 13, "dateTime": 1664368388582, "trialdata": {"revealed_states": [], "num_clicks_accrued": [0, 0, 0, 0, 0, 0, 0, 0, 0, 0, 0, 0, 0], "stateRewards": ["", -4, -8, -48, -48, 4, -8, 48, 48, 2, 8, 48, 24], "withholdReward": true, "trial_id": "mdp_880437222492", "block": "test1", "trialIndex": 6, "score": 47.75, "costs": -1.25, "simulationMode": [null, null, null], "rewards": [4, -8, 48], "path": ["0", "0", "5", "6", "7"], "rt": [7297, 307, 349], "actions": ["right", "right", "up"], "actionTimes": [8413, 9227, 10086], "queries": {"click": {"state": {"target": ["1", "9", "5", "7", "6"], "time": [2358, 2957, 3440, 5057, 6241]}, "edge": {"target": [], "time": []}}, "mouseover": {"state": {"target": ["1", "9", "0", "5", "0", "11", "11", "7", "7", "6", "8", "8", "6", "10", "12"], "time": [1985, 2783, 3152, 3268, 3818, 3900, 4302, 4568, 4934, 5367, 5401, 5751, 6051, 7551, 7733]}, "edge": {"target": [], "time": []}}, "mouseout": {"state": {"target": ["0", "1", "9", "0", "5", "0", "9", "11", "11", "7", "7", "6", "8", "8", "6", "5", "1", "10", "12"], "time": [651, 2684, 3134, 3184, 3802, 3834, 3868, 3918, 4384, 4601, 5353, 5384, 5468, 5884, 6950, 6984, 7251, 7568, 7768]}, "edge": {"target": [], "time": []}}}, "displayed_time": "10.60", "trialTime": 12111, "trial_type": "mouselab-mdp", "trial_index": 13, "time_elapsed": 429670, "internal_node_id": "0.0-4.0-1.0-4.0"}}, {"uniqueid": "w94241674:a71644549", "current_trial": 14, "dateTime": 1664368405104, "trialdata": {"revealed_states": [], "num_clicks_accrued": [0, 0, 0, 0, 0, 0, 0, 0, 0, 0, 0, 0, 0], "stateRewards": ["", -4, -8, 48, -48, 2, -4, 48, -24, 2, -8, -48, -48], "withholdReward": true, "trial_id": "mdp_624553692913", "block": "test1", "trialIndex": 7, "score": 48.25, "costs": -2.75, "simulationMode": [null, null, null], "rewards": [2, -4, 48], "path": ["0", "0", "5", "6", "7"], "rt": [11375, 236, 291], "actions": ["right", "right", "up"], "actionTimes": [13461, 14208, 15014], "queries": {"click": {"state": {"target": ["1", "9", "5", "7", "6", "8", "11", "12", "4", "3", "2"], "time": [3646, 4178, 4728, 5595, 6563, 7446, 8562, 9161, 10412, 11111, 12178]}, "edge": {"target": [], "time": []}}, "mouseover": {"state": {"target": ["1", "2", "1", "9", "0", "5", "7", "6", "8", "6", "8", "12", "10", "11", "10", "12", "2", "4", "2", "3", "2"], "time": [3071, 3288, 3487, 4005, 4371, 4437, 5421, 5854, 5937, 6354, 7338, 8088, 8305, 8439, 8922, 8972, 9789, 10098, 10738, 10971, 11955]}, "edge": {"target": [], "time": []}}, "mouseout": {"state": {"target": ["0", "1", "2", "1", "9", "0", "5", "7", "6", "8", "6", "8", "12", "10", "11", "10", "12", "2", "4", "2", "3", "7", "1", "2"], "time": [2021, 3254, 3387, 3921, 4354, 4405, 5172, 5837, 5904, 6321, 6972, 7822, 8171, 8371, 8857, 8939, 9571, 9805, 10657, 10922, 11540, 11671, 11755, 12472]}, "edge": {"target": [], "time": []}}}, "displayed_time": "15.52", "trialTime": 16488, "trial_type": "mouselab-mdp", "trial_index": 14, "time_elapsed": 446192, "internal_node_id": "0.0-4.0-1.0-5.0"}}, {"uniqueid": "w94241674:a71644549", "current_trial": 15, "dateTime": 1664368424254, "trialdata": {"revealed_states": [], "num_clicks_accrued": [0, 0, 0, 0, 0, 0, 0, 0, 0, 0, 0, 0, 0], "stateRewards": ["", -2, 8, 24, -48, -4, -8, -24, -48, -4, 8, -24, 48], "withholdReward": true, "trial_id": "mdp_464339499860", "block": "test1", "trialIndex": 8, "score": 55.25, "costs": -1.75, "simulationMode": [null, null, null], "rewards": [-4, 8, 48], "path": ["0", "0", "9", "10", "12"], "rt": [6965, 242, 483], "actions": ["left", "left", "down"], "actionTimes": [8783, 9544, 10536], "queries": {"click": {"state": {"target": ["9", "1", "5", "7", "8", "12", "10"], "time": [3091, 3524, 4056, 4956, 5523, 6657, 7540]}, "edge": {"target": [], "time": []}}, "mouseover": {"state": {"target": ["9", "1", "5", "7", "6", "8", "12", "12", "10", "11", "10"], "time": [2934, 3401, 3951, 4551, 5284, 5334, 5934, 6385, 6917, 7150, 7385]}, "edge": {"target": [], "time": []}}, "mouseout": {"state": {"target": ["7", "5", "0", "9", "1", "5", "7", "6", "8", "12", "12", "10", "11", "10", "12", "10", "11", "4", "2", "3"], "time": [584, 734, 1217, 3268, 3718, 4517, 5267, 5318, 5835, 6184, 6885, 7034, 7355, 7919, 15650, 16551, 17267, 17350, 17917, 18183]}, "edge": {"target": [], "time": []}}}, "displayed_time": "11.82", "trialTime": 19116, "trial_type": "mouselab-mdp", "trial_index": 15, "time_elapsed": 465342, "internal_node_id": "0.0-4.0-1.0-6.0"}}, {"uniqueid": "w94241674:a71644549", "current_trial": 16, "dateTime": 1664368437106, "trialdata": {"revealed_states": [], "num_clicks_accrued": [0, 0, 0, 0, 0, 0, 0, 0, 0, 0, 0, 0, 0], "stateRewards": ["", 2, -4, -48, -48, -2, -4, -24, -48, -2, 8, 24, 24], "withholdReward": true, "trial_id": "mdp_656069446729", "block": "test1", "trialIndex": 9, "score": 32.75, "costs": -2.25, "simulationMode": [null, null, null], "rewards": [-2, 8, 24], "path": ["0", "0", "9", "10", "11"], "rt": [8578, 379, 193], "actions": ["left", "left", "up"], "actionTimes": [9623, 10513, 11226], "queries": {"click": {"state": {"target": ["1", "9", "5", "3", "4", "11", "12", "7", "8"], "time": [1890, 2673, 3254, 3989, 4571, 5071, 5771, 7188, 7989]}, "edge": {"target": [], "time": []}}, "mouseover": {"state": {"target": ["1", "1", "9", "9", "0", "5", "7", "3", "2", "4", "11", "10", "12", "6", "7", "6", "8", "10", "10"], "time": [1448, 1549, 2215, 2532, 3015, 3083, 3632, 3815, 4350, 4383, 4866, 5332, 5398, 6281, 6858, 7598, 7883, 8466, 8914]}, "edge": {"target": [], "time": []}}, "mouseout": {"state": {"target": ["5", "1", "1", "9", "9", "0", "5", "7", "3", "2", "4", "11", "10", "12", "6", "7", "6", "8", "10", "10"], "time": [464, 1498, 2166, 2282, 2999, 3049, 3583, 3733, 4349, 4382, 4834, 5315, 5365, 6099, 6315, 7565, 7782, 8399, 8516, 8999]}, "edge": {"target": [], "time": []}}}, "displayed_time": "11.73", "trialTime": 12816, "trial_type": "mouselab-mdp", "trial_index": 16, "time_elapsed": 478194, "internal_node_id": "0.0-4.0-1.0-7.0"}}, {"uniqueid": "w94241674:a71644549", "current_trial": 17, "dateTime": 1664368447760, "trialdata": {"revealed_states": [], "num_clicks_accrued": [0, 0, 0, 0, 0, 0, 0, 0, 0, 0, 0, 0, 0], "stateRewards": ["", 4, -8, 24, 48, -2, -4, -48, 24, 2, 4, -48, -24], "withholdReward": true, "trial_id": "mdp_749974461966", "block": "test1", "trialIndex": 10, "score": 47.75, "costs": -1.25, "simulationMode": [null, null, null], "rewards": [4, -8, 48], "path": ["0", "0", "1", "2", "4"], "rt": [5477, 277, 473], "actions": ["up", "up", "left"], "actionTimes": [7006, 7791, 8771], "queries": {"click": {"state": {"target": ["1", "9", "5", "4", "3"], "time": [2502, 3037, 3554, 4337, 4870]}, "edge": {"target": [], "time": []}}, "mouseover": {"state": {"target": ["1", "9", "5", "2", "4", "2", "3", "2"], "time": [2296, 2863, 3430, 3979, 4197, 4613, 4679, 5363]}, "edge": {"target": [], "time": []}}, "mouseout": {"state": {"target": ["9", "0", "0", "1", "9", "5", "2", "4", "2", "3", "2", "3"], "time": [897, 1296, 2230, 2796, 3281, 3880, 4013, 4580, 4646, 5196, 6646, 6663]}, "edge": {"target": [], "time": []}}}, "displayed_time": "9.27", "trialTime": 10618, "trial_type": "mouselab-mdp", "trial_index": 17, "time_elapsed": 488848, "internal_node_id": "0.0-4.0-1.0-8.0"}}, {"uniqueid": "w94241674:a71644549", "current_trial": 18, "dateTime": 1664368461604, "trialdata": {"revealed_states": [], "num_clicks_accrued": [0, 0, 0, 0, 0, 0, 0, 0, 0, 0, 0, 0, 0], "stateRewards": ["", 4, 8, -24, 48, -2, -4, 24, -24, -2, 4, 24, 24], "withholdReward": true, "trial_id": "mdp_948713805479", "block": "test1", "trialIndex": 11, "score": 63.5, "costs": -1.5, "simulationMode": [null, null, null], "rewards": [4, 8, 48], "path": ["0", "0", "1", "2", "4"], "rt": [6749, 367, 367], "actions": ["up", "up", "left"], "actionTimes": [8224, 9080, 9964], "queries": {"click": {"state": {"target": ["1", "9", "5", "3", "4", "2"], "time": [2067, 2633, 3300, 4269, 4800, 7084]}, "edge": {"target": [], "time": []}}, "mouseover": {"state": {"target": ["1", "9", "5", "6", "5", "3", "2", "4", "11", "2", "2"], "time": [1913, 2478, 2845, 2978, 3212, 4145, 4528, 4728, 5345, 6544, 7011]}, "edge": {"target": [], "time": []}}, "mouseout": {"state": {"target": ["1", "9", "5", "6", "5", "3", "2", "4", "11", "1", "2", "2"], "time": [2378, 2795, 2878, 3061, 3662, 4495, 4578, 5244, 5361, 6362, 6595, 7428]}, "edge": {"target": [], "time": []}}}, "displayed_time": "11.48", "trialTime": 13810, "trial_type": "mouselab-mdp", "trial_index": 18, "time_elapsed": 502692, "internal_node_id": "0.0-4.0-1.0-9.0"}}, {"uniqueid": "w94241674:a71644549", "current_trial": 19, "dateTime": 1664368473551, "trialdata": {"revealed_states": [], "num_clicks_accrued": [0, 0, 0, 0, 0, 0, 0, 0, 0, 0, 0, 0, 0], "stateRewards": ["", 4, 4, -48, -24, -2, -4, 48, 24, -4, 4, 24, -48], "withholdReward": false, "trial_id": "mdp_617383046444", "block": "test1", "trialIndex": 12, "score": -11.75, "costs": -0.75, "simulationMode": [null, null, null], "rewards": [4, 4, -24], "path": ["0", "0", "1", "2", "4"], "rt": [2748, 2996, 356], "actions": ["up", "up", "left"], "actionTimes": [3894, 7398, 8274], "queries": {"click": {"state": {"target": ["1", "9", "5"], "time": [1790, 2324, 3006]}, "edge": {"target": [], "time": []}}, "mouseover": {"state": {"target": ["1", "9", "5", "5"], "time": [1666, 2184, 2567, 2850]}, "edge": {"target": [], "time": []}}, "mouseout": {"state": {"target": ["2", "1", "1", "9", "5", "5", "3", "2", "4", "4", "2", "2", "4", "2", "3"], "time": [700, 733, 2066, 2533, 2634, 3366, 4468, 4517, 4834, 5617, 5700, 5900, 6634, 6666, 6684]}, "edge": {"target": [], "time": []}}}, "displayed_time": "9.15", "trialTime": 11913, "trial_type": "mouselab-mdp", "trial_index": 19, "time_elapsed": 514639, "internal_node_id": "0.0-4.0-1.0-10.0"}}, {"uniqueid": "w94241674:a71644549", "current_trial": 20, "dateTime": 1664368486044, "trialdata": {"revealed_states": [], "num_clicks_accrued": [0, 0, 0, 0, 0, 0, 0, 0, 0, 0, 0, 0, 0], "stateRewards": ["", 4, -8, 48, -24, -4, 4, 24, 24, -2, -4, 24, 24], "withholdReward": true, "trial_id": "mdp_542168715839", "block": "test1", "trialIndex": 13, "score": 47.5, "costs": -1.5, "simulationMode": [null, null, null], "rewards": [4, -8, 48], "path": ["0", "0", "1", "2", "3"], "rt": [6160, 202, 356], "actions": ["up", "up", "right"], "actionTimes": [7144, 7858, 8728], "queries": {"click": {"state": {"target": ["1", "9", "5", "2", "4", "3"], "time": [1658, 2310, 2809, 3674, 4659, 5775]}, "edge": {"target": [], "time": []}}, "mouseover": {"state": {"target": ["1", "9", "0", "5", "2", "3", "4", "3", "7", "3", "7"], "time": [1586, 2136, 2518, 2603, 3403, 4053, 4503, 5018, 5504, 5618, 6353]}, "edge": {"target": [], "time": []}}, "mouseout": {"state": {"target": ["0", "1", "9", "0", "5", "1", "2", "3", "2", "4", "2", "3", "7", "3", "7", "1", "1", "0", "0"], "time": [1351, 2035, 2502, 2552, 3169, 3353, 4035, 4069, 4303, 4936, 4985, 5103, 5586, 6020, 6520, 11553, 11669, 11752, 12086]}, "edge": {"target": [], "time": []}}}, "displayed_time": "9.99", "trialTime": 12458, "trial_type": "mouselab-mdp", "trial_index": 20, "time_elapsed": 527132, "internal_node_id": "0.0-4.0-1.0-11.0"}}, {"uniqueid": "w94241674:a71644549", "current_trial": 21, "dateTime": 1664368497569, "trialdata": {"revealed_states": [], "num_clicks_accrued": [0, 0, 0, 0, 0, 0, 0, 0, 0, 0, 0, 0, 0], "stateRewards": ["", 2, 8, 24, 24, 2, -8, -24, -48, 2, 8, -48, 48], "withholdReward": false, "trial_id": "mdp_745175888812", "block": "test1", "trialIndex": 14, "score": 62, "costs": -1, "simulationMode": [null, null, null], "rewards": [2, 8, 48], "path": ["0", "0", "9", "10", "12"], "rt": [6524, 172, 117], "actions": ["left", "left", "down"], "actionTimes": [7430, 8113, 8742], "queries": {"click": {"state": {"target": ["3", "4", "11", "12"], "time": [2564, 3498, 5049, 5665]}, "edge": {"target": [], "time": []}}, "mouseover": {"state": {"target": ["0", "3", "2", "4", "4", "11", "10", "12", "8", "6", "5", "0", "8"], "time": [1309, 2225, 2959, 3008, 3341, 4941, 5391, 5474, 5991, 6508, 6608, 6942, 7057]}, "edge": {"target": [], "time": []}}, "mouseout": {"state": {"target": ["0", "0", "3", "2", "4", "4", "11", "10", "12", "8", "6", "5", "0", "8"], "time": [723, 1408, 2942, 2991, 3125, 3925, 5374, 5425, 5875, 6007, 6558, 6658, 6975, 11041]}, "edge": {"target": [], "time": []}}}, "displayed_time": "9.91", "trialTime": 11488, "trial_type": "mouselab-mdp", "trial_index": 21, "time_elapsed": 538657, "internal_node_id": "0.0-4.0-1.0-12.0"}}, {"uniqueid": "w94241674:a71644549", "current_trial": 22, "dateTime": 1664368507597, "trialdata": {"revealed_states": [], "num_clicks_accrued": [0, 0, 0, 0, 0, 0, 0, 0, 0, 0, 0, 0, 0], "stateRewards": ["", -4, 4, 24, 24, 4, -8, 48, -48, -2, -8, 24, 24], "withholdReward": false, "trial_id": "mdp_395264223239", "block": "test1", "trialIndex": 15, "score": 47.5, "costs": -1.5, "simulationMode": [null, null, null], "rewards": [4, -8, 48], "path": ["0", "0", "5", "6", "7"], "rt": [6117, 106, 140], "actions": ["right", "right", "up"], "actionTimes": [6932, 7554, 8204], "queries": {"click": {"state": {"target": ["12", "11", "4", "3", "7", "8"], "time": [2788, 3405, 3971, 4471, 5153, 5970]}, "edge": {"target": [], "time": []}}, "mouseover": {"state": {"target": ["9", "12", "12", "10", "11", "4", "2", "3", "7", "6", "8", "8"], "time": [1781, 2149, 2647, 3164, 3280, 3814, 4197, 4281, 4948, 5481, 5564, 5799]}, "edge": {"target": [], "time": []}}, "mouseout": {"state": {"target": ["0", "9", "12", "12", "10", "11", "4", "2", "3", "7", "6", "8", "8", "3"], "time": [1731, 1831, 2331, 3147, 3213, 3730, 4181, 4231, 4731, 5465, 5531, 5697, 6330, 6547]}, "edge": {"target": [], "time": []}}}, "displayed_time": "8.82", "trialTime": 9990, "trial_type": "mouselab-mdp", "trial_index": 22, "time_elapsed": 548685, "internal_node_id": "0.0-4.0-1.0-13.0"}}, {"uniqueid": "w94241674:a71644549", "current_trial": 23, "dateTime": 1664368525787, "trialdata": {"revealed_states": [], "num_clicks_accrued": [0, 0, 0, 0, 0, 0, 0, 0, 0, 0, 0, 0, 0], "stateRewards": ["", -2, -8, -24, 24, -2, -8, -48, 24, -2, -8, 24, 24], "withholdReward": false, "trial_id": "mdp_336617436097", "block": "test1", "trialIndex": 16, "score": 17, "costs": -2, "simulationMode": [null, null, null], "rewards": [-2, -8, 24], "path": ["0", "0", "1", "2", "4"], "rt": [11702, 161, 110], "actions": ["up", "up", "left"], "actionTimes": [14640, 15318, 15935], "queries": {"click": {"state": {"target": ["11", "12", "4", "3", "7", "8", "9", "1"], "time": [4128, 4795, 5712, 6363, 7378, 7979, 10448, 12262]}, "edge": {"target": [], "time": []}}, "mouseover": {"state": {"target": ["11", "10", "12", "10", "4", "2", "3", "7", "7", "6", "8", "9", "1"], "time": [3989, 4472, 4589, 5174, 5572, 5990, 6206, 6756, 7222, 7638, 7805, 9905, 11725]}, "edge": {"target": [], "time": []}}, "mouseout": {"state": {"target": ["1", "0", "11", "10", "12", "10", "4", "2", "3", "7", "7", "6", "8", "7", "9", "1", "3"], "time": [623, 3657, 4455, 4505, 5173, 5189, 5923, 6055, 6722, 6773, 7622, 7706, 8322, 8822, 10806, 12539, 12606]}, "edge": {"target": [], "time": []}}}, "displayed_time": "16.44", "trialTime": 18154, "trial_type": "mouselab-mdp", "trial_index": 23, "time_elapsed": 566875, "internal_node_id": "0.0-4.0-1.0-14.0"}}, {"uniqueid": "w94241674:a71644549", "current_trial": 24, "dateTime": 1664368537668, "trialdata": {"revealed_states": [], "num_clicks_accrued": [0, 0, 0, 0, 0, 0, 0, 0, 0, 0, 0, 0, 0], "stateRewards": ["", -2, -8, 24, -48, -4, 8, -48, -24, 4, 8, -24, 24], "withholdReward": true, "trial_id": "mdp_940444641142", "block": "test1", "trialIndex": 17, "score": 39, "costs": -2, "simulationMode": [null, null, null], "rewards": [4, 8, 24], "path": ["0", "0", "9", "10", "12"], "rt": [7104, 301, 195], "actions": ["left", "left", "down"], "actionTimes": [8677, 9482, 10192], "queries": {"click": {"state": {"target": ["4", "3", "7", "8", "12", "11", "2", "10"], "time": [2169, 2769, 3237, 3836, 4452, 5185, 7087, 7869]}, "edge": {"target": [], "time": []}}, "mouseover": {"state": {"target": ["1", "4", "2", "3", "3", "7", "6", "8", "12", "10", "11", "2", "10"], "time": [1880, 1979, 2363, 2397, 2614, 3047, 3582, 3630, 4296, 4780, 5097, 6597, 7713]}, "edge": {"target": [], "time": []}}, "mouseout": {"state": {"target": ["2", "1", "0", "0", "1", "4", "2", "3", "3", "7", "6", "8", "12", "10", "11", "2", "10"], "time": [1062, 1079, 1113, 1830, 1913, 2347, 2380, 2446, 2946, 3581, 3613, 4113, 4746, 4980, 5631, 7397, 8330]}, "edge": {"target": [], "time": []}}}, "displayed_time": "10.70", "trialTime": 11842, "trial_type": "mouselab-mdp", "trial_index": 24, "time_elapsed": 578755, "internal_node_id": "0.0-4.0-1.0-15.0"}}, {"uniqueid": "w94241674:a71644549", "current_trial": 25, "dateTime": 1664368551380, "trialdata": {"revealed_states": [], "num_clicks_accrued": [0, 0, 0, 0, 0, 0, 0, 0, 0, 0, 0, 0, 0], "stateRewards": ["", -4, 8, 24, -48, -4, -8, -24, 24, 2, -4, -48, 24], "withholdReward": true, "trial_id": "mdp_898449441629", "block": "test1", "trialIndex": 18, "score": 25, "costs": -2, "simulationMode": [null, null, null], "rewards": [2, -4, 24], "path": ["0", "0", "9", "10", "12"], "rt": [9338, 248, 155], "actions": ["left", "left", "down"], "actionTimes": [10704, 11468, 12140], "queries": {"click": {"state": {"target": ["11", "12", "4", "3", "7", "8", "5", "9"], "time": [3576, 4208, 5125, 5841, 6591, 7242, 8475, 9874]}, "edge": {"target": [], "time": []}}, "mouseover": {"state": {"target": ["1", "11", "11", "10", "12", "10", "4", "2", "3", "3", "7", "6", "8", "6", "5", "1", "9"], "time": [1819, 3002, 3368, 3869, 3985, 4551, 5035, 5385, 5485, 5652, 6468, 6951, 6984, 7818, 8201, 9085, 9285]}, "edge": {"target": [], "time": []}}, "mouseout": {"state": {"target": ["9", "5", "6", "5", "0", "1", "11", "11", "10", "12", "10", "4", "2", "3", "3", "7", "6", "8", "6", "5", "1", "9"], "time": [901, 917, 1085, 1201, 1252, 2969, 3035, 3851, 3902, 4536, 4568, 5368, 5435, 5568, 6101, 6935, 6968, 7652, 7885, 8936, 9152, 10151]}, "edge": {"target": [], "time": []}}}, "displayed_time": "12.65", "trialTime": 13676, "trial_type": "mouselab-mdp", "trial_index": 25, "time_elapsed": 592468, "internal_node_id": "0.0-4.0-1.0-16.0"}}, {"uniqueid": "w94241674:a71644549", "current_trial": 26, "dateTime": 1664368562712, "trialdata": {"revealed_states": [], "num_clicks_accrued": [0, 0, 0, 0, 0, 0, 0, 0, 0, 0, 0, 0, 0], "stateRewards": ["", -4, -8, -48, 24, -4, -4, -24, -48, 2, -8, -24, -48], "withholdReward": true, "trial_id": "mdp_628181832088", "block": "test1", "trialIndex": 19, "score": 15.5, "costs": -1.5, "simulationMode": [null, null, null], "rewards": [-4, -8, 24], "path": ["0", "0", "1", "2", "4"], "rt": [5360, 154, 159], "actions": ["up", "up", "left"], "actionTimes": [6276, 6944, 7601], "queries": {"click": {"state": {"target": ["11", "4", "3", "7", "8", "12"], "time": [1664, 2197, 2779, 3330, 3863, 4529]}, "edge": {"target": [], "time": []}}, "mouseover": {"state": {"target": ["9", "10", "11", "4", "2", "3", "7", "6", "8", "12", "10", "2"], "time": [1306, 1356, 1539, 2022, 2473, 2539, 3156, 3622, 3772, 4389, 4988, 5138]}, "edge": {"target": [], "time": []}}, "mouseout": {"state": {"target": ["0", "9", "10", "11", "4", "2", "3", "7", "6", "8", "12", "10", "2"], "time": [1273, 1322, 1506, 2005, 2472, 2505, 3088, 3606, 3672, 4224, 4956, 5022, 5239]}, "edge": {"target": [], "time": []}}}, "displayed_time": "8.92", "trialTime": 11296, "trial_type": "mouselab-mdp", "trial_index": 26, "time_elapsed": 603799, "internal_node_id": "0.0-4.0-1.0-17.0"}}, {"uniqueid": "w94241674:a71644549", "current_trial": 27, "dateTime": 1664368574399, "trialdata": {"revealed_states": [], "num_clicks_accrued": [0, 0, 0, 0, 0, 0, 0, 0, 0, 0, 0, 0, 0], "stateRewards": ["", 4, -4, 48, -48, 2, 8, -48, 24, -2, -4, -24, 48], "withholdReward": false, "trial_id": "mdp_937564992306", "block": "test1", "trialIndex": 20, "score": 52.5, "costs": -0.5, "simulationMode": [null, null, null], "rewards": [4, -4, 48], "path": ["0", "0", "1", "2", "3"], "rt": [3603, 117, 220], "actions": ["up", "up", "right"], "actionTimes": [4584, 5211, 5946], "queries": {"click": {"state": {"target": ["4", "3"], "time": [1897, 2547]}, "edge": {"target": [], "time": []}}, "mouseover": {"state": {"target": ["4", "2", "3", "7", "7", "7"], "time": [1708, 2225, 2258, 2858, 3192, 3908]}, "edge": {"target": [], "time": []}}, "mouseout": {"state": {"target": ["2", "1", "4", "2", "3", "7", "7", "7"], "time": [575, 775, 2208, 2242, 2825, 2891, 3541, 3942]}, "edge": {"target": [], "time": []}}}, "displayed_time": "9.99", "trialTime": 11652, "trial_type": "mouselab-mdp", "trial_index": 27, "time_elapsed": 615487, "internal_node_id": "0.0-4.0-1.0-18.0"}}, {"uniqueid": "w94241674:a71644549", "current_trial": 28, "dateTime": 1664368589191, "trialdata": {"revealed_states": [], "num_clicks_accrued": [0, 0, 0, 0, 0, 0, 0, 0, 0, 0, 0, 0, 0], "stateRewards": ["", 2, 4, 24, 48, -2, 8, 24, -24, -4, -4, 48, 48], "withholdReward": true, "trial_id": "mdp_753439303214", "block": "test1", "trialIndex": 21, "score": 58.75, "costs": -0.25, "simulationMode": [null, null, null], "rewards": [2, 4, 48], "path": ["0", "0", "1", "2", "4"], "rt": [2050, 122, 74], "actions": ["up", "up", "left"], "actionTimes": [4315, 4929, 5514], "queries": {"click": {"state": {"target": ["4"], "time": [2961]}, "edge": {"target": [], "time": []}}, "mouseover": {"state": {"target": ["4", "2", "3", "3"], "time": [2787, 3272, 3304, 3554]}, "edge": {"target": [], "time": []}}, "mouseout": {"state": {"target": ["7", "4", "2", "3", "3"], "time": [1821, 3254, 3287, 3338, 3855]}, "edge": {"target": [], "time": []}}}, "displayed_time": "10.27", "trialTime": 14757, "trial_type": "mouselab-mdp", "trial_index": 28, "time_elapsed": 630278, "internal_node_id": "0.0-4.0-1.0-19.0"}}, {"uniqueid": "w94241674:a71644549", "current_trial": 29, "dateTime": 1664368601134, "trialdata": {"revealed_states": [], "num_clicks_accrued": [0, 0, 0, 0, 0, 0, 0, 0, 0, 0, 0, 0, 0], "stateRewards": ["", -4, 8, -48, -48, -2, -8, -24, -48, 2, -4, -48, 24], "withholdReward": true, "trial_id": "mdp_743906784415", "block": "test1", "trialIndex": 22, "score": 25.5, "costs": -1.5, "simulationMode": [null, null, null], "rewards": [2, -4, 24], "path": ["0", "0", "9", "10", "12"], "rt": [7089, 151, 143], "actions": ["left", "left", "down"], "actionTimes": [8599, 9261, 9920], "queries": {"click": {"state": {"target": ["4", "3", "7", "8", "11", "12"], "time": [2316, 3417, 4016, 4549, 5732, 6533]}, "edge": {"target": [], "time": []}}, "mouseover": {"state": {"target": ["1", "2", "4", "2", "3", "3", "7", "6", "8", "5", "11", "12", "10", "11", "10", "12", "0", "0", "9", "10"], "time": [1843, 1877, 2143, 2644, 2694, 2976, 3777, 4326, 4359, 4860, 4926, 5093, 5193, 5593, 6093, 6327, 6893, 7093, 7176, 7410]}, "edge": {"target": [], "time": []}}, "mouseout": {"state": {"target": ["3", "1", "0", "1", "2", "4", "2", "3", "3", "7", "6", "8", "5", "11", "12", "10", "11", "10", "12", "0", "0", "9", "10"], "time": [1059, 1142, 1810, 1876, 1894, 2643, 2677, 2893, 3744, 4310, 4343, 4860, 4877, 4943, 5193, 5209, 6077, 6142, 6843, 6910, 7127, 7377, 7642]}, "edge": {"target": [], "time": []}}}, "displayed_time": "10.43", "trialTime": 11905, "trial_type": "mouselab-mdp", "trial_index": 29, "time_elapsed": 642222, "internal_node_id": "0.0-4.0-1.0-20.0"}}, {"uniqueid": "w94241674:a71644549", "current_trial": 30, "dateTime": 1664368614178, "trialdata": {"revealed_states": [], "num_clicks_accrued": [0, 0, 0, 0, 0, 0, 0, 0, 0, 0, 0, 0, 0], "stateRewards": ["", 4, 8, -48, 24, -2, 8, -48, -48, -4, 4, 48, -48], "withholdReward": true, "trial_id": "mdp_693807815190", "block": "test1", "trialIndex": 23, "score": 51.5, "costs": -1.5, "simulationMode": [null, null, null], "rewards": [-4, 4, 48], "path": ["0", "0", "9", "10", "11"], "rt": [7557, 277, 1873], "actions": ["left", "left", "up"], "actionTimes": [8270, 9045, 11423], "queries": {"click": {"state": {"target": ["4", "3", "7", "8", "11", "9"], "time": [1355, 2072, 2923, 3806, 5239, 7172]}, "edge": {"target": [], "time": []}}, "mouseover": {"state": {"target": ["4", "2", "3", "3", "7", "6", "8", "8", "5", "11", "10", "12", "12", "12", "10", "9", "9"], "time": [1182, 1682, 1699, 1949, 2748, 3282, 3332, 3632, 4232, 5098, 5565, 5615, 5865, 6082, 6265, 6515, 6982]}, "edge": {"target": [], "time": []}}, "mouseout": {"state": {"target": ["0", "4", "2", "3", "3", "7", "6", "8", "8", "5", "11", "10", "12", "12", "12", "10", "9", "9"], "time": [1033, 1666, 1698, 1748, 2365, 3265, 3298, 3515, 4199, 4265, 5548, 5582, 5748, 5948, 6165, 6298, 6732, 7482]}, "edge": {"target": [], "time": []}}}, "displayed_time": "11.93", "trialTime": 13005, "trial_type": "mouselab-mdp", "trial_index": 30, "time_elapsed": 655265, "internal_node_id": "0.0-4.0-1.0-21.0"}}, {"uniqueid": "w94241674:a71644549", "current_trial": 31, "dateTime": 1664368625604, "trialdata": {"revealed_states": [], "num_clicks_accrued": [0, 0, 0, 0, 0, 0, 0, 0, 0, 0, 0, 0, 0], "stateRewards": ["", -4, 8, -24, -24, 2, 4, 48, 48, -2, 4, 24, -48], "withholdReward": false, "trial_id": "mdp_397308196941", "block": "test1", "trialIndex": 24, "score": 58.25, "costs": -0.75, "simulationMode": [null, null, null], "rewards": [2, 4, 48], "path": ["0", "0", "5", "6", "8"], "rt": [5422, 493, 283], "actions": ["right", "right", "down"], "actionTimes": [7259, 8267, 9058], "queries": {"click": {"state": {"target": ["4", "11", "8"], "time": [3195, 4996, 5962]}, "edge": {"target": [], "time": []}}, "mouseover": {"state": {"target": ["0", "1", "2", "4", "2", "2", "10", "11", "5", "6", "8", "6", "7"], "time": [1840, 2839, 2956, 3072, 3656, 4038, 4588, 4855, 5457, 5490, 5840, 6290, 6490]}, "edge": {"target": [], "time": []}}, "mouseout": {"state": {"target": ["3", "0", "0", "1", "2", "4", "2", "2", "10", "11", "5", "6", "8", "6", "7"], "time": [1172, 1739, 2758, 2923, 2989, 3623, 3722, 4056, 4656, 5406, 5472, 5540, 6240, 6407, 6590]}, "edge": {"target": [], "time": []}}}, "displayed_time": "9.57", "trialTime": 11388, "trial_type": "mouselab-mdp", "trial_index": 31, "time_elapsed": 666692, "internal_node_id": "0.0-4.0-1.0-22.0"}}, {"uniqueid": "w94241674:a71644549", "current_trial": 32, "dateTime": 1664368639666, "trialdata": {"revealed_states": [], "num_clicks_accrued": [0, 0, 0, 0, 0, 0, 0, 0, 0, 0, 0, 0, 0], "stateRewards": ["", -4, -8, -24, -48, -2, -8, 24, -48, -4, -8, 24, -48], "withholdReward": true, "trial_id": "mdp_621812384092", "block": "test1", "trialIndex": 25, "score": 17.5, "costs": -1.5, "simulationMode": [null, null, null], "rewards": [-2, -8, 24], "path": ["0", "0", "5", "6", "7"], "rt": [6099, 253, 256], "actions": ["right", "right", "up"], "actionTimes": [9556, 10315, 11085], "queries": {"click": {"state": {"target": ["3", "12", "7", "11", "8", "4"], "time": [4199, 5382, 6082, 6849, 7650, 8400]}, "edge": {"target": [], "time": []}}, "mouseover": {"state": {"target": ["3", "9", "12", "0", "5", "7", "1", "11", "6", "8", "6", "2", "4"], "time": [4110, 4678, 5277, 5694, 5728, 5928, 6510, 6594, 7260, 7510, 8011, 8077, 8127]}, "edge": {"target": [], "time": []}}, "mouseout": {"state": {"target": ["0", "3", "9", "12", "0", "5", "7", "1", "11", "6", "8", "6", "2", "4", "3", "7"], "time": [3794, 4594, 4694, 5678, 5711, 5778, 6461, 6528, 7178, 7294, 7978, 8027, 8111, 8760, 9060, 9161]}, "edge": {"target": [], "time": []}}}, "displayed_time": "12.46", "trialTime": 14022, "trial_type": "mouselab-mdp", "trial_index": 32, "time_elapsed": 680754, "internal_node_id": "0.0-4.0-1.0-23.0"}}, {"uniqueid": "w94241674:a71644549", "current_trial": 33, "dateTime": 1664368658752, "trialdata": {"revealed_states": [], "num_clicks_accrued": [0, 0, 0, 0, 0, 0, 0, 0, 0, 0, 0, 0, 0], "stateRewards": ["", 2, 4, 48, 48, 4, -8, 24, -48, -4, -8, -24, -48], "withholdReward": false, "trial_id": "mdp_343818007251", "block": "test1", "trialIndex": 26, "score": 57.75, "costs": -1.25, "simulationMode": [null, null, null], "rewards": [2, 4, 48], "path": ["0", "0", "1", "2", "4"], "rt": [6211, 587, 562], "actions": ["up", "up", "left"], "actionTimes": [12159, 13257, 14330], "queries": {"click": {"state": {"target": ["2", "11", "6", "8", "3"], "time": [6906, 7972, 9457, 10156, 11157]}, "edge": {"target": [], "time": []}}, "mouseover": {"state": {"target": ["1", "2", "10", "11", "10", "12", "12", "5", "6", "8", "3", "3"], "time": [6301, 6451, 7567, 7884, 8384, 8401, 8834, 8901, 9217, 10050, 10617, 10917]}, "edge": {"target": [], "time": []}}, "mouseout": {"state": {"target": ["0", "1", "2", "10", "11", "10", "12", "12", "5", "6", "8", "6", "3", "3", "2"], "time": [5883, 6334, 7300, 7734, 8368, 8401, 8417, 8867, 8917, 9800, 10534, 10567, 10650, 11484, 11650]}, "edge": {"target": [], "time": []}}}, "displayed_time": "14.84", "trialTime": 19047, "trial_type": "mouselab-mdp", "trial_index": 33, "time_elapsed": 699840, "internal_node_id": "0.0-4.0-1.0-24.0"}}, {"uniqueid": "w94241674:a71644549", "current_trial": 34, "dateTime": 1664368670050, "trialdata": {"revealed_states": [], "num_clicks_accrued": [0, 0, 0, 0, 0, 0, 0, 0, 0, 0, 0, 0, 0], "stateRewards": ["", -4, -4, -24, 48, 2, 4, -24, -48, -2, 4, 24, 24], "withholdReward": true, "trial_id": "mdp_360934723192", "block": "test1", "trialIndex": 27, "score": 44.75, "costs": -0.25, "simulationMode": [null, null, null], "rewards": [-4, -4, 48], "path": ["0", "0", "1", "2", "4"], "rt": [3062, 474, 3737], "actions": ["up", "up", "left"], "actionTimes": [4143, 5127, 9373], "queries": {"click": {"state": {"target": ["4"], "time": [1824]}, "edge": {"target": [], "time": []}}, "mouseover": {"state": {"target": ["1", "4", "7", "5", "7", "7"], "time": [1468, 1785, 2318, 2918, 3167, 3335]}, "edge": {"target": [], "time": []}}, "mouseout": {"state": {"target": ["0", "1", "4", "7", "5", "7", "7"], "time": [1371, 1484, 2234, 2651, 2935, 3184, 3468]}, "edge": {"target": [], "time": []}}}, "displayed_time": "9.88", "trialTime": 11263, "trial_type": "mouselab-mdp", "trial_index": 34, "time_elapsed": 711138, "internal_node_id": "0.0-4.0-1.0-25.0"}}, {"uniqueid": "w94241674:a71644549", "current_trial": 35, "dateTime": 1664368681614, "trialdata": {"revealed_states": [], "num_clicks_accrued": [0, 0, 0, 0, 0, 0, 0, 0, 0, 0, 0, 0, 0], "stateRewards": ["", -2, 8, -24, 48, -4, 4, -48, 24, 4, -8, 48, -24], "withholdReward": true, "trial_id": "mdp_425320427962", "block": "test1", "trialIndex": 28, "score": -13.5, "costs": -0.5, "simulationMode": [null, null, null], "rewards": [-2, 8, -24], "path": ["0", "0", "1", "2", "3"], "rt": [4364, 746, 756], "actions": ["up", "up", "right"], "actionTimes": [5499, 6763, 8039], "queries": {"click": {"state": {"target": ["3", "4"], "time": [2188, 3855]}, "edge": {"target": [], "time": []}}, "mouseover": {"state": {"target": ["3", "3", "2", "4", "4"], "time": [1832, 2099, 2649, 2815, 3132]}, "edge": {"target": [], "time": []}}, "mouseout": {"state": {"target": ["1", "0", "3", "3", "2", "4", "4"], "time": [866, 1498, 1849, 2616, 2665, 2950, 4331]}, "edge": {"target": [], "time": []}}}, "displayed_time": "10.14", "trialTime": 11524, "trial_type": "mouselab-mdp", "trial_index": 35, "time_elapsed": 722701, "internal_node_id": "0.0-4.0-1.0-26.0"}}, {"uniqueid": "w94241674:a71644549", "current_trial": 36, "dateTime": 1664368693087, "trialdata": {"revealed_states": [], "num_clicks_accrued": [0, 0, 0, 0, 0, 0, 0, 0, 0, 0, 0, 0, 0], "stateRewards": ["", -4, -8, -24, 24, 2, 8, 24, 48, 2, 4, 24, -48], "withholdReward": true, "trial_id": "mdp_122352383932", "block": "test1", "trialIndex": 29, "score": 37.5, "costs": -1.5, "simulationMode": [null, null, null], "rewards": [2, 8, 24], "path": ["0", "0", "5", "6", "7"], "rt": [5192, 1300, 942], "actions": ["right", "right", "up"], "actionTimes": [6394, 8202, 9662], "queries": {"click": {"state": {"target": ["3", "4", "11", "12", "7", "8"], "time": [1993, 2725, 3309, 3842, 4692, 5476]}, "edge": {"target": [], "time": []}}, "mouseover": {"state": {"target": ["3", "2", "4", "4", "11", "10", "12", "7", "6", "8", "8"], "time": [1803, 2319, 2385, 2586, 3069, 3586, 3669, 4552, 4952, 4970, 5401]}, "edge": {"target": [], "time": []}}, "mouseout": {"state": {"target": ["3", "5", "5", "0", "3", "2", "4", "4", "11", "10", "12", "7", "6", "8", "8"], "time": [585, 686, 836, 1503, 2302, 2353, 2452, 3003, 3569, 3619, 4170, 4936, 4969, 4985, 5870]}, "edge": {"target": [], "time": []}}}, "displayed_time": "10.17", "trialTime": 11434, "trial_type": "mouselab-mdp", "trial_index": 36, "time_elapsed": 734174, "internal_node_id": "0.0-4.0-1.0-27.0"}}, {"uniqueid": "w94241674:a71644549", "current_trial": 37, "dateTime": 1664368705702, "trialdata": {"revealed_states": [], "num_clicks_accrued": [0, 0, 0, 0, 0, 0, 0, 0, 0, 0, 0, 0, 0], "stateRewards": ["", 2, 4, 48, -24, 2, -8, -24, -24, 2, -8, -24, -48], "withholdReward": true, "trial_id": "mdp_274832552938", "block": "test1", "trialIndex": 30, "score": -13.25, "costs": -0.25, "simulationMode": [null, null, null], "rewards": [2, 4, -24], "path": ["0", "0", "1", "2", "4"], "rt": [2396, 2620, 1032], "actions": ["up", "up", "left"], "actionTimes": [5862, 8999, 10529], "queries": {"click": {"state": {"target": ["3"], "time": [4287]}, "edge": {"target": [], "time": []}}, "mouseover": {"state": {"target": ["3", "3", "2", "10"], "time": [3963, 4129, 4629, 4696]}, "edge": {"target": [], "time": []}}, "mouseout": {"state": {"target": ["5", "0", "3", "3", "2", "10"], "time": [2629, 3881, 4062, 4612, 4646, 4912]}, "edge": {"target": [], "time": []}}}, "displayed_time": "11.47", "trialTime": 12576, "trial_type": "mouselab-mdp", "trial_index": 37, "time_elapsed": 746790, "internal_node_id": "0.0-4.0-1.0-28.0"}}, {"uniqueid": "w94241674:a71644549", "current_trial": 38, "dateTime": 1664368719458, "trialdata": {"revealed_states": [], "num_clicks_accrued": [0, 0, 0, 0, 0, 0, 0, 0, 0, 0, 0, 0, 0], "stateRewards": ["", -2, -8, 48, 24, -2, 8, -48, -24, -2, 4, -48, 48], "withholdReward": false, "trial_id": "mdp_295220852217", "block": "test1", "trialIndex": 31, "score": 42, "costs": -1, "simulationMode": [null, null, null], "rewards": [-2, -8, 48], "path": ["0", "0", "1", "2", "3"], "rt": [5731, 1033, 846], "actions": ["up", "up", "right"], "actionTimes": [7144, 8696, 10059], "queries": {"click": {"state": {"target": ["4", "3", "8", "10"], "time": [2201, 3268, 5469, 6268]}, "edge": {"target": [], "time": []}}, "mouseover": {"state": {"target": ["1", "4", "2", "3", "7", "8", "9", "10"], "time": [1913, 2078, 2778, 3162, 3763, 5345, 5962, 6196]}, "edge": {"target": [], "time": []}}, "mouseout": {"state": {"target": ["0", "1", "4", "2", "3", "7", "8", "9", "10", "3"], "time": [1780, 1946, 2747, 2796, 3663, 3913, 5813, 6045, 6579, 6747]}, "edge": {"target": [], "time": []}}}, "displayed_time": "10.56", "trialTime": 13715, "trial_type": "mouselab-mdp", "trial_index": 38, "time_elapsed": 760545, "internal_node_id": "0.0-4.0-1.0-29.0"}}, {"uniqueid": "w94241674:a71644549", "current_trial": 39, "dateTime": 1664368726875, "trialdata": {"rt": 7411, "stimulus": "<h1> End of block! </h1>\n\nYou have reached the end of the block 1/4. If you need a short break, feel free to take one now before moving on.\n\n<br><br>\nIn the next block, you will complete another 30 rounds of this game.\n\n<br><br>\n<div style='text-align: center;'>Press <code>space</code> to begin.</div>\n<br><br>\n<div style='text-align: center;'>(If the experiment doesn't continue, try clicking on the text and then pressing <code>space</code>.)</div>", "response": " ", "trial_id": "mdp_ready_2", "trial_type": "html-keyboard-response", "trial_index": 39, "time_elapsed": 767963, "internal_node_id": "0.0-4.0-2.0"}}, {"uniqueid": "w94241674:a71644549", "current_trial": 40, "dateTime": 1664368739690, "trialdata": {"revealed_states": [], "num_clicks_accrued": [0, 0, 0, 0, 0, 0, 0, 0, 0, 0, 0, 0, 0], "stateRewards": ["", 2, 8, 24, -48, 4, 8, 24, 48, 2, -8, -24, 24], "withholdReward": false, "trial_id": "mdp_939899431582", "block": "test2", "trialIndex": 32, "score": 38, "costs": -1, "simulationMode": [null, null, null], "rewards": [2, 8, 24], "path": ["0", "0", "1", "2", "3"], "rt": [6268, 530, 587], "actions": ["up", "up", "right"], "actionTimes": [8126, 9170, 10262], "queries": {"click": {"state": {"target": ["3", "4", "11", "12"], "time": [3013, 3696, 4596, 5597]}, "edge": {"target": [], "time": []}}, "mouseover": {"state": {"target": ["3", "2", "4", "11", "10", "12", "5", "6", "7", "7"], "time": [2773, 3391, 3439, 4373, 5324, 5374, 6007, 6040, 6307, 7207]}, "edge": {"target": [], "time": []}}, "mouseout": {"state": {"target": ["1", "3", "2", "4", "11", "10", "12", "5", "6", "7", "7"], "time": [1023, 3374, 3423, 4141, 5307, 5357, 5956, 6024, 6190, 6558, 7223]}, "edge": {"target": [], "time": []}}}, "displayed_time": "10.76", "trialTime": 12775, "trial_type": "mouselab-mdp", "trial_index": 40, "time_elapsed": 780778, "internal_node_id": "0.0-4.0-3.0-0.0"}}, {"uniqueid": "w94241674:a71644549", "current_trial": 41, "dateTime": 1664368749008, "trialdata": {"revealed_states": [], "num_clicks_accrued": [0, 0, 0, 0, 0, 0, 0, 0, 0, 0, 0, 0, 0], "stateRewards": ["", 2, -8, -48, 24, 4, 8, 48, -48, 2, -4, 24, 24], "withholdReward": true, "trial_id": "mdp_130475327289", "block": "test2", "trialIndex": 33, "score": 64, "costs": -1, "simulationMode": [null, null, null], "rewards": [4, 8, 48], "path": ["0", "0", "5", "6", "7"], "rt": [4330, 618, 407], "actions": ["right", "right", "up"], "actionTimes": [5671, 6809, 7731], "queries": {"click": {"state": {"target": ["3", "11", "8", "7"], "time": [1929, 3029, 3831, 4712]}, "edge": {"target": [], "time": []}}, "mouseover": {"state": {"target": ["3", "2", "4", "9", "11", "0", "8", "6", "7"], "time": [1807, 2340, 2390, 2608, 2890, 3440, 3523, 4157, 4407]}, "edge": {"target": [], "time": []}}, "mouseout": {"state": {"target": ["7", "5", "3", "2", "4", "9", "11", "0", "8", "6", "7"], "time": [656, 1090, 2324, 2373, 2491, 2623, 3340, 3457, 4140, 4173, 5124]}, "edge": {"target": [], "time": []}}}, "displayed_time": "8.34", "trialTime": 9276, "trial_type": "mouselab-mdp", "trial_index": 41, "time_elapsed": 790095, "internal_node_id": "0.0-4.0-3.0-1.0"}}, {"uniqueid": "w94241674:a71644549", "current_trial": 42, "dateTime": 1664368776001, "trialdata": {"revealed_states": [], "num_clicks_accrued": [0, 0, 0, 0, 0, 0, 0, 0, 0, 0, 0, 0, 0], "stateRewards": ["", -4, -8, 48, 24, 4, -8, 24, -48, -2, -8, 24, -48], "withholdReward": true, "trial_id": "mdp_952038635544", "block": "test2", "trialIndex": 34, "score": 40, "costs": -1, "simulationMode": [null, null, null], "rewards": [-4, -8, 48], "path": ["0", "0", "1", "2", "3"], "rt": [4549, 509, 745], "actions": ["up", "up", "right"], "actionTimes": [6023, 7050, 8304], "queries": {"click": {"state": {"target": ["3", "10", "5", "1"], "time": [2131, 3730, 4563, 5296]}, "edge": {"target": [], "time": []}}, "mouseover": {"state": {"target": ["3", "2", "4", "10", "10", "9", "5", "1"], "time": [1990, 2491, 3124, 3324, 3658, 4107, 4408, 5124]}, "edge": {"target": [], "time": []}}, "mouseout": {"state": {"target": ["3", "3", "2", "4", "10", "10", "9", "5", "1", "7"], "time": [641, 2457, 2641, 3258, 3524, 4107, 4124, 4942, 5591, 26024]}, "edge": {"target": [], "time": []}}}, "displayed_time": "11.47", "trialTime": 26953, "trial_type": "mouselab-mdp", "trial_index": 42, "time_elapsed": 817089, "internal_node_id": "0.0-4.0-3.0-2.0"}}, {"uniqueid": "w94241674:a71644549", "current_trial": 43, "dateTime": 1664368788310, "trialdata": {"revealed_states": [], "num_clicks_accrued": [0, 0, 0, 0, 0, 0, 0, 0, 0, 0, 0, 0, 0], "stateRewards": ["", -2, -4, -48, 48, -4, 4, -48, 24, -4, -8, 24, 48], "withholdReward": true, "trial_id": "mdp_264482284450", "block": "test2", "trialIndex": 35, "score": 15.5, "costs": -1.5, "simulationMode": [null, null, null], "rewards": [-4, -8, 24], "path": ["0", "0", "9", "10", "11"], "rt": [6733, 450, 437], "actions": ["left", "left", "up"], "actionTimes": [7911, 8880, 9835], "queries": {"click": {"state": {"target": ["4", "3", "12", "9", "5", "1"], "time": [1903, 2685, 3518, 4918, 5620, 6368]}, "edge": {"target": [], "time": []}}, "mouseover": {"state": {"target": ["1", "2", "4", "2", "3", "3", "2", "9", "12", "9", "0", "5", "6", "7", "9", "5", "1", "7"], "time": [1479, 1529, 1813, 2247, 2263, 2463, 3046, 3129, 3263, 3963, 4079, 4112, 4230, 4396, 4713, 5445, 6296, 6796]}, "edge": {"target": [], "time": []}}, "mouseout": {"state": {"target": ["1", "1", "2", "4", "2", "3", "3", "2", "9", "12", "9", "0", "5", "6", "7", "9", "5", "1", "7", "1"], "time": [979, 1513, 1596, 2229, 2263, 2296, 3030, 3062, 3163, 3879, 4062, 4096, 4129, 4363, 4545, 5278, 5946, 6729, 7262, 7413]}, "edge": {"target": [], "time": []}}}, "displayed_time": "11.18", "trialTime": 12267, "trial_type": "mouselab-mdp", "trial_index": 43, "time_elapsed": 829397, "internal_node_id": "0.0-4.0-3.0-3.0"}}, {"uniqueid": "w94241674:a71644549", "current_trial": 44, "dateTime": 1664368801180, "trialdata": {"revealed_states": [], "num_clicks_accrued": [0, 0, 0, 0, 0, 0, 0, 0, 0, 0, 0, 0, 0], "stateRewards": ["", 2, 8, 48, -48, -2, -4, -24, 24, 4, -4, 48, -48], "withholdReward": false, "trial_id": "mdp_105734044587", "block": "test2", "trialIndex": 36, "score": 61.75, "costs": -1.25, "simulationMode": [null, null, null], "rewards": [2, 8, 48], "path": ["0", "0", "1", "2", "3"], "rt": [8144, 370, 362], "actions": ["up", "up", "right"], "actionTimes": [9181, 10060, 10933], "queries": {"click": {"state": {"target": ["4", "3", "7", "8", "11"], "time": [1743, 2361, 4411, 5562, 6844]}, "edge": {"target": [], "time": []}}, "mouseover": {"state": {"target": ["1", "4", "2", "3", "7", "6", "8", "10", "11", "2"], "time": [1438, 1571, 2071, 2121, 3055, 4937, 5404, 6371, 6520, 7405]}, "edge": {"target": [], "time": []}}, "mouseout": {"state": {"target": ["0", "1", "4", "2", "3", "7", "6", "8", "10", "11", "2"], "time": [1387, 1504, 2055, 2088, 2704, 4904, 5237, 6021, 6470, 7388, 7422]}, "edge": {"target": [], "time": []}}}, "displayed_time": "11.44", "trialTime": 12829, "trial_type": "mouselab-mdp", "trial_index": 44, "time_elapsed": 842267, "internal_node_id": "0.0-4.0-3.0-4.0"}}, {"uniqueid": "w94241674:a71644549", "current_trial": 45, "dateTime": 1664368812222, "trialdata": {"revealed_states": [], "num_clicks_accrued": [0, 0, 0, 0, 0, 0, 0, 0, 0, 0, 0, 0, 0], "stateRewards": ["", 2, 8, 48, -24, -4, 4, 48, 24, -2, 8, 24, 24], "withholdReward": true, "trial_id": "mdp_123436106791", "block": "test2", "trialIndex": 37, "score": 51.5, "costs": -1.5, "simulationMode": [null, null, null], "rewards": [-4, 4, 48], "path": ["0", "0", "5", "6", "7"], "rt": [6669, 342, 286], "actions": ["right", "right", "up"], "actionTimes": [7755, 8611, 9405], "queries": {"click": {"state": {"target": ["4", "3", "7", "11", "12", "8"], "time": [1825, 2407, 3092, 4624, 5526, 6376]}, "edge": {"target": [], "time": []}}, "mouseover": {"state": {"target": ["3", "2", "4", "2", "3", "7", "6", "5", "1", "1", "11", "11", "10", "12", "8"], "time": [1502, 1536, 1619, 2119, 2203, 2870, 3418, 3669, 3718, 4019, 4252, 4536, 5019, 5369, 6220]}, "edge": {"target": [], "time": []}}, "mouseout": {"state": {"target": ["3", "5", "0", "3", "2", "4", "2", "3", "7", "6", "5", "1", "1", "11", "11", "10", "12", "8"], "time": [552, 868, 1369, 1519, 1586, 2103, 2152, 2669, 3402, 3451, 3685, 3735, 4186, 4286, 5002, 5053, 5836, 6703]}, "edge": {"target": [], "time": []}}}, "displayed_time": "10.09", "trialTime": 11003, "trial_type": "mouselab-mdp", "trial_index": 45, "time_elapsed": 853310, "internal_node_id": "0.0-4.0-3.0-5.0"}}, {"uniqueid": "w94241674:a71644549", "current_trial": 46, "dateTime": 1664368824690, "trialdata": {"revealed_states": [], "num_clicks_accrued": [0, 0, 0, 0, 0, 0, 0, 0, 0, 0, 0, 0, 0], "stateRewards": ["", -4, 8, -24, -48, 2, 8, -48, -24, -2, -4, 48, -48], "withholdReward": true, "trial_id": "mdp_599927291428", "block": "test2", "trialIndex": 38, "score": 45.25, "costs": -1.75, "simulationMode": [null, null, null], "rewards": [-2, -4, 48], "path": ["0", "0", "9", "10", "11"], "rt": [6588, 535, 504], "actions": ["left", "left", "up"], "actionTimes": [8033, 9080, 10098], "queries": {"click": {"state": {"target": ["3", "4", "11", "9", "5", "7", "8"], "time": [2499, 3183, 3883, 4549, 5366, 6433, 6983]}, "edge": {"target": [], "time": []}}, "mouseover": {"state": {"target": ["1", "3", "2", "4", "11", "10", "9", "0", "5", "5", "6", "7", "7", "6", "8", "10"], "time": [1976, 2394, 2827, 2960, 3744, 4177, 4394, 4945, 4994, 5277, 5744, 5845, 6361, 6727, 6794, 7477]}, "edge": {"target": [], "time": []}}, "mouseout": {"state": {"target": ["7", "0", "1", "3", "2", "4", "11", "10", "9", "0", "5", "5", "6", "7", "7", "6", "8", "9", "10"], "time": [710, 1877, 2043, 2810, 2859, 3577, 4144, 4228, 4927, 4960, 5061, 5694, 5844, 5894, 6694, 6761, 7378, 7461, 7493]}, "edge": {"target": [], "time": []}}}, "displayed_time": "11.45", "trialTime": 12428, "trial_type": "mouselab-mdp", "trial_index": 46, "time_elapsed": 865778, "internal_node_id": "0.0-4.0-3.0-6.0"}}, {"uniqueid": "w94241674:a71644549", "current_trial": 47, "dateTime": 1664368840201, "trialdata": {"revealed_states": [], "num_clicks_accrued": [0, 0, 0, 0, 0, 0, 0, 0, 0, 0, 0, 0, 0], "stateRewards": ["", -4, -8, -24, 24, 2, 8, 24, 48, 2, 4, 24, -48], "withholdReward": false, "trial_id": "mdp_122352383932", "block": "test2", "trialIndex": 39, "score": 16, "costs": -1, "simulationMode": [null, null, null], "rewards": [-4, -8, 24], "path": ["0", "0", "1", "2", "4"], "rt": [4049, 294, 509], "actions": ["up", "up", "left"], "actionTimes": [5754, 6553, 7568], "queries": {"click": {"state": {"target": ["12", "11", "4", "3"], "time": [2562, 3364, 3980, 4797]}, "edge": {"target": [], "time": []}}, "mouseover": {"state": {"target": ["9", "12", "10", "11", "4", "3", "3"], "time": [2207, 2524, 2990, 3191, 3706, 4373, 4674]}, "edge": {"target": [], "time": []}}, "mouseout": {"state": {"target": ["0", "9", "12", "10", "11", "4", "3"], "time": [2158, 2241, 2973, 3007, 3641, 4341, 4408]}, "edge": {"target": [], "time": []}}}, "displayed_time": "10.71", "trialTime": 15469, "trial_type": "mouselab-mdp", "trial_index": 47, "time_elapsed": 881289, "internal_node_id": "0.0-4.0-3.0-7.0"}}, {"uniqueid": "w94241674:a71644549", "current_trial": 48, "dateTime": 1664368854185, "trialdata": {"revealed_states": [], "num_clicks_accrued": [0, 0, 0, 0, 0, 0, 0, 0, 0, 0, 0, 0, 0], "stateRewards": ["", 2, -8, -24, 48, 4, -8, -24, -24, 2, 8, -24, 24], "withholdReward": true, "trial_id": "mdp_480787552818", "block": "test2", "trialIndex": 40, "score": 46.25, "costs": -0.75, "simulationMode": [null, null, null], "rewards": [2, -8, 48], "path": ["0", "0", "1", "2", "4"], "rt": [7311, 648, 480], "actions": ["up", "up", "left"], "actionTimes": [8258, 9414, 10412], "queries": {"click": {"state": {"target": ["4", "3", "1"], "time": [4655, 6205, 7338]}, "edge": {"target": [], "time": []}}, "mouseover": {"state": {"target": ["1", "4", "2", "3", "7", "6", "5", "1"], "time": [1348, 1632, 5081, 5331, 6681, 6815, 6965, 7065]}, "edge": {"target": [], "time": []}}, "mouseout": {"state": {"target": ["3", "0", "1", "4", "2", "3", "7", "6", "5", "1"], "time": [431, 1282, 1380, 5065, 5114, 6648, 6748, 6914, 6997, 7681]}, "edge": {"target": [], "time": []}}}, "displayed_time": "10.91", "trialTime": 13944, "trial_type": "mouselab-mdp", "trial_index": 48, "time_elapsed": 895273, "internal_node_id": "0.0-4.0-3.0-8.0"}}, {"uniqueid": "w94241674:a71644549", "current_trial": 49, "dateTime": 1664368867786, "trialdata": {"revealed_states": [], "num_clicks_accrued": [0, 0, 0, 0, 0, 0, 0, 0, 0, 0, 0, 0, 0], "stateRewards": ["", -4, -8, 48, 48, -4, 4, 48, -24, 4, 8, -24, -48], "withholdReward": true, "trial_id": "mdp_142906093415", "block": "test2", "trialIndex": 41, "score": 51.5, "costs": -1.5, "simulationMode": [null, null, null], "rewards": [-4, 4, 48], "path": ["0", "0", "5", "6", "7"], "rt": [6435, 997, 567], "actions": ["right", "right", "up"], "actionTimes": [8796, 10309, 11397], "queries": {"click": {"state": {"target": ["5", "1", "9", "11", "12", "7"], "time": [3716, 4567, 5284, 6134, 6900, 7800]}, "edge": {"target": [], "time": []}}, "mouseover": {"state": {"target": ["5", "1", "9", "11", "10", "12", "7", "3"], "time": [3428, 4395, 5161, 5843, 6544, 6611, 7695, 8295]}, "edge": {"target": [], "time": []}}, "mouseout": {"state": {"target": ["5", "5", "1", "9", "11", "10", "12", "7", "3"], "time": [1443, 4294, 4860, 5728, 6511, 6578, 7279, 8161, 8495]}, "edge": {"target": [], "time": []}}}, "displayed_time": "11.91", "trialTime": 13558, "trial_type": "mouselab-mdp", "trial_index": 49, "time_elapsed": 908873, "internal_node_id": "0.0-4.0-3.0-9.0"}}, {"uniqueid": "w94241674:a71644549", "current_trial": 50, "dateTime": 1664368886316, "trialdata": {"revealed_states": [], "num_clicks_accrued": [0, 0, 0, 0, 0, 0, 0, 0, 0, 0, 0, 0, 0], "stateRewards": ["", 4, 8, -24, 48, 4, -8, -48, 48, -4, 8, -24, -48], "withholdReward": false, "trial_id": "mdp_376126356841", "block": "test2", "trialIndex": 42, "score": 47.5, "costs": -1.5, "simulationMode": [null, null, null], "rewards": [4, -8, 48], "path": ["0", "0", "5", "6", "8"], "rt": [7689, 617, 428], "actions": ["right", "right", "down"], "actionTimes": [9332, 10461, 11406], "queries": {"click": {"state": {"target": ["4", "3", "7", "12", "11", "8"], "time": [3234, 4168, 4983, 5833, 6552, 7516]}, "edge": {"target": [], "time": []}}, "mouseover": {"state": {"target": ["1", "2", "4", "4", "2", "3", "7", "1", "10", "12", "10", "11", "5", "6", "8"], "time": [2677, 2711, 2760, 2928, 3561, 3594, 4694, 5328, 5394, 5644, 6145, 6410, 6927, 6944, 7360]}, "edge": {"target": [], "time": []}}, "mouseout": {"state": {"target": ["3", "1", "0", "0", "0", "1", "2", "4", "4", "2", "3", "7", "1", "10", "12", "10", "11", "5", "6", "8"], "time": [493, 544, 644, 911, 2628, 2694, 2727, 2844, 3561, 3578, 4594, 5294, 5345, 5494, 6094, 6294, 6876, 6944, 6960, 13210]}, "edge": {"target": [], "time": []}}}, "displayed_time": "11.91", "trialTime": 18488, "trial_type": "mouselab-mdp", "trial_index": 50, "time_elapsed": 927404, "internal_node_id": "0.0-4.0-3.0-10.0"}}, {"uniqueid": "w94241674:a71644549", "current_trial": 51, "dateTime": 1664368898727, "trialdata": {"revealed_states": [], "num_clicks_accrued": [0, 0, 0, 0, 0, 0, 0, 0, 0, 0, 0, 0, 0], "stateRewards": ["", -2, -4, -24, 48, -4, 8, 48, 48, 2, 8, -48, -24], "withholdReward": true, "trial_id": "mdp_136376573354", "block": "test2", "trialIndex": 43, "score": 55.75, "costs": -1.25, "simulationMode": [null, null, null], "rewards": [-4, 8, 48], "path": ["0", "0", "5", "6", "7"], "rt": [6113, 329, 339], "actions": ["right", "right", "up"], "actionTimes": [7338, 8174, 9017], "queries": {"click": {"state": {"target": ["4", "3", "2", "7", "8"], "time": [2616, 3535, 4299, 5199, 5883]}, "edge": {"target": [], "time": []}}, "mouseover": {"state": {"target": ["1", "4", "2", "3", "3", "2", "7", "6", "8", "6", "6"], "time": [2177, 2476, 3060, 3094, 3376, 4111, 5044, 5543, 5609, 6427, 6911]}, "edge": {"target": [], "time": []}}, "mouseout": {"state": {"target": ["0", "1", "4", "2", "3", "3", "2", "3", "7", "6", "8", "6", "6", "6", "5"], "time": [2144, 2277, 3044, 3077, 3127, 4060, 4661, 4694, 5527, 5576, 6294, 6493, 6944, 11276, 11309]}, "edge": {"target": [], "time": []}}}, "displayed_time": "10.23", "trialTime": 12365, "trial_type": "mouselab-mdp", "trial_index": 51, "time_elapsed": 939814, "internal_node_id": "0.0-4.0-3.0-11.0"}}, {"uniqueid": "w94241674:a71644549", "current_trial": 52, "dateTime": 1664368912846, "trialdata": {"revealed_states": [], "num_clicks_accrued": [0, 0, 0, 0, 0, 0, 0, 0, 0, 0, 0, 0, 0], "stateRewards": ["", -4, 8, 24, -24, 4, -8, -24, -24, -2, 8, -48, 24], "withholdReward": true, "trial_id": "mdp_240302100183", "block": "test2", "trialIndex": 44, "score": 31.5, "costs": -1.5, "simulationMode": [null, null, null], "rewards": [-4, 8, 24], "path": ["0", "0", "1", "2", "3"], "rt": [8827, 329, 138], "actions": ["up", "up", "right"], "actionTimes": [10894, 11733, 12376], "queries": {"click": {"state": {"target": ["4", "3", "11", "8", "7", "12"], "time": [2891, 3691, 6225, 7274, 8576, 9475]}, "edge": {"target": [], "time": []}}, "mouseover": {"state": {"target": ["1", "2", "4", "2", "3", "1", "2", "2", "1", "11", "11", "10", "12", "8", "7", "9", "12"], "time": [2502, 2553, 2737, 3219, 3553, 4469, 4753, 4903, 5036, 5536, 5936, 6569, 6702, 7202, 8002, 9036, 9286]}, "edge": {"target": [], "time": []}}, "mouseout": {"state": {"target": ["0", "1", "2", "4", "2", "3", "1", "2", "2", "1", "11", "11", "10", "12", "8", "7", "9", "12"], "time": [1952, 2518, 2587, 3202, 3235, 4119, 4586, 4769, 4970, 5186, 5553, 6552, 6635, 6786, 7719, 8970, 9069, 9886]}, "edge": {"target": [], "time": []}}}, "displayed_time": "12.89", "trialTime": 14076, "trial_type": "mouselab-mdp", "trial_index": 52, "time_elapsed": 953933, "internal_node_id": "0.0-4.0-3.0-12.0"}}, {"uniqueid": "w94241674:a71644549", "current_trial": 53, "dateTime": 1664368924807, "trialdata": {"revealed_states": [], "num_clicks_accrued": [0, 0, 0, 0, 0, 0, 0, 0, 0, 0, 0, 0, 0], "stateRewards": ["", 4, 4, -48, -24, -2, -4, 48, 24, -4, 4, 24, -48], "withholdReward": true, "trial_id": "mdp_617383046444", "block": "test2", "trialIndex": 45, "score": 45.5, "costs": -1.5, "simulationMode": [null, null, null], "rewards": [-2, -4, 48], "path": ["0", "0", "5", "6", "7"], "rt": [6708, 557, 402], "actions": ["right", "right", "up"], "actionTimes": [8022, 9074, 9987], "queries": {"click": {"state": {"target": ["4", "3", "11", "12", "7", "8"], "time": [1922, 3343, 4422, 5124, 5972, 6524]}, "edge": {"target": [], "time": []}}, "mouseover": {"state": {"target": ["1", "4", "2", "3", "2", "11", "10", "12", "6", "7", "6", "8", "6", "6"], "time": [1667, 1799, 2283, 2317, 3866, 4317, 4849, 4915, 5717, 5866, 6300, 6366, 7183, 7717]}, "edge": {"target": [], "time": []}}, "mouseout": {"state": {"target": ["4", "0", "1", "4", "2", "3", "2", "11", "10", "12", "6", "7", "6", "8", "6", "6"], "time": [766, 1633, 1683, 2267, 2300, 3850, 3899, 4816, 4883, 5515, 5733, 6282, 6332, 6933, 7516, 7732]}, "edge": {"target": [], "time": []}}}, "displayed_time": "11.32", "trialTime": 11919, "trial_type": "mouselab-mdp", "trial_index": 53, "time_elapsed": 965895, "internal_node_id": "0.0-4.0-3.0-13.0"}}, {"uniqueid": "w94241674:a71644549", "current_trial": 54, "dateTime": 1664368937042, "trialdata": {"revealed_states": [], "num_clicks_accrued": [0, 0, 0, 0, 0, 0, 0, 0, 0, 0, 0, 0, 0], "stateRewards": ["", 4, 4, 24, -48, 2, -8, -24, -48, 4, 8, 48, 48], "withholdReward": true, "trial_id": "mdp_592471239511", "block": "test2", "trialIndex": 46, "score": 63.75, "costs": -1.25, "simulationMode": [null, null, null], "rewards": [4, 8, 48], "path": ["0", "0", "9", "10", "12"], "rt": [5603, 1010, 2071], "actions": ["left", "left", "down"], "actionTimes": [6625, 8134, 10713], "queries": {"click": {"state": {"target": ["4", "7", "12", "11", "9"], "time": [1696, 2678, 3796, 4845, 5614]}, "edge": {"target": [], "time": []}}, "mouseover": {"state": {"target": ["1", "4", "2", "3", "7", "7", "8", "10", "12", "10", "11", "9"], "time": [1357, 1590, 2006, 2123, 2307, 2540, 3024, 3173, 3657, 4157, 4740, 5373]}, "edge": {"target": [], "time": []}}, "mouseout": {"state": {"target": ["7", "0", "1", "4", "2", "3", "7", "7", "8", "10", "12", "10", "11", "9"], "time": [607, 1306, 1424, 1974, 2040, 2223, 2324, 2990, 3057, 3190, 4124, 4206, 5207, 6090]}, "edge": {"target": [], "time": []}}}, "displayed_time": "11.22", "trialTime": 12193, "trial_type": "mouselab-mdp", "trial_index": 54, "time_elapsed": 978129, "internal_node_id": "0.0-4.0-3.0-14.0"}}, {"uniqueid": "w94241674:a71644549", "current_trial": 55, "dateTime": 1664368946200, "trialdata": {"revealed_states": [], "num_clicks_accrued": [0, 0, 0, 0, 0, 0, 0, 0, 0, 0, 0, 0, 0], "stateRewards": ["", -2, 8, -48, 48, 4, -8, -48, 48, 4, -4, -24, 48], "withholdReward": true, "trial_id": "mdp_144739116828", "block": "test2", "trialIndex": 47, "score": 47.75, "costs": -1.25, "simulationMode": [null, null, null], "rewards": [4, -8, 48], "path": ["0", "0", "5", "6", "8"], "rt": [4126, 567, 609], "actions": ["right", "right", "down"], "actionTimes": [5480, 6558, 7682], "queries": {"click": {"state": {"target": ["4", "12", "6", "7", "8"], "time": [1945, 2612, 3231, 3845, 4544]}, "edge": {"target": [], "time": []}}, "mouseover": {"state": {"target": ["1", "4", "12", "5", "6", "7", "8"], "time": [1706, 1806, 2356, 2973, 3022, 3656, 4372]}, "edge": {"target": [], "time": []}}, "mouseout": {"state": {"target": ["1", "0", "0", "1", "4", "12", "5", "6", "7", "6", "8", "6", "7"], "time": [622, 773, 1656, 1722, 2239, 2923, 3005, 3639, 4206, 4355, 4940, 4990, 5023]}, "edge": {"target": [], "time": []}}}, "displayed_time": "8.36", "trialTime": 9117, "trial_type": "mouselab-mdp", "trial_index": 55, "time_elapsed": 987288, "internal_node_id": "0.0-4.0-3.0-15.0"}}, {"uniqueid": "w94241674:a71644549", "current_trial": 56, "dateTime": 1664368968278, "trialdata": {"revealed_states": [], "num_clicks_accrued": [0, 0, 0, 0, 0, 0, 0, 0, 0, 0, 0, 0, 0], "stateRewards": ["", -2, -8, 48, -24, 2, -4, -48, -24, -2, -4, -48, 48], "withholdReward": true, "trial_id": "mdp_143798438087", "block": "test2", "trialIndex": 48, "score": 44, "costs": -3, "simulationMode": [null, null, null], "rewards": [-2, -4, 48], "path": ["0", "0", "9", "10", "12"], "rt": [11205, 474, 422], "actions": ["left", "left", "down"], "actionTimes": [12215, 13206, 14137], "queries": {"click": {"state": {"target": ["4", "3", "11", "12", "7", "8", "6", "5", "2", "1", "9", "10"], "time": [1704, 2336, 3219, 3702, 4403, 5287, 5886, 6304, 7270, 7704, 8353, 8737]}, "edge": {"target": [], "time": []}}, "mouseover": {"state": {"target": ["1", "4", "2", "3", "2", "11", "10", "12", "6", "7", "6", "8", "8", "6", "5", "2", "1", "9", "10"], "time": [1348, 1513, 2063, 2131, 2863, 3146, 3497, 3563, 4080, 4314, 4746, 4780, 5180, 5848, 6181, 7181, 7564, 8214, 8647]}, "edge": {"target": [], "time": []}}, "mouseout": {"state": {"target": ["1", "11", "9", "0", "0", "1", "4", "2", "3", "2", "11", "10", "12", "6", "7", "6", "8", "8", "6", "5", "2", "1", "9", "10"], "time": [414, 664, 697, 747, 880, 1363, 2048, 2097, 2713, 2946, 3446, 3530, 3947, 4197, 4730, 4763, 4847, 5681, 6164, 6647, 7548, 8064, 8581, 8981]}, "edge": {"target": [], "time": []}}}, "displayed_time": "14.65", "trialTime": 22037, "trial_type": "mouselab-mdp", "trial_index": 56, "time_elapsed": 1009366, "internal_node_id": "0.0-4.0-3.0-16.0"}}, {"uniqueid": "w94241674:a71644549", "current_trial": 57, "dateTime": 1664368994315, "trialdata": {"revealed_states": [], "num_clicks_accrued": [0, 0, 0, 0, 0, 0, 0, 0, 0, 0, 0, 0, 0], "stateRewards": ["", -2, 8, -48, -24, -2, 8, 48, -48, -4, 8, 24, 48], "withholdReward": false, "trial_id": "mdp_160707003673", "block": "test2", "trialIndex": 49, "score": 55.25, "costs": -1.75, "simulationMode": [null, null, null], "rewards": [-4, 8, 48], "path": ["0", "0", "9", "10", "12"], "rt": [7187, 1010, 693], "actions": ["left", "left", "down"], "actionTimes": [8576, 10096, 11281], "queries": {"click": {"state": {"target": ["11", "12", "4", "3", "7", "8", "5"], "time": [2140, 2991, 4023, 4657, 5291, 5873, 6874]}, "edge": {"target": [], "time": []}}, "mouseover": {"state": {"target": ["11", "11", "10", "12", "12", "9", "1", "2", "4", "2", "3", "7", "6", "8", "5"], "time": [1851, 2051, 2385, 2418, 2802, 3335, 3668, 3768, 3918, 4335, 4534, 5135, 5652, 5734, 6734]}, "edge": {"target": [], "time": []}}, "mouseout": {"state": {"target": ["10", "9", "0", "11", "11", "10", "12", "12", "9", "1", "2", "4", "2", "3", "7", "6", "8", "5"], "time": [1084, 1134, 1752, 1869, 2368, 2401, 2468, 3301, 3351, 3735, 3817, 4301, 4467, 4984, 5635, 5685, 6234, 7185]}, "edge": {"target": [], "time": []}}}, "displayed_time": "11.79", "trialTime": 25994, "trial_type": "mouselab-mdp", "trial_index": 57, "time_elapsed": 1035403, "internal_node_id": "0.0-4.0-3.0-17.0"}}, {"uniqueid": "w94241674:a71644549", "current_trial": 58, "dateTime": 1664369011047, "trialdata": {"revealed_states": [], "num_clicks_accrued": [0, 0, 0, 0, 0, 0, 0, 0, 0, 0, 0, 0, 0], "stateRewards": ["", 2, 8, -24, -48, 2, 4, -24, 48, 2, -8, 48, -24], "withholdReward": true, "trial_id": "mdp_791659307216", "block": "test2", "trialIndex": 50, "score": -11, "costs": -2, "simulationMode": [null, null, null], "rewards": [2, 8, -24], "path": ["0", "0", "1", "2", "3"], "rt": [10182, 1335, 454], "actions": ["up", "up", "right"], "actionTimes": [11528, 13381, 14350], "queries": {"click": {"state": {"target": ["4", "3", "11", "12", "7", "8", "5", "9"], "time": [2017, 2551, 3734, 4216, 5067, 5833, 10017, 10632]}, "edge": {"target": [], "time": []}}, "mouseover": {"state": {"target": ["1", "4", "2", "3", "11", "11", "10", "12", "6", "7", "7", "6", "8", "8", "6", "6", "5", "9"], "time": [1660, 1860, 2277, 2310, 3061, 3561, 3927, 3961, 4610, 4760, 4860, 5294, 5327, 5710, 6310, 9661, 9943, 10560]}, "edge": {"target": [], "time": []}}, "mouseout": {"state": {"target": ["0", "1", "4", "2", "3", "11", "11", "10", "12", "6", "7", "7", "6", "8", "8", "6", "6", "5", "9"], "time": [1611, 1711, 2260, 2294, 2927, 3177, 3894, 3943, 4544, 4693, 4810, 5277, 5310, 5411, 6278, 6327, 9727, 10311, 10994]}, "edge": {"target": [], "time": []}}}, "displayed_time": "14.86", "trialTime": 16686, "trial_type": "mouselab-mdp", "trial_index": 58, "time_elapsed": 1052135, "internal_node_id": "0.0-4.0-3.0-18.0"}}, {"uniqueid": "w94241674:a71644549", "current_trial": 59, "dateTime": 1664369022664, "trialdata": {"revealed_states": [], "num_clicks_accrued": [0, 0, 0, 0, 0, 0, 0, 0, 0, 0, 0, 0, 0], "stateRewards": ["", 2, -4, -48, 24, -4, 4, 24, 24, 2, -8, -24, -48], "withholdReward": true, "trial_id": "mdp_807654778305", "block": "test2", "trialIndex": 51, "score": 27.5, "costs": -1.5, "simulationMode": [null, null, null], "rewards": [-4, 4, 24], "path": ["0", "0", "5", "6", "8"], "rt": [6011, 524, 1005], "actions": ["right", "right", "down"], "actionTimes": [7423, 8456, 9970], "queries": {"click": {"state": {"target": ["3", "4", "7", "8", "11", "12"], "time": [2170, 2801, 3685, 4235, 5268, 5835]}, "edge": {"target": [], "time": []}}, "mouseover": {"state": {"target": ["3", "2", "4", "7", "6", "8", "0", "9", "10", "11", "10", "12"], "time": [2046, 2529, 2713, 3596, 3981, 4180, 4663, 4681, 4730, 4913, 5480, 5763]}, "edge": {"target": [], "time": []}}, "mouseout": {"state": {"target": ["0", "0", "3", "2", "4", "7", "6", "8", "0", "9", "10", "11", "10", "12"], "time": [680, 1830, 2513, 2563, 3180, 3963, 4080, 4629, 4681, 4696, 4829, 5463, 5514, 6197]}, "edge": {"target": [], "time": []}}}, "displayed_time": "10.48", "trialTime": 11571, "trial_type": "mouselab-mdp", "trial_index": 59, "time_elapsed": 1063752, "internal_node_id": "0.0-4.0-3.0-19.0"}}, {"uniqueid": "w94241674:a71644549", "current_trial": 60, "dateTime": 1664369037130, "trialdata": {"revealed_states": [], "num_clicks_accrued": [0, 0, 0, 0, 0, 0, 0, 0, 0, 0, 0, 0, 0], "stateRewards": ["", 4, -8, 48, -24, 4, -4, -48, -48, 4, -4, 24, 24], "withholdReward": true, "trial_id": "mdp_221562928904", "block": "test2", "trialIndex": 52, "score": 47.25, "costs": -1.75, "simulationMode": [null, null, null], "rewards": [4, -8, 48], "path": ["0", "0", "1", "2", "3"], "rt": [6081, 583, 750], "actions": ["up", "up", "right"], "actionTimes": [6979, 8068, 9333], "queries": {"click": {"state": {"target": ["4", "3", "11", "12", "1", "7", "8"], "time": [1522, 2021, 2605, 3556, 4638, 5387, 5921]}, "edge": {"target": [], "time": []}}, "mouseover": {"state": {"target": ["1", "4", "2", "3", "1", "11", "10", "12", "12", "9", "1", "1", "5", "6", "7", "6", "8", "6"], "time": [1232, 1331, 1816, 1898, 2300, 2516, 2983, 3015, 3432, 3900, 3949, 4516, 5032, 5166, 5199, 5682, 5766, 6249]}, "edge": {"target": [], "time": []}}, "mouseout": {"state": {"target": ["0", "1", "4", "2", "3", "1", "11", "10", "12", "12", "9", "1", "1", "5", "6", "7", "6", "8", "6", "7"], "time": [1166, 1282, 1749, 1866, 2249, 2316, 2966, 3000, 3050, 3866, 3915, 4216, 4932, 5082, 5182, 5666, 5715, 6216, 6282, 6398]}, "edge": {"target": [], "time": []}}}, "displayed_time": "9.85", "trialTime": 14423, "trial_type": "mouselab-mdp", "trial_index": 60, "time_elapsed": 1078218, "internal_node_id": "0.0-4.0-3.0-20.0"}}, {"uniqueid": "w94241674:a71644549", "current_trial": 61, "dateTime": 1664369047451, "trialdata": {"revealed_states": [], "num_clicks_accrued": [0, 0, 0, 0, 0, 0, 0, 0, 0, 0, 0, 0, 0], "stateRewards": ["", 2, 8, -48, -24, 4, 4, 24, 48, 4, -4, -48, 48], "withholdReward": true, "trial_id": "mdp_665096999232", "block": "test2", "trialIndex": 53, "score": 60, "costs": -1, "simulationMode": [null, null, null], "rewards": [4, 4, 48], "path": ["0", "0", "5", "6", "8"], "rt": [4768, 859, 539], "actions": ["right", "right", "down"], "actionTimes": [5709, 7073, 8121], "queries": {"click": {"state": {"target": ["7", "4", "8", "11"], "time": [2103, 3619, 4353, 5119]}, "edge": {"target": [], "time": []}}, "mouseover": {"state": {"target": ["3", "7", "3", "3", "2", "4", "4", "6", "8", "8", "0", "9", "11"], "time": [1564, 1965, 2515, 3081, 3231, 3264, 3498, 3915, 3981, 4214, 4681, 4731, 4931]}, "edge": {"target": [], "time": []}}, "mouseout": {"state": {"target": ["0", "3", "7", "3", "3", "2", "4", "4", "6", "8", "8", "0", "9"], "time": [1218, 1732, 2415, 2580, 3215, 3247, 3297, 3814, 3931, 4015, 4613, 4697, 4798]}, "edge": {"target": [], "time": []}}}, "displayed_time": "8.94", "trialTime": 10277, "trial_type": "mouselab-mdp", "trial_index": 61, "time_elapsed": 1088539, "internal_node_id": "0.0-4.0-3.0-21.0"}}, {"uniqueid": "w94241674:a71644549", "current_trial": 62, "dateTime": 1664369061835, "trialdata": {"revealed_states": [], "num_clicks_accrued": [0, 0, 0, 0, 0, 0, 0, 0, 0, 0, 0, 0, 0], "stateRewards": ["", 2, -8, 24, 24, 2, 4, -48, -48, 4, 4, -24, 48], "withholdReward": true, "trial_id": "mdp_985707010949", "block": "test2", "trialIndex": 54, "score": 59, "costs": -2, "simulationMode": [null, null, null], "rewards": [4, 4, 48], "path": ["0", "0", "9", "10", "12"], "rt": [8349, 918, 650], "actions": ["left", "left", "down"], "actionTimes": [10221, 11631, 12795], "queries": {"click": {"state": {"target": ["4", "3", "7", "8", "11", "12", "2", "10"], "time": [2633, 3133, 3733, 4233, 4948, 5767, 8199, 8934]}, "edge": {"target": [], "time": []}}, "mouseover": {"state": {"target": ["1", "2", "4", "2", "3", "7", "6", "8", "0", "11", "10", "12", "12", "1", "2", "1", "2", "9", "10", "9", "1"], "time": [2277, 2343, 2494, 2876, 2926, 3593, 4026, 4093, 4527, 4810, 5177, 5227, 5642, 7394, 7660, 7876, 8076, 8627, 8776, 9510, 9793]}, "edge": {"target": [], "time": []}}, "mouseout": {"state": {"target": ["11", "4", "2", "0", "1", "2", "4", "2", "3", "7", "6", "8", "0", "11", "10", "12", "12", "4", "1", "2", "1", "2", "9", "10", "9", "1"], "time": [526, 577, 610, 777, 2310, 2376, 2860, 2910, 3527, 3977, 4060, 4461, 4560, 5159, 5210, 5243, 6193, 7377, 7427, 7844, 8043, 8577, 8760, 9277, 9776, 9827]}, "edge": {"target": [], "time": []}}}, "displayed_time": "13.31", "trialTime": 14339, "trial_type": "mouselab-mdp", "trial_index": 62, "time_elapsed": 1102923, "internal_node_id": "0.0-4.0-3.0-22.0"}}, {"uniqueid": "w94241674:a71644549", "current_trial": 63, "dateTime": 1664369075695, "trialdata": {"revealed_states": [], "num_clicks_accrued": [0, 0, 0, 0, 0, 0, 0, 0, 0, 0, 0, 0, 0], "stateRewards": ["", -4, -8, -48, 24, -4, -4, -24, -48, 2, -8, -24, -48], "withholdReward": false, "trial_id": "mdp_628181832088", "block": "test2", "trialIndex": 55, "score": -56.25, "costs": -1.25, "simulationMode": [null, null, null], "rewards": [-4, -8, -48], "path": ["0", "0", "1", "2", "3"], "rt": [5846, 438, 746], "actions": ["up", "up", "right"], "actionTimes": [7073, 8018, 9275], "queries": {"click": {"state": {"target": ["4", "8", "11", "12", "7"], "time": [2067, 3250, 4150, 4900, 6084]}, "edge": {"target": [], "time": []}}, "mouseover": {"state": {"target": ["1", "2", "4", "6", "8", "5", "11", "11", "10", "12", "0", "5", "7", "7"], "time": [1594, 1712, 2028, 2844, 3094, 3661, 3795, 3910, 4694, 4794, 5311, 5344, 5528, 6061]}, "edge": {"target": [], "time": []}}, "mouseout": {"state": {"target": ["2", "1", "0", "1", "2", "4", "6", "8", "5", "11", "11", "10", "12", "0", "5", "7", "7", "7", "6"], "time": [761, 828, 1578, 1628, 1795, 2744, 2911, 3612, 3695, 3811, 4627, 4761, 5261, 5327, 5377, 5577, 6495, 12645, 12678]}, "edge": {"target": [], "time": []}}}, "displayed_time": "10.23", "trialTime": 13817, "trial_type": "mouselab-mdp", "trial_index": 63, "time_elapsed": 1116783, "internal_node_id": "0.0-4.0-3.0-23.0"}}, {"uniqueid": "w94241674:a71644549", "current_trial": 64, "dateTime": 1664369087251, "trialdata": {"revealed_states": [], "num_clicks_accrued": [0, 0, 0, 0, 0, 0, 0, 0, 0, 0, 0, 0, 0], "stateRewards": ["", 2, 4, 24, 48, -2, 8, 24, -24, -4, -4, 48, 48], "withholdReward": true, "trial_id": "mdp_753439303214", "block": "test2", "trialIndex": 56, "score": 58, "costs": -1, "simulationMode": [null, null, null], "rewards": [2, 4, 48], "path": ["0", "0", "1", "2", "4"], "rt": [5359, 986, 1157], "actions": ["up", "up", "left"], "actionTimes": [6519, 8018, 9688], "queries": {"click": {"state": {"target": ["4", "11", "9", "1"], "time": [2270, 3069, 4602, 5136]}, "edge": {"target": [], "time": []}}, "mouseover": {"state": {"target": ["1", "4", "4", "11", "10", "12", "9", "9", "1"], "time": [1547, 1714, 2130, 2731, 3498, 3564, 4181, 4514, 4998]}, "edge": {"target": [], "time": []}}, "mouseout": {"state": {"target": ["1", "4", "4", "11", "10", "12", "9", "9", "1"], "time": [1598, 1831, 2698, 3465, 3531, 3664, 4248, 4881, 5514]}, "edge": {"target": [], "time": []}}}, "displayed_time": "10.20", "trialTime": 11510, "trial_type": "mouselab-mdp", "trial_index": 64, "time_elapsed": 1128339, "internal_node_id": "0.0-4.0-3.0-24.0"}}, {"uniqueid": "w94241674:a71644549", "current_trial": 65, "dateTime": 1664369101813, "trialdata": {"revealed_states": [], "num_clicks_accrued": [0, 0, 0, 0, 0, 0, 0, 0, 0, 0, 0, 0, 0], "stateRewards": ["", 4, -8, -48, 48, -2, 8, -48, 48, -2, -4, 24, -48], "withholdReward": false, "trial_id": "mdp_400558136089", "block": "test2", "trialIndex": 57, "score": 58, "costs": -1, "simulationMode": [null, null, null], "rewards": [-2, 8, 48], "path": ["0", "0", "5", "6", "8"], "rt": [5127, 523, 358], "actions": ["right", "right", "down"], "actionTimes": [6724, 7754, 8622], "queries": {"click": {"state": {"target": ["8", "9", "5", "1"], "time": [2119, 3584, 4703, 5501]}, "edge": {"target": [], "time": []}}, "mouseover": {"state": {"target": ["5", "8", "5", "9", "5", "5", "1", "3"], "time": [1796, 1929, 2496, 3429, 4079, 4579, 5362, 5996]}, "edge": {"target": [], "time": []}}, "mouseout": {"state": {"target": ["0", "0", "5", "8", "5", "9", "5", "5", "1", "3", "2"], "time": [1044, 1778, 1812, 2429, 2513, 3995, 4128, 5279, 5945, 6013, 14329]}, "edge": {"target": [], "time": []}}}, "displayed_time": "9.13", "trialTime": 14519, "trial_type": "mouselab-mdp", "trial_index": 65, "time_elapsed": 1142901, "internal_node_id": "0.0-4.0-3.0-25.0"}}, {"uniqueid": "w94241674:a71644549", "current_trial": 66, "dateTime": 1664369117201, "trialdata": {"revealed_states": [], "num_clicks_accrued": [0, 0, 0, 0, 0, 0, 0, 0, 0, 0, 0, 0, 0], "stateRewards": ["", -4, -8, -48, 48, -2, 8, 48, 48, -2, -4, -48, -48], "withholdReward": true, "trial_id": "mdp_752833580638", "block": "test2", "trialIndex": 58, "score": 57.25, "costs": -1.75, "simulationMode": [null, null, null], "rewards": [-2, 8, 48], "path": ["0", "0", "5", "6", "7"], "rt": [8955, 632, 532], "actions": ["right", "right", "up"], "actionTimes": [11385, 12528, 13579], "queries": {"click": {"state": {"target": ["11", "2", "7", "8", "12", "10", "9"], "time": [3518, 5201, 5951, 6618, 7501, 8102, 10752]}, "edge": {"target": [], "time": []}}, "mouseover": {"state": {"target": ["1", "11", "1", "2", "7", "6", "8", "12", "10", "9", "0", "5", "0", "9"], "time": [2913, 3379, 4346, 5045, 5879, 6296, 6346, 7396, 7929, 9124, 9796, 10446, 10512, 10563]}, "edge": {"target": [], "time": []}}, "mouseout": {"state": {"target": ["1", "0", "1", "11", "1", "2", "7", "6", "8", "12", "10", "9", "0", "5", "0"], "time": [913, 2847, 3013, 3980, 4396, 5446, 6296, 6312, 7046, 7879, 8478, 9763, 10146, 10462, 10528]}, "edge": {"target": [], "time": []}}}, "displayed_time": "14.10", "trialTime": 15341, "trial_type": "mouselab-mdp", "trial_index": 66, "time_elapsed": 1158289, "internal_node_id": "0.0-4.0-3.0-26.0"}}, {"uniqueid": "w94241674:a71644549", "current_trial": 67, "dateTime": 1664369129294, "trialdata": {"revealed_states": [], "num_clicks_accrued": [0, 0, 0, 0, 0, 0, 0, 0, 0, 0, 0, 0, 0], "stateRewards": ["", 2, 8, 48, 24, 2, 8, 48, 48, -2, -4, -24, -48], "withholdReward": true, "trial_id": "mdp_717636349175", "block": "test2", "trialIndex": 59, "score": 62, "costs": -1, "simulationMode": [null, null, null], "rewards": [2, 8, 48], "path": ["0", "0", "5", "6", "7"], "rt": [6754, 581, 576], "actions": ["right", "right", "up"], "actionTimes": [7743, 8841, 9935], "queries": {"click": {"state": {"target": ["3", "11", "7", "5"], "time": [2447, 3530, 4647, 6433]}, "edge": {"target": [], "time": []}}, "mouseover": {"state": {"target": ["1", "3", "2", "4", "11", "1", "7", "1", "5", "6", "6", "5"], "time": [1557, 2325, 2774, 3024, 3324, 4007, 4541, 5425, 5492, 5541, 5975, 6158]}, "edge": {"target": [], "time": []}}, "mouseout": {"state": {"target": ["9", "5", "0", "1", "3", "2", "4", "11", "1", "7", "1", "5", "6", "6", "5", "3"], "time": [557, 740, 1390, 1657, 2741, 2840, 3257, 3924, 4057, 5075, 5442, 5509, 5575, 6025, 6942, 7025]}, "edge": {"target": [], "time": []}}}, "displayed_time": "10.99", "trialTime": 12046, "trial_type": "mouselab-mdp", "trial_index": 67, "time_elapsed": 1170381, "internal_node_id": "0.0-4.0-3.0-27.0"}}, {"uniqueid": "w94241674:a71644549", "current_trial": 68, "dateTime": 1664369141199, "trialdata": {"revealed_states": [], "num_clicks_accrued": [0, 0, 0, 0, 0, 0, 0, 0, 0, 0, 0, 0, 0], "stateRewards": ["", -2, -4, -24, -48, 2, -8, -24, -24, 4, -8, 48, 48], "withholdReward": true, "trial_id": "mdp_950599994674", "block": "test2", "trialIndex": 60, "score": 46.75, "costs": -2.25, "simulationMode": [null, null, null], "rewards": [4, -8, 48], "path": ["0", "0", "9", "10", "11"], "rt": [7577, 468, 182], "actions": ["left", "left", "up"], "actionTimes": [8693, 9668, 10366], "queries": {"click": {"state": {"target": ["3", "4", "11", "12", "8", "7", "6", "2", "10"], "time": [1956, 2489, 2989, 3539, 4839, 5423, 5940, 7005, 7855]}, "edge": {"target": [], "time": []}}, "mouseover": {"state": {"target": ["1", "2", "3", "2", "4", "11", "10", "12", "8", "8", "6", "7", "6", "1", "2", "10"], "time": [1567, 1717, 1767, 2316, 2367, 2834, 3284, 3333, 4234, 4617, 5084, 5300, 5850, 6499, 6934, 7634]}, "edge": {"target": [], "time": []}}, "mouseout": {"state": {"target": ["2", "1", "1", "2", "3", "2", "4", "11", "10", "12", "8", "8", "6", "7", "6", "1", "2", "10"], "time": [617, 666, 1617, 1733, 2300, 2333, 2767, 3250, 3317, 4034, 4318, 5068, 5150, 5784, 6283, 6650, 7401, 8150]}, "edge": {"target": [], "time": []}}}, "displayed_time": "10.88", "trialTime": 11861, "trial_type": "mouselab-mdp", "trial_index": 68, "time_elapsed": 1182287, "internal_node_id": "0.0-4.0-3.0-28.0"}}, {"uniqueid": "w94241674:a71644549", "current_trial": 69, "dateTime": 1664369154706, "trialdata": {"revealed_states": [], "num_clicks_accrued": [0, 0, 0, 0, 0, 0, 0, 0, 0, 0, 0, 0, 0], "stateRewards": ["", 2, -8, -24, 48, -4, -8, 24, -48, 4, -8, -24, -24], "withholdReward": false, "trial_id": "mdp_928911266656", "block": "test2", "trialIndex": 61, "score": 46.5, "costs": -0.5, "simulationMode": [null, null, null], "rewards": [2, -8, 48], "path": ["0", "0", "1", "2", "4"], "rt": [2779, 276, 267], "actions": ["up", "up", "left"], "actionTimes": [3975, 4758, 5532], "queries": {"click": {"state": {"target": ["4", "1"], "time": [1786, 2636]}, "edge": {"target": [], "time": []}}, "mouseover": {"state": {"target": ["1", "4", "1", "3"], "time": [1531, 1598, 2514, 2964]}, "edge": {"target": [], "time": []}}, "mouseout": {"state": {"target": ["10", "0", "1", "4", "1", "3"], "time": [697, 1474, 1547, 2064, 2897, 3181]}, "edge": {"target": [], "time": []}}}, "displayed_time": "10.20", "trialTime": 13464, "trial_type": "mouselab-mdp", "trial_index": 69, "time_elapsed": 1195794, "internal_node_id": "0.0-4.0-3.0-29.0"}}, {"uniqueid": "w94241674:a71644549", "current_trial": 70, "dateTime": 1664369216313, "trialdata": {"rt": 61600, "stimulus": "<h1> End of block! </h1>\n\nYou have reached the end of the block 2/4. If you need a short break, feel free to take one now before moving on.\n\n<br><br>\nIn the next block, you will complete another 30 rounds of this game.\n\n<br><br>\n<div style='text-align: center;'>Press <code>space</code> to begin.</div>\n<br><br>\n<div style='text-align: center;'>(If the experiment doesn't continue, try clicking on the text and then pressing <code>space</code>.)</div>", "response": " ", "trial_id": "mdp_ready_3", "trial_type": "html-keyboard-response", "trial_index": 70, "time_elapsed": 1257401, "internal_node_id": "0.0-4.0-4.0"}}, {"uniqueid": "w94241674:a71644549", "current_trial": 71, "dateTime": 1664369228426, "trialdata": {"revealed_states": [], "num_clicks_accrued": [0, 0, 0, 0, 0, 0, 0, 0, 0, 0, 0, 0, 0], "stateRewards": ["", -4, -4, 24, -48, 2, 4, -24, -48, -2, -8, -24, 24], "withholdReward": false, "trial_id": "mdp_565569130486", "block": "test3", "trialIndex": 62, "score": 17.5, "costs": -1.5, "simulationMode": [null, null, null], "rewards": [-2, -8, 24], "path": ["0", "0", "9", "10", "12"], "rt": [6772, 597, 241], "actions": ["left", "left", "down"], "actionTimes": [7785, 8893, 9653], "queries": {"click": {"state": {"target": ["3", "12", "11", "7", "8", "4"], "time": [1967, 3600, 4266, 5066, 5883, 6684]}, "edge": {"target": [], "time": []}}, "mouseover": {"state": {"target": ["7", "3", "1", "9", "12", "10", "11", "7", "6", "8", "6", "4"], "time": [1394, 1844, 3210, 3261, 3494, 3977, 4110, 4944, 5327, 5794, 6227, 6510]}, "edge": {"target": [], "time": []}}, "mouseout": {"state": {"target": ["0", "7", "3", "1", "9", "12", "10", "11", "7", "6", "8", "6", "4"], "time": [1327, 1411, 3161, 3228, 3277, 3960, 4027, 4594, 5311, 5360, 6210, 6260, 7026]}, "edge": {"target": [], "time": []}}}, "displayed_time": "11.02", "trialTime": 12064, "trial_type": "mouselab-mdp", "trial_index": 71, "time_elapsed": 1269514, "internal_node_id": "0.0-4.0-5.0-0.0"}}, {"uniqueid": "w94241674:a71644549", "current_trial": 72, "dateTime": 1664369241012, "trialdata": {"revealed_states": [], "num_clicks_accrued": [0, 0, 0, 0, 0, 0, 0, 0, 0, 0, 0, 0, 0], "stateRewards": ["", -2, -4, -24, -48, -2, 8, -48, 24, 4, -4, -24, -24], "withholdReward": true, "trial_id": "mdp_915304165774", "block": "test3", "trialIndex": 63, "score": 33.5, "costs": -1.5, "simulationMode": [null, null, null], "rewards": [-2, 8, 24], "path": ["0", "0", "5", "6", "8"], "rt": [6647, 702, 485], "actions": ["right", "right", "down"], "actionTimes": [7542, 8746, 9745], "queries": {"click": {"state": {"target": ["3", "7", "8", "12", "11", "4"], "time": [1655, 3537, 4202, 5167, 5834, 6450]}, "edge": {"target": [], "time": []}}, "mouseover": {"state": {"target": ["1", "3", "4", "2", "7", "6", "8", "12", "10", "11", "4"], "time": [1266, 1331, 2181, 2647, 3413, 3946, 4063, 5112, 5561, 5661, 6193]}, "edge": {"target": [], "time": []}}, "mouseout": {"state": {"target": ["1", "3", "4", "2", "3", "7", "6", "8", "12", "10", "11", "4"], "time": [1282, 2015, 2631, 2664, 2681, 3929, 3979, 4596, 5527, 5628, 6160, 6910]}, "edge": {"target": [], "time": []}}}, "displayed_time": "10.89", "trialTime": 12543, "trial_type": "mouselab-mdp", "trial_index": 72, "time_elapsed": 1282100, "internal_node_id": "0.0-4.0-5.0-1.0"}}, {"uniqueid": "w94241674:a71644549", "current_trial": 73, "dateTime": 1664369252341, "trialdata": {"revealed_states": [], "num_clicks_accrued": [0, 0, 0, 0, 0, 0, 0, 0, 0, 0, 0, 0, 0], "stateRewards": ["", 2, 8, 48, -48, -2, -4, -24, 24, 4, -4, 48, -48], "withholdReward": true, "trial_id": "mdp_105734044587", "block": "test3", "trialIndex": 64, "score": 51.75, "costs": -1.25, "simulationMode": [null, null, null], "rewards": [4, -4, 48], "path": ["0", "0", "9", "10", "11"], "rt": [4710, 378, 293], "actions": ["left", "left", "up"], "actionTimes": [6155, 7044, 7842], "queries": {"click": {"state": {"target": ["9", "1", "5", "11", "12"], "time": [2406, 3188, 3954, 4621, 5304]}, "edge": {"target": [], "time": []}}, "mouseover": {"state": {"target": ["9", "1", "5", "11", "10", "12"], "time": [2016, 2766, 3749, 4432, 4965, 5215]}, "edge": {"target": [], "time": []}}, "mouseout": {"state": {"target": ["3", "1", "0", "9", "1", "5", "9", "11", "10", "12"], "time": [850, 1151, 1983, 2699, 3532, 4348, 4398, 4948, 5015, 5615]}, "edge": {"target": [], "time": []}}}, "displayed_time": "10.45", "trialTime": 11282, "trial_type": "mouselab-mdp", "trial_index": 73, "time_elapsed": 1293428, "internal_node_id": "0.0-4.0-5.0-2.0"}}, {"uniqueid": "w94241674:a71644549", "current_trial": 74, "dateTime": 1664369264811, "trialdata": {"revealed_states": [], "num_clicks_accrued": [0, 0, 0, 0, 0, 0, 0, 0, 0, 0, 0, 0, 0], "stateRewards": ["", -2, -4, -24, -24, 4, 8, 24, 24, -2, 8, 48, 48], "withholdReward": true, "trial_id": "mdp_620787912291", "block": "test3", "trialIndex": 65, "score": 57.5, "costs": -1.5, "simulationMode": [null, null, null], "rewards": [-2, 8, 48], "path": ["0", "0", "9", "10", "12"], "rt": [6455, 426, 532], "actions": ["left", "left", "down"], "actionTimes": [8616, 9558, 10599], "queries": {"click": {"state": {"target": ["4", "7", "8", "12", "11", "3"], "time": [3605, 4440, 5123, 5955, 6554, 7571]}, "edge": {"target": [], "time": []}}, "mouseover": {"state": {"target": ["2", "4", "4", "2", "3", "7", "6", "8", "12", "10", "11", "3"], "time": [2882, 2949, 3466, 3982, 3999, 4250, 4817, 4866, 5867, 6300, 6433, 7366]}, "edge": {"target": [], "time": []}}, "mouseout": {"state": {"target": ["9", "0", "2", "4", "4", "2", "3", "7", "6", "8", "12", "10", "11", "4", "3"], "time": [1816, 2599, 2932, 3016, 3966, 3999, 4015, 4799, 4832, 5516, 6283, 6333, 7000, 7049, 7933]}, "edge": {"target": [], "time": []}}}, "displayed_time": "11.12", "trialTime": 12423, "trial_type": "mouselab-mdp", "trial_index": 74, "time_elapsed": 1305899, "internal_node_id": "0.0-4.0-5.0-3.0"}}, {"uniqueid": "w94241674:a71644549", "current_trial": 75, "dateTime": 1664369279367, "trialdata": {"revealed_states": [], "num_clicks_accrued": [0, 0, 0, 0, 0, 0, 0, 0, 0, 0, 0, 0, 0], "stateRewards": ["", -2, 8, 48, -24, 2, 4, -48, -24, -4, 8, -48, -48], "withholdReward": true, "trial_id": "mdp_539167561933", "block": "test3", "trialIndex": 66, "score": 57.5, "costs": -1.5, "simulationMode": [null, null, null], "rewards": [-2, 8, 48], "path": ["0", "0", "1", "2", "3"], "rt": [10097, 123, 237], "actions": ["up", "up", "right"], "actionTimes": [11589, 12204, 12952], "queries": {"click": {"state": {"target": ["4", "3", "7", "8", "12", "11"], "time": [2336, 3019, 3736, 4819, 5636, 6552]}, "edge": {"target": [], "time": []}}, "mouseover": {"state": {"target": ["1", "4", "2", "3", "7", "6", "8", "8", "12", "10", "11", "2", "6", "9", "10", "10", "2", "6"], "time": [1831, 2249, 2682, 2731, 3582, 4130, 4164, 4647, 5530, 6048, 6297, 6965, 8197, 8648, 8680, 9229, 9380, 10197]}, "edge": {"target": [], "time": []}}, "mouseout": {"state": {"target": ["5", "1", "4", "2", "3", "7", "6", "8", "8", "12", "10", "11", "4", "2", "3", "3", "4", "4", "3", "7", "6", "8", "9", "10", "10", "4", "2", "3", "7", "6", "8", "12"], "time": [1263, 1848, 2664, 2697, 3331, 4115, 4148, 4231, 5164, 6031, 6131, 6930, 6964, 6980, 6997, 7164, 7214, 7481, 7846, 7914, 8231, 8547, 8663, 8697, 9263, 9330, 9397, 9630, 10014, 10246, 10496, 10880]}, "edge": {"target": [], "time": []}}}, "displayed_time": "13.46", "trialTime": 14513, "trial_type": "mouselab-mdp", "trial_index": 75, "time_elapsed": 1320455, "internal_node_id": "0.0-4.0-5.0-4.0"}}, {"uniqueid": "w94241674:a71644549", "current_trial": 76, "dateTime": 1664369290651, "trialdata": {"revealed_states": [], "num_clicks_accrued": [0, 0, 0, 0, 0, 0, 0, 0, 0, 0, 0, 0, 0], "stateRewards": ["", 2, 8, 24, 24, 2, -8, -24, -48, 2, 8, -48, 48], "withholdReward": true, "trial_id": "mdp_745175888812", "block": "test3", "trialIndex": 67, "score": 61.5, "costs": -1.5, "simulationMode": [null, null, null], "rewards": [2, 8, 48], "path": ["0", "0", "9", "10", "12"], "rt": [5114, 372, 209], "actions": ["left", "left", "down"], "actionTimes": [6501, 7379, 8083], "queries": {"click": {"state": {"target": ["7", "8", "3", "4", "11", "12"], "time": [2145, 2711, 3562, 4178, 5029, 5645]}, "edge": {"target": [], "time": []}}, "mouseover": {"state": {"target": ["5", "7", "6", "8", "3", "2", "4", "11", "10", "12"], "time": [1757, 1990, 2474, 2523, 3240, 3789, 3839, 4923, 5390, 5523]}, "edge": {"target": [], "time": []}}, "mouseout": {"state": {"target": ["4", "9", "0", "0", "5", "7", "6", "8", "3", "2", "4", "11", "10", "12"], "time": [523, 689, 806, 1724, 1773, 2456, 2507, 3107, 3773, 3823, 4473, 5306, 5473, 6073]}, "edge": {"target": [], "time": []}}}, "displayed_time": "10.39", "trialTime": 11240, "trial_type": "mouselab-mdp", "trial_index": 76, "time_elapsed": 1331739, "internal_node_id": "0.0-4.0-5.0-5.0"}}, {"uniqueid": "w94241674:a71644549", "current_trial": 77, "dateTime": 1664369304567, "trialdata": {"revealed_states": [], "num_clicks_accrued": [0, 0, 0, 0, 0, 0, 0, 0, 0, 0, 0, 0, 0], "stateRewards": ["", -2, -8, -24, -24, 4, -4, -48, 48, 2, 8, 48, -48], "withholdReward": false, "trial_id": "mdp_498095124548", "block": "test3", "trialIndex": 68, "score": 61.5, "costs": -1.5, "simulationMode": [null, null, null], "rewards": [2, 8, 48], "path": ["0", "0", "9", "10", "11"], "rt": [5378, 1909, 2346], "actions": ["left", "left", "up"], "actionTimes": [6848, 9273, 12127], "queries": {"click": {"state": {"target": ["3", "4", "11", "12", "7", "9"], "time": [2452, 2969, 3619, 4202, 5152, 6101]}, "edge": {"target": [], "time": []}}, "mouseover": {"state": {"target": ["3", "3", "2", "4", "11", "10", "12", "8", "7", "6", "8", "5", "9", "0"], "time": [1846, 2330, 2746, 2913, 3446, 3846, 3896, 4647, 5063, 5412, 5479, 5796, 5897, 6397]}, "edge": {"target": [], "time": []}}, "mouseout": {"state": {"target": ["0", "3", "3", "2", "4", "11", "10", "12", "8", "7", "6", "8", "5", "9", "0"], "time": [1780, 1996, 2730, 2797, 3397, 3829, 3880, 4546, 4663, 5380, 5462, 5779, 5829, 6363, 6413]}, "edge": {"target": [], "time": []}}}, "displayed_time": "12.63", "trialTime": 13879, "trial_type": "mouselab-mdp", "trial_index": 77, "time_elapsed": 1345654, "internal_node_id": "0.0-4.0-5.0-6.0"}}, {"uniqueid": "w94241674:a71644549", "current_trial": 78, "dateTime": 1664369320366, "trialdata": {"revealed_states": [], "num_clicks_accrued": [0, 0, 0, 0, 0, 0, 0, 0, 0, 0, 0, 0, 0], "stateRewards": ["", -2, -8, 48, 24, 2, 4, 24, -24, -2, -4, 48, -48], "withholdReward": false, "trial_id": "mdp_411152402386", "block": "test3", "trialIndex": 69, "score": 45.5, "costs": -1.5, "simulationMode": [null, null, null], "rewards": [-2, -4, 48], "path": ["0", "0", "9", "10", "11"], "rt": [8169, 2059, 1912], "actions": ["left", "left", "up"], "actionTimes": [9205, 11771, 14191], "queries": {"click": {"state": {"target": ["4", "11", "9", "3", "2", "10"], "time": [1934, 2650, 3935, 5485, 6667, 7850]}, "edge": {"target": [], "time": []}}, "mouseover": {"state": {"target": ["0", "1", "4", "4", "11", "10", "9", "10", "2", "3", "2", "1", "10"], "time": [1135, 1378, 1511, 1761, 2512, 3029, 3795, 4562, 4978, 5245, 6462, 7244, 7612]}, "edge": {"target": [], "time": []}}, "mouseout": {"state": {"target": ["6", "5", "0", "1", "4", "4", "11", "10", "9", "10", "2", "3", "3", "2", "2", "1", "10"], "time": [428, 529, 1345, 1