{"condition": 0, "counterbalance": 0, "assignmentId": "a87661281", "workerId": "w35124455", "hitId": "h99040506", "currenttrial": 974, "bonus": 0, "data": [{"uniqueid": "w35124455:a87661281", "current_trial": 0, "dateTime": 1664554988607, "trialdata": {"success": true, "trial_type": "fullscreen", "trial_index": 0, "time_elapsed": 7717, "internal_node_id": "0.0-0.0"}}, {"uniqueid": "w35124455:a87661281", "current_trial": 1, "dateTime": 1664555019038, "trialdata": {"view_history": [{"page_index": 0, "viewing_time": 30409}], "rt": 30412, "trial_id": "exp_instructions_distractor", "trial_type": "instructions", "trial_index": 1, "time_elapsed": 38151, "internal_node_id": "0.0-1.0"}}, {"uniqueid": "w35124455:a87661281", "current_trial": 2, "dateTime": 1664555051884, "trialdata": {"view_history": [{"page_index": 0, "viewing_time": 32839}], "rt": 32840, "trial_id": "color_game_instructions", "trial_type": "instructions", "trial_index": 2, "time_elapsed": 70997, "internal_node_id": "0.0-2.0"}}, {"uniqueid": "w35124455:a87661281", "current_trial": 3, "dateTime": 1664555055217, "trialdata": {"rt": 3325, "stimulus": "<h1> Get ready to start the game! </h1>\n\nThank you for reading the instructions. Get ready start with the first of 5 block(s) of this game.\n<br><br>\nIn this first block, you will complete 90 rounds of this game before moving on.\n<br><br>\nRemember, the better you perform, the bigger your bonus will be!\n<br><br>\n<div style='text-align: center;'>Press <code>space</code> to begin.</div>", "response": " ", "trial_id": "stroop_1_ready_1", "trial_type": "html-keyboard-response", "trial_index": 3, "time_elapsed": 74330, "internal_node_id": "0.0-3.0"}}, {"uniqueid": "w35124455:a87661281", "current_trial": 4, "dateTime": 1664555057122, "trialdata": {"rt": 1877, "stimulus": "<p id='stroop-text' class='stroop-green'>GREEN</p>", "response": "g", "stimulus-type": "congruent", "word": "green", "color": "green", "correct_response": "g", "trial_id": "stroop-trial-1-congruent-5", "trial_type": "html-keyboard-response", "trial_index": 4, "time_elapsed": 76234, "internal_node_id": "0.0-4.0-0.0"}}, {"uniqueid": "w35124455:a87661281", "current_trial": 5, "dateTime": 1664555059383, "trialdata": {"rt": 1755, "stimulus": "<p id='stroop-text' class='stroop-yellow'>FORK</p>", "response": "y", "stimulus-type": "unrelated", "word": "FORK", "color": "yellow", "correct_response": "y", "trial_id": "stroop-trial-1-unrelated-29", "trial_type": "html-keyboard-response", "trial_index": 5, "time_elapsed": 78495, "internal_node_id": "0.0-4.0-1.0"}}, {"uniqueid": "w35124455:a87661281", "current_trial": 6, "dateTime": 1664555060536, "trialdata": {"rt": 644, "stimulus": "<p id='stroop-text' class='stroop-yellow'>YELLOW</p>", "response": "y", "stimulus-type": "congruent", "word": "yellow", "color": "yellow", "correct_response": "y", "trial_id": "stroop-trial-1-congruent-12", "trial_type": "html-keyboard-response", "trial_index": 6, "time_elapsed": 79648, "internal_node_id": "0.0-4.0-2.0"}}, {"uniqueid": "w35124455:a87661281", "current_trial": 7, "dateTime": 1664555061613, "trialdata": {"rt": 573, "stimulus": "<p id='stroop-text' class='stroop-yellow'>FORK</p>", "response": "y", "stimulus-type": "unrelated", "word": "FORK", "color": "yellow", "correct_response": "y", "trial_id": "stroop-trial-1-unrelated-20", "trial_type": "html-keyboard-response", "trial_index": 7, "time_elapsed": 80725, "internal_node_id": "0.0-4.0-3.0"}}, {"uniqueid": "w35124455:a87661281", "current_trial": 8, "dateTime": 1664555062943, "trialdata": {"rt": 823, "stimulus": "<p id='stroop-text' class='stroop-blue'>BOTTLE</p>", "response": "b", "stimulus-type": "unrelated", "word": "BOTTLE", "color": "blue", "correct_response": "b", "trial_id": "stroop-trial-1-unrelated-3", "trial_type": "html-keyboard-response", "trial_index": 8, "time_elapsed": 82055, "internal_node_id": "0.0-4.0-4.0"}}, {"uniqueid": "w35124455:a87661281", "current_trial": 9, "dateTime": 1664555064624, "trialdata": {"rt": 1171, "stimulus": "<p id='stroop-text' class='stroop-red'>RED</p>", "response": "r", "stimulus-type": "congruent", "word": "red", "color": "red", "correct_response": "r", "trial_id": "stroop-trial-1-congruent-13", "trial_type": "html-keyboard-response", "trial_index": 9, "time_elapsed": 83736, "internal_node_id": "0.0-4.0-5.0"}}, {"uniqueid": "w35124455:a87661281", "current_trial": 10, "dateTime": 1664555065846, "trialdata": {"rt": 709, "stimulus": "<p id='stroop-text' class='stroop-blue'>BLUE</p>", "response": "b", "stimulus-type": "congruent", "word": "blue", "color": "blue", "correct_response": "b", "trial_id": "stroop-trial-1-congruent-9", "trial_type": "html-keyboard-response", "trial_index": 10, "time_elapsed": 84958, "internal_node_id": "0.0-4.0-6.0"}}, {"uniqueid": "w35124455:a87661281", "current_trial": 11, "dateTime": 1664555067425, "trialdata": {"rt": 1066, "stimulus": "<p id='stroop-text' class='stroop-red'>WINDOW</p>", "response": "r", "stimulus-type": "unrelated", "word": "WINDOW", "color": "red", "correct_response": "r", "trial_id": "stroop-trial-1-unrelated-16", "trial_type": "html-keyboard-response", "trial_index": 11, "time_elapsed": 86537, "internal_node_id": "0.0-4.0-7.0"}}, {"uniqueid": "w35124455:a87661281", "current_trial": 12, "dateTime": 1664555069080, "trialdata": {"rt": 1144, "stimulus": "<p id='stroop-text' class='stroop-red'>GREEN</p>", "response": "r", "stimulus-type": "incongruent", "word": "green", "color": "red", "correct_response": "r", "trial_id": "stroop-trial-1-incongruent-14", "trial_type": "html-keyboard-response", "trial_index": 12, "time_elapsed": 88192, "internal_node_id": "0.0-4.0-8.0"}}, {"uniqueid": "w35124455:a87661281", "current_trial": 13, "dateTime": 1664555070358, "trialdata": {"rt": 771, "stimulus": "<p id='stroop-text' class='stroop-blue'>BLUE</p>", "response": "b", "stimulus-type": "congruent", "word": "blue", "color": "blue", "correct_response": "b", "trial_id": "stroop-trial-1-congruent-10", "trial_type": "html-keyboard-response", "trial_index": 13, "time_elapsed": 89470, "internal_node_id": "0.0-4.0-9.0"}}, {"uniqueid": "w35124455:a87661281", "current_trial": 14, "dateTime": 1664555071401, "trialdata": {"rt": 537, "stimulus": "<p id='stroop-text' class='stroop-blue'>BLUE</p>", "response": "b", "stimulus-type": "congruent", "word": "blue", "color": "blue", "correct_response": "b", "trial_id": "stroop-trial-1-congruent-19", "trial_type": "html-keyboard-response", "trial_index": 14, "time_elapsed": 90514, "internal_node_id": "0.0-4.0-10.0"}}, {"uniqueid": "w35124455:a87661281", "current_trial": 15, "dateTime": 1664555072324, "trialdata": {"rt": 414, "stimulus": "<p id='stroop-text' class='stroop-blue'>GREEN</p>", "response": "b", "stimulus-type": "incongruent", "word": "green", "color": "blue", "correct_response": "b", "trial_id": "stroop-trial-1-incongruent-28", "trial_type": "html-keyboard-response", "trial_index": 15, "time_elapsed": 91437, "internal_node_id": "0.0-4.0-11.0"}}, {"uniqueid": "w35124455:a87661281", "current_trial": 16, "dateTime": 1664555073588, "trialdata": {"rt": 745, "stimulus": "<p id='stroop-text' class='stroop-blue'>BOAT</p>", "response": "b", "stimulus-type": "unrelated", "word": "BOAT", "color": "blue", "correct_response": "b", "trial_id": "stroop-trial-1-unrelated-14", "trial_type": "html-keyboard-response", "trial_index": 16, "time_elapsed": 92700, "internal_node_id": "0.0-4.0-12.0"}}, {"uniqueid": "w35124455:a87661281", "current_trial": 17, "dateTime": 1664555074894, "trialdata": {"rt": 797, "stimulus": "<p id='stroop-text' class='stroop-green'>RED</p>", "response": "r", "stimulus-type": "incongruent", "word": "red", "color": "green", "correct_response": "g", "trial_id": "stroop-trial-1-incongruent-5", "trial_type": "html-keyboard-response", "trial_index": 17, "time_elapsed": 94007, "internal_node_id": "0.0-4.0-13.0"}}, {"uniqueid": "w35124455:a87661281", "current_trial": 18, "dateTime": 1664555076525, "trialdata": {"rt": 1124, "stimulus": "<p id='stroop-text' class='stroop-green'>GREEN</p>", "response": "y", "stimulus-type": "congruent", "word": "green", "color": "green", "correct_response": "g", "trial_id": "stroop-trial-1-congruent-14", "trial_type": "html-keyboard-response", "trial_index": 18, "time_elapsed": 95638, "internal_node_id": "0.0-4.0-14.0"}}, {"uniqueid": "w35124455:a87661281", "current_trial": 19, "dateTime": 1664555080196, "trialdata": {"rt": 3152, "stimulus": "<p id='stroop-text' class='stroop-red'>BLUE</p>", "response": "r", "stimulus-type": "incongruent", "word": "blue", "color": "red", "correct_response": "r", "trial_id": "stroop-trial-1-incongruent-24", "trial_type": "html-keyboard-response", "trial_index": 19, "time_elapsed": 99309, "internal_node_id": "0.0-4.0-15.0"}}, {"uniqueid": "w35124455:a87661281", "current_trial": 20, "dateTime": 1664555081880, "trialdata": {"rt": 1179, "stimulus": "<p id='stroop-text' class='stroop-green'>FORK</p>", "response": "g", "stimulus-type": "unrelated", "word": "FORK", "color": "green", "correct_response": "g", "trial_id": "stroop-trial-1-unrelated-19", "trial_type": "html-keyboard-response", "trial_index": 20, "time_elapsed": 100992, "internal_node_id": "0.0-4.0-16.0"}}, {"uniqueid": "w35124455:a87661281", "current_trial": 21, "dateTime": 1664555083138, "trialdata": {"rt": 748, "stimulus": "<p id='stroop-text' class='stroop-yellow'>YELLOW</p>", "response": "y", "stimulus-type": "congruent", "word": "yellow", "color": "yellow", "correct_response": "y", "trial_id": "stroop-trial-1-congruent-20", "trial_type": "html-keyboard-response", "trial_index": 21, "time_elapsed": 102250, "internal_node_id": "0.0-4.0-17.0"}}, {"uniqueid": "w35124455:a87661281", "current_trial": 22, "dateTime": 1664555085016, "trialdata": {"rt": 1359, "stimulus": "<p id='stroop-text' class='stroop-green'>GREEN</p>", "response": "b", "stimulus-type": "congruent", "word": "green", "color": "green", "correct_response": "g", "trial_id": "stroop-trial-1-congruent-4", "trial_type": "html-keyboard-response", "trial_index": 22, "time_elapsed": 104128, "internal_node_id": "0.0-4.0-18.0"}}, {"uniqueid": "w35124455:a87661281", "current_trial": 23, "dateTime": 1664555087192, "trialdata": {"rt": 1658, "stimulus": "<p id='stroop-text' class='stroop-red'>RED</p>", "response": "r", "stimulus-type": "congruent", "word": "red", "color": "red", "correct_response": "r", "trial_id": "stroop-trial-1-congruent-7", "trial_type": "html-keyboard-response", "trial_index": 23, "time_elapsed": 106305, "internal_node_id": "0.0-4.0-19.0"}}, {"uniqueid": "w35124455:a87661281", "current_trial": 24, "dateTime": 1664555088873, "trialdata": {"rt": 1175, "stimulus": "<p id='stroop-text' class='stroop-yellow'>BOTTLE</p>", "response": "b", "stimulus-type": "unrelated", "word": "BOTTLE", "color": "yellow", "correct_response": "y", "trial_id": "stroop-trial-1-unrelated-15", "trial_type": "html-keyboard-response", "trial_index": 24, "time_elapsed": 107985, "internal_node_id": "0.0-4.0-20.0"}}, {"uniqueid": "w35124455:a87661281", "current_trial": 25, "dateTime": 1664555090566, "trialdata": {"rt": 1182, "stimulus": "<p id='stroop-text' class='stroop-green'>GREEN</p>", "response": "g", "stimulus-type": "congruent", "word": "green", "color": "green", "correct_response": "g", "trial_id": "stroop-trial-1-congruent-29", "trial_type": "html-keyboard-response", "trial_index": 25, "time_elapsed": 109678, "internal_node_id": "0.0-4.0-21.0"}}, {"uniqueid": "w35124455:a87661281", "current_trial": 26, "dateTime": 1664555091586, "trialdata": {"rt": 512, "stimulus": "<p id='stroop-text' class='stroop-green'>GREEN</p>", "response": "g", "stimulus-type": "congruent", "word": "green", "color": "green", "correct_response": "g", "trial_id": "stroop-trial-1-congruent-6", "trial_type": "html-keyboard-response", "trial_index": 26, "time_elapsed": 110699, "internal_node_id": "0.0-4.0-22.0"}}, {"uniqueid": "w35124455:a87661281", "current_trial": 27, "dateTime": 1664555093170, "trialdata": {"rt": 1064, "stimulus": "<p id='stroop-text' class='stroop-yellow'>SHIP</p>", "response": "y", "stimulus-type": "unrelated", "word": "SHIP", "color": "yellow", "correct_response": "y", "trial_id": "stroop-trial-1-unrelated-22", "trial_type": "html-keyboard-response", "trial_index": 27, "time_elapsed": 112282, "internal_node_id": "0.0-4.0-23.0"}}, {"uniqueid": "w35124455:a87661281", "current_trial": 28, "dateTime": 1664555095042, "trialdata": {"rt": 1357, "stimulus": "<p id='stroop-text' class='stroop-green'>STONE</p>", "response": "g", "stimulus-type": "unrelated", "word": "STONE", "color": "green", "correct_response": "g", "trial_id": "stroop-trial-1-unrelated-17", "trial_type": "html-keyboard-response", "trial_index": 28, "time_elapsed": 114155, "internal_node_id": "0.0-4.0-24.0"}}, {"uniqueid": "w35124455:a87661281", "current_trial": 29, "dateTime": 1664555096181, "trialdata": {"rt": 626, "stimulus": "<p id='stroop-text' class='stroop-yellow'>YELLOW</p>", "response": "y", "stimulus-type": "congruent", "word": "yellow", "color": "yellow", "correct_response": "y", "trial_id": "stroop-trial-1-congruent-28", "trial_type": "html-keyboard-response", "trial_index": 29, "time_elapsed": 115294, "internal_node_id": "0.0-4.0-25.0"}}, {"uniqueid": "w35124455:a87661281", "current_trial": 30, "dateTime": 1664555097574, "trialdata": {"rt": 884, "stimulus": "<p id='stroop-text' class='stroop-green'>RED</p>", "response": "r", "stimulus-type": "incongruent", "word": "red", "color": "green", "correct_response": "g", "trial_id": "stroop-trial-1-incongruent-11", "trial_type": "html-keyboard-response", "trial_index": 30, "time_elapsed": 116686, "internal_node_id": "0.0-4.0-26.0"}}, {"uniqueid": "w35124455:a87661281", "current_trial": 31, "dateTime": 1664555099364, "trialdata": {"rt": 1270, "stimulus": "<p id='stroop-text' class='stroop-green'>YELLOW</p>", "response": "g", "stimulus-type": "incongruent", "word": "yellow", "color": "green", "correct_response": "g", "trial_id": "stroop-trial-1-incongruent-21", "trial_type": "html-keyboard-response", "trial_index": 31, "time_elapsed": 118476, "internal_node_id": "0.0-4.0-27.0"}}, {"uniqueid": "w35124455:a87661281", "current_trial": 32, "dateTime": 1664555100670, "trialdata": {"rt": 801, "stimulus": "<p id='stroop-text' class='stroop-blue'>YELLOW</p>", "response": "b", "stimulus-type": "incongruent", "word": "yellow", "color": "blue", "correct_response": "b", "trial_id": "stroop-trial-1-incongruent-12", "trial_type": "html-keyboard-response", "trial_index": 32, "time_elapsed": 119783, "internal_node_id": "0.0-4.0-28.0"}}, {"uniqueid": "w35124455:a87661281", "current_trial": 33, "dateTime": 1664555102625, "trialdata": {"rt": 1439, "stimulus": "<p id='stroop-text' class='stroop-yellow'>YELLOW</p>", "response": "g", "stimulus-type": "congruent", "word": "yellow", "color": "yellow", "correct_response": "y", "trial_id": "stroop-trial-1-congruent-27", "trial_type": "html-keyboard-response", "trial_index": 33, "time_elapsed": 121737, "internal_node_id": "0.0-4.0-29.0"}}, {"uniqueid": "w35124455:a87661281", "current_trial": 34, "dateTime": 1664555103833, "trialdata": {"rt": 701, "stimulus": "<p id='stroop-text' class='stroop-yellow'>YELLOW</p>", "response": "y", "stimulus-type": "congruent", "word": "yellow", "color": "yellow", "correct_response": "y", "trial_id": "stroop-trial-1-congruent-16", "trial_type": "html-keyboard-response", "trial_index": 34, "time_elapsed": 122945, "internal_node_id": "0.0-4.0-30.0"}}, {"uniqueid": "w35124455:a87661281", "current_trial": 35, "dateTime": 1664555105080, "trialdata": {"rt": 743, "stimulus": "<p id='stroop-text' class='stroop-yellow'>MONKEY</p>", "response": "y", "stimulus-type": "unrelated", "word": "MONKEY", "color": "yellow", "correct_response": "y", "trial_id": "stroop-trial-1-unrelated-2", "trial_type": "html-keyboard-response", "trial_index": 35, "time_elapsed": 124193, "internal_node_id": "0.0-4.0-31.0"}}, {"uniqueid": "w35124455:a87661281", "current_trial": 36, "dateTime": 1664555106139, "trialdata": {"rt": 550, "stimulus": "<p id='stroop-text' class='stroop-green'>GREEN</p>", "response": "g", "stimulus-type": "congruent", "word": "green", "color": "green", "correct_response": "g", "trial_id": "stroop-trial-1-congruent-24", "trial_type": "html-keyboard-response", "trial_index": 36, "time_elapsed": 125251, "internal_node_id": "0.0-4.0-32.0"}}, {"uniqueid": "w35124455:a87661281", "current_trial": 37, "dateTime": 1664555107562, "trialdata": {"rt": 909, "stimulus": "<p id='stroop-text' class='stroop-green'>BLUE</p>", "response": "g", "stimulus-type": "incongruent", "word": "blue", "color": "green", "correct_response": "g", "trial_id": "stroop-trial-1-incongruent-16", "trial_type": "html-keyboard-response", "trial_index": 37, "time_elapsed": 126674, "internal_node_id": "0.0-4.0-33.0"}}, {"uniqueid": "w35124455:a87661281", "current_trial": 38, "dateTime": 1664555108953, "trialdata": {"rt": 882, "stimulus": "<p id='stroop-text' class='stroop-blue'>BLUE</p>", "response": "b", "stimulus-type": "congruent", "word": "blue", "color": "blue", "correct_response": "b", "trial_id": "stroop-trial-1-congruent-1", "trial_type": "html-keyboard-response", "trial_index": 38, "time_elapsed": 128065, "internal_node_id": "0.0-4.0-34.0"}}, {"uniqueid": "w35124455:a87661281", "current_trial": 39, "dateTime": 1664555110780, "trialdata": {"rt": 1322, "stimulus": "<p id='stroop-text' class='stroop-green'>BLUE</p>", "response": "g", "stimulus-type": "incongruent", "word": "blue", "color": "green", "correct_response": "g", "trial_id": "stroop-trial-1-incongruent-13", "trial_type": "html-keyboard-response", "trial_index": 39, "time_elapsed": 129892, "internal_node_id": "0.0-4.0-35.0"}}, {"uniqueid": "w35124455:a87661281", "current_trial": 40, "dateTime": 1664555112034, "trialdata": {"rt": 747, "stimulus": "<p id='stroop-text' class='stroop-green'>GREEN</p>", "response": "g", "stimulus-type": "congruent", "word": "green", "color": "green", "correct_response": "g", "trial_id": "stroop-trial-1-congruent-21", "trial_type": "html-keyboard-response", "trial_index": 40, "time_elapsed": 131146, "internal_node_id": "0.0-4.0-36.0"}}, {"uniqueid": "w35124455:a87661281", "current_trial": 41, "dateTime": 1664555113713, "trialdata": {"rt": 1172, "stimulus": "<p id='stroop-text' class='stroop-red'>WINDOW</p>", "response": "r", "stimulus-type": "unrelated", "word": "WINDOW", "color": "red", "correct_response": "r", "trial_id": "stroop-trial-1-unrelated-11", "trial_type": "html-keyboard-response", "trial_index": 41, "time_elapsed": 132825, "internal_node_id": "0.0-4.0-37.0"}}, {"uniqueid": "w35124455:a87661281", "current_trial": 42, "dateTime": 1664555114900, "trialdata": {"rt": 677, "stimulus": "<p id='stroop-text' class='stroop-blue'>BLUE</p>", "response": "b", "stimulus-type": "congruent", "word": "blue", "color": "blue", "correct_response": "b", "trial_id": "stroop-trial-1-congruent-26", "trial_type": "html-keyboard-response", "trial_index": 42, "time_elapsed": 134012, "internal_node_id": "0.0-4.0-38.0"}}, {"uniqueid": "w35124455:a87661281", "current_trial": 43, "dateTime": 1664555116105, "trialdata": {"rt": 698, "stimulus": "<p id='stroop-text' class='stroop-green'>BLUE</p>", "response": "g", "stimulus-type": "incongruent", "word": "blue", "color": "green", "correct_response": "g", "trial_id": "stroop-trial-1-incongruent-15", "trial_type": "html-keyboard-response", "trial_index": 43, "time_elapsed": 135217, "internal_node_id": "0.0-4.0-39.0"}}, {"uniqueid": "w35124455:a87661281", "current_trial": 44, "dateTime": 1664555117568, "trialdata": {"rt": 957, "stimulus": "<p id='stroop-text' class='stroop-red'>GREEN</p>", "response": "r", "stimulus-type": "incongruent", "word": "green", "color": "red", "correct_response": "r", "trial_id": "stroop-trial-1-incongruent-20", "trial_type": "html-keyboard-response", "trial_index": 44, "time_elapsed": 136680, "internal_node_id": "0.0-4.0-40.0"}}, {"uniqueid": "w35124455:a87661281", "current_trial": 45, "dateTime": 1664555118961, "trialdata": {"rt": 886, "stimulus": "<p id='stroop-text' class='stroop-yellow'>BLUE</p>", "response": "y", "stimulus-type": "incongruent", "word": "blue", "color": "yellow", "correct_response": "y", "trial_id": "stroop-trial-1-incongruent-30", "trial_type": "html-keyboard-response", "trial_index": 45, "time_elapsed": 138074, "internal_node_id": "0.0-4.0-41.0"}}, {"uniqueid": "w35124455:a87661281", "current_trial": 46, "dateTime": 1664555120285, "trialdata": {"rt": 810, "stimulus": "<p id='stroop-text' class='stroop-blue'>BOTTLE</p>", "response": "g", "stimulus-type": "unrelated", "word": "BOTTLE", "color": "blue", "correct_response": "b", "trial_id": "stroop-trial-1-unrelated-21", "trial_type": "html-keyboard-response", "trial_index": 46, "time_elapsed": 139398, "internal_node_id": "0.0-4.0-42.0"}}, {"uniqueid": "w35124455:a87661281", "current_trial": 47, "dateTime": 1664555122055, "trialdata": {"rt": 1265, "stimulus": "<p id='stroop-text' class='stroop-green'>RED</p>", "response": "r", "stimulus-type": "incongruent", "word": "red", "color": "green", "correct_response": "g", "trial_id": "stroop-trial-1-incongruent-27", "trial_type": "html-keyboard-response", "trial_index": 47, "time_elapsed": 141168, "internal_node_id": "0.0-4.0-43.0"}}, {"uniqueid": "w35124455:a87661281", "current_trial": 48, "dateTime": 1664555123527, "trialdata": {"rt": 962, "stimulus": "<p id='stroop-text' class='stroop-yellow'>MONKEY</p>", "response": "y", "stimulus-type": "unrelated", "word": "MONKEY", "color": "yellow", "correct_response": "y", "trial_id": "stroop-trial-1-unrelated-10", "trial_type": "html-keyboard-response", "trial_index": 48, "time_elapsed": 142640, "internal_node_id": "0.0-4.0-44.0"}}, {"uniqueid": "w35124455:a87661281", "current_trial": 49, "dateTime": 1664555125441, "trialdata": {"rt": 1402, "stimulus": "<p id='stroop-text' class='stroop-red'>GREEN</p>", "response": "r", "stimulus-type": "incongruent", "word": "green", "color": "red", "correct_response": "r", "trial_id": "stroop-trial-1-incongruent-17", "trial_type": "html-keyboard-response", "trial_index": 49, "time_elapsed": 144554, "internal_node_id": "0.0-4.0-45.0"}}, {"uniqueid": "w35124455:a87661281", "current_trial": 50, "dateTime": 1664555126779, "trialdata": {"rt": 830, "stimulus": "<p id='stroop-text' class='stroop-yellow'>YELLOW</p>", "response": "y", "stimulus-type": "congruent", "word": "yellow", "color": "yellow", "correct_response": "y", "trial_id": "stroop-trial-1-congruent-11", "trial_type": "html-keyboard-response", "trial_index": 50, "time_elapsed": 145892, "internal_node_id": "0.0-4.0-46.0"}}, {"uniqueid": "w35124455:a87661281", "current_trial": 51, "dateTime": 1664555127871, "trialdata": {"rt": 578, "stimulus": "<p id='stroop-text' class='stroop-green'>GREEN</p>", "response": "g", "stimulus-type": "congruent", "word": "green", "color": "green", "correct_response": "g", "trial_id": "stroop-trial-1-congruent-23", "trial_type": "html-keyboard-response", "trial_index": 51, "time_elapsed": 146983, "internal_node_id": "0.0-4.0-47.0"}}, {"uniqueid": "w35124455:a87661281", "current_trial": 52, "dateTime": 1664555129610, "trialdata": {"rt": 1230, "stimulus": "<p id='stroop-text' class='stroop-yellow'>DOG</p>", "response": "g", "stimulus-type": "unrelated", "word": "DOG", "color": "yellow", "correct_response": "y", "trial_id": "stroop-trial-1-unrelated-13", "trial_type": "html-keyboard-response", "trial_index": 52, "time_elapsed": 148722, "internal_node_id": "0.0-4.0-48.0"}}, {"uniqueid": "w35124455:a87661281", "current_trial": 53, "dateTime": 1664555131353, "trialdata": {"rt": 1229, "stimulus": "<p id='stroop-text' class='stroop-blue'>BLUE</p>", "response": "b", "stimulus-type": "congruent", "word": "blue", "color": "blue", "correct_response": "b", "trial_id": "stroop-trial-1-congruent-30", "trial_type": "html-keyboard-response", "trial_index": 53, "time_elapsed": 150465, "internal_node_id": "0.0-4.0-49.0"}}, {"uniqueid": "w35124455:a87661281", "current_trial": 54, "dateTime": 1664555132480, "trialdata": {"rt": 618, "stimulus": "<p id='stroop-text' class='stroop-blue'>BRAIN</p>", "response": "b", "stimulus-type": "unrelated", "word": "BRAIN", "color": "blue", "correct_response": "b", "trial_id": "stroop-trial-1-unrelated-18", "trial_type": "html-keyboard-response", "trial_index": 54, "time_elapsed": 151592, "internal_node_id": "0.0-4.0-50.0"}}, {"uniqueid": "w35124455:a87661281", "current_trial": 55, "dateTime": 1664555133465, "trialdata": {"rt": 479, "stimulus": "<p id='stroop-text' class='stroop-blue'>BLUE</p>", "response": "b", "stimulus-type": "congruent", "word": "blue", "color": "blue", "correct_response": "b", "trial_id": "stroop-trial-1-congruent-8", "trial_type": "html-keyboard-response", "trial_index": 55, "time_elapsed": 152577, "internal_node_id": "0.0-4.0-51.0"}}, {"uniqueid": "w35124455:a87661281", "current_trial": 56, "dateTime": 1664555134621, "trialdata": {"rt": 653, "stimulus": "<p id='stroop-text' class='stroop-yellow'>YELLOW</p>", "response": "y", "stimulus-type": "congruent", "word": "yellow", "color": "yellow", "correct_response": "y", "trial_id": "stroop-trial-1-congruent-17", "trial_type": "html-keyboard-response", "trial_index": 56, "time_elapsed": 153734, "internal_node_id": "0.0-4.0-52.0"}}, {"uniqueid": "w35124455:a87661281", "current_trial": 57, "dateTime": 1664555136296, "trialdata": {"rt": 1167, "stimulus": "<p id='stroop-text' class='stroop-green'>BLUE</p>", "response": "g", "stimulus-type": "incongruent", "word": "blue", "color": "green", "correct_response": "g", "trial_id": "stroop-trial-1-incongruent-29", "trial_type": "html-keyboard-response", "trial_index": 57, "time_elapsed": 155408, "internal_node_id": "0.0-4.0-53.0"}}, {"uniqueid": "w35124455:a87661281", "current_trial": 58, "dateTime": 1664555137388, "trialdata": {"rt": 578, "stimulus": "<p id='stroop-text' class='stroop-blue'>BLUE</p>", "response": "b", "stimulus-type": "congruent", "word": "blue", "color": "blue", "correct_response": "b", "trial_id": "stroop-trial-1-congruent-25", "trial_type": "html-keyboard-response", "trial_index": 58, "time_elapsed": 156500, "internal_node_id": "0.0-4.0-54.0"}}, {"uniqueid": "w35124455:a87661281", "current_trial": 59, "dateTime": 1664555138643, "trialdata": {"rt": 749, "stimulus": "<p id='stroop-text' class='stroop-green'>RED</p>", "response": "g", "stimulus-type": "incongruent", "word": "red", "color": "green", "correct_response": "g", "trial_id": "stroop-trial-1-incongruent-22", "trial_type": "html-keyboard-response", "trial_index": 59, "time_elapsed": 157756, "internal_node_id": "0.0-4.0-55.0"}}, {"uniqueid": "w35124455:a87661281", "current_trial": 60, "dateTime": 1664555140054, "trialdata": {"rt": 903, "stimulus": "<p id='stroop-text' class='stroop-green'>STONE</p>", "response": "g", "stimulus-type": "unrelated", "word": "STONE", "color": "green", "correct_response": "g", "trial_id": "stroop-trial-1-unrelated-30", "trial_type": "html-keyboard-response", "trial_index": 60, "time_elapsed": 159166, "internal_node_id": "0.0-4.0-56.0"}}, {"uniqueid": "w35124455:a87661281", "current_trial": 61, "dateTime": 1664555141418, "trialdata": {"rt": 858, "stimulus": "<p id='stroop-text' class='stroop-green'>YELLOW</p>", "response": "y", "stimulus-type": "incongruent", "word": "yellow", "color": "green", "correct_response": "g", "trial_id": "stroop-trial-1-incongruent-10", "trial_type": "html-keyboard-response", "trial_index": 61, "time_elapsed": 160530, "internal_node_id": "0.0-4.0-57.0"}}, {"uniqueid": "w35124455:a87661281", "current_trial": 62, "dateTime": 1664555144089, "trialdata": {"rt": 2157, "stimulus": "<p id='stroop-text' class='stroop-red'>BLUE</p>", "response": "r", "stimulus-type": "incongruent", "word": "blue", "color": "red", "correct_response": "r", "trial_id": "stroop-trial-1-incongruent-6", "trial_type": "html-keyboard-response", "trial_index": 62, "time_elapsed": 163202, "internal_node_id": "0.0-4.0-58.0"}}, {"uniqueid": "w35124455:a87661281", "current_trial": 63, "dateTime": 1664555145652, "trialdata": {"rt": 1052, "stimulus": "<p id='stroop-text' class='stroop-green'>BRAIN</p>", "response": "g", "stimulus-type": "unrelated", "word": "BRAIN", "color": "green", "correct_response": "g", "trial_id": "stroop-trial-1-unrelated-26", "trial_type": "html-keyboard-response", "trial_index": 63, "time_elapsed": 164765, "internal_node_id": "0.0-4.0-59.0"}}, {"uniqueid": "w35124455:a87661281", "current_trial": 64, "dateTime": 1664555147490, "trialdata": {"rt": 1318, "stimulus": "<p id='stroop-text' class='stroop-blue'>STONE</p>", "response": "b", "stimulus-type": "unrelated", "word": "STONE", "color": "blue", "correct_response": "b", "trial_id": "stroop-trial-1-unrelated-8", "trial_type": "html-keyboard-response", "trial_index": 64, "time_elapsed": 166602, "internal_node_id": "0.0-4.0-60.0"}}, {"uniqueid": "w35124455:a87661281", "current_trial": 65, "dateTime": 1664555148662, "trialdata": {"rt": 655, "stimulus": "<p id='stroop-text' class='stroop-green'>BOAT</p>", "response": "g", "stimulus-type": "unrelated", "word": "BOAT", "color": "green", "correct_response": "g", "trial_id": "stroop-trial-1-unrelated-27", "trial_type": "html-keyboard-response", "trial_index": 65, "time_elapsed": 167774, "internal_node_id": "0.0-4.0-61.0"}}, {"uniqueid": "w35124455:a87661281", "current_trial": 66, "dateTime": 1664555150749, "trialdata": {"rt": 1582, "stimulus": "<p id='stroop-text' class='stroop-blue'>FORK</p>", "response": "b", "stimulus-type": "unrelated", "word": "FORK", "color": "blue", "correct_response": "b", "trial_id": "stroop-trial-1-unrelated-7", "trial_type": "html-keyboard-response", "trial_index": 66, "time_elapsed": 169861, "internal_node_id": "0.0-4.0-62.0"}}, {"uniqueid": "w35124455:a87661281", "current_trial": 67, "dateTime": 1664555151848, "trialdata": {"rt": 588, "stimulus": "<p id='stroop-text' class='stroop-blue'>BLUE</p>", "response": "b", "stimulus-type": "congruent", "word": "blue", "color": "blue", "correct_response": "b", "trial_id": "stroop-trial-1-congruent-22", "trial_type": "html-keyboard-response", "trial_index": 67, "time_elapsed": 170959, "internal_node_id": "0.0-4.0-63.0"}}, {"uniqueid": "w35124455:a87661281", "current_trial": 68, "dateTime": 1664555153071, "trialdata": {"rt": 713, "stimulus": "<p id='stroop-text' class='stroop-green'>RED</p>", "response": "g", "stimulus-type": "incongruent", "word": "red", "color": "green", "correct_response": "g", "trial_id": "stroop-trial-1-incongruent-8", "trial_type": "html-keyboard-response", "trial_index": 68, "time_elapsed": 172183, "internal_node_id": "0.0-4.0-64.0"}}, {"uniqueid": "w35124455:a87661281", "current_trial": 69, "dateTime": 1664555154541, "trialdata": {"rt": 958, "stimulus": "<p id='stroop-text' class='stroop-green'>YELLOW</p>", "response": "g", "stimulus-type": "incongruent", "word": "yellow", "color": "green", "correct_response": "g", "trial_id": "stroop-trial-1-incongruent-18", "trial_type": "html-keyboard-response", "trial_index": 69, "time_elapsed": 173653, "internal_node_id": "0.0-4.0-65.0"}}, {"uniqueid": "w35124455:a87661281", "current_trial": 70, "dateTime": 1664555155737, "trialdata": {"rt": 687, "stimulus": "<p id='stroop-text' class='stroop-yellow'>YELLOW</p>", "response": "y", "stimulus-type": "congruent", "word": "yellow", "color": "yellow", "correct_response": "y", "trial_id": "stroop-trial-1-congruent-3", "trial_type": "html-keyboard-response", "trial_index": 70, "time_elapsed": 174850, "internal_node_id": "0.0-4.0-66.0"}}, {"uniqueid": "w35124455:a87661281", "current_trial": 71, "dateTime": 1664555157001, "trialdata": {"rt": 755, "stimulus": "<p id='stroop-text' class='stroop-yellow'>BRIDGE</p>", "response": "y", "stimulus-type": "unrelated", "word": "BRIDGE", "color": "yellow", "correct_response": "y", "trial_id": "stroop-trial-1-unrelated-5", "trial_type": "html-keyboard-response", "trial_index": 71, "time_elapsed": 176114, "internal_node_id": "0.0-4.0-67.0"}}, {"uniqueid": "w35124455:a87661281", "current_trial": 72, "dateTime": 1664555158207, "trialdata": {"rt": 701, "stimulus": "<p id='stroop-text' class='stroop-green'>YELLOW</p>", "response": "g", "stimulus-type": "incongruent", "word": "yellow", "color": "green", "correct_response": "g", "trial_id": "stroop-trial-1-incongruent-26", "trial_type": "html-keyboard-response", "trial_index": 72, "time_elapsed": 177320, "internal_node_id": "0.0-4.0-68.0"}}, {"uniqueid": "w35124455:a87661281", "current_trial": 73, "dateTime": 1664555159718, "trialdata": {"rt": 1003, "stimulus": "<p id='stroop-text' class='stroop-green'>BLUE</p>", "response": "b", "stimulus-type": "incongruent", "word": "blue", "color": "green", "correct_response": "g", "trial_id": "stroop-trial-1-incongruent-23", "trial_type": "html-keyboard-response", "trial_index": 73, "time_elapsed": 178831, "internal_node_id": "0.0-4.0-69.0"}}, {"uniqueid": "w35124455:a87661281", "current_trial": 74, "dateTime": 1664555161118, "trialdata": {"rt": 881, "stimulus": "<p id='stroop-text' class='stroop-green'>BLUE</p>", "response": "r", "stimulus-type": "incongruent", "word": "blue", "color": "green", "correct_response": "g", "trial_id": "stroop-trial-1-incongruent-4", "trial_type": "html-keyboard-response", "trial_index": 74, "time_elapsed": 180230, "internal_node_id": "0.0-4.0-70.0"}}, {"uniqueid": "w35124455:a87661281", "current_trial": 75, "dateTime": 1664555162152, "trialdata": {"rt": 523, "stimulus": "<p id='stroop-text' class='stroop-green'>GREEN</p>", "response": "g", "stimulus-type": "congruent", "word": "green", "color": "green", "correct_response": "g", "trial_id": "stroop-trial-1-congruent-2", "trial_type": "html-keyboard-response", "trial_index": 75, "time_elapsed": 181264, "internal_node_id": "0.0-4.0-71.0"}}, {"uniqueid": "w35124455:a87661281", "current_trial": 76, "dateTime": 1664555163008, "trialdata": {"rt": 345, "stimulus": "<p id='stroop-text' class='stroop-green'>BLUE</p>", "response": "g", "stimulus-type": "incongruent", "word": "blue", "color": "green", "correct_response": "g", "trial_id": "stroop-trial-1-incongruent-25", "trial_type": "html-keyboard-response", "trial_index": 76, "time_elapsed": 182121, "internal_node_id": "0.0-4.0-72.0"}}, {"uniqueid": "w35124455:a87661281", "current_trial": 77, "dateTime": 1664555164232, "trialdata": {"rt": 718, "stimulus": "<p id='stroop-text' class='stroop-red'>FORK</p>", "response": "r", "stimulus-type": "unrelated", "word": "FORK", "color": "red", "correct_response": "r", "trial_id": "stroop-trial-1-unrelated-25", "trial_type": "html-keyboard-response", "trial_index": 77, "time_elapsed": 183344, "internal_node_id": "0.0-4.0-73.0"}}, {"uniqueid": "w35124455:a87661281", "current_trial": 78, "dateTime": 1664555166505, "trialdata": {"rt": 1759, "stimulus": "<p id='stroop-text' class='stroop-blue'>MONKEY</p>", "response": "b", "stimulus-type": "unrelated", "word": "MONKEY", "color": "blue", "correct_response": "b", "trial_id": "stroop-trial-1-unrelated-24", "trial_type": "html-keyboard-response", "trial_index": 78, "time_elapsed": 185617, "internal_node_id": "0.0-4.0-74.0"}}, {"uniqueid": "w35124455:a87661281", "current_trial": 79, "dateTime": 1664555167624, "trialdata": {"rt": 612, "stimulus": "<p id='stroop-text' class='stroop-yellow'>BOTTLE</p>", "response": "y", "stimulus-type": "unrelated", "word": "BOTTLE", "color": "yellow", "correct_response": "y", "trial_id": "stroop-trial-1-unrelated-4", "trial_type": "html-keyboard-response", "trial_index": 79, "time_elapsed": 186736, "internal_node_id": "0.0-4.0-75.0"}}, {"uniqueid": "w35124455:a87661281", "current_trial": 80, "dateTime": 1664555168965, "trialdata": {"rt": 831, "stimulus": "<p id='stroop-text' class='stroop-red'>RED</p>", "response": "r", "stimulus-type": "congruent", "word": "red", "color": "red", "correct_response": "r", "trial_id": "stroop-trial-1-congruent-15", "trial_type": "html-keyboard-response", "trial_index": 80, "time_elapsed": 188077, "internal_node_id": "0.0-4.0-76.0"}}, {"uniqueid": "w35124455:a87661281", "current_trial": 81, "dateTime": 1664555170964, "trialdata": {"rt": 1492, "stimulus": "<p id='stroop-text' class='stroop-yellow'>BLUE</p>", "response": "y", "stimulus-type": "incongruent", "word": "blue", "color": "yellow", "correct_response": "y", "trial_id": "stroop-trial-1-incongruent-19", "trial_type": "html-keyboard-response", "trial_index": 81, "time_elapsed": 190076, "internal_node_id": "0.0-4.0-77.0"}}, {"uniqueid": "w35124455:a87661281", "current_trial": 82, "dateTime": 1664555172576, "trialdata": {"rt": 1104, "stimulus": "<p id='stroop-text' class='stroop-yellow'>MONKEY</p>", "response": "y", "stimulus-type": "unrelated", "word": "MONKEY", "color": "yellow", "correct_response": "y", "trial_id": "stroop-trial-1-unrelated-6", "trial_type": "html-keyboard-response", "trial_index": 82, "time_elapsed": 191688, "internal_node_id": "0.0-4.0-78.0"}}, {"uniqueid": "w35124455:a87661281", "current_trial": 83, "dateTime": 1664555174425, "trialdata": {"rt": 1336, "stimulus": "<p id='stroop-text' class='stroop-blue'>STONE</p>", "response": "b", "stimulus-type": "unrelated", "word": "STONE", "color": "blue", "correct_response": "b", "trial_id": "stroop-trial-1-unrelated-28", "trial_type": "html-keyboard-response", "trial_index": 83, "time_elapsed": 193537, "internal_node_id": "0.0-4.0-79.0"}}, {"uniqueid": "w35124455:a87661281", "current_trial": 84, "dateTime": 1664555176220, "trialdata": {"rt": 1290, "stimulus": "<p id='stroop-text' class='stroop-green'>WINDOW</p>", "response": "g", "stimulus-type": "unrelated", "word": "WINDOW", "color": "green", "correct_response": "g", "trial_id": "stroop-trial-1-unrelated-1", "trial_type": "html-keyboard-response", "trial_index": 84, "time_elapsed": 195332, "internal_node_id": "0.0-4.0-80.0"}}, {"uniqueid": "w35124455:a87661281", "current_trial": 85, "dateTime": 1664555177532, "trialdata": {"rt": 801, "stimulus": "<p id='stroop-text' class='stroop-red'>MONKEY</p>", "response": "r", "stimulus-type": "unrelated", "word": "MONKEY", "color": "red", "correct_response": "r", "trial_id": "stroop-trial-1-unrelated-9", "trial_type": "html-keyboard-response", "trial_index": 85, "time_elapsed": 196644, "internal_node_id": "0.0-4.0-81.0"}}, {"uniqueid": "w35124455:a87661281", "current_trial": 86, "dateTime": 1664555179456, "trialdata": {"rt": 1410, "stimulus": "<p id='stroop-text' class='stroop-green'>YELLOW</p>", "response": "g", "stimulus-type": "incongruent", "word": "yellow", "color": "green", "correct_response": "g", "trial_id": "stroop-trial-1-incongruent-7", "trial_type": "html-keyboard-response", "trial_index": 86, "time_elapsed": 198568, "internal_node_id": "0.0-4.0-82.0"}}, {"uniqueid": "w35124455:a87661281", "current_trial": 87, "dateTime": 1664555181013, "trialdata": {"rt": 1043, "stimulus": "<p id='stroop-text' class='stroop-yellow'>GREEN</p>", "response": "y", "stimulus-type": "incongruent", "word": "green", "color": "yellow", "correct_response": "y", "trial_id": "stroop-trial-1-incongruent-3", "trial_type": "html-keyboard-response", "trial_index": 87, "time_elapsed": 200125, "internal_node_id": "0.0-4.0-83.0"}}, {"uniqueid": "w35124455:a87661281", "current_trial": 88, "dateTime": 1664555183347, "trialdata": {"rt": 1827, "stimulus": "<p id='stroop-text' class='stroop-blue'>GREEN</p>", "response": "b", "stimulus-type": "incongruent", "word": "green", "color": "blue", "correct_response": "b", "trial_id": "stroop-trial-1-incongruent-1", "trial_type": "html-keyboard-response", "trial_index": 88, "time_elapsed": 202459, "internal_node_id": "0.0-4.0-84.0"}}, {"uniqueid": "w35124455:a87661281", "current_trial": 89, "dateTime": 1664555184782, "trialdata": {"rt": 930, "stimulus": "<p id='stroop-text' class='stroop-yellow'>BLUE</p>", "response": "y", "stimulus-type": "incongruent", "word": "blue", "color": "yellow", "correct_response": "y", "trial_id": "stroop-trial-1-incongruent-2", "trial_type": "html-keyboard-response", "trial_index": 89, "time_elapsed": 203894, "internal_node_id": "0.0-4.0-85.0"}}, {"uniqueid": "w35124455:a87661281", "current_trial": 90, "dateTime": 1664555186223, "trialdata": {"rt": 927, "stimulus": "<p id='stroop-text' class='stroop-yellow'>BRIDGE</p>", "response": "y", "stimulus-type": "unrelated", "word": "BRIDGE", "color": "yellow", "correct_response": "y", "trial_id": "stroop-trial-1-unrelated-23", "trial_type": "html-keyboard-response", "trial_index": 90, "time_elapsed": 205335, "internal_node_id": "0.0-4.0-86.0"}}, {"uniqueid": "w35124455:a87661281", "current_trial": 91, "dateTime": 1664555187838, "trialdata": {"rt": 1106, "stimulus": "<p id='stroop-text' class='stroop-red'>BOAT</p>", "response": "g", "stimulus-type": "unrelated", "word": "BOAT", "color": "red", "correct_response": "r", "trial_id": "stroop-trial-1-unrelated-12", "trial_type": "html-keyboard-response", "trial_index": 91, "time_elapsed": 206951, "internal_node_id": "0.0-4.0-87.0"}}, {"uniqueid": "w35124455:a87661281", "current_trial": 92, "dateTime": 1664555189107, "trialdata": {"rt": 762, "stimulus": "<p id='stroop-text' class='stroop-green'>GREEN</p>", "response": "g", "stimulus-type": "congruent", "word": "green", "color": "green", "correct_response": "g", "trial_id": "stroop-trial-1-congruent-18", "trial_type": "html-keyboard-response", "trial_index": 92, "time_elapsed": 208219, "internal_node_id": "0.0-4.0-88.0"}}, {"uniqueid": "w35124455:a87661281", "current_trial": 93, "dateTime": 1664555190710, "trialdata": {"rt": 1091, "stimulus": "<p id='stroop-text' class='stroop-blue'>RED</p>", "response": "b", "stimulus-type": "incongruent", "word": "red", "color": "blue", "correct_response": "b", "trial_id": "stroop-trial-1-incongruent-9", "trial_type": "html-keyboard-response", "trial_index": 93, "time_elapsed": 209822, "internal_node_id": "0.0-4.0-89.0"}}, {"uniqueid": "w35124455:a87661281", "current_trial": 94, "dateTime": 1664555195839, "trialdata": {"rt": 4617, "stimulus": "  <h1> End of block! </h1>\n\n  You have reached the end of the block 1/5. If you need a short break, feel free to take one now before moving on.\n\n  <br><br>\n  In the next block, you will complete another 90 rounds of this game.\n\n  <br><br>\n  <div style='text-align: center;'>Press <code>space</code> to begin.</div>\n  <br><br>\n<div style='text-align: center;'>(If the experiment doesn't continue, try clicking on the text and then pressing <code>space</code>.)</div>", "response": " ", "trial_id": "stroop_1_ready_2", "trial_type": "html-keyboard-response", "trial_index": 94, "time_elapsed": 214951, "internal_node_id": "0.0-5.0"}}, {"uniqueid": "w35124455:a87661281", "current_trial": 95, "dateTime": 1664555196815, "trialdata": {"rt": 971, "stimulus": "<p id='stroop-text' class='stroop-blue'>GREEN</p>", "response": "r", "stimulus-type": "incongruent", "word": "green", "color": "blue", "correct_response": "b", "trial_id": "stroop-trial-1-incongruent-25", "trial_type": "html-keyboard-response", "trial_index": 95, "time_elapsed": 215927, "internal_node_id": "0.0-6.0-0.0"}}, {"uniqueid": "w35124455:a87661281", "current_trial": 96, "dateTime": 1664555198278, "trialdata": {"rt": 953, "stimulus": "<p id='stroop-text' class='stroop-yellow'>YELLOW</p>", "response": "y", "stimulus-type": "congruent", "word": "yellow", "color": "yellow", "correct_response": "y", "trial_id": "stroop-trial-1-congruent-28", "trial_type": "html-keyboard-response", "trial_index": 96, "time_elapsed": 217390, "internal_node_id": "0.0-6.0-1.0"}}, {"uniqueid": "w35124455:a87661281", "current_trial": 97, "dateTime": 1664555199924, "trialdata": {"rt": 1133, "stimulus": "<p id='stroop-text' class='stroop-yellow'>YELLOW</p>", "response": "y", "stimulus-type": "congruent", "word": "yellow", "color": "yellow", "correct_response": "y", "trial_id": "stroop-trial-1-congruent-10", "trial_type": "html-keyboard-response", "trial_index": 97, "time_elapsed": 219037, "internal_node_id": "0.0-6.0-2.0"}}, {"uniqueid": "w35124455:a87661281", "current_trial": 98, "dateTime": 1664555201703, "trialdata": {"rt": 1270, "stimulus": "<p id='stroop-text' class='stroop-yellow'>BLUE</p>", "response": "y", "stimulus-type": "incongruent", "word": "blue", "color": "yellow", "correct_response": "y", "trial_id": "stroop-trial-1-incongruent-4", "trial_type": "html-keyboard-response", "trial_index": 98, "time_elapsed": 220815, "internal_node_id": "0.0-6.0-3.0"}}, {"uniqueid": "w35124455:a87661281", "current_trial": 99, "dateTime": 1664555203415, "trialdata": {"rt": 1207, "stimulus": "<p id='stroop-text' class='stroop-green'>RED</p>", "response": "g", "stimulus-type": "incongruent", "word": "red", "color": "green", "correct_response": "g", "trial_id": "stroop-trial-1-incongruent-22", "trial_type": "html-keyboard-response", "trial_index": 99, "time_elapsed": 222528, "internal_node_id": "0.0-6.0-4.0"}}, {"uniqueid": "w35124455:a87661281", "current_trial": 100, "dateTime": 1664555206103, "trialdata": {"rt": 2179, "stimulus": "<p id='stroop-text' class='stroop-blue'>RED</p>", "response": "g", "stimulus-type": "incongruent", "word": "red", "color": "blue", "correct_response": "b", "trial_id": "stroop-trial-1-incongruent-30", "trial_type": "html-keyboard-response", "trial_index": 100, "time_elapsed": 225215, "internal_node_id": "0.0-6.0-5.0"}}, {"uniqueid": "w35124455:a87661281", "current_trial": 101, "dateTime": 1664555207746, "trialdata": {"rt": 1138, "stimulus": "<p id='stroop-text' class='stroop-green'>MONKEY</p>", "response": "g", "stimulus-type": "unrelated", "word": "MONKEY", "color": "green", "correct_response": "g", "trial_id": "stroop-trial-1-unrelated-3", "trial_type": "html-keyboard-response", "trial_index": 101, "time_elapsed": 226859, "internal_node_id": "0.0-6.0-6.0"}}, {"uniqueid": "w35124455:a87661281", "current_trial": 102, "dateTime": 1664555209632, "trialdata": {"rt": 1368, "stimulus": "<p id='stroop-text' class='stroop-blue'>BOAT</p>", "response": "b", "stimulus-type": "unrelated", "word": "BOAT", "color": "blue", "correct_response": "b", "trial_id": "stroop-trial-1-unrelated-26", "trial_type": "html-keyboard-response", "trial_index": 102, "time_elapsed": 228745, "internal_node_id": "0.0-6.0-7.0"}}, {"uniqueid": "w35124455:a87661281", "current_trial": 103, "dateTime": 1664555210879, "trialdata": {"rt": 737, "stimulus": "<p id='stroop-text' class='stroop-red'>YELLOW</p>", "response": "r", "stimulus-type": "incongruent", "word": "yellow", "color": "red", "correct_response": "r", "trial_id": "stroop-trial-1-incongruent-15", "trial_type": "html-keyboard-response", "trial_index": 103, "time_elapsed": 229991, "internal_node_id": "0.0-6.0-8.0"}}, {"uniqueid": "w35124455:a87661281", "current_trial": 104, "dateTime": 1664555212590, "trialdata": {"rt": 1203, "stimulus": "<p id='stroop-text' class='stroop-blue'>CHAIR</p>", "response": "g", "stimulus-type": "unrelated", "word": "CHAIR", "color": "blue", "correct_response": "b", "trial_id": "stroop-trial-1-unrelated-8", "trial_type": "html-keyboard-response", "trial_index": 104, "time_elapsed": 231702, "internal_node_id": "0.0-6.0-9.0"}}, {"uniqueid": "w35124455:a87661281", "current_trial": 105, "dateTime": 1664555214438, "trialdata": {"rt": 1340, "stimulus": "<p id='stroop-text' class='stroop-green'>BLUE</p>", "response": "b", "stimulus-type": "incongruent", "word": "blue", "color": "green", "correct_response": "g", "trial_id": "stroop-trial-1-incongruent-19", "trial_type": "html-keyboard-response", "trial_index": 105, "time_elapsed": 233550, "internal_node_id": "0.0-6.0-10.0"}}, {"uniqueid": "w35124455:a87661281", "current_trial": 106, "dateTime": 1664555215784, "trialdata": {"rt": 837, "stimulus": "<p id='stroop-text' class='stroop-yellow'>RED</p>", "response": "y", "stimulus-type": "incongruent", "word": "red", "color": "yellow", "correct_response": "y", "trial_id": "stroop-trial-1-incongruent-26", "trial_type": "html-keyboard-response", "trial_index": 106, "time_elapsed": 234897, "internal_node_id": "0.0-6.0-11.0"}}, {"uniqueid": "w35124455:a87661281", "current_trial": 107, "dateTime": 1664555217274, "trialdata": {"rt": 970, "stimulus": "<p id='stroop-text' class='stroop-red'>RED</p>", "response": "r", "stimulus-type": "congruent", "word": "red", "color": "red", "correct_response": "r", "trial_id": "stroop-trial-1-congruent-26", "trial_type": "html-keyboard-response", "trial_index": 107, "time_elapsed": 236387, "internal_node_id": "0.0-6.0-12.0"}}, {"uniqueid": "w35124455:a87661281", "current_trial": 108, "dateTime": 1664555218818, "trialdata": {"rt": 1037, "stimulus": "<p id='stroop-text' class='stroop-yellow'>STONE</p>", "response": "y", "stimulus-type": "unrelated", "word": "STONE", "color": "yellow", "correct_response": "y", "trial_id": "stroop-trial-1-unrelated-10", "trial_type": "html-keyboard-response", "trial_index": 108, "time_elapsed": 237930, "internal_node_id": "0.0-6.0-13.0"}}, {"uniqueid": "w35124455:a87661281", "current_trial": 109, "dateTime": 1664555220400, "trialdata": {"rt": 1075, "stimulus": "<p id='stroop-text' class='stroop-blue'>BOAT</p>", "response": "b", "stimulus-type": "unrelated", "word": "BOAT", "color": "blue", "correct_response": "b", "trial_id": "stroop-trial-1-unrelated-9", "trial_type": "html-keyboard-response", "trial_index": 109, "time_elapsed": 239512, "internal_node_id": "0.0-6.0-14.0"}}, {"uniqueid": "w35124455:a87661281", "current_trial": 110, "dateTime": 1664555221984, "trialdata": {"rt": 1076, "stimulus": "<p id='stroop-text' class='stroop-yellow'>SHIP</p>", "response": "y", "stimulus-type": "unrelated", "word": "SHIP", "color": "yellow", "correct_response": "y", "trial_id": "stroop-trial-1-unrelated-2", "trial_type": "html-keyboard-response", "trial_index": 110, "time_elapsed": 241096, "internal_node_id": "0.0-6.0-15.0"}}, {"uniqueid": "w35124455:a87661281", "current_trial": 111, "dateTime": 1664555223485, "trialdata": {"rt": 992, "stimulus": "<p id='stroop-text' class='stroop-yellow'>STONE</p>", "response": "y", "stimulus-type": "unrelated", "word": "STONE", "color": "yellow", "correct_response": "y", "trial_id": "stroop-trial-1-unrelated-4", "trial_type": "html-keyboard-response", "trial_index": 111, "time_elapsed": 242597, "internal_node_id": "0.0-6.0-16.0"}}, {"uniqueid": "w35124455:a87661281", "current_trial": 112, "dateTime": 1664555225327, "trialdata": {"rt": 1322, "stimulus": "<p id='stroop-text' class='stroop-red'>GREEN</p>", "response": "r", "stimulus-type": "incongruent", "word": "green", "color": "red", "correct_response": "r", "trial_id": "stroop-trial-1-incongruent-10", "trial_type": "html-keyboard-response", "trial_index": 112, "time_elapsed": 244439, "internal_node_id": "0.0-6.0-17.0"}}, {"uniqueid": "w35124455:a87661281", "current_trial": 113, "dateTime": 1664555226672, "trialdata": {"rt": 833, "stimulus": "<p id='stroop-text' class='stroop-red'>RED</p>", "response": "r", "stimulus-type": "congruent", "word": "red", "color": "red", "correct_response": "r", "trial_id": "stroop-trial-1-congruent-27", "trial_type": "html-keyboard-response", "trial_index": 113, "time_elapsed": 245784, "internal_node_id": "0.0-6.0-18.0"}}, {"uniqueid": "w35124455:a87661281", "current_trial": 114, "dateTime": 1664555228014, "trialdata": {"rt": 835, "stimulus": "<p id='stroop-text' class='stroop-blue'>YELLOW</p>", "response": "b", "stimulus-type": "incongruent", "word": "yellow", "color": "blue", "correct_response": "b", "trial_id": "stroop-trial-1-incongruent-12", "trial_type": "html-keyboard-response", "trial_index": 114, "time_elapsed": 247127, "internal_node_id": "0.0-6.0-19.0"}}, {"uniqueid": "w35124455:a87661281", "current_trial": 115, "dateTime": 1664555229233, "trialdata": {"rt": 710, "stimulus": "<p id='stroop-text' class='stroop-yellow'>YELLOW</p>", "response": "y", "stimulus-type": "congruent", "word": "yellow", "color": "yellow", "correct_response": "y", "trial_id": "stroop-trial-1-congruent-23", "trial_type": "html-keyboard-response", "trial_index": 115, "time_elapsed": 248346, "internal_node_id": "0.0-6.0-20.0"}}, {"uniqueid": "w35124455:a87661281", "current_trial": 116, "dateTime": 1664555230811, "trialdata": {"rt": 1057, "stimulus": "<p id='stroop-text' class='stroop-yellow'>BLUE</p>", "response": "y", "stimulus-type": "incongruent", "word": "blue", "color": "yellow", "correct_response": "y", "trial_id": "stroop-trial-1-incongruent-16", "trial_type": "html-keyboard-response", "trial_index": 116, "time_elapsed": 249923, "internal_node_id": "0.0-6.0-21.0"}}, {"uniqueid": "w35124455:a87661281", "current_trial": 117, "dateTime": 1664555232148, "trialdata": {"rt": 828, "stimulus": "<p id='stroop-text' class='stroop-red'>YELLOW</p>", "response": "r", "stimulus-type": "incongruent", "word": "yellow", "color": "red", "correct_response": "r", "trial_id": "stroop-trial-1-incongruent-6", "trial_type": "html-keyboard-response", "trial_index": 117, "time_elapsed": 251260, "internal_node_id": "0.0-6.0-22.0"}}, {"uniqueid": "w35124455:a87661281", "current_trial": 118, "dateTime": 1664555233827, "trialdata": {"rt": 1170, "stimulus": "<p id='stroop-text' class='stroop-blue'>BLUE</p>", "response": "y", "stimulus-type": "congruent", "word": "blue", "color": "blue", "correct_response": "b", "trial_id": "stroop-trial-1-congruent-24", "trial_type": "html-keyboard-response", "trial_index": 118, "time_elapsed": 252939, "internal_node_id": "0.0-6.0-23.0"}}, {"uniqueid": "w35124455:a87661281", "current_trial": 119, "dateTime": 1664555235291, "trialdata": {"rt": 955, "stimulus": "<p id='stroop-text' class='stroop-green'>GREEN</p>", "response": "b", "stimulus-type": "congruent", "word": "green", "color": "green", "correct_response": "g", "trial_id": "stroop-trial-1-congruent-16", "trial_type": "html-keyboard-response", "trial_index": 119, "time_elapsed": 254403, "internal_node_id": "0.0-6.0-24.0"}}, {"uniqueid": "w35124455:a87661281", "current_trial": 120, "dateTime": 1664555237034, "trialdata": {"rt": 1231, "stimulus": "<p id='stroop-text' class='stroop-yellow'>BOTTLE</p>", "response": "g", "stimulus-type": "unrelated", "word": "BOTTLE", "color": "yellow", "correct_response": "y", "trial_id": "stroop-trial-1-unrelated-28", "trial_type": "html-keyboard-response", "trial_index": 120, "time_elapsed": 256146, "internal_node_id": "0.0-6.0-25.0"}}, {"uniqueid": "w35124455:a87661281", "current_trial": 121, "dateTime": 1664555239160, "trialdata": {"rt": 1617, "stimulus": "<p id='stroop-text' class='stroop-red'>RED</p>", "response": "r", "stimulus-type": "congruent", "word": "red", "color": "red", "correct_response": "r", "trial_id": "stroop-trial-1-congruent-1", "trial_type": "html-keyboard-response", "trial_index": 121, "time_elapsed": 258273, "internal_node_id": "0.0-6.0-26.0"}}, {"uniqueid": "w35124455:a87661281", "current_trial": 122, "dateTime": 1664555241275, "trialdata": {"rt": 1606, "stimulus": "<p id='stroop-text' class='stroop-yellow'>YELLOW</p>", "response": "y", "stimulus-type": "congruent", "word": "yellow", "color": "yellow", "correct_response": "y", "trial_id": "stroop-trial-1-congruent-25", "trial_type": "html-keyboard-response", "trial_index": 122, "time_elapsed": 260387, "internal_node_id": "0.0-6.0-27.0"}}, {"uniqueid": "w35124455:a87661281", "current_trial": 123, "dateTime": 1664555242991, "trialdata": {"rt": 1205, "stimulus": "<p id='stroop-text' class='stroop-red'>YELLOW</p>", "response": "y", "stimulus-type": "incongruent", "word": "yellow", "color": "red", "correct_response": "r", "trial_id": "stroop-trial-1-incongruent-5", "trial_type": "html-keyboard-response", "trial_index": 123, "time_elapsed": 262103, "internal_node_id": "0.0-6.0-28.0"}}, {"uniqueid": "w35124455:a87661281", "current_trial": 124, "dateTime": 1664555244278, "trialdata": {"rt": 773, "stimulus": "<p id='stroop-text' class='stroop-green'>STONE</p>", "response": "g", "stimulus-type": "unrelated", "word": "STONE", "color": "green", "correct_response": "g", "trial_id": "stroop-trial-1-unrelated-20", "trial_type": "html-keyboard-response", "trial_index": 124, "time_elapsed": 263391, "internal_node_id": "0.0-6.0-29.0"}}, {"uniqueid": "w35124455:a87661281", "current_trial": 125, "dateTime": 1664555245538, "trialdata": {"rt": 748, "stimulus": "<p id='stroop-text' class='stroop-blue'>BLUE</p>", "response": "b", "stimulus-type": "congruent", "word": "blue", "color": "blue", "correct_response": "b", "trial_id": "stroop-trial-1-congruent-29", "trial_type": "html-keyboard-response", "trial_index": 125, "time_elapsed": 264650, "internal_node_id": "0.0-6.0-30.0"}}, {"uniqueid": "w35124455:a87661281", "current_trial": 126, "dateTime": 1664555246778, "trialdata": {"rt": 726, "stimulus": "<p id='stroop-text' class='stroop-blue'>WINDOW</p>", "response": "b", "stimulus-type": "unrelated", "word": "WINDOW", "color": "blue", "correct_response": "b", "trial_id": "stroop-trial-1-unrelated-25", "trial_type": "html-keyboard-response", "trial_index": 126, "time_elapsed": 265890, "internal_node_id": "0.0-6.0-31.0"}}, {"uniqueid": "w35124455:a87661281", "current_trial": 127, "dateTime": 1664555248750, "trialdata": {"rt": 1460, "stimulus": "<p id='stroop-text' class='stroop-green'>BLUE</p>", "response": "g", "stimulus-type": "incongruent", "word": "blue", "color": "green", "correct_response": "g", "trial_id": "stroop-trial-1-incongruent-24", "trial_type": "html-keyboard-response", "trial_index": 127, "time_elapsed": 267862, "internal_node_id": "0.0-6.0-32.0"}}, {"uniqueid": "w35124455:a87661281", "current_trial": 128, "dateTime": 1664555250048, "trialdata": {"rt": 784, "stimulus": "<p id='stroop-text' class='stroop-yellow'>BRAIN</p>", "response": "r", "stimulus-type": "unrelated", "word": "BRAIN", "color": "yellow", "correct_response": "y", "trial_id": "stroop-trial-1-unrelated-27", "trial_type": "html-keyboard-response", "trial_index": 128, "time_elapsed": 269160, "internal_node_id": "0.0-6.0-33.0"}}, {"uniqueid": "w35124455:a87661281", "current_trial": 129, "dateTime": 1664555252184, "trialdata": {"rt": 1623, "stimulus": "<p id='stroop-text' class='stroop-blue'>BLUE</p>", "response": "g", "stimulus-type": "congruent", "word": "blue", "color": "blue", "correct_response": "b", "trial_id": "stroop-trial-1-congruent-21", "trial_type": "html-keyboard-response", "trial_index": 129, "time_elapsed": 271296, "internal_node_id": "0.0-6.0-34.0"}}, {"uniqueid": "w35124455:a87661281", "current_trial": 130, "dateTime": 1664555253779, "trialdata": {"rt": 1085, "stimulus": "<p id='stroop-text' class='stroop-yellow'>SHIP</p>", "response": "y", "stimulus-type": "unrelated", "word": "SHIP", "color": "yellow", "correct_response": "y", "trial_id": "stroop-trial-1-unrelated-13", "trial_type": "html-keyboard-response", "trial_index": 130, "time_elapsed": 272892, "internal_node_id": "0.0-6.0-35.0"}}, {"uniqueid": "w35124455:a87661281", "current_trial": 131, "dateTime": 1664555255130, "trialdata": {"rt": 836, "stimulus": "<p id='stroop-text' class='stroop-blue'>RED</p>", "response": "b", "stimulus-type": "incongruent", "word": "red", "color": "blue", "correct_response": "b", "trial_id": "stroop-trial-1-incongruent-20", "trial_type": "html-keyboard-response", "trial_index": 131, "time_elapsed": 274242, "internal_node_id": "0.0-6.0-36.0"}}, {"uniqueid": "w35124455:a87661281", "current_trial": 132, "dateTime": 1664555256537, "trialdata": {"rt": 897, "stimulus": "<p id='stroop-text' class='stroop-blue'>BLUE</p>", "response": "b", "stimulus-type": "congruent", "word": "blue", "color": "blue", "correct_response": "b", "trial_id": "stroop-trial-1-congruent-9", "trial_type": "html-keyboard-response", "trial_index": 132, "time_elapsed": 275649, "internal_node_id": "0.0-6.0-37.0"}}, {"uniqueid": "w35124455:a87661281", "current_trial": 133, "dateTime": 1664555258011, "trialdata": {"rt": 961, "stimulus": "<p id='stroop-text' class='stroop-blue'>YELLOW</p>", "response": "b", "stimulus-type": "incongruent", "word": "yellow", "color": "blue", "correct_response": "b", "trial_id": "stroop-trial-1-incongruent-13", "trial_type": "html-keyboard-response", "trial_index": 133, "time_elapsed": 277124, "internal_node_id": "0.0-6.0-38.0"}}, {"uniqueid": "w35124455:a87661281", "current_trial": 134, "dateTime": 1664555259082, "trialdata": {"rt": 562, "stimulus": "<p id='stroop-text' class='stroop-blue'>BLUE</p>", "response": "b", "stimulus-type": "congruent", "word": "blue", "color": "blue", "correct_response": "b", "trial_id": "stroop-trial-1-congruent-17", "trial_type": "html-keyboard-response", "trial_index": 134, "time_elapsed": 278194, "internal_node_id": "0.0-6.0-39.0"}}, {"uniqueid": "w35124455:a87661281", "current_trial": 135, "dateTime": 1664555260537, "trialdata": {"rt": 943, "stimulus": "<p id='stroop-text' class='stroop-red'>RED</p>", "response": "r", "stimulus-type": "congruent", "word": "red", "color": "red", "correct_response": "r", "trial_id": "stroop-trial-1-congruent-12", "trial_type": "html-keyboard-response", "trial_index": 135, "time_elapsed": 279650, "internal_node_id": "0.0-6.0-40.0"}}, {"uniqueid": "w35124455:a87661281", "current_trial": 136, "dateTime": 1664555261958, "trialdata": {"rt": 914, "stimulus": "<p id='stroop-text' class='stroop-yellow'>RED</p>", "response": "y", "stimulus-type": "incongruent", "word": "red", "color": "yellow", "correct_response": "y", "trial_id": "stroop-trial-1-incongruent-28", "trial_type": "html-keyboard-response", "trial_index": 136, "time_elapsed": 281071, "internal_node_id": "0.0-6.0-41.0"}}, {"uniqueid": "w35124455:a87661281", "current_trial": 137, "dateTime": 1664555263215, "trialdata": {"rt": 749, "stimulus": "<p id='stroop-text' class='stroop-red'>CHAIR</p>", "response": "r", "stimulus-type": "unrelated", "word": "CHAIR", "color": "red", "correct_response": "r", "trial_id": "stroop-trial-1-unrelated-6", "trial_type": "html-keyboard-response", "trial_index": 137, "time_elapsed": 282328, "internal_node_id": "0.0-6.0-42.0"}}, {"uniqueid": "w35124455:a87661281", "current_trial": 138, "dateTime": 1664555264674, "trialdata": {"rt": 952, "stimulus": "<p id='stroop-text' class='stroop-red'>RED</p>", "response": "r", "stimulus-type": "congruent", "word": "red", "color": "red", "correct_response": "r", "trial_id": "stroop-trial-1-congruent-15", "trial_type": "html-keyboard-response", "trial_index": 138, "time_elapsed": 283787, "internal_node_id": "0.0-6.0-43.0"}}, {"uniqueid": "w35124455:a87661281", "current_trial": 139, "dateTime": 1664555266425, "trialdata": {"rt": 1241, "stimulus": "<p id='stroop-text' class='stroop-green'>RED</p>", "response": "g", "stimulus-type": "incongruent", "word": "red", "color": "green", "correct_response": "g", "trial_id": "stroop-trial-1-incongruent-3", "trial_type": "html-keyboard-response", "trial_index": 139, "time_elapsed": 285538, "internal_node_id": "0.0-6.0-44.0"}}, {"uniqueid": "w35124455:a87661281", "current_trial": 140, "dateTime": 1664555267769, "trialdata": {"rt": 833, "stimulus": "<p id='stroop-text' class='stroop-blue'>RED</p>", "response": "b", "stimulus-type": "incongruent", "word": "red", "color": "blue", "correct_response": "b", "trial_id": "stroop-trial-1-incongruent-23", "trial_type": "html-keyboard-response", "trial_index": 140, "time_elapsed": 286881, "internal_node_id": "0.0-6.0-45.0"}}, {"uniqueid": "w35124455:a87661281", "current_trial": 141, "dateTime": 1664555268967, "trialdata": {"rt": 683, "stimulus": "<p id='stroop-text' class='stroop-yellow'>BRAIN</p>", "response": "y", "stimulus-type": "unrelated", "word": "BRAIN", "color": "yellow", "correct_response": "y", "trial_id": "stroop-trial-1-unrelated-12", "trial_type": "html-keyboard-response", "trial_index": 141, "time_elapsed": 288080, "internal_node_id": "0.0-6.0-46.0"}}, {"uniqueid": "w35124455:a87661281", "current_trial": 142, "dateTime": 1664555270373, "trialdata": {"rt": 885, "stimulus": "<p id='stroop-text' class='stroop-yellow'>YELLOW</p>", "response": "y", "stimulus-type": "congruent", "word": "yellow", "color": "yellow", "correct_response": "y", "trial_id": "stroop-trial-1-congruent-18", "trial_type": "html-keyboard-response", "trial_index": 142, "time_elapsed": 289485, "internal_node_id": "0.0-6.0-47.0"}}, {"uniqueid": "w35124455:a87661281", "current_trial": 143, "dateTime": 1664555271592, "trialdata": {"rt": 714, "stimulus": "<p id='stroop-text' class='stroop-red'>RED</p>", "response": "r", "stimulus-type": "congruent", "word": "red", "color": "red", "correct_response": "r", "trial_id": "stroop-trial-1-congruent-8", "trial_type": "html-keyboard-response", "trial_index": 143, "time_elapsed": 290704, "internal_node_id": "0.0-6.0-48.0"}}, {"uniqueid": "w35124455:a87661281", "current_trial": 144, "dateTime": 1664555273023, "trialdata": {"rt": 921, "stimulus": "<p id='stroop-text' class='stroop-yellow'>YELLOW</p>", "response": "y", "stimulus-type": "congruent", "word": "yellow", "color": "yellow", "correct_response": "y", "trial_id": "stroop-trial-1-congruent-14", "trial_type": "html-keyboard-response", "trial_index": 144, "time_elapsed": 292135, "internal_node_id": "0.0-6.0-49.0"}}, {"uniqueid": "w35124455:a87661281", "current_trial": 145, "dateTime": 1664555274507, "trialdata": {"rt": 975, "stimulus": "<p id='stroop-text' class='stroop-yellow'>BOTTLE</p>", "response": "y", "stimulus-type": "unrelated", "word": "BOTTLE", "color": "yellow", "correct_response": "y", "trial_id": "stroop-trial-1-unrelated-18", "trial_type": "html-keyboard-response", "trial_index": 145, "time_elapsed": 293620, "internal_node_id": "0.0-6.0-50.0"}}, {"uniqueid": "w35124455:a87661281", "current_trial": 146, "dateTime": 1664555276103, "trialdata": {"rt": 1082, "stimulus": "<p id='stroop-text' class='stroop-green'>RED</p>", "response": "g", "stimulus-type": "incongruent", "word": "red", "color": "green", "correct_response": "g", "trial_id": "stroop-trial-1-incongruent-8", "trial_type": "html-keyboard-response", "trial_index": 146, "time_elapsed": 295215, "internal_node_id": "0.0-6.0-51.0"}}, {"uniqueid": "w35124455:a87661281", "current_trial": 147, "dateTime": 1664555277362, "trialdata": {"rt": 751, "stimulus": "<p id='stroop-text' class='stroop-green'>GREEN</p>", "response": "g", "stimulus-type": "congruent", "word": "green", "color": "green", "correct_response": "g", "trial_id": "stroop-trial-1-congruent-11", "trial_type": "html-keyboard-response", "trial_index": 147, "time_elapsed": 296474, "internal_node_id": "0.0-6.0-52.0"}}, {"uniqueid": "w35124455:a87661281", "current_trial": 148, "dateTime": 1664555278505, "trialdata": {"rt": 632, "stimulus": "<p id='stroop-text' class='stroop-green'>GREEN</p>", "response": "g", "stimulus-type": "congruent", "word": "green", "color": "green", "correct_response": "g", "trial_id": "stroop-trial-1-congruent-13", "trial_type": "html-keyboard-response", "trial_index": 148, "time_elapsed": 297618, "internal_node_id": "0.0-6.0-53.0"}}, {"uniqueid": "w35124455:a87661281", "current_trial": 149, "dateTime": 1664555279696, "trialdata": {"rt": 684, "stimulus": "<p id='stroop-text' class='stroop-green'>YELLOW</p>", "response": "g", "stimulus-type": "incongruent", "word": "yellow", "color": "green", "correct_response": "g", "trial_id": "stroop-trial-1-incongruent-21", "trial_type": "html-keyboard-response", "trial_index": 149, "time_elapsed": 298808, "internal_node_id": "0.0-6.0-54.0"}}, {"uniqueid": "w35124455:a87661281", "current_trial": 150, "dateTime": 1664555280834, "trialdata": {"rt": 631, "stimulus": "<p id='stroop-text' class='stroop-blue'>WINDOW</p>", "response": "b", "stimulus-type": "unrelated", "word": "WINDOW", "color": "blue", "correct_response": "b", "trial_id": "stroop-trial-1-unrelated-30", "trial_type": "html-keyboard-response", "trial_index": 150, "time_elapsed": 299946, "internal_node_id": "0.0-6.0-55.0"}}, {"uniqueid": "w35124455:a87661281", "current_trial": 151, "dateTime": 1664555282371, "trialdata": {"rt": 1027, "stimulus": "<p id='stroop-text' class='stroop-yellow'>RED</p>", "response": "y", "stimulus-type": "incongruent", "word": "red", "color": "yellow", "correct_response": "y", "trial_id": "stroop-trial-1-incongruent-29", "trial_type": "html-keyboard-response", "trial_index": 151, "time_elapsed": 301483, "internal_node_id": "0.0-6.0-56.0"}}, {"uniqueid": "w35124455:a87661281", "current_trial": 152, "dateTime": 1664555283842, "trialdata": {"rt": 958, "stimulus": "<p id='stroop-text' class='stroop-red'>BLUE</p>", "response": "r", "stimulus-type": "incongruent", "word": "blue", "color": "red", "correct_response": "r", "trial_id": "stroop-trial-1-incongruent-7", "trial_type": "html-keyboard-response", "trial_index": 152, "time_elapsed": 302955, "internal_node_id": "0.0-6.0-57.0"}}, {"uniqueid": "w35124455:a87661281", "current_trial": 153, "dateTime": 1664555285269, "trialdata": {"rt": 917, "stimulus": "<p id='stroop-text' class='stroop-yellow'>WINDOW</p>", "response": "y", "stimulus-type": "unrelated", "word": "WINDOW", "color": "yellow", "correct_response": "y", "trial_id": "stroop-trial-1-unrelated-23", "trial_type": "html-keyboard-response", "trial_index": 153, "time_elapsed": 304381, "internal_node_id": "0.0-6.0-58.0"}}, {"uniqueid": "w35124455:a87661281", "current_trial": 154, "dateTime": 1664555286812, "trialdata": {"rt": 1028, "stimulus": "<p id='stroop-text' class='stroop-green'>GREEN</p>", "response": "g", "stimulus-type": "congruent", "word": "green", "color": "green", "correct_response": "g", "trial_id": "stroop-trial-1-congruent-4", "trial_type": "html-keyboard-response", "trial_index": 154, "time_elapsed": 305924, "internal_node_id": "0.0-6.0-59.0"}}, {"uniqueid": "w35124455:a87661281", "current_trial": 155, "dateTime": 1664555288783, "trialdata": {"rt": 1451, "stimulus": "<p id='stroop-text' class='stroop-blue'>BOAT</p>", "response": "y", "stimulus-type": "unrelated", "word": "BOAT", "color": "blue", "correct_response": "b", "trial_id": "stroop-trial-1-unrelated-14", "trial_type": "html-keyboard-response", "trial_index": 155, "time_elapsed": 307896, "internal_node_id": "0.0-6.0-60.0"}}, {"uniqueid": "w35124455:a87661281", "current_trial": 156, "dateTime": 1664555290028, "trialdata": {"rt": 735, "stimulus": "<p id='stroop-text' class='stroop-blue'>BLUE</p>", "response": "r", "stimulus-type": "congruent", "word": "blue", "color": "blue", "correct_response": "b", "trial_id": "stroop-trial-1-congruent-22", "trial_type": "html-keyboard-response", "trial_index": 156, "time_elapsed": 309141, "internal_node_id": "0.0-6.0-61.0"}}, {"uniqueid": "w35124455:a87661281", "current_trial": 157, "dateTime": 1664555291525, "trialdata": {"rt": 982, "stimulus": "<p id='stroop-text' class='stroop-red'>DOG</p>", "response": "r", "stimulus-type": "unrelated", "word": "DOG", "color": "red", "correct_response": "r", "trial_id": "stroop-trial-1-unrelated-15", "trial_type": "html-keyboard-response", "trial_index": 157, "time_elapsed": 310637, "internal_node_id": "0.0-6.0-62.0"}}, {"uniqueid": "w35124455:a87661281", "current_trial": 158, "dateTime": 1664555292807, "trialdata": {"rt": 772, "stimulus": "<p id='stroop-text' class='stroop-green'>MONKEY</p>", "response": "g", "stimulus-type": "unrelated", "word": "MONKEY", "color": "green", "correct_response": "g", "trial_id": "stroop-trial-1-unrelated-22", "trial_type": "html-keyboard-response", "trial_index": 158, "time_elapsed": 311919, "internal_node_id": "0.0-6.0-63.0"}}, {"uniqueid": "w35124455:a87661281", "current_trial": 159, "dateTime": 1664555294074, "trialdata": {"rt": 759, "stimulus": "<p id='stroop-text' class='stroop-green'>GREEN</p>", "response": "g", "stimulus-type": "congruent", "word": "green", "color": "green", "correct_response": "g", "trial_id": "stroop-trial-1-congruent-30", "trial_type": "html-keyboard-response", "trial_index": 159, "time_elapsed": 313187, "internal_node_id": "0.0-6.0-64.0"}}, {"uniqueid": "w35124455:a87661281", "current_trial": 160, "dateTime": 1664555295113, "trialdata": {"rt": 530, "stimulus": "<p id='stroop-text' class='stroop-yellow'>YELLOW</p>", "response": "y", "stimulus-type": "congruent", "word": "yellow", "color": "yellow", "correct_response": "y", "trial_id": "stroop-trial-1-congruent-19", "trial_type": "html-keyboard-response", "trial_index": 160, "time_elapsed": 314226, "internal_node_id": "0.0-6.0-65.0"}}, {"uniqueid": "w35124455:a87661281", "current_trial": 161, "dateTime": 1664555297323, "trialdata": {"rt": 1697, "stimulus": "<p id='stroop-text' class='stroop-blue'>RED</p>", "response": "b", "stimulus-type": "incongruent", "word": "red", "color": "blue", "correct_response": "b", "trial_id": "stroop-trial-1-incongruent-18", "trial_type": "html-keyboard-response", "trial_index": 161, "time_elapsed": 316436, "internal_node_id": "0.0-6.0-66.0"}}, {"uniqueid": "w35124455:a87661281", "current_trial": 162, "dateTime": 1664555299027, "trialdata": {"rt": 1195, "stimulus": "<p id='stroop-text' class='stroop-blue'>SHIP</p>", "response": "b", "stimulus-type": "unrelated", "word": "SHIP", "color": "blue", "correct_response": "b", "trial_id": "stroop-trial-1-unrelated-29", "trial_type": "html-keyboard-response", "trial_index": 162, "time_elapsed": 318140, "internal_node_id": "0.0-6.0-67.0"}}, {"uniqueid": "w35124455:a87661281", "current_trial": 163, "dateTime": 1664555299985, "trialdata": {"rt": 447, "stimulus": "<p id='stroop-text' class='stroop-blue'>BLUE</p>", "response": "b", "stimulus-type": "congruent", "word": "blue", "color": "blue", "correct_response": "b", "trial_id": "stroop-trial-1-congruent-2", "trial_type": "html-keyboard-response", "trial_index": 163, "time_elapsed": 319097, "internal_node_id": "0.0-6.0-68.0"}}, {"uniqueid": "w35124455:a87661281", "current_trial": 164, "dateTime": 1664555301242, "trialdata": {"rt": 736, "stimulus": "<p id='stroop-text' class='stroop-yellow'>STONE</p>", "response": "y", "stimulus-type": "unrelated", "word": "STONE", "color": "yellow", "correct_response": "y", "trial_id": "stroop-trial-1-unrelated-11", "trial_type": "html-keyboard-response", "trial_index": 164, "time_elapsed": 320354, "internal_node_id": "0.0-6.0-69.0"}}, {"uniqueid": "w35124455:a87661281", "current_trial": 165, "dateTime": 1664555302697, "trialdata": {"rt": 949, "stimulus": "<p id='stroop-text' class='stroop-yellow'>GREEN</p>", "response": "y", "stimulus-type": "incongruent", "word": "green", "color": "yellow", "correct_response": "y", "trial_id": "stroop-trial-1-incongruent-11", "trial_type": "html-keyboard-response", "trial_index": 165, "time_elapsed": 321810, "internal_node_id": "0.0-6.0-70.0"}}, {"uniqueid": "w35124455:a87661281", "current_trial": 166, "dateTime": 1664555303907, "trialdata": {"rt": 694, "stimulus": "<p id='stroop-text' class='stroop-red'>BLUE</p>", "response": "r", "stimulus-type": "incongruent", "word": "blue", "color": "red", "correct_response": "r", "trial_id": "stroop-trial-1-incongruent-9", "trial_type": "html-keyboard-response", "trial_index": 166, "time_elapsed": 323019, "internal_node_id": "0.0-6.0-71.0"}}, {"uniqueid": "w35124455:a87661281", "current_trial": 167, "dateTime": 1664555305794, "trialdata": {"rt": 1378, "stimulus": "<p id='stroop-text' class='stroop-yellow'>YELLOW</p>", "response": "y", "stimulus-type": "congruent", "word": "yellow", "color": "yellow", "correct_response": "y", "trial_id": "stroop-trial-1-congruent-6", "trial_type": "html-keyboard-response", "trial_index": 167, "time_elapsed": 324907, "internal_node_id": "0.0-6.0-72.0"}}, {"uniqueid": "w35124455:a87661281", "current_trial": 168, "dateTime": 1664555307223, "trialdata": {"rt": 919, "stimulus": "<p id='stroop-text' class='stroop-blue'>RED</p>", "response": "b", "stimulus-type": "incongruent", "word": "red", "color": "blue", "correct_response": "b", "trial_id": "stroop-trial-1-incongruent-2", "trial_type": "html-keyboard-response", "trial_index": 168, "time_elapsed": 326336, "internal_node_id": "0.0-6.0-73.0"}}, {"uniqueid": "w35124455:a87661281", "current_trial": 169, "dateTime": 1664555308505, "trialdata": {"rt": 768, "stimulus": "<p id='stroop-text' class='stroop-red'>RED</p>", "response": "r", "stimulus-type": "congruent", "word": "red", "color": "red", "correct_response": "r", "trial_id": "stroop-trial-1-congruent-20", "trial_type": "html-keyboard-response", "trial_index": 169, "time_elapsed": 327618, "internal_node_id": "0.0-6.0-74.0"}}, {"uniqueid": "w35124455:a87661281", "current_trial": 170, "dateTime": 1664555309757, "trialdata": {"rt": 737, "stimulus": "<p id='stroop-text' class='stroop-blue'>BOAT</p>", "response": "b", "stimulus-type": "unrelated", "word": "BOAT", "color": "blue", "correct_response": "b", "trial_id": "stroop-trial-1-unrelated-24", "trial_type": "html-keyboard-response", "trial_index": 170, "time_elapsed": 328869, "internal_node_id": "0.0-6.0-75.0"}}, {"uniqueid": "w35124455:a87661281", "current_trial": 171, "dateTime": 1664555311204, "trialdata": {"rt": 935, "stimulus": "<p id='stroop-text' class='stroop-red'>FORK</p>", "response": "r", "stimulus-type": "unrelated", "word": "FORK", "color": "red", "correct_response": "r", "trial_id": "stroop-trial-1-unrelated-5", "trial_type": "html-keyboard-response", "trial_index": 171, "time_elapsed": 330317, "internal_node_id": "0.0-6.0-76.0"}}, {"uniqueid": "w35124455:a87661281", "current_trial": 172, "dateTime": 1664555312777, "trialdata": {"rt": 1057, "stimulus": "<p id='stroop-text' class='stroop-green'>RED</p>", "response": "g", "stimulus-type": "incongruent", "word": "red", "color": "green", "correct_response": "g", "trial_id": "stroop-trial-1-incongruent-17", "trial_type": "html-keyboard-response", "trial_index": 172, "time_elapsed": 331889, "internal_node_id": "0.0-6.0-77.0"}}, {"uniqueid": "w35124455:a87661281", "current_trial": 173, "dateTime": 1664555314040, "trialdata": {"rt": 747, "stimulus": "<p id='stroop-text' class='stroop-yellow'>GREEN</p>", "response": "y", "stimulus-type": "incongruent", "word": "green", "color": "yellow", "correct_response": "y", "trial_id": "stroop-trial-1-incongruent-27", "trial_type": "html-keyboard-response", "trial_index": 173, "time_elapsed": 333152, "internal_node_id": "0.0-6.0-78.0"}}, {"uniqueid": "w35124455:a87661281", "current_trial": 174, "dateTime": 1664555315895, "trialdata": {"rt": 1349, "stimulus": "<p id='stroop-text' class='stroop-red'>BRIDGE</p>", "response": "b", "stimulus-type": "unrelated", "word": "BRIDGE", "color": "red", "correct_response": "r", "trial_id": "stroop-trial-1-unrelated-16", "trial_type": "html-keyboard-response", "trial_index": 174, "time_elapsed": 335008, "internal_node_id": "0.0-6.0-79.0"}}, {"uniqueid": "w35124455:a87661281", "current_trial": 175, "dateTime": 1664555316973, "trialdata": {"rt": 572, "stimulus": "<p id='stroop-text' class='stroop-red'>RED</p>", "response": "r", "stimulus-type": "congruent", "word": "red", "color": "red", "correct_response": "r", "trial_id": "stroop-trial-1-congruent-7", "trial_type": "html-keyboard-response", "trial_index": 175, "time_elapsed": 336085, "internal_node_id": "0.0-6.0-80.0"}}, {"uniqueid": "w35124455:a87661281", "current_trial": 176, "dateTime": 1664555318270, "trialdata": {"rt": 788, "stimulus": "<p id='stroop-text' class='stroop-yellow'>BOTTLE</p>", "response": "y", "stimulus-type": "unrelated", "word": "BOTTLE", "color": "yellow", "correct_response": "y", "trial_id": "stroop-trial-1-unrelated-17", "trial_type": "html-keyboard-response", "trial_index": 176, "time_elapsed": 337382, "internal_node_id": "0.0-6.0-81.0"}}, {"uniqueid": "w35124455:a87661281", "current_trial": 177, "dateTime": 1664555319451, "trialdata": {"rt": 672, "stimulus": "<p id='stroop-text' class='stroop-red'>RED</p>", "response": "r", "stimulus-type": "congruent", "word": "red", "color": "red", "correct_response": "r", "trial_id": "stroop-trial-1-congruent-3", "trial_type": "html-keyboard-response", "trial_index": 177, "time_elapsed": 338564, "internal_node_id": "0.0-6.0-82.0"}}, {"uniqueid": "w35124455:a87661281", "current_trial": 178, "dateTime": 1664555320578, "trialdata": {"rt": 618, "stimulus": "<p id='stroop-text' class='stroop-red'>BRIDGE</p>", "response": "r", "stimulus-type": "unrelated", "word": "BRIDGE", "color": "red", "correct_response": "r", "trial_id": "stroop-trial-1-unrelated-1", "trial_type": "html-keyboard-response", "trial_index": 178, "time_elapsed": 339690, "internal_node_id": "0.0-6.0-83.0"}}, {"uniqueid": "w35124455:a87661281", "current_trial": 179, "dateTime": 1664555322290, "trialdata": {"rt": 1196, "stimulus": "<p id='stroop-text' class='stroop-yellow'>DOG</p>", "response": "y", "stimulus-type": "unrelated", "word": "DOG", "color": "yellow", "correct_response": "y", "trial_id": "stroop-trial-1-unrelated-19", "trial_type": "html-keyboard-response", "trial_index": 179, "time_elapsed": 341402, "internal_node_id": "0.0-6.0-84.0"}}, {"uniqueid": "w35124455:a87661281", "current_trial": 180, "dateTime": 1664555323456, "trialdata": {"rt": 658, "stimulus": "<p id='stroop-text' class='stroop-red'>BOTTLE</p>", "response": "r", "stimulus-type": "unrelated", "word": "BOTTLE", "color": "red", "correct_response": "r", "trial_id": "stroop-trial-1-unrelated-21", "trial_type": "html-keyboard-response", "trial_index": 180, "time_elapsed": 342568, "internal_node_id": "0.0-6.0-85.0"}}, {"uniqueid": "w35124455:a87661281", "current_trial": 181, "dateTime": 1664555325372, "trialdata": {"rt": 1402, "stimulus": "<p id='stroop-text' class='stroop-blue'>GREEN</p>", "response": "b", "stimulus-type": "incongruent", "word": "green", "color": "blue", "correct_response": "b", "trial_id": "stroop-trial-1-incongruent-1", "trial_type": "html-keyboard-response", "trial_index": 181, "time_elapsed": 344485, "internal_node_id": "0.0-6.0-86.0"}}, {"uniqueid": "w35124455:a87661281", "current_trial": 182, "dateTime": 1664555327157, "trialdata": {"rt": 1276, "stimulus": "<p id='stroop-text' class='stroop-red'>GREEN</p>", "response": "r", "stimulus-type": "incongruent", "word": "green", "color": "red", "correct_response": "r", "trial_id": "stroop-trial-1-incongruent-14", "trial_type": "html-keyboard-response", "trial_index": 182, "time_elapsed": 346269, "internal_node_id": "0.0-6.0-87.0"}}, {"uniqueid": "w35124455:a87661281", "current_trial": 183, "dateTime": 1664555328588, "trialdata": {"rt": 923, "stimulus": "<p id='stroop-text' class='stroop-blue'>BLUE</p>", "response": "b", "stimulus-type": "congruent", "word": "blue", "color": "blue", "correct_response": "b", "trial_id": "stroop-trial-1-congruent-5", "trial_type": "html-keyboard-response", "trial_index": 183, "time_elapsed": 347701, "internal_node_id": "0.0-6.0-88.0"}}, {"uniqueid": "w35124455:a87661281", "current_trial": 184, "dateTime": 1664555329705, "trialdata": {"rt": 604, "stimulus": "<p id='stroop-text' class='stroop-blue'>WINDOW</p>", "response": "b", "stimulus-type": "unrelated", "word": "WINDOW", "color": "blue", "correct_response": "b", "trial_id": "stroop-trial-1-unrelated-7", "trial_type": "html-keyboard-response", "trial_index": 184, "time_elapsed": 348817, "internal_node_id": "0.0-6.0-89.0"}}, {"uniqueid": "w35124455:a87661281", "current_trial": 185, "dateTime": 1664555334744, "trialdata": {"rt": 4530, "stimulus": "  <h1> End of block! </h1>\n\n  You have reached the end of the block 2/5. If you need a short break, feel free to take one now before moving on.\n\n  <br><br>\n  In the next block, you will complete another 90 rounds of this game.\n\n  <br><br>\n  <div style='text-align: center;'>Press <code>space</code> to begin.</div>\n  <br><br>\n<div style='text-align: center;'>(If the experiment doesn't continue, try clicking on the text and then pressing <code>space</code>.)</div>", "response": " ", "trial_id": "stroop_1_ready_3", "trial_type": "html-keyboard-response", "trial_index": 185, "time_elapsed": 353857, "internal_node_id": "0.0-7.0"}}, {"uniqueid": "w35124455:a87661281", "current_trial": 186, "dateTime": 1664555335710, "trialdata": {"rt": 958, "stimulus": "<p id='stroop-text' class='stroop-red'>RED</p>", "response": "r", "stimulus-type": "congruent", "word": "red", "color": "red", "correct_response": "r", "trial_id": "stroop-trial-1-congruent-22", "trial_type": "html-keyboard-response", "trial_index": 186, "time_elapsed": 354822, "internal_node_id": "0.0-8.0-0.0"}}, {"uniqueid": "w35124455:a87661281", "current_trial": 187, "dateTime": 1664555337331, "trialdata": {"rt": 1114, "stimulus": "<p id='stroop-text' class='stroop-red'>BLUE</p>", "response": "r", "stimulus-type": "incongruent", "word": "blue", "color": "red", "correct_response": "r", "trial_id": "stroop-trial-1-incongruent-9", "trial_type": "html-keyboard-response", "trial_index": 187, "time_elapsed": 356443, "internal_node_id": "0.0-8.0-1.0"}}, {"uniqueid": "w35124455:a87661281", "current_trial": 188, "dateTime": 1664555338882, "trialdata": {"rt": 1041, "stimulus": "<p id='stroop-text' class='stroop-yellow'>GREEN</p>", "response": "y", "stimulus-type": "incongruent", "word": "green", "color": "yellow", "correct_response": "y", "trial_id": "stroop-trial-1-incongruent-8", "trial_type": "html-keyboard-response", "trial_index": 188, "time_elapsed": 357995, "internal_node_id": "0.0-8.0-2.0"}}, {"uniqueid": "w35124455:a87661281", "current_trial": 189, "dateTime": 1664555339955, "trialdata": {"rt": 564, "stimulus": "<p id='stroop-text' class='stroop-yellow'>BOAT</p>", "response": "y", "stimulus-type": "unrelated", "word": "BOAT", "color": "yellow", "correct_response": "y", "trial_id": "stroop-trial-1-unrelated-28", "trial_type": "html-keyboard-response", "trial_index": 189, "time_elapsed": 359067, "internal_node_id": "0.0-8.0-3.0"}}, {"uniqueid": "w35124455:a87661281", "current_trial": 190, "dateTime": 1664555341201, "trialdata": {"rt": 728, "stimulus": "<p id='stroop-text' class='stroop-green'>GREEN</p>", "response": "g", "stimulus-type": "congruent", "word": "green", "color": "green", "correct_response": "g", "trial_id": "stroop-trial-1-congruent-12", "trial_type": "html-keyboard-response", "trial_index": 190, "time_elapsed": 360313, "internal_node_id": "0.0-8.0-4.0"}}, {"uniqueid": "w35124455:a87661281", "current_trial": 191, "dateTime": 1664555342887, "trialdata": {"rt": 1180, "stimulus": "<p id='stroop-text' class='stroop-blue'>YELLOW</p>", "response": "b", "stimulus-type": "incongruent", "word": "yellow", "color": "blue", "correct_response": "b", "trial_id": "stroop-trial-1-incongruent-16", "trial_type": "html-keyboard-response", "trial_index": 191, "time_elapsed": 361999, "internal_node_id": "0.0-8.0-5.0"}}, {"uniqueid": "w35124455:a87661281", "current_trial": 192, "dateTime": 1664555344810, "trialdata": {"rt": 1403, "stimulus": "<p id='stroop-text' class='stroop-yellow'>GREEN</p>", "response": "y", "stimulus-type": "incongruent", "word": "green", "color": "yellow", "correct_response": "y", "trial_id": "stroop-trial-1-incongruent-29", "trial_type": "html-keyboard-response", "trial_index": 192, "time_elapsed": 363922, "internal_node_id": "0.0-8.0-6.0"}}, {"uniqueid": "w35124455:a87661281", "current_trial": 193, "dateTime": 1664555347633, "trialdata": {"rt": 2302, "stimulus": "<p id='stroop-text' class='stroop-blue'>FORK</p>", "response": "b", "stimulus-type": "unrelated", "word": "FORK", "color": "blue", "correct_response": "b", "trial_id": "stroop-trial-1-unrelated-19", "trial_type": "html-keyboard-response", "trial_index": 193, "time_elapsed": 366745, "internal_node_id": "0.0-8.0-7.0"}}, {"uniqueid": "w35124455:a87661281", "current_trial": 194, "dateTime": 1664555349223, "trialdata": {"rt": 1075, "stimulus": "<p id='stroop-text' class='stroop-yellow'>BLUE</p>", "response": "y", "stimulus-type": "incongruent", "word": "blue", "color": "yellow", "correct_response": "y", "trial_id": "stroop-trial-1-incongruent-22", "trial_type": "html-keyboard-response", "trial_index": 194, "time_elapsed": 368336, "internal_node_id": "0.0-8.0-8.0"}}, {"uniqueid": "w35124455:a87661281", "current_trial": 195, "dateTime": 1664555350983, "trialdata": {"rt": 1252, "stimulus": "<p id='stroop-text' class='stroop-blue'>RED</p>", "response": "y", "stimulus-type": "incongruent", "word": "red", "color": "blue", "correct_response": "b", "trial_id": "stroop-trial-1-incongruent-3", "trial_type": "html-keyboard-response", "trial_index": 195, "time_elapsed": 370096, "internal_node_id": "0.0-8.0-9.0"}}, {"uniqueid": "w35124455:a87661281", "current_trial": 196, "dateTime": 1664555352426, "trialdata": {"rt": 921, "stimulus": "<p id='stroop-text' class='stroop-red'>CHAIR</p>", "response": "r", "stimulus-type": "unrelated", "word": "CHAIR", "color": "red", "correct_response": "r", "trial_id": "stroop-trial-1-unrelated-11", "trial_type": "html-keyboard-response", "trial_index": 196, "time_elapsed": 371538, "internal_node_id": "0.0-8.0-10.0"}}, {"uniqueid": "w35124455:a87661281", "current_trial": 197, "dateTime": 1664555353867, "trialdata": {"rt": 932, "stimulus": "<p id='stroop-text' class='stroop-green'>WINDOW</p>", "response": "g", "stimulus-type": "unrelated", "word": "WINDOW", "color": "green", "correct_response": "g", "trial_id": "stroop-trial-1-unrelated-8", "trial_type": "html-keyboard-response", "trial_index": 197, "time_elapsed": 372979, "internal_node_id": "0.0-8.0-11.0"}}, {"uniqueid": "w35124455:a87661281", "current_trial": 198, "dateTime": 1664555355035, "trialdata": {"rt": 659, "stimulus": "<p id='stroop-text' class='stroop-red'>BRAIN</p>", "response": "g", "stimulus-type": "unrelated", "word": "BRAIN", "color": "red", "correct_response": "r", "trial_id": "stroop-trial-1-unrelated-24", "trial_type": "html-keyboard-response", "trial_index": 198, "time_elapsed": 374148, "internal_node_id": "0.0-8.0-12.0"}}, {"uniqueid": "w35124455:a87661281", "current_trial": 199, "dateTime": 1664555356096, "trialdata": {"rt": 551, "stimulus": "<p id='stroop-text' class='stroop-red'>STONE</p>", "response": "r", "stimulus-type": "unrelated", "word": "STONE", "color": "red", "correct_response": "r", "trial_id": "stroop-trial-1-unrelated-27", "trial_type": "html-keyboard-response", "trial_index": 199, "time_elapsed": 375208, "internal_node_id": "0.0-8.0-13.0"}}, {"uniqueid": "w35124455:a87661281", "current_trial": 200, "dateTime": 1664555357390, "trialdata": {"rt": 772, "stimulus": "<p id='stroop-text' class='stroop-green'>MONKEY</p>", "response": "r", "stimulus-type": "unrelated", "word": "MONKEY", "color": "green", "correct_response": "g", "trial_id": "stroop-trial-1-unrelated-29", "trial_type": "html-keyboard-response", "trial_index": 200, "time_elapsed": 376502, "internal_node_id": "0.0-8.0-14.0"}}, {"uniqueid": "w35124455:a87661281", "current_trial": 201, "dateTime": 1664555358633, "trialdata": {"rt": 729, "stimulus": "<p id='stroop-text' class='stroop-yellow'>YELLOW</p>", "response": "y", "stimulus-type": "congruent", "word": "yellow", "color": "yellow", "correct_response": "y", "trial_id": "stroop-trial-1-congruent-1", "trial_type": "html-keyboard-response", "trial_index": 201, "time_elapsed": 377745, "internal_node_id": "0.0-8.0-15.0"}}, {"uniqueid": "w35124455:a87661281", "current_trial": 202, "dateTime": 1664555360545, "trialdata": {"rt": 1389, "stimulus": "<p id='stroop-text' class='stroop-red'>GREEN</p>", "response": "r", "stimulus-type": "incongruent", "word": "green", "color": "red", "correct_response": "r", "trial_id": "stroop-trial-1-incongruent-13", "trial_type": "html-keyboard-response", "trial_index": 202, "time_elapsed": 379657, "internal_node_id": "0.0-8.0-16.0"}}, {"uniqueid": "w35124455:a87661281", "current_trial": 203, "dateTime": 1664555361727, "trialdata": {"rt": 673, "stimulus": "<p id='stroop-text' class='stroop-red'>GREEN</p>", "response": "r", "stimulus-type": "incongruent", "word": "green", "color": "red", "correct_response": "r", "trial_id": "stroop-trial-1-incongruent-7", "trial_type": "html-keyboard-response", "trial_index": 203, "time_elapsed": 380839, "internal_node_id": "0.0-8.0-17.0"}}, {"uniqueid": "w35124455:a87661281", "current_trial": 204, "dateTime": 1664555363002, "trialdata": {"rt": 766, "stimulus": "<p id='stroop-text' class='stroop-red'>RED</p>", "response": "r", "stimulus-type": "congruent", "word": "red", "color": "red", "correct_response": "r", "trial_id": "stroop-trial-1-congruent-28", "trial_type": "html-keyboard-response", "trial_index": 204, "time_elapsed": 382114, "internal_node_id": "0.0-8.0-18.0"}}, {"uniqueid": "w35124455:a87661281", "current_trial": 205, "dateTime": 1664555364689, "trialdata": {"rt": 1171, "stimulus": "<p id='stroop-text' class='stroop-yellow'>BLUE</p>", "response": "y", "stimulus-type": "incongruent", "word": "blue", "color": "yellow", "correct_response": "y", "trial_id": "stroop-trial-1-incongruent-30", "trial_type": "html-keyboard-response", "trial_index": 205, "time_elapsed": 383802, "internal_node_id": "0.0-8.0-19.0"}}, {"uniqueid": "w35124455:a87661281", "current_trial": 206, "dateTime": 1664555366549, "trialdata": {"rt": 1352, "stimulus": "<p id='stroop-text' class='stroop-blue'>BRIDGE</p>", "response": "b", "stimulus-type": "unrelated", "word": "BRIDGE", "color": "blue", "correct_response": "b", "trial_id": "stroop-trial-1-unrelated-26", "trial_type": "html-keyboard-response", "trial_index": 206, "time_elapsed": 385661, "internal_node_id": "0.0-8.0-20.0"}}, {"uniqueid": "w35124455:a87661281", "current_trial": 207, "dateTime": 1664555367622, "trialdata": {"rt": 560, "stimulus": "<p id='stroop-text' class='stroop-yellow'>YELLOW</p>", "response": "y", "stimulus-type": "congruent", "word": "yellow", "color": "yellow", "correct_response": "y", "trial_id": "stroop-trial-1-congruent-14", "trial_type": "html-keyboard-response", "trial_index": 207, "time_elapsed": 386734, "internal_node_id": "0.0-8.0-21.0"}}, {"uniqueid": "w35124455:a87661281", "current_trial": 208, "dateTime": 1664555369085, "trialdata": {"rt": 950, "stimulus": "<p id='stroop-text' class='stroop-green'>BRIDGE</p>", "response": "g", "stimulus-type": "unrelated", "word": "BRIDGE", "color": "green", "correct_response": "g", "trial_id": "stroop-trial-1-unrelated-2", "trial_type": "html-keyboard-response", "trial_index": 208, "time_elapsed": 388197, "internal_node_id": "0.0-8.0-22.0"}}, {"uniqueid": "w35124455:a87661281", "current_trial": 209, "dateTime": 1664555370510, "trialdata": {"rt": 919, "stimulus": "<p id='stroop-text' class='stroop-blue'>YELLOW</p>", "response": "b", "stimulus-type": "incongruent", "word": "yellow", "color": "blue", "correct_response": "b", "trial_id": "stroop-trial-1-incongruent-20", "trial_type": "html-keyboard-response", "trial_index": 209, "time_elapsed": 389622, "internal_node_id": "0.0-8.0-23.0"}}, {"uniqueid": "w35124455:a87661281", "current_trial": 210, "dateTime": 1664555372661, "trialdata": {"rt": 1634, "stimulus": "<p id='stroop-text' class='stroop-green'>SHIP</p>", "response": "g", "stimulus-type": "unrelated", "word": "SHIP", "color": "green", "correct_response": "g", "trial_id": "stroop-trial-1-unrelated-22", "trial_type": "html-keyboard-response", "trial_index": 210, "time_elapsed": 391773, "internal_node_id": "0.0-8.0-24.0"}}, {"uniqueid": "w35124455:a87661281", "current_trial": 211, "dateTime": 1664555373839, "trialdata": {"rt": 666, "stimulus": "<p id='stroop-text' class='stroop-blue'>BLUE</p>", "response": "b", "stimulus-type": "congruent", "word": "blue", "color": "blue", "correct_response": "b", "trial_id": "stroop-trial-1-congruent-11", "trial_type": "html-keyboard-response", "trial_index": 211, "time_elapsed": 392952, "internal_node_id": "0.0-8.0-25.0"}}, {"uniqueid": "w35124455:a87661281", "current_trial": 212, "dateTime": 1664555375590, "trialdata": {"rt": 1242, "stimulus": "<p id='stroop-text' class='stroop-green'>RED</p>", "response": "b", "stimulus-type": "incongruent", "word": "red", "color": "green", "correct_response": "g", "trial_id": "stroop-trial-1-incongruent-11", "trial_type": "html-keyboard-response", "trial_index": 212, "time_elapsed": 394702, "internal_node_id": "0.0-8.0-26.0"}}, {"uniqueid": "w35124455:a87661281", "current_trial": 213, "dateTime": 1664555377080, "trialdata": {"rt": 978, "stimulus": "<p id='stroop-text' class='stroop-red'>FORK</p>", "response": "r", "stimulus-type": "unrelated", "word": "FORK", "color": "red", "correct_response": "r", "trial_id": "stroop-trial-1-unrelated-9", "trial_type": "html-keyboard-response", "trial_index": 213, "time_elapsed": 396192, "internal_node_id": "0.0-8.0-27.0"}}, {"uniqueid": "w35124455:a87661281", "current_trial": 214, "dateTime": 1664555378136, "trialdata": {"rt": 548, "stimulus": "<p id='stroop-text' class='stroop-green'>GREEN</p>", "response": "g", "stimulus-type": "congruent", "word": "green", "color": "green", "correct_response": "g", "trial_id": "stroop-trial-1-congruent-8", "trial_type": "html-keyboard-response", "trial_index": 214, "time_elapsed": 397248, "internal_node_id": "0.0-8.0-28.0"}}, {"uniqueid": "w35124455:a87661281", "current_trial": 215, "dateTime": 1664555379377, "trialdata": {"rt": 729, "stimulus": "<p id='stroop-text' class='stroop-blue'>BLUE</p>", "response": "b", "stimulus-type": "congruent", "word": "blue", "color": "blue", "correct_response": "b", "trial_id": "stroop-trial-1-congruent-15", "trial_type": "html-keyboard-response", "trial_index": 215, "time_elapsed": 398489, "internal_node_id": "0.0-8.0-29.0"}}, {"uniqueid": "w35124455:a87661281", "current_trial": 216, "dateTime": 1664555380596, "trialdata": {"rt": 705, "stimulus": "<p id='stroop-text' class='stroop-green'>GREEN</p>", "response": "g", "stimulus-type": "congruent", "word": "green", "color": "green", "correct_response": "g", "trial_id": "stroop-trial-1-congruent-9", "trial_type": "html-keyboard-response", "trial_index": 216, "time_elapsed": 399708, "internal_node_id": "0.0-8.0-30.0"}}, {"uniqueid": "w35124455:a87661281", "current_trial": 217, "dateTime": 1664555382100, "trialdata": {"rt": 997, "stimulus": "<p id='stroop-text' class='stroop-blue'>BLUE</p>", "response": "b", "stimulus-type": "congruent", "word": "blue", "color": "blue", "correct_response": "b", "trial_id": "stroop-trial-1-congruent-26", "trial_type": "html-keyboard-response", "trial_index": 217, "time_elapsed": 401213, "internal_node_id": "0.0-8.0-31.0"}}, {"uniqueid": "w35124455:a87661281", "current_trial": 218, "dateTime": 1664555383624, "trialdata": {"rt": 1017, "stimulus": "<p id='stroop-text' class='stroop-yellow'>SHIP</p>", "response": "y", "stimulus-type": "unrelated", "word": "SHIP", "color": "yellow", "correct_response": "y", "trial_id": "stroop-trial-1-unrelated-7", "trial_type": "html-keyboard-response", "trial_index": 218, "time_elapsed": 402736, "internal_node_id": "0.0-8.0-32.0"}}, {"uniqueid": "w35124455:a87661281", "current_trial": 219, "dateTime": 1664555384962, "trialdata": {"rt": 829, "stimulus": "<p id='stroop-text' class='stroop-blue'>BLUE</p>", "response": "b", "stimulus-type": "congruent", "word": "blue", "color": "blue", "correct_response": "b", "trial_id": "stroop-trial-1-congruent-25", "trial_type": "html-keyboard-response", "trial_index": 219, "time_elapsed": 404075, "internal_node_id": "0.0-8.0-33.0"}}, {"uniqueid": "w35124455:a87661281", "current_trial": 220, "dateTime": 1664555386515, "trialdata": {"rt": 1042, "stimulus": "<p id='stroop-text' class='stroop-red'>DOG</p>", "response": "r", "stimulus-type": "unrelated", "word": "DOG", "color": "red", "correct_response": "r", "trial_id": "stroop-trial-1-unrelated-18", "trial_type": "html-keyboard-response", "trial_index": 220, "time_elapsed": 405628, "internal_node_id": "0.0-8.0-34.0"}}, {"uniqueid": "w35124455:a87661281", "current_trial": 221, "dateTime": 1664555387859, "trialdata": {"rt": 831, "stimulus": "<p id='stroop-text' class='stroop-green'>BLUE</p>", "response": "g", "stimulus-type": "incongruent", "word": "blue", "color": "green", "correct_response": "g", "trial_id": "stroop-trial-1-incongruent-15", "trial_type": "html-keyboard-response", "trial_index": 221, "time_elapsed": 406972, "internal_node_id": "0.0-8.0-35.0"}}, {"uniqueid": "w35124455:a87661281", "current_trial": 222, "dateTime": 1664555389205, "trialdata": {"rt": 837, "stimulus": "<p id='stroop-text' class='stroop-yellow'>GREEN</p>", "response": "y", "stimulus-type": "incongruent", "word": "green", "color": "yellow", "correct_response": "y", "t