{"condition": 0, "counterbalance": 0, "assignmentId": "a92415529", "workerId": "w50581228", "hitId": "h56123622", "currenttrial": 959, "bonus": 0, "data": [{"uniqueid": "w50581228:a92415529", "current_trial": 0, "dateTime": 1664463932991, "trialdata": {"success": true, "trial_type": "fullscreen", "trial_index": 0, "time_elapsed": 7809, "internal_node_id": "0.0-0.0"}}, {"uniqueid": "w50581228:a92415529", "current_trial": 1, "dateTime": 1664463945422, "trialdata": {"view_history": [{"page_index": 0, "viewing_time": 12425}], "rt": 12426, "trial_id": "exp_instructions_distractor", "trial_type": "instructions", "trial_index": 1, "time_elapsed": 20241, "internal_node_id": "0.0-1.0"}}, {"uniqueid": "w50581228:a92415529", "current_trial": 2, "dateTime": 1664463961588, "trialdata": {"view_history": [{"page_index": 0, "viewing_time": 16163}], "rt": 16163, "trial_id": "color_game_instructions", "trial_type": "instructions", "trial_index": 2, "time_elapsed": 36407, "internal_node_id": "0.0-2.0"}}, {"uniqueid": "w50581228:a92415529", "current_trial": 3, "dateTime": 1664463968872, "trialdata": {"rt": 7282, "stimulus": "<h1> Get ready to start the game! </h1>\n\nThank you for reading the instructions. Get ready start with the first of 5 block(s) of this game.\n<br><br>\nIn this first block, you will complete 90 rounds of this game before moving on.\n<br><br>\nRemember, the better you perform, the bigger your bonus will be!\n<br><br>\n<div style='text-align: center;'>Press <code>space</code> to begin.</div>", "response": " ", "trial_id": "stroop_1_ready_1", "trial_type": "html-keyboard-response", "trial_index": 3, "time_elapsed": 43691, "internal_node_id": "0.0-3.0"}}, {"uniqueid": "w50581228:a92415529", "current_trial": 4, "dateTime": 1664463970000, "trialdata": {"rt": 1117, "stimulus": "<p id='stroop-text' class='stroop-blue'>YELLOW</p>", "response": "y", "stimulus-type": "incongruent", "word": "yellow", "color": "blue", "correct_response": "b", "trial_id": "stroop-trial-1-incongruent-5", "trial_type": "html-keyboard-response", "trial_index": 4, "time_elapsed": 44818, "internal_node_id": "0.0-4.0-0.0"}}, {"uniqueid": "w50581228:a92415529", "current_trial": 5, "dateTime": 1664463971233, "trialdata": {"rt": 730, "stimulus": "<p id='stroop-text' class='stroop-red'>GREEN</p>", "response": "g", "stimulus-type": "incongruent", "word": "green", "color": "red", "correct_response": "r", "trial_id": "stroop-trial-1-incongruent-16", "trial_type": "html-keyboard-response", "trial_index": 5, "time_elapsed": 46052, "internal_node_id": "0.0-4.0-1.0"}}, {"uniqueid": "w50581228:a92415529", "current_trial": 6, "dateTime": 1664463972291, "trialdata": {"rt": 554, "stimulus": "<p id='stroop-text' class='stroop-yellow'>RED</p>", "response": "r", "stimulus-type": "incongruent", "word": "red", "color": "yellow", "correct_response": "y", "trial_id": "stroop-trial-1-incongruent-24", "trial_type": "html-keyboard-response", "trial_index": 6, "time_elapsed": 47109, "internal_node_id": "0.0-4.0-2.0"}}, {"uniqueid": "w50581228:a92415529", "current_trial": 7, "dateTime": 1664463973452, "trialdata": {"rt": 658, "stimulus": "<p id='stroop-text' class='stroop-red'>BRIDGE</p>", "response": "b", "stimulus-type": "unrelated", "word": "BRIDGE", "color": "red", "correct_response": "r", "trial_id": "stroop-trial-1-unrelated-7", "trial_type": "html-keyboard-response", "trial_index": 7, "time_elapsed": 48271, "internal_node_id": "0.0-4.0-3.0"}}, {"uniqueid": "w50581228:a92415529", "current_trial": 8, "dateTime": 1664463975041, "trialdata": {"rt": 1085, "stimulus": "<p id='stroop-text' class='stroop-yellow'>YELLOW</p>", "response": "y", "stimulus-type": "congruent", "word": "yellow", "color": "yellow", "correct_response": "y", "trial_id": "stroop-trial-1-congruent-23", "trial_type": "html-keyboard-response", "trial_index": 8, "time_elapsed": 49859, "internal_node_id": "0.0-4.0-4.0"}}, {"uniqueid": "w50581228:a92415529", "current_trial": 9, "dateTime": 1664463976154, "trialdata": {"rt": 609, "stimulus": "<p id='stroop-text' class='stroop-green'>GREEN</p>", "response": "g", "stimulus-type": "congruent", "word": "green", "color": "green", "correct_response": "g", "trial_id": "stroop-trial-1-congruent-10", "trial_type": "html-keyboard-response", "trial_index": 9, "time_elapsed": 50973, "internal_node_id": "0.0-4.0-5.0"}}, {"uniqueid": "w50581228:a92415529", "current_trial": 10, "dateTime": 1664463977740, "trialdata": {"rt": 1083, "stimulus": "<p id='stroop-text' class='stroop-blue'>YELLOW</p>", "response": "b", "stimulus-type": "incongruent", "word": "yellow", "color": "blue", "correct_response": "b", "trial_id": "stroop-trial-1-incongruent-9", "trial_type": "html-keyboard-response", "trial_index": 10, "time_elapsed": 52559, "internal_node_id": "0.0-4.0-6.0"}}, {"uniqueid": "w50581228:a92415529", "current_trial": 11, "dateTime": 1664463979231, "trialdata": {"rt": 988, "stimulus": "<p id='stroop-text' class='stroop-green'>BRAIN</p>", "response": "g", "stimulus-type": "unrelated", "word": "BRAIN", "color": "green", "correct_response": "g", "trial_id": "stroop-trial-1-unrelated-6", "trial_type": "html-keyboard-response", "trial_index": 11, "time_elapsed": 54050, "internal_node_id": "0.0-4.0-7.0"}}, {"uniqueid": "w50581228:a92415529", "current_trial": 12, "dateTime": 1664463980715, "trialdata": {"rt": 980, "stimulus": "<p id='stroop-text' class='stroop-red'>RED</p>", "response": "r", "stimulus-type": "congruent", "word": "red", "color": "red", "correct_response": "r", "trial_id": "stroop-trial-1-congruent-8", "trial_type": "html-keyboard-response", "trial_index": 12, "time_elapsed": 55533, "internal_node_id": "0.0-4.0-8.0"}}, {"uniqueid": "w50581228:a92415529", "current_trial": 13, "dateTime": 1664463981701, "trialdata": {"rt": 483, "stimulus": "<p id='stroop-text' class='stroop-red'>RED</p>", "response": "r", "stimulus-type": "congruent", "word": "red", "color": "red", "correct_response": "r", "trial_id": "stroop-trial-1-congruent-28", "trial_type": "html-keyboard-response", "trial_index": 13, "time_elapsed": 56520, "internal_node_id": "0.0-4.0-9.0"}}, {"uniqueid": "w50581228:a92415529", "current_trial": 14, "dateTime": 1664463983335, "trialdata": {"rt": 1130, "stimulus": "<p id='stroop-text' class='stroop-blue'>RED</p>", "response": "b", "stimulus-type": "incongruent", "word": "red", "color": "blue", "correct_response": "b", "trial_id": "stroop-trial-1-incongruent-18", "trial_type": "html-keyboard-response", "trial_index": 14, "time_elapsed": 58154, "internal_node_id": "0.0-4.0-10.0"}}, {"uniqueid": "w50581228:a92415529", "current_trial": 15, "dateTime": 1664463984680, "trialdata": {"rt": 840, "stimulus": "<p id='stroop-text' class='stroop-yellow'>BOTTLE</p>", "response": "y", "stimulus-type": "unrelated", "word": "BOTTLE", "color": "yellow", "correct_response": "y", "trial_id": "stroop-trial-1-unrelated-28", "trial_type": "html-keyboard-response", "trial_index": 15, "time_elapsed": 59498, "internal_node_id": "0.0-4.0-11.0"}}, {"uniqueid": "w50581228:a92415529", "current_trial": 16, "dateTime": 1664463986330, "trialdata": {"rt": 1147, "stimulus": "<p id='stroop-text' class='stroop-green'>YELLOW</p>", "response": "g", "stimulus-type": "incongruent", "word": "yellow", "color": "green", "correct_response": "g", "trial_id": "stroop-trial-1-incongruent-2", "trial_type": "html-keyboard-response", "trial_index": 16, "time_elapsed": 61149, "internal_node_id": "0.0-4.0-12.0"}}, {"uniqueid": "w50581228:a92415529", "current_trial": 17, "dateTime": 1664463987750, "trialdata": {"rt": 917, "stimulus": "<p id='stroop-text' class='stroop-blue'>STONE</p>", "response": "b", "stimulus-type": "unrelated", "word": "STONE", "color": "blue", "correct_response": "b", "trial_id": "stroop-trial-1-unrelated-22", "trial_type": "html-keyboard-response", "trial_index": 17, "time_elapsed": 62569, "internal_node_id": "0.0-4.0-13.0"}}, {"uniqueid": "w50581228:a92415529", "current_trial": 18, "dateTime": 1664463988716, "trialdata": {"rt": 463, "stimulus": "<p id='stroop-text' class='stroop-blue'>BLUE</p>", "response": "b", "stimulus-type": "congruent", "word": "blue", "color": "blue", "correct_response": "b", "trial_id": "stroop-trial-1-congruent-13", "trial_type": "html-keyboard-response", "trial_index": 18, "time_elapsed": 63535, "internal_node_id": "0.0-4.0-14.0"}}, {"uniqueid": "w50581228:a92415529", "current_trial": 19, "dateTime": 1664463990514, "trialdata": {"rt": 1295, "stimulus": "<p id='stroop-text' class='stroop-red'>YELLOW</p>", "response": "r", "stimulus-type": "incongruent", "word": "yellow", "color": "red", "correct_response": "r", "trial_id": "stroop-trial-1-incongruent-10", "trial_type": "html-keyboard-response", "trial_index": 19, "time_elapsed": 65333, "internal_node_id": "0.0-4.0-15.0"}}, {"uniqueid": "w50581228:a92415529", "current_trial": 20, "dateTime": 1664463992495, "trialdata": {"rt": 1477, "stimulus": "<p id='stroop-text' class='stroop-yellow'>SHIP</p>", "response": "y", "stimulus-type": "unrelated", "word": "SHIP", "color": "yellow", "correct_response": "y", "trial_id": "stroop-trial-1-unrelated-2", "trial_type": "html-keyboard-response", "trial_index": 20, "time_elapsed": 67314, "internal_node_id": "0.0-4.0-16.0"}}, {"uniqueid": "w50581228:a92415529", "current_trial": 21, "dateTime": 1664463993769, "trialdata": {"rt": 770, "stimulus": "<p id='stroop-text' class='stroop-blue'>BLUE</p>", "response": "b", "stimulus-type": "congruent", "word": "blue", "color": "blue", "correct_response": "b", "trial_id": "stroop-trial-1-congruent-2", "trial_type": "html-keyboard-response", "trial_index": 21, "time_elapsed": 68588, "internal_node_id": "0.0-4.0-17.0"}}, {"uniqueid": "w50581228:a92415529", "current_trial": 22, "dateTime": 1664463995021, "trialdata": {"rt": 748, "stimulus": "<p id='stroop-text' class='stroop-red'>RED</p>", "response": "r", "stimulus-type": "congruent", "word": "red", "color": "red", "correct_response": "r", "trial_id": "stroop-trial-1-congruent-20", "trial_type": "html-keyboard-response", "trial_index": 22, "time_elapsed": 69840, "internal_node_id": "0.0-4.0-18.0"}}, {"uniqueid": "w50581228:a92415529", "current_trial": 23, "dateTime": 1664463996663, "trialdata": {"rt": 1139, "stimulus": "<p id='stroop-text' class='stroop-green'>GREEN</p>", "response": "g", "stimulus-type": "congruent", "word": "green", "color": "green", "correct_response": "g", "trial_id": "stroop-trial-1-congruent-5", "trial_type": "html-keyboard-response", "trial_index": 23, "time_elapsed": 71482, "internal_node_id": "0.0-4.0-19.0"}}, {"uniqueid": "w50581228:a92415529", "current_trial": 24, "dateTime": 1664463997995, "trialdata": {"rt": 828, "stimulus": "<p id='stroop-text' class='stroop-yellow'>SHIP</p>", "response": "y", "stimulus-type": "unrelated", "word": "SHIP", "color": "yellow", "correct_response": "y", "trial_id": "stroop-trial-1-unrelated-24", "trial_type": "html-keyboard-response", "trial_index": 24, "time_elapsed": 72814, "internal_node_id": "0.0-4.0-20.0"}}, {"uniqueid": "w50581228:a92415529", "current_trial": 25, "dateTime": 1664463999164, "trialdata": {"rt": 665, "stimulus": "<p id='stroop-text' class='stroop-blue'>BLUE</p>", "response": "b", "stimulus-type": "congruent", "word": "blue", "color": "blue", "correct_response": "b", "trial_id": "stroop-trial-1-congruent-7", "trial_type": "html-keyboard-response", "trial_index": 25, "time_elapsed": 73983, "internal_node_id": "0.0-4.0-21.0"}}, {"uniqueid": "w50581228:a92415529", "current_trial": 26, "dateTime": 1664464000664, "trialdata": {"rt": 998, "stimulus": "<p id='stroop-text' class='stroop-green'>MONKEY</p>", "response": "g", "stimulus-type": "unrelated", "word": "MONKEY", "color": "green", "correct_response": "g", "trial_id": "stroop-trial-1-unrelated-29", "trial_type": "html-keyboard-response", "trial_index": 26, "time_elapsed": 75482, "internal_node_id": "0.0-4.0-22.0"}}, {"uniqueid": "w50581228:a92415529", "current_trial": 27, "dateTime": 1664464002032, "trialdata": {"rt": 865, "stimulus": "<p id='stroop-text' class='stroop-red'>BLUE</p>", "response": "r", "stimulus-type": "incongruent", "word": "blue", "color": "red", "correct_response": "r", "trial_id": "stroop-trial-1-incongruent-21", "trial_type": "html-keyboard-response", "trial_index": 27, "time_elapsed": 76851, "internal_node_id": "0.0-4.0-23.0"}}, {"uniqueid": "w50581228:a92415529", "current_trial": 28, "dateTime": 1664464003686, "trialdata": {"rt": 1150, "stimulus": "<p id='stroop-text' class='stroop-blue'>YELLOW</p>", "response": "b", "stimulus-type": "incongruent", "word": "yellow", "color": "blue", "correct_response": "b", "trial_id": "stroop-trial-1-incongruent-23", "trial_type": "html-keyboard-response", "trial_index": 28, "time_elapsed": 78504, "internal_node_id": "0.0-4.0-24.0"}}, {"uniqueid": "w50581228:a92415529", "current_trial": 29, "dateTime": 1664464004842, "trialdata": {"rt": 654, "stimulus": "<p id='stroop-text' class='stroop-yellow'>YELLOW</p>", "response": "y", "stimulus-type": "congruent", "word": "yellow", "color": "yellow", "correct_response": "y", "trial_id": "stroop-trial-1-congruent-6", "trial_type": "html-keyboard-response", "trial_index": 29, "time_elapsed": 79661, "internal_node_id": "0.0-4.0-25.0"}}, {"uniqueid": "w50581228:a92415529", "current_trial": 30, "dateTime": 1664464006092, "trialdata": {"rt": 747, "stimulus": "<p id='stroop-text' class='stroop-green'>MONKEY</p>", "response": "g", "stimulus-type": "unrelated", "word": "MONKEY", "color": "green", "correct_response": "g", "trial_id": "stroop-trial-1-unrelated-27", "trial_type": "html-keyboard-response", "trial_index": 30, "time_elapsed": 80911, "internal_node_id": "0.0-4.0-26.0"}}, {"uniqueid": "w50581228:a92415529", "current_trial": 31, "dateTime": 1664464007670, "trialdata": {"rt": 1074, "stimulus": "<p id='stroop-text' class='stroop-blue'>BLUE</p>", "response": "b", "stimulus-type": "congruent", "word": "blue", "color": "blue", "correct_response": "b", "trial_id": "stroop-trial-1-congruent-15", "trial_type": "html-keyboard-response", "trial_index": 31, "time_elapsed": 82489, "internal_node_id": "0.0-4.0-27.0"}}, {"uniqueid": "w50581228:a92415529", "current_trial": 32, "dateTime": 1664464009541, "trialdata": {"rt": 1367, "stimulus": "<p id='stroop-text' class='stroop-blue'>YELLOW</p>", "response": "b", "stimulus-type": "incongruent", "word": "yellow", "color": "blue", "correct_response": "b", "trial_id": "stroop-trial-1-incongruent-28", "trial_type": "html-keyboard-response", "trial_index": 32, "time_elapsed": 84359, "internal_node_id": "0.0-4.0-28.0"}}, {"uniqueid": "w50581228:a92415529", "current_trial": 33, "dateTime": 1664464011276, "trialdata": {"rt": 1229, "stimulus": "<p id='stroop-text' class='stroop-red'>RED</p>", "response": "r", "stimulus-type": "congruent", "word": "red", "color": "red", "correct_response": "r", "trial_id": "stroop-trial-1-congruent-1", "trial_type": "html-keyboard-response", "trial_index": 33, "time_elapsed": 86094, "internal_node_id": "0.0-4.0-29.0"}}, {"uniqueid": "w50581228:a92415529", "current_trial": 34, "dateTime": 1664464012754, "trialdata": {"rt": 963, "stimulus": "<p id='stroop-text' class='stroop-green'>BOTTLE</p>", "response": "g", "stimulus-type": "unrelated", "word": "BOTTLE", "color": "green", "correct_response": "g", "trial_id": "stroop-trial-1-unrelated-19", "trial_type": "html-keyboard-response", "trial_index": 34, "time_elapsed": 87572, "internal_node_id": "0.0-4.0-30.0"}}, {"uniqueid": "w50581228:a92415529", "current_trial": 35, "dateTime": 1664464015804, "trialdata": {"rt": 2548, "stimulus": "<p id='stroop-text' class='stroop-yellow'>YELLOW</p>", "response": "y", "stimulus-type": "congruent", "word": "yellow", "color": "yellow", "correct_response": "y", "trial_id": "stroop-trial-1-congruent-24", "trial_type": "html-keyboard-response", "trial_index": 35, "time_elapsed": 90623, "internal_node_id": "0.0-4.0-31.0"}}, {"uniqueid": "w50581228:a92415529", "current_trial": 36, "dateTime": 1664464017411, "trialdata": {"rt": 1103, "stimulus": "<p id='stroop-text' class='stroop-red'>RED</p>", "response": "r", "stimulus-type": "congruent", "word": "red", "color": "red", "correct_response": "r", "trial_id": "stroop-trial-1-congruent-14", "trial_type": "html-keyboard-response", "trial_index": 36, "time_elapsed": 92229, "internal_node_id": "0.0-4.0-32.0"}}, {"uniqueid": "w50581228:a92415529", "current_trial": 37, "dateTime": 1664464018624, "trialdata": {"rt": 709, "stimulus": "<p id='stroop-text' class='stroop-blue'>MONKEY</p>", "response": "b", "stimulus-type": "unrelated", "word": "MONKEY", "color": "blue", "correct_response": "b", "trial_id": "stroop-trial-1-unrelated-11", "trial_type": "html-keyboard-response", "trial_index": 37, "time_elapsed": 93443, "internal_node_id": "0.0-4.0-33.0"}}, {"uniqueid": "w50581228:a92415529", "current_trial": 38, "dateTime": 1664464019682, "trialdata": {"rt": 554, "stimulus": "<p id='stroop-text' class='stroop-blue'>GREEN</p>", "response": "b", "stimulus-type": "incongruent", "word": "green", "color": "blue", "correct_response": "b", "trial_id": "stroop-trial-1-incongruent-22", "trial_type": "html-keyboard-response", "trial_index": 38, "time_elapsed": 94500, "internal_node_id": "0.0-4.0-34.0"}}, {"uniqueid": "w50581228:a92415529", "current_trial": 39, "dateTime": 1664464020860, "trialdata": {"rt": 675, "stimulus": "<p id='stroop-text' class='stroop-yellow'>BRIDGE</p>", "response": "y", "stimulus-type": "unrelated", "word": "BRIDGE", "color": "yellow", "correct_response": "y", "trial_id": "stroop-trial-1-unrelated-20", "trial_type": "html-keyboard-response", "trial_index": 39, "time_elapsed": 95679, "internal_node_id": "0.0-4.0-35.0"}}, {"uniqueid": "w50581228:a92415529", "current_trial": 40, "dateTime": 1664464021900, "trialdata": {"rt": 537, "stimulus": "<p id='stroop-text' class='stroop-blue'>BRAIN</p>", "response": "b", "stimulus-type": "unrelated", "word": "BRAIN", "color": "blue", "correct_response": "b", "trial_id": "stroop-trial-1-unrelated-25", "trial_type": "html-keyboard-response", "trial_index": 40, "time_elapsed": 96719, "internal_node_id": "0.0-4.0-36.0"}}, {"uniqueid": "w50581228:a92415529", "current_trial": 41, "dateTime": 1664464023073, "trialdata": {"rt": 671, "stimulus": "<p id='stroop-text' class='stroop-red'>DOG</p>", "response": "r", "stimulus-type": "unrelated", "word": "DOG", "color": "red", "correct_response": "r", "trial_id": "stroop-trial-1-unrelated-4", "trial_type": "html-keyboard-response", "trial_index": 41, "time_elapsed": 97892, "internal_node_id": "0.0-4.0-37.0"}}, {"uniqueid": "w50581228:a92415529", "current_trial": 42, "dateTime": 1664464024241, "trialdata": {"rt": 663, "stimulus": "<p id='stroop-text' class='stroop-yellow'>BLUE</p>", "response": "y", "stimulus-type": "incongruent", "word": "blue", "color": "yellow", "correct_response": "y", "trial_id": "stroop-trial-1-incongruent-17", "trial_type": "html-keyboard-response", "trial_index": 42, "time_elapsed": 99060, "internal_node_id": "0.0-4.0-38.0"}}, {"uniqueid": "w50581228:a92415529", "current_trial": 43, "dateTime": 1664464025361, "trialdata": {"rt": 616, "stimulus": "<p id='stroop-text' class='stroop-blue'>WINDOW</p>", "response": "b", "stimulus-type": "unrelated", "word": "WINDOW", "color": "blue", "correct_response": "b", "trial_id": "stroop-trial-1-unrelated-8", "trial_type": "html-keyboard-response", "trial_index": 43, "time_elapsed": 100180, "internal_node_id": "0.0-4.0-39.0"}}, {"uniqueid": "w50581228:a92415529", "current_trial": 44, "dateTime": 1664464026459, "trialdata": {"rt": 594, "stimulus": "<p id='stroop-text' class='stroop-green'>BLUE</p>", "response": "r", "stimulus-type": "incongruent", "word": "blue", "color": "green", "correct_response": "g", "trial_id": "stroop-trial-1-incongruent-12", "trial_type": "html-keyboard-response", "trial_index": 44, "time_elapsed": 101277, "internal_node_id": "0.0-4.0-40.0"}}, {"uniqueid": "w50581228:a92415529", "current_trial": 45, "dateTime": 1664464027521, "trialdata": {"rt": 558, "stimulus": "<p id='stroop-text' class='stroop-green'>FORK</p>", "response": "g", "stimulus-type": "unrelated", "word": "FORK", "color": "green", "correct_response": "g", "trial_id": "stroop-trial-1-unrelated-15", "trial_type": "html-keyboard-response", "trial_index": 45, "time_elapsed": 102339, "internal_node_id": "0.0-4.0-41.0"}}, {"uniqueid": "w50581228:a92415529", "current_trial": 46, "dateTime": 1664464028672, "trialdata": {"rt": 646, "stimulus": "<p id='stroop-text' class='stroop-yellow'>WINDOW</p>", "response": "y", "stimulus-type": "unrelated", "word": "WINDOW", "color": "yellow", "correct_response": "y", "trial_id": "stroop-trial-1-unrelated-23", "trial_type": "html-keyboard-response", "trial_index": 46, "time_elapsed": 103491, "internal_node_id": "0.0-4.0-42.0"}}, {"uniqueid": "w50581228:a92415529", "current_trial": 47, "dateTime": 1664464029657, "trialdata": {"rt": 481, "stimulus": "<p id='stroop-text' class='stroop-yellow'>STONE</p>", "response": "y", "stimulus-type": "unrelated", "word": "STONE", "color": "yellow", "correct_response": "y", "trial_id": "stroop-trial-1-unrelated-26", "trial_type": "html-keyboard-response", "trial_index": 47, "time_elapsed": 104476, "internal_node_id": "0.0-4.0-43.0"}}, {"uniqueid": "w50581228:a92415529", "current_trial": 48, "dateTime": 1664464030881, "trialdata": {"rt": 720, "stimulus": "<p id='stroop-text' class='stroop-green'>RED</p>", "response": "g", "stimulus-type": "incongruent", "word": "red", "color": "green", "correct_response": "g", "trial_id": "stroop-trial-1-incongruent-6", "trial_type": "html-keyboard-response", "trial_index": 48, "time_elapsed": 105699, "internal_node_id": "0.0-4.0-44.0"}}, {"uniqueid": "w50581228:a92415529", "current_trial": 49, "dateTime": 1664464031810, "trialdata": {"rt": 425, "stimulus": "<p id='stroop-text' class='stroop-green'>GREEN</p>", "response": "g", "stimulus-type": "congruent", "word": "green", "color": "green", "correct_response": "g", "trial_id": "stroop-trial-1-congruent-12", "trial_type": "html-keyboard-response", "trial_index": 49, "time_elapsed": 106629, "internal_node_id": "0.0-4.0-45.0"}}, {"uniqueid": "w50581228:a92415529", "current_trial": 50, "dateTime": 1664464033589, "trialdata": {"rt": 1275, "stimulus": "<p id='stroop-text' class='stroop-blue'>RED</p>", "response": "b", "stimulus-type": "incongruent", "word": "red", "color": "blue", "correct_response": "b", "trial_id": "stroop-trial-1-incongruent-1", "trial_type": "html-keyboard-response", "trial_index": 50, "time_elapsed": 108408, "internal_node_id": "0.0-4.0-46.0"}}, {"uniqueid": "w50581228:a92415529", "current_trial": 51, "dateTime": 1664464035110, "trialdata": {"rt": 1017, "stimulus": "<p id='stroop-text' class='stroop-red'>STONE</p>", "response": "r", "stimulus-type": "unrelated", "word": "STONE", "color": "red", "correct_response": "r", "trial_id": "stroop-trial-1-unrelated-5", "trial_type": "html-keyboard-response", "trial_index": 51, "time_elapsed": 109928, "internal_node_id": "0.0-4.0-47.0"}}, {"uniqueid": "w50581228:a92415529", "current_trial": 52, "dateTime": 1664464038719, "trialdata": {"rt": 3106, "stimulus": "<p id='stroop-text' class='stroop-yellow'>GREEN</p>", "response": "y", "stimulus-type": "incongruent", "word": "green", "color": "yellow", "correct_response": "y", "trial_id": "stroop-trial-1-incongruent-25", "trial_type": "html-keyboard-response", "trial_index": 52, "time_elapsed": 113538, "internal_node_id": "0.0-4.0-48.0"}}, {"uniqueid": "w50581228:a92415529", "current_trial": 53, "dateTime": 1664464040768, "trialdata": {"rt": 1544, "stimulus": "<p id='stroop-text' class='stroop-red'>BLUE</p>", "response": "r", "stimulus-type": "incongruent", "word": "blue", "color": "red", "correct_response": "r", "trial_id": "stroop-trial-1-incongruent-20", "trial_type": "html-keyboard-response", "trial_index": 53, "time_elapsed": 115587, "internal_node_id": "0.0-4.0-49.0"}}, {"uniqueid": "w50581228:a92415529", "current_trial": 54, "dateTime": 1664464043804, "trialdata": {"rt": 2530, "stimulus": "<p id='stroop-text' class='stroop-green'>GREEN</p>", "response": "g", "stimulus-type": "congruent", "word": "green", "color": "green", "correct_response": "g", "trial_id": "stroop-trial-1-congruent-30", "trial_type": "html-keyboard-response", "trial_index": 54, "time_elapsed": 118622, "internal_node_id": "0.0-4.0-50.0"}}, {"uniqueid": "w50581228:a92415529", "current_trial": 55, "dateTime": 1664464045708, "trialdata": {"rt": 1402, "stimulus": "<p id='stroop-text' class='stroop-blue'>RED</p>", "response": "b", "stimulus-type": "incongruent", "word": "red", "color": "blue", "correct_response": "b", "trial_id": "stroop-trial-1-incongruent-15", "trial_type": "html-keyboard-response", "trial_index": 55, "time_elapsed": 120527, "internal_node_id": "0.0-4.0-51.0"}}, {"uniqueid": "w50581228:a92415529", "current_trial": 56, "dateTime": 1664464046780, "trialdata": {"rt": 568, "stimulus": "<p id='stroop-text' class='stroop-yellow'>SHIP</p>", "response": "y", "stimulus-type": "unrelated", "word": "SHIP", "color": "yellow", "correct_response": "y", "trial_id": "stroop-trial-1-unrelated-12", "trial_type": "html-keyboard-response", "trial_index": 56, "time_elapsed": 121599, "internal_node_id": "0.0-4.0-52.0"}}, {"uniqueid": "w50581228:a92415529", "current_trial": 57, "dateTime": 1664464047867, "trialdata": {"rt": 584, "stimulus": "<p id='stroop-text' class='stroop-yellow'>CHAIR</p>", "response": "y", "stimulus-type": "unrelated", "word": "CHAIR", "color": "yellow", "correct_response": "y", "trial_id": "stroop-trial-1-unrelated-1", "trial_type": "html-keyboard-response", "trial_index": 57, "time_elapsed": 122686, "internal_node_id": "0.0-4.0-53.0"}}, {"uniqueid": "w50581228:a92415529", "current_trial": 58, "dateTime": 1664464049812, "trialdata": {"rt": 1442, "stimulus": "<p id='stroop-text' class='stroop-red'>BLUE</p>", "response": "r", "stimulus-type": "incongruent", "word": "blue", "color": "red", "correct_response": "r", "trial_id": "stroop-trial-1-incongruent-13", "trial_type": "html-keyboard-response", "trial_index": 58, "time_elapsed": 124631, "internal_node_id": "0.0-4.0-54.0"}}, {"uniqueid": "w50581228:a92415529", "current_trial": 59, "dateTime": 1664464051604, "trialdata": {"rt": 1285, "stimulus": "<p id='stroop-text' class='stroop-blue'>BLUE</p>", "response": "b", "stimulus-type": "congruent", "word": "blue", "color": "blue", "correct_response": "b", "trial_id": "stroop-trial-1-congruent-9", "trial_type": "html-keyboard-response", "trial_index": 59, "time_elapsed": 126422, "internal_node_id": "0.0-4.0-55.0"}}, {"uniqueid": "w50581228:a92415529", "current_trial": 60, "dateTime": 1664464053350, "trialdata": {"rt": 1242, "stimulus": "<p id='stroop-text' class='stroop-green'>BOTTLE</p>", "response": "g", "stimulus-type": "unrelated", "word": "BOTTLE", "color": "green", "correct_response": "g", "trial_id": "stroop-trial-1-unrelated-10", "trial_type": "html-keyboard-response", "trial_index": 60, "time_elapsed": 128168, "internal_node_id": "0.0-4.0-56.0"}}, {"uniqueid": "w50581228:a92415529", "current_trial": 61, "dateTime": 1664464054488, "trialdata": {"rt": 634, "stimulus": "<p id='stroop-text' class='stroop-green'>GREEN</p>", "response": "g", "stimulus-type": "congruent", "word": "green", "color": "green", "correct_response": "g", "trial_id": "stroop-trial-1-congruent-3", "trial_type": "html-keyboard-response", "trial_index": 61, "time_elapsed": 129306, "internal_node_id": "0.0-4.0-57.0"}}, {"uniqueid": "w50581228:a92415529", "current_trial": 62, "dateTime": 1664464055750, "trialdata": {"rt": 758, "stimulus": "<p id='stroop-text' class='stroop-green'>MONKEY</p>", "response": "g", "stimulus-type": "unrelated", "word": "MONKEY", "color": "green", "correct_response": "g", "trial_id": "stroop-trial-1-unrelated-16", "trial_type": "html-keyboard-response", "trial_index": 62, "time_elapsed": 130569, "internal_node_id": "0.0-4.0-58.0"}}, {"uniqueid": "w50581228:a92415529", "current_trial": 63, "dateTime": 1664464057577, "trialdata": {"rt": 1322, "stimulus": "<p id='stroop-text' class='stroop-yellow'>GREEN</p>", "response": "y", "stimulus-type": "incongruent", "word": "green", "color": "yellow", "correct_response": "y", "trial_id": "stroop-trial-1-incongruent-27", "trial_type": "html-keyboard-response", "trial_index": 63, "time_elapsed": 132395, "internal_node_id": "0.0-4.0-59.0"}}, {"uniqueid": "w50581228:a92415529", "current_trial": 64, "dateTime": 1664464059375, "trialdata": {"rt": 1295, "stimulus": "<p id='stroop-text' class='stroop-blue'>GREEN</p>", "response": "b", "stimulus-type": "incongruent", "word": "green", "color": "blue", "correct_response": "b", "trial_id": "stroop-trial-1-incongruent-11", "trial_type": "html-keyboard-response", "trial_index": 64, "time_elapsed": 134193, "internal_node_id": "0.0-4.0-60.0"}}, {"uniqueid": "w50581228:a92415529", "current_trial": 65, "dateTime": 1664464061485, "trialdata": {"rt": 1606, "stimulus": "<p id='stroop-text' class='stroop-red'>BRAIN</p>", "response": "r", "stimulus-type": "unrelated", "word": "BRAIN", "color": "red", "correct_response": "r", "trial_id": "stroop-trial-1-unrelated-30", "trial_type": "html-keyboard-response", "trial_index": 65, "time_elapsed": 136304, "internal_node_id": "0.0-4.0-61.0"}}, {"uniqueid": "w50581228:a92415529", "current_trial": 66, "dateTime": 1664464063058, "trialdata": {"rt": 1069, "stimulus": "<p id='stroop-text' class='stroop-green'>GREEN</p>", "response": "g", "stimulus-type": "congruent", "word": "green", "color": "green", "correct_response": "g", "trial_id": "stroop-trial-1-congruent-27", "trial_type": "html-keyboard-response", "trial_index": 66, "time_elapsed": 137876, "internal_node_id": "0.0-4.0-62.0"}}, {"uniqueid": "w50581228:a92415529", "current_trial": 67, "dateTime": 1664464064052, "trialdata": {"rt": 490, "stimulus": "<p id='stroop-text' class='stroop-green'>RED</p>", "response": "g", "stimulus-type": "incongruent", "word": "red", "color": "green", "correct_response": "g", "trial_id": "stroop-trial-1-incongruent-29", "trial_type": "html-keyboard-response", "trial_index": 67, "time_elapsed": 138871, "internal_node_id": "0.0-4.0-63.0"}}, {"uniqueid": "w50581228:a92415529", "current_trial": 68, "dateTime": 1664464065051, "trialdata": {"rt": 493, "stimulus": "<p id='stroop-text' class='stroop-yellow'>YELLOW</p>", "response": "y", "stimulus-type": "congruent", "word": "yellow", "color": "yellow", "correct_response": "y", "trial_id": "stroop-trial-1-congruent-26", "trial_type": "html-keyboard-response", "trial_index": 68, "time_elapsed": 139869, "internal_node_id": "0.0-4.0-64.0"}}, {"uniqueid": "w50581228:a92415529", "current_trial": 69, "dateTime": 1664464066715, "trialdata": {"rt": 1162, "stimulus": "<p id='stroop-text' class='stroop-green'>GREEN</p>", "response": "g", "stimulus-type": "congruent", "word": "green", "color": "green", "correct_response": "g", "trial_id": "stroop-trial-1-congruent-4", "trial_type": "html-keyboard-response", "trial_index": 69, "time_elapsed": 141534, "internal_node_id": "0.0-4.0-65.0"}}, {"uniqueid": "w50581228:a92415529", "current_trial": 70, "dateTime": 1664464068104, "trialdata": {"rt": 885, "stimulus": "<p id='stroop-text' class='stroop-blue'>MONKEY</p>", "response": "b", "stimulus-type": "unrelated", "word": "MONKEY", "color": "blue", "correct_response": "b", "trial_id": "stroop-trial-1-unrelated-13", "trial_type": "html-keyboard-response", "trial_index": 70, "time_elapsed": 142923, "internal_node_id": "0.0-4.0-66.0"}}, {"uniqueid": "w50581228:a92415529", "current_trial": 71, "dateTime": 1664464069706, "trialdata": {"rt": 1098, "stimulus": "<p id='stroop-text' class='stroop-yellow'>STONE</p>", "response": "y", "stimulus-type": "unrelated", "word": "STONE", "color": "yellow", "correct_response": "y", "trial_id": "stroop-trial-1-unrelated-3", "trial_type": "html-keyboard-response", "trial_index": 71, "time_elapsed": 144525, "internal_node_id": "0.0-4.0-67.0"}}, {"uniqueid": "w50581228:a92415529", "current_trial": 72, "dateTime": 1664464070824, "trialdata": {"rt": 615, "stimulus": "<p id='stroop-text' class='stroop-red'>RED</p>", "response": "r", "stimulus-type": "congruent", "word": "red", "color": "red", "correct_response": "r", "trial_id": "stroop-trial-1-congruent-25", "trial_type": "html-keyboard-response", "trial_index": 72, "time_elapsed": 145643, "internal_node_id": "0.0-4.0-68.0"}}, {"uniqueid": "w50581228:a92415529", "current_trial": 73, "dateTime": 1664464072040, "trialdata": {"rt": 712, "stimulus": "<p id='stroop-text' class='stroop-blue'>BLUE</p>", "response": "b", "stimulus-type": "congruent", "word": "blue", "color": "blue", "correct_response": "b", "trial_id": "stroop-trial-1-congruent-16", "trial_type": "html-keyboard-response", "trial_index": 73, "time_elapsed": 146858, "internal_node_id": "0.0-4.0-69.0"}}, {"uniqueid": "w50581228:a92415529", "current_trial": 74, "dateTime": 1664464073354, "trialdata": {"rt": 811, "stimulus": "<p id='stroop-text' class='stroop-yellow'>YELLOW</p>", "response": "r", "stimulus-type": "congruent", "word": "yellow", "color": "yellow", "correct_response": "y", "trial_id": "stroop-trial-1-congruent-19", "trial_type": "html-keyboard-response", "trial_index": 74, "time_elapsed": 148173, "internal_node_id": "0.0-4.0-70.0"}}, {"uniqueid": "w50581228:a92415529", "current_trial": 75, "dateTime": 1664464076091, "trialdata": {"rt": 2233, "stimulus": "<p id='stroop-text' class='stroop-blue'>BLUE</p>", "response": "b", "stimulus-type": "congruent", "word": "blue", "color": "blue", "correct_response": "b", "trial_id": "stroop-trial-1-congruent-18", "trial_type": "html-keyboard-response", "trial_index": 75, "time_elapsed": 150910, "internal_node_id": "0.0-4.0-71.0"}}, {"uniqueid": "w50581228:a92415529", "current_trial": 76, "dateTime": 1664464078902, "trialdata": {"rt": 2306, "stimulus": "<p id='stroop-text' class='stroop-yellow'>GREEN</p>", "response": "y", "stimulus-type": "incongruent", "word": "green", "color": "yellow", "correct_response": "y", "trial_id": "stroop-trial-1-incongruent-30", "trial_type": "html-keyboard-response", "trial_index": 76, "time_elapsed": 153720, "internal_node_id": "0.0-4.0-72.0"}}, {"uniqueid": "w50581228:a92415529", "current_trial": 77, "dateTime": 1664464080046, "trialdata": {"rt": 640, "stimulus": "<p id='stroop-text' class='stroop-blue'>DOG</p>", "response": "b", "stimulus-type": "unrelated", "word": "DOG", "color": "blue", "correct_response": "b", "trial_id": "stroop-trial-1-unrelated-18", "trial_type": "html-keyboard-response", "trial_index": 77, "time_elapsed": 154865, "internal_node_id": "0.0-4.0-73.0"}}, {"uniqueid": "w50581228:a92415529", "current_trial": 78, "dateTime": 1664464080962, "trialdata": {"rt": 412, "stimulus": "<p id='stroop-text' class='stroop-blue'>RED</p>", "response": "b", "stimulus-type": "incongruent", "word": "red", "color": "blue", "correct_response": "b", "trial_id": "stroop-trial-1-incongruent-8", "trial_type": "html-keyboard-response", "trial_index": 78, "time_elapsed": 155780, "internal_node_id": "0.0-4.0-74.0"}}, {"uniqueid": "w50581228:a92415529", "current_trial": 79, "dateTime": 1664464081902, "trialdata": {"rt": 436, "stimulus": "<p id='stroop-text' class='stroop-blue'>SHIP</p>", "response": "b", "stimulus-type": "unrelated", "word": "SHIP", "color": "blue", "correct_response": "b", "trial_id": "stroop-trial-1-unrelated-14", "trial_type": "html-keyboard-response", "trial_index": 79, "time_elapsed": 156720, "internal_node_id": "0.0-4.0-75.0"}}, {"uniqueid": "w50581228:a92415529", "current_trial": 80, "dateTime": 1664464083323, "trialdata": {"rt": 916, "stimulus": "<p id='stroop-text' class='stroop-green'>BLUE</p>", "response": "r", "stimulus-type": "incongruent", "word": "blue", "color": "green", "correct_response": "g", "trial_id": "stroop-trial-1-incongruent-26", "trial_type": "html-keyboard-response", "trial_index": 80, "time_elapsed": 158141, "internal_node_id": "0.0-4.0-76.0"}}, {"uniqueid": "w50581228:a92415529", "current_trial": 81, "dateTime": 1664464085368, "trialdata": {"rt": 1542, "stimulus": "<p id='stroop-text' class='stroop-red'>RED</p>", "response": "r", "stimulus-type": "congruent", "word": "red", "color": "red", "correct_response": "r", "trial_id": "stroop-trial-1-congruent-21", "trial_type": "html-keyboard-response", "trial_index": 81, "time_elapsed": 160187, "internal_node_id": "0.0-4.0-77.0"}}, {"uniqueid": "w50581228:a92415529", "current_trial": 82, "dateTime": 1664464086656, "trialdata": {"rt": 784, "stimulus": "<p id='stroop-text' class='stroop-red'>BRAIN</p>", "response": "r", "stimulus-type": "unrelated", "word": "BRAIN", "color": "red", "correct_response": "r", "trial_id": "stroop-trial-1-unrelated-21", "trial_type": "html-keyboard-response", "trial_index": 82, "time_elapsed": 161475, "internal_node_id": "0.0-4.0-78.0"}}, {"uniqueid": "w50581228:a92415529", "current_trial": 83, "dateTime": 1664464088292, "trialdata": {"rt": 1131, "stimulus": "<p id='stroop-text' class='stroop-yellow'>BLUE</p>", "response": "b", "stimulus-type": "incongruent", "word": "blue", "color": "yellow", "correct_response": "y", "trial_id": "stroop-trial-1-incongruent-7", "trial_type": "html-keyboard-response", "trial_index": 83, "time_elapsed": 163111, "internal_node_id": "0.0-4.0-79.0"}}, {"uniqueid": "w50581228:a92415529", "current_trial": 84, "dateTime": 1664464090031, "trialdata": {"rt": 1236, "stimulus": "<p id='stroop-text' class='stroop-blue'>YELLOW</p>", "response": "b", "stimulus-type": "incongruent", "word": "yellow", "color": "blue", "correct_response": "b", "trial_id": "stroop-trial-1-incongruent-3", "trial_type": "html-keyboard-response", "trial_index": 84, "time_elapsed": 164850, "internal_node_id": "0.0-4.0-80.0"}}, {"uniqueid": "w50581228:a92415529", "current_trial": 85, "dateTime": 1664464091641, "trialdata": {"rt": 1106, "stimulus": "<p id='stroop-text' class='stroop-green'>BLUE</p>", "response": "g", "stimulus-type": "incongruent", "word": "blue", "color": "green", "correct_response": "g", "trial_id": "stroop-trial-1-incongruent-14", "trial_type": "html-keyboard-response", "trial_index": 85, "time_elapsed": 166459, "internal_node_id": "0.0-4.0-81.0"}}, {"uniqueid": "w50581228:a92415529", "current_trial": 86, "dateTime": 1664464092842, "trialdata": {"rt": 697, "stimulus": "<p id='stroop-text' class='stroop-yellow'>BRIDGE</p>", "response": "y", "stimulus-type": "unrelated", "word": "BRIDGE", "color": "yellow", "correct_response": "y", "trial_id": "stroop-trial-1-unrelated-17", "trial_type": "html-keyboard-response", "trial_index": 86, "time_elapsed": 167661, "internal_node_id": "0.0-4.0-82.0"}}, {"uniqueid": "w50581228:a92415529", "current_trial": 87, "dateTime": 1664464094190, "trialdata": {"rt": 844, "stimulus": "<p id='stroop-text' class='stroop-red'>RED</p>", "response": "r", "stimulus-type": "congruent", "word": "red", "color": "red", "correct_response": "r", "trial_id": "stroop-trial-1-congruent-11", "trial_type": "html-keyboard-response", "trial_index": 87, "time_elapsed": 169009, "internal_node_id": "0.0-4.0-83.0"}}, {"uniqueid": "w50581228:a92415529", "current_trial": 88, "dateTime": 1664464097209, "trialdata": {"rt": 2515, "stimulus": "<p id='stroop-text' class='stroop-blue'>BLUE</p>", "response": "b", "stimulus-type": "congruent", "word": "blue", "color": "blue", "correct_response": "b", "trial_id": "stroop-trial-1-congruent-29", "trial_type": "html-keyboard-response", "trial_index": 88, "time_elapsed": 172027, "internal_node_id": "0.0-4.0-84.0"}}, {"uniqueid": "w50581228:a92415529", "current_trial": 89, "dateTime": 1664464098806, "trialdata": {"rt": 1093, "stimulus": "<p id='stroop-text' class='stroop-red'>BLUE</p>", "response": "r", "stimulus-type": "incongruent", "word": "blue", "color": "red", "correct_response": "r", "trial_id": "stroop-trial-1-incongruent-4", "trial_type": "html-keyboard-response", "trial_index": 89, "time_elapsed": 173625, "internal_node_id": "0.0-4.0-85.0"}}, {"uniqueid": "w50581228:a92415529", "current_trial": 90, "dateTime": 1664464099913, "trialdata": {"rt": 602, "stimulus": "<p id='stroop-text' class='stroop-red'>MONKEY</p>", "response": "r", "stimulus-type": "unrelated", "word": "MONKEY", "color": "red", "correct_response": "r", "trial_id": "stroop-trial-1-unrelated-9", "trial_type": "html-keyboard-response", "trial_index": 90, "time_elapsed": 174732, "internal_node_id": "0.0-4.0-86.0"}}, {"uniqueid": "w50581228:a92415529", "current_trial": 91, "dateTime": 1664464101010, "trialdata": {"rt": 591, "stimulus": "<p id='stroop-text' class='stroop-yellow'>YELLOW</p>", "response": "y", "stimulus-type": "congruent", "word": "yellow", "color": "yellow", "correct_response": "y", "trial_id": "stroop-trial-1-congruent-17", "trial_type": "html-keyboard-response", "trial_index": 91, "time_elapsed": 175828, "internal_node_id": "0.0-4.0-87.0"}}, {"uniqueid": "w50581228:a92415529", "current_trial": 92, "dateTime": 1664464102227, "trialdata": {"rt": 713, "stimulus": "<p id='stroop-text' class='stroop-yellow'>YELLOW</p>", "response": "y", "stimulus-type": "congruent", "word": "yellow", "color": "yellow", "correct_response": "y", "trial_id": "stroop-trial-1-congruent-22", "trial_type": "html-keyboard-response", "trial_index": 92, "time_elapsed": 177046, "internal_node_id": "0.0-4.0-88.0"}}, {"uniqueid": "w50581228:a92415529", "current_trial": 93, "dateTime": 1664464103957, "trialdata": {"rt": 1218, "stimulus": "<p id='stroop-text' class='stroop-red'>YELLOW</p>", "response": "r", "stimulus-type": "incongruent", "word": "yellow", "color": "red", "correct_response": "r", "trial_id": "stroop-trial-1-incongruent-19", "trial_type": "html-keyboard-response", "trial_index": 93, "time_elapsed": 178776, "internal_node_id": "0.0-4.0-89.0"}}, {"uniqueid": "w50581228:a92415529", "current_trial": 94, "dateTime": 1664464112632, "trialdata": {"rt": 8166, "stimulus": "  <h1> End of block! </h1>\n\n  You have reached the end of the block 1/5. If you need a short break, feel free to take one now before moving on.\n\n  <br><br>\n  In the next block, you will complete another 90 rounds of this game.\n\n  <br><br>\n  <div style='text-align: center;'>Press <code>space</code> to begin.</div>\n  <br><br>\n<div style='text-align: center;'>(If the experiment doesn't continue, try clicking on the text and then pressing <code>space</code>.)</div>", "response": " ", "trial_id": "stroop_1_ready_2", "trial_type": "html-keyboard-response", "trial_index": 94, "time_elapsed": 187451, "internal_node_id": "0.0-5.0"}}, {"uniqueid": "w50581228:a92415529", "current_trial": 95, "dateTime": 1664464114210, "trialdata": {"rt": 1575, "stimulus": "<p id='stroop-text' class='stroop-green'>GREEN</p>", "response": "g", "stimulus-type": "congruent", "word": "green", "color": "green", "correct_response": "g", "trial_id": "stroop-trial-1-congruent-9", "trial_type": "html-keyboard-response", "trial_index": 95, "time_elapsed": 189028, "internal_node_id": "0.0-6.0-0.0"}}, {"uniqueid": "w50581228:a92415529", "current_trial": 96, "dateTime": 1664464115838, "trialdata": {"rt": 1123, "stimulus": "<p id='stroop-text' class='stroop-yellow'>RED</p>", "response": "y", "stimulus-type": "incongruent", "word": "red", "color": "yellow", "correct_response": "y", "trial_id": "stroop-trial-1-incongruent-12", "trial_type": "html-keyboard-response", "trial_index": 96, "time_elapsed": 190656, "internal_node_id": "0.0-6.0-1.0"}}, {"uniqueid": "w50581228:a92415529", "current_trial": 97, "dateTime": 1664464117298, "trialdata": {"rt": 955, "stimulus": "<p id='stroop-text' class='stroop-red'>FORK</p>", "response": "r", "stimulus-type": "unrelated", "word": "FORK", "color": "red", "correct_response": "r", "trial_id": "stroop-trial-1-unrelated-16", "trial_type": "html-keyboard-response", "trial_index": 97, "time_elapsed": 192117, "internal_node_id": "0.0-6.0-2.0"}}, {"uniqueid": "w50581228:a92415529", "current_trial": 98, "dateTime": 1664464118521, "trialdata": {"rt": 719, "stimulus": "<p id='stroop-text' class='stroop-green'>GREEN</p>", "response": "g", "stimulus-type": "congruent", "word": "green", "color": "green", "correct_response": "g", "trial_id": "stroop-trial-1-congruent-18", "trial_type": "html-keyboard-response", "trial_index": 98, "time_elapsed": 193340, "internal_node_id": "0.0-6.0-3.0"}}, {"uniqueid": "w50581228:a92415529", "current_trial": 99, "dateTime": 1664464119507, "trialdata": {"rt": 483, "stimulus": "<p id='stroop-text' class='stroop-yellow'>RED</p>", "response": "y", "stimulus-type": "incongruent", "word": "red", "color": "yellow", "correct_response": "y", "trial_id": "stroop-trial-1-incongruent-11", "trial_type": "html-keyboard-response", "trial_index": 99, "time_elapsed": 194326, "internal_node_id": "0.0-6.0-4.0"}}, {"uniqueid": "w50581228:a92415529", "current_trial": 100, "dateTime": 1664464120438, "trialdata": {"rt": 428, "stimulus": "<p id='stroop-text' class='stroop-yellow'>FORK</p>", "response": "y", "stimulus-type": "unrelated", "word": "FORK", "color": "yellow", "correct_response": "y", "trial_id": "stroop-trial-1-unrelated-19", "trial_type": "html-keyboard-response", "trial_index": 100, "time_elapsed": 195256, "internal_node_id": "0.0-6.0-5.0"}}, {"uniqueid": "w50581228:a92415529", "current_trial": 101, "dateTime": 1664464121334, "trialdata": {"rt": 393, "stimulus": "<p id='stroop-text' class='stroop-yellow'>YELLOW</p>", "response": "y", "stimulus-type": "congruent", "word": "yellow", "color": "yellow", "correct_response": "y", "trial_id": "stroop-trial-1-congruent-15", "trial_type": "html-keyboard-response", "trial_index": 101, "time_elapsed": 196153, "internal_node_id": "0.0-6.0-6.0"}}, {"uniqueid": "w50581228:a92415529", "current_trial": 102, "dateTime": 1664464124174, "trialdata": {"rt": 2335, "stimulus": "<p id='stroop-text' class='stroop-green'>BLUE</p>", "response": "g", "stimulus-type": "incongruent", "word": "blue", "color": "green", "correct_response": "g", "trial_id": "stroop-trial-1-incongruent-28", "trial_type": "html-keyboard-response", "trial_index": 102, "time_elapsed": 198991, "internal_node_id": "0.0-6.0-7.0"}}, {"uniqueid": "w50581228:a92415529", "current_trial": 103, "dateTime": 1664464125551, "trialdata": {"rt": 869, "stimulus": "<p id='stroop-text' class='stroop-blue'>YELLOW</p>", "response": "y", "stimulus-type": "incongruent", "word": "yellow", "color": "blue", "correct_response": "b", "trial_id": "stroop-trial-1-incongruent-3", "trial_type": "html-keyboard-response", "trial_index": 103, "time_elapsed": 200369, "internal_node_id": "0.0-6.0-8.0"}}, {"uniqueid": "w50581228:a92415529", "current_trial": 104, "dateTime": 1664464127200, "trialdata": {"rt": 1144, "stimulus": "<p id='stroop-text' class='stroop-blue'>BRIDGE</p>", "response": "b", "stimulus-type": "unrelated", "word": "BRIDGE", "color": "blue", "correct_response": "b", "trial_id": "stroop-trial-1-unrelated-22", "trial_type": "html-keyboard-response", "trial_index": 104, "time_elapsed": 202019, "internal_node_id": "0.0-6.0-9.0"}}, {"uniqueid": "w50581228:a92415529", "current_trial": 105, "dateTime": 1664464128441, "trialdata": {"rt": 737, "stimulus": "<p id='stroop-text' class='stroop-yellow'>DOG</p>", "response": "y", "stimulus-type": "unrelated", "word": "DOG", "color": "yellow", "correct_response": "y", "trial_id": "stroop-trial-1-unrelated-10", "trial_type": "html-keyboard-response", "trial_index": 105, "time_elapsed": 203260, "internal_node_id": "0.0-6.0-10.0"}}, {"uniqueid": "w50581228:a92415529", "current_trial": 106, "dateTime": 1664464129552, "trialdata": {"rt": 607, "stimulus": "<p id='stroop-text' class='stroop-red'>RED</p>", "response": "r", "stimulus-type": "congruent", "word": "red", "color": "red", "correct_response": "r", "trial_id": "stroop-trial-1-congruent-13", "trial_type": "html-keyboard-response", "trial_index": 106, "time_elapsed": 204371, "internal_node_id": "0.0-6.0-11.0"}}, {"uniqueid": "w50581228:a92415529", "current_trial": 107, "dateTime": 1664464131110, "trialdata": {"rt": 1053, "stimulus": "<p id='stroop-text' class='stroop-blue'>BLUE</p>", "response": "b", "stimulus-type": "congruent", "word": "blue", "color": "blue", "correct_response": "b", "trial_id": "stroop-trial-1-congruent-17", "trial_type": "html-keyboard-response", "trial_index": 107, "time_elapsed": 205929, "internal_node_id": "0.0-6.0-12.0"}}, {"uniqueid": "w50581228:a92415529", "current_trial": 108, "dateTime": 1664464132315, "trialdata": {"rt": 702, "stimulus": "<p id='stroop-text' class='stroop-green'>GREEN</p>", "response": "g", "stimulus-type": "congruent", "word": "green", "color": "green", "correct_response": "g", "trial_id": "stroop-trial-1-congruent-1", "trial_type": "html-keyboard-response", "trial_index": 108, "time_elapsed": 207133, "internal_node_id": "0.0-6.0-13.0"}}, {"uniqueid": "w50581228:a92415529", "current_trial": 109, "dateTime": 1664464133614, "trialdata": {"rt": 794, "stimulus": "<p id='stroop-text' class='stroop-red'>RED</p>", "response": "r", "stimulus-type": "congruent", "word": "red", "color": "red", "correct_response": "r", "trial_id": "stroop-trial-1-congruent-27", "trial_type": "html-keyboard-response", "trial_index": 109, "time_elapsed": 208432, "internal_node_id": "0.0-6.0-14.0"}}, {"uniqueid": "w50581228:a92415529", "current_trial": 110, "dateTime": 1664464135252, "trialdata": {"rt": 1135, "stimulus": "<p id='stroop-text' class='stroop-blue'>DOG</p>", "response": "b", "stimulus-type": "unrelated", "word": "DOG", "color": "blue", "correct_response": "b", "trial_id": "stroop-trial-1-unrelated-13", "trial_type": "html-keyboard-response", "trial_index": 110, "time_elapsed": 210071, "internal_node_id": "0.0-6.0-15.0"}}, {"uniqueid": "w50581228:a92415529", "current_trial": 111, "dateTime": 1664464136770, "trialdata": {"rt": 1014, "stimulus": "<p id='stroop-text' class='stroop-red'>RED</p>", "response": "r", "stimulus-type": "congruent", "word": "red", "color": "red", "correct_response": "r", "trial_id": "stroop-trial-1-congruent-12", "trial_type": "html-keyboard-response", "trial_index": 111, "time_elapsed": 211588, "internal_node_id": "0.0-6.0-16.0"}}, {"uniqueid": "w50581228:a92415529", "current_trial": 112, "dateTime": 1664464138429, "trialdata": {"rt": 1155, "stimulus": "<p id='stroop-text' class='stroop-blue'>GREEN</p>", "response": "b", "stimulus-type": "incongruent", "word": "green", "color": "blue", "correct_response": "b", "trial_id": "stroop-trial-1-incongruent-7", "trial_type": "html-keyboard-response", "trial_index": 112, "time_elapsed": 213248, "internal_node_id": "0.0-6.0-17.0"}}, {"uniqueid": "w50581228:a92415529", "current_trial": 113, "dateTime": 1664464139578, "trialdata": {"rt": 645, "stimulus": "<p id='stroop-text' class='stroop-yellow'>BLUE</p>", "response": "y", "stimulus-type": "incongruent", "word": "blue", "color": "yellow", "correct_response": "y", "trial_id": "stroop-trial-1-incongruent-1", "trial_type": "html-keyboard-response", "trial_index": 113, "time_elapsed": 214397, "internal_node_id": "0.0-6.0-18.0"}}, {"uniqueid": "w50581228:a92415529", "current_trial": 114, "dateTime": 1664464140821, "trialdata": {"rt": 740, "stimulus": "<p id='stroop-text' class='stroop-red'>BLUE</p>", "response": "r", "stimulus-type": "incongruent", "word": "blue", "color": "red", "correct_response": "r", "trial_id": "stroop-trial-1-incongruent-18", "trial_type": "html-keyboard-response", "trial_index": 114, "time_elapsed": 215640, "internal_node_id": "0.0-6.0-19.0"}}, {"uniqueid": "w50581228:a92415529", "current_trial": 115, "dateTime": 1664464142207, "trialdata": {"rt": 881, "stimulus": "<p id='stroop-text' class='stroop-yellow'>BLUE</p>", "response": "y", "stimulus-type": "incongruent", "word": "blue", "color": "yellow", "correct_response": "y", "trial_id": "stroop-trial-1-incongruent-27", "trial_type": "html-keyboard-response", "trial_index": 115, "time_elapsed": 217025, "internal_node_id": "0.0-6.0-20.0"}}, {"uniqueid": "w50581228:a92415529", "current_trial": 116, "dateTime": 1664464143999, "trialdata": {"rt": 1287, "stimulus": "<p id='stroop-text' class='stroop-green'>GREEN</p>", "response": "g", "stimulus-type": "congruent", "word": "green", "color": "green", "correct_response": "g", "trial_id": "stroop-trial-1-congruent-19", "trial_type": "html-keyboard-response", "trial_index": 116, "time_elapsed": 218817, "internal_node_id": "0.0-6.0-21.0"}}, {"uniqueid": "w50581228:a92415529", "current_trial": 117, "dateTime": 1664464145005, "trialdata": {"rt": 503, "stimulus": "<p id='stroop-text' class='stroop-green'>GREEN</p>", "response": "g", "stimulus-type": "congruent", "word": "green", "color": "green", "correct_response": "g", "trial_id": "stroop-trial-1-congruent-14", "trial_type": "html-keyboard-response", "trial_index": 117, "time_elapsed": 219824, "internal_node_id": "0.0-6.0-22.0"}}, {"uniqueid": "w50581228:a92415529", "current_trial": 118, "dateTime": 1664464146382, "trialdata": {"rt": 871, "stimulus": "<p id='stroop-text' class='stroop-blue'>BLUE</p>", "response": "b", "stimulus-type": "congruent", "word": "blue", "color": "blue", "correct_response": "b", "trial_id": "stroop-trial-1-congruent-26", "trial_type": "html-keyboard-response", "trial_index": 118, "time_elapsed": 221200, "internal_node_id": "0.0-6.0-23.0"}}, {"uniqueid": "w50581228:a92415529", "current_trial": 119, "dateTime": 1664464147485, "trialdata": {"rt": 601, "stimulus": "<p id='stroop-text' class='stroop-yellow'>DOG</p>", "response": "y", "stimulus-type": "unrelated", "word": "DOG", "color": "yellow", "correct_response": "y", "trial_id": "stroop-trial-1-unrelated-30", "trial_type": "html-keyboard-response", "trial_index": 119, "time_elapsed": 222304, "internal_node_id": "0.0-6.0-24.0"}}, {"uniqueid": "w50581228:a92415529", "current_trial": 120, "dateTime": 1664464148417, "trialdata": {"rt": 428, "stimulus": "<p id='stroop-text' class='stroop-yellow'>RED</p>", "response": "y", "stimulus-type": "incongruent", "word": "red", "color": "yellow", "correct_response": "y", "trial_id": "stroop-trial-1-incongruent-25", "trial_type": "html-keyboard-response", "trial_index": 120, "time_elapsed": 223236, "internal_node_id": "0.0-6.0-25.0"}}, {"uniqueid": "w50581228:a92415529", "current_trial": 121, "dateTime": 1664464149773, "trialdata": {"rt": 843, "stimulus": "<p id='stroop-text' class='stroop-green'>BOAT</p>", "response": "g", "stimulus-type": "unrelated", "word": "BOAT", "color": "green", "correct_response": "g", "trial_id": "stroop-trial-1-unrelated-18", "trial_type": "html-keyboard-response", "trial_index": 121, "time_elapsed": 224591, "internal_node_id": "0.0-6.0-26.0"}}, {"uniqueid": "w50581228:a92415529", "current_trial": 122, "dateTime": 1664464151172, "trialdata": {"rt": 896, "stimulus": "<p id='stroop-text' class='stroop-blue'>RED</p>", "response": "b", "stimulus-type": "incongruent", "word": "red", "color": "blue", "correct_response": "b", "trial_id": "stroop-trial-1-incongruent-4", "trial_type": "html-keyboard-response", "trial_index": 122, "time_elapsed": 225991, "internal_node_id": "0.0-6.0-27.0"}}, {"uniqueid": "w50581228:a92415529", "current_trial": 123, "dateTime": 1664464152190, "trialdata": {"rt": 514, "stimulus": "<p id='stroop-text' class='stroop-blue'>SHIP</p>", "response": "b", "stimulus-type": "unrelated", "word": "SHIP", "color": "blue", "correct_response": "b", "trial_id": "stroop-trial-1-unrelated-6", "trial_type": "html-keyboard-response", "trial_index": 123, "time_elapsed": 227008, "internal_node_id": "0.0-6.0-28.0"}}, {"uniqueid": "w50581228:a92415529", "current_trial": 124, "dateTime": 1664464153108, "trialdata": {"rt": 414, "stimulus": "<p id='stroop-text' class='stroop-blue'>BLUE</p>", "response": "b", "stimulus-type": "congruent", "word": "blue", "color": "blue", "correct_response": "b", "trial_id": "stroop-trial-1-congruent-21", "trial_type": "html-keyboard-response", "trial_index": 124, "time_elapsed": 227927, "internal_node_id": "0.0-6.0-29.0"}}, {"uniqueid": "w50581228:a92415529", "current_trial": 125, "dateTime": 1664464155221, "trialdata": {"rt": 1607, "stimulus": "<p id='stroop-text' class='stroop-green'>YELLOW</p>", "response": "b", "stimulus-type": "incongruent", "word": "yellow", "color": "green", "correct_response": "g", "trial_id": "stroop-trial-1-incongruent-8", "trial_type": "html-keyboard-response", "trial_index": 125, "time_elapsed": 230039, "internal_node_id": "0.0-6.0-30.0"}}, {"uniqueid": "w50581228:a92415529", "current_trial": 126, "dateTime": 1664464156375, "trialdata": {"rt": 650, "stimulus": "<p id='stroop-text' class='stroop-green'>GREEN</p>", "response": "g", "stimulus-type": "congruent", "word": "green", "color": "green", "correct_response": "g", "trial_id": "stroop-trial-1-congruent-23", "trial_type": "html-keyboard-response", "trial_index": 126, "time_elapsed": 231194, "internal_node_id": "0.0-6.0-31.0"}}, {"uniqueid": "w50581228:a92415529", "current_trial": 127, "dateTime": 1664464157479, "trialdata": {"rt": 600, "stimulus": "<p id='stroop-text' class='stroop-red'>RED</p>", "response": "r", "stimulus-type": "congruent", "word": "red", "color": "red", "correct_response": "r", "trial_id": "stroop-trial-1-congruent-10", "trial_type": "html-keyboard-response", "trial_index": 127, "time_elapsed": 232298, "internal_node_id": "0.0-6.0-32.0"}}, {"uniqueid": "w50581228:a92415529", "current_trial": 128, "dateTime": 1664464159004, "trialdata": {"rt": 1021, "stimulus": "<p id='stroop-text' class='stroop-yellow'>YELLOW</p>", "response": "y", "stimulus-type": "congruent", "word": "yellow", "color": "yellow", "correct_response": "y", "trial_id": "stroop-trial-1-congruent-2", "trial_type": "html-keyboard-response", "trial_index": 128, "time_elapsed": 233823, "internal_node_id": "0.0-6.0-33.0"}}, {"uniqueid": "w50581228:a92415529", "current_trial": 129, "dateTime": 1664464160467, "trialdata": {"rt": 957, "stimulus": "<p id='stroop-text' class='stroop-red'>RED</p>", "response": "r", "stimulus-type": "congruent", "word": "red", "color": "red", "correct_response": "r", "trial_id": "stroop-trial-1-congruent-7", "trial_type": "html-keyboard-response", "trial_index": 129, "time_elapsed": 235286, "internal_node_id": "0.0-6.0-34.0"}}, {"uniqueid": "w50581228:a92415529", "current_trial": 130, "dateTime": 1664464162016, "trialdata": {"rt": 1041, "stimulus": "<p id='stroop-text' class='stroop-blue'>GREEN</p>", "response": "g", "stimulus-type": "incongruent", "word": "green", "color": "blue", "correct_response": "b", "trial_id": "stroop-trial-1-incongruent-15", "trial_type": "html-keyboard-response", "trial_index": 130, "time_elapsed": 236834, "internal_node_id": "0.0-6.0-35.0"}}, {"uniqueid": "w50581228:a92415529", "current_trial": 131, "dateTime": 1664464163083, "trialdata": {"rt": 562, "stimulus": "<p id='stroop-text' class='stroop-blue'>GREEN</p>", "response": "g", "stimulus-type": "incongruent", "word": "green", "color": "blue", "correct_response": "b", "trial_id": "stroop-trial-1-incongruent-2", "trial_type": "html-keyboard-response", "trial_index": 131, "time_elapsed": 237901, "internal_node_id": "0.0-6.0-36.0"}}, {"uniqueid": "w50581228:a92415529", "current_trial": 132, "dateTime": 1664464165242, "trialdata": {"rt": 1655, "stimulus": "<p id='stroop-text' class='stroop-yellow'>YELLOW</p>", "response": "y", "stimulus-type": "congruent", "word": "yellow", "color": "yellow", "correct_response": "y", "trial_id": "stroop-trial-1-congruent-29", "trial_type": "html-keyboard-response", "trial_index": 132, "time_elapsed": 240060, "internal_node_id": "0.0-6.0-37.0"}}, {"uniqueid": "w50581228:a92415529", "current_trial": 133, "dateTime": 1664464166996, "trialdata": {"rt": 1251, "stimulus": "<p id='stroop-text' class='stroop-yellow'>GREEN</p>", "response": "y", "stimulus-type": "incongruent", "word": "green", "color": "yellow", "correct_response": "y", "trial_id": "stroop-trial-1-incongruent-20", "trial_type": "html-keyboard-response", "trial_index": 133, "time_elapsed": 241815, "internal_node_id": "0.0-6.0-38.0"}}, {"uniqueid": "w50581228:a92415529", "current_trial": 134, "dateTime": 1664464168365, "trialdata": {"rt": 865, "stimulus": "<p id='stroop-text' class='stroop-red'>BOTTLE</p>", "response": "r", "stimulus-type": "unrelated", "word": "BOTTLE", "color": "red", "correct_response": "r", "trial_id": "stroop-trial-1-unrelated-15", "trial_type": "html-keyboard-response", "trial_index": 134, "time_elapsed": 243184, "internal_node_id": "0.0-6.0-39.0"}}, {"uniqueid": "w50581228:a92415529", "current_trial": 135, "dateTime": 1664464169986, "trialdata": {"rt": 1117, "stimulus": "<p id='stroop-text' class='stroop-yellow'>MONKEY</p>", "response": "y", "stimulus-type": "unrelated", "word": "MONKEY", "color": "yellow", "correct_response": "y", "trial_id": "stroop-trial-1-unrelated-7", "trial_type": "html-keyboard-response", "trial_index": 135, "time_elapsed": 244805, "internal_node_id": "0.0-6.0-40.0"}}, {"uniqueid": "w50581228:a92415529", "current_trial": 136, "dateTime": 1664464171476, "trialdata": {"rt": 987, "stimulus": "<p id='stroop-text' class='stroop-blue'>BLUE</p>", "response": "b", "stimulus-type": "congruent", "word": "blue", "color": "blue", "correct_response": "b", "trial_id": "stroop-trial-1-congruent-3", "trial_type": "html-keyboard-response", "trial_index": 136, "time_elapsed": 246295, "internal_node_id": "0.0-6.0-41.0"}}, {"uniqueid": "w50581228:a92415529", "current_trial": 137, "dateTime": 1664464173117, "trialdata": {"rt": 1137, "stimulus": "<p id='stroop-text' class='stroop-red'>RED</p>", "response": "r", "stimulus-type": "congruent", "word": "red", "color": "red", "correct_response": "r", "trial_id": "stroop-trial-1-congruent-24", "trial_type": "html-keyboard-response", "trial_index": 137, "time_elapsed": 247935, "internal_node_id": "0.0-6.0-42.0"}}, {"uniqueid": "w50581228:a92415529", "current_trial": 138, "dateTime": 1664464174360, "trialdata": {"rt": 733, "stimulus": "<p id='stroop-text' class='stroop-blue'>BLUE</p>", "response": "b", "stimulus-type": "congruent", "word": "blue", "color": "blue", "correct_response": "b", "trial_id": "stroop-trial-1-congruent-22", "trial_type": "html-keyboard-response", "trial_index": 138, "time_elapsed": 249178, "internal_node_id": "0.0-6.0-43.0"}}, {"uniqueid": "w50581228:a92415529", "current_trial": 139, "dateTime": 1664464175367, "trialdata": {"rt": 503, "stimulus": "<p id='stroop-text' class='stroop-blue'>GREEN</p>", "response": "b", "stimulus-type": "incongruent", "word": "green", "color": "blue", "correct_response": "b", "trial_id": "stroop-trial-1-incongruent-17", "trial_type": "html-keyboard-response", "trial_index": 139, "time_elapsed": 250186, "internal_node_id": "0.0-6.0-44.0"}}, {"uniqueid": "w50581228:a92415529", "current_trial": 140, "dateTime": 1664464176441, "trialdata": {"rt": 560, "stimulus": "<p id='stroop-text' class='stroop-blue'>BLUE</p>", "response": "b", "stimulus-type": "congruent", "word": "blue", "color": "blue", "correct_response": "b", "trial_id": "stroop-trial-1-congruent-16", "trial_type": "html-keyboard-response", "trial_index": 140, "time_elapsed": 251260, "internal_node_id": "0.0-6.0-45.0"}}, {"uniqueid": "w50581228:a92415529", "current_trial": 141, "dateTime": 1664464177490, "trialdata": {"rt": 544, "stimulus": "<p id='stroop-text' class='stroop-blue'>WINDOW</p>", "response": "b", "stimulus-type": "unrelated", "word": "WINDOW", "color": "blue", "correct_response": "b", "trial_id": "stroop-trial-1-unrelated-12", "trial_type": "html-keyboard-response", "trial_index": 141, "time_elapsed": 252309, "internal_node_id": "0.0-6.0-46.0"}}, {"uniqueid": "w50581228:a92415529", "current_trial": 142, "dateTime": 1664464179128, "trialdata": {"rt": 1133, "stimulus": "<p id='stroop-text' class='stroop-green'>RED</p>", "response": "g", "stimulus-type": "incongruent", "word": "red", "color": "green", "correct_response": "g", "trial_id": "stroop-trial-1-incongruent-30", "trial_type": "html-keyboard-response", "trial_index": 142, "time_elapsed": 253947, "internal_node_id": "0.0-6.0-47.0"}}, {"uniqueid": "w50581228:a92415529", "current_trial": 143, "dateTime": 1664464180398, "trialdata": {"rt": 765, "stimulus": "<p id='stroop-text' class='stroop-red'>DOG</p>", "response": "r", "stimulus-type": "unrelated", "word": "DOG", "color": "red", "correct_response": "r", "trial_id": "stroop-trial-1-unrelated-17", "trial_type": "html-keyboard-response", "trial_index": 143, "time_elapsed": 255216, "internal_node_id": "0.0-6.0-48.0"}}, {"uniqueid": "w50581228:a92415529", "current_trial": 144, "dateTime": 1664464181695, "trialdata": {"rt": 792, "stimulus": "<p id='stroop-text' class='stroop-yellow'>GREEN</p>", "response": "y", "stimulus-type": "incongruent", "word": "green", "color": "yellow", "correct_response": "y", "trial_id": "stroop-trial-1-incongruent-24", "trial_type": "html-keyboard-response", "trial_index": 144, "time_elapsed": 256513, "internal_node_id": "0.0-6.0-49.0"}}, {"uniqueid": "w50581228:a92415529", "current_trial": 145, "dateTime": 1664464183067, "trialdata": {"rt": 867, "stimulus": "<p id='stroop-text' class='stroop-blue'>BLUE</p>", "response": "b", "stimulus-type": "congruent", "word": "blue", "color": "blue", "correct_response": "b", "trial_id": "stroop-trial-1-congruent-4", "trial_type": "html-keyboard-response", "trial_index": 145, "time_elapsed": 257885, "internal_node_id": "0.0-6.0-50.0"}}, {"uniqueid": "w50581228:a92415529", "current_trial": 146, "dateTime": 1664464184214, "trialdata": {"rt": 641, "stimulus": "<p id='stroop-text' class='stroop-blue'>BRAIN</p>", "response": "b", "stimulus-type": "unrelated", "word": "BRAIN", "color": "blue", "correct_response": "b", "trial_id": "stroop-trial-1-unrelated-4", "trial_type": "html-keyboard-response", "trial_index": 146, "time_elapsed": 259032, "internal_node_id": "0.0-6.0-51.0"}}, {"uniqueid": "w50581228:a92415529", "current_trial": 147, "dateTime": 1664464185460, "trialdata": {"rt": 743, "stimulus": "<p id='stroop-text' class='stroop-red'>YELLOW</p>", "response": "r", "stimulus-type": "incongruent", "word": "yellow", "color": "red", "correct_response": "r", "trial_id": "stroop-trial-1-incongruent-6", "trial_type": "html-keyboard-response", "trial_index": 147, "time_elapsed": 260279, "internal_node_id": "0.0-6.0-52.0"}}, {"uniqueid": "w50581228:a92415529", "current_trial": 148, "dateTime": 1664464186427, "trialdata": {"rt": 463, "stimulus": "<p id='stroop-text' class='stroop-red'>GREEN</p>", "response": "r", "stimulus-type": "incongruent", "word": "green", "color": "red", "correct_response": "r", "trial_id": "stroop-trial-1-incongruent-21", "trial_type": "html-keyboard-response", "trial_index": 148, "time_elapsed": 261246, "internal_node_id": "0.0-6.0-53.0"}}, {"uniqueid": "w50581228:a92415529", "current_trial": 149, "dateTime": 1664464187655, "trialdata": {"rt": 715, "stimulus": "<p id='stroop-text' class='stroop-blue'>WINDOW</p>", "response": "b", "stimulus-type": "unrelated", "word": "WINDOW", "color": "blue", "correct_response": "b", "trial_id": "stroop-trial-1-unrelated-1", "trial_type": "html-keyboard-response", "trial_index": 149, "time_elapsed": 262473, "internal_node_id": "0.0-6.0-54.0"}}, {"uniqueid": "w50581228:a92415529", "current_trial": 150, "dateTime": 1664464188890, "trialdata": {"rt": 731, "stimulus": "<p id='stroop-text' class='stroop-yellow'>WINDOW</p>", "response": "y", "stimulus-type": "unrelated", "word": "WINDOW", "color": "yellow", "correct_response": "y", "trial_id": "stroop-trial-1-unrelated-14", "trial_type": "html-keyboard-response", "trial_index": 150, "time_elapsed": 263708, "internal_node_id": "0.0-6.0-55.0"}}, {"uniqueid": "w50581228:a92415529", "current_trial": 151, "dateTime": 1664464190065, "trialdata": {"rt": 671, "stimulus": "<p id='stroop-text' class='stroop-red'>BLUE</p>", "response": "r", "stimulus-type": "incongruent", "word": "blue", "color": "red", "correct_response": "r", "trial_id": "stroop-trial-1-incongruent-26", "trial_type": "html-keyboard-response", "trial_index": 151, "time_elapsed": 264884, "internal_node_id": "0.0-6.0-56.0"}}, {"uniqueid": "w50581228:a92415529", "current_trial": 152, "dateTime": 1664464191171, "trialdata": {"rt": 602, "stimulus": "<p id='stroop-text' class='stroop-yellow'>YELLOW</p>", "response": "y", "stimulus-type": "congruent", "word": "yellow", "color": "yellow", "correct_response": "y", "trial_id": "stroop-trial-1-congruent-28", "trial_type": "html-keyboard-response", "trial_index": 152, "time_elapsed": 265990, "internal_node_id": "0.0-6.0-57.0"}}, {"uniqueid": "w50581228:a92415529", "current_trial": 153, "dateTime": 1664464192269, "trialdata": {"rt": 594, "stimulus": "<p id='stroop-text' class='stroop-green'>SHIP</p>", "response": "g", "stimulus-type": "unrelated", "word": "SHIP", "color": "green", "correct_response": "g", "trial_id": "stroop-trial-1-unrelated-5", "trial_type": "html-keyboard-response", "trial_index": 153, "time_elapsed": 267088, "internal_node_id": "0.0-6.0-58.0"}}, {"uniqueid": "w50581228:a92415529", "current_trial": 154, "dateTime": 1664464193428, "trialdata": {"rt": 653, "stimulus": "<p id='stroop-text' class='stroop-blue'>BLUE</p>", "response": "b", "stimulus-type": "congruent", "word": "blue", "color": "blue", "correct_response": "b", "trial_id": "stroop-trial-1-congruent-8", "trial_type": "html-keyboard-response", "trial_index": 154, "time_elapsed": 268246, "internal_node_id": "0.0-6.0-59.0"}}, {"uniqueid": "w50581228:a92415529", "current_trial": 155, "dateTime": 1664464194565, "trialdata": {"rt": 627, "stimulus": "<p id='stroop-text' class='stroop-red'>RED</p>", "response": "r", "stimulus-type": "congruent", "word": "red", "color": "red", "correct_response": "r", "trial_id": "stroop-trial-1-congruent-20", "trial_type": "html-keyboard-response", "trial_index": 155, "time_elapsed": 269383, "internal_node_id": "0.0-6.0-60.0"}}, {"uniqueid": "w50581228:a92415529", "current_trial": 156, "dateTime": 1664464195671, "trialdata": {"rt": 602, "stimulus": "<p id='stroop-text' class='stroop-blue'>YELLOW</p>", "response": "y", "stimulus-type": "incongruent", "word": "yellow", "color": "blue", "correct_response": "b", "trial_id": "stroop-trial-1-incongruent-29", "trial_type": "html-keyboard-response", "trial_index": 156, "time_elapsed": 270490, "internal_node_id": "0.0-6.0-61.0"}}, {"uniqueid": "w50581228:a92415529", "current_trial": 157, "dateTime": 1664464197179, "trialdata": {"rt": 1004, "stimulus": "<p id='stroop-text' class='stroop-green'>GREEN</p>", "response": "g", "stimulus-type": "congruent", "word": "green", "color": "green", "correct_response": "g", "trial_id": "stroop-trial-1-congruent-30", "trial_type": "html-keyboard-response", "trial_index": 157, "time_elapsed": 271997, "internal_node_id": "0.0-6.0-62.0"}}, {"uniqueid": "w50581228:a92415529", "current_trial": 158, "dateTime": 1664464198312, "trialdata": {"rt": 629, "stimulus": "<p id='stroop-text' class='stroop-yellow'>BRIDGE</p>", "response": "y", "stimulus-type": "unrelated", "word": "BRIDGE", "color": "yellow", "correct_response": "y", "trial_id": "stroop-trial-1-unrelated-27", "trial_type": "html-keyboard-response", "trial_index": 158, "time_elapsed": 273130, "internal_node_id": "0.0-6.0-63.0"}}, {"uniqueid": "w50581228:a92415529", "current_trial": 159, "dateTime": 1664464199714, "trialdata": {"rt": 897, "stimulus": "<p id='stroop-text' class='stroop-green'>RED</p>", "response": "g", "stimulus-type": "incongruent", "word": "red", "color": "green", "correct_response": "g", "trial_id": "stroop-trial-1-incongruent-23", "trial_type": "html-keyboard-response", "trial_index": 159, "time_elapsed": 274533, "internal_node_id": "0.0-6.0-64.0"}}, {"uniqueid": "w50581228:a92415529", "current_trial": 160, "dateTime": 1664464201312, "trialdata": {"rt": 1093, "stimulus": "<p id='stroop-text' class='stroop-yellow'>GREEN</p>", "response": "y", "stimulus-type": "incongruent", "word": "green", "color": "yellow", "correct_response": "y", "trial_id": "stroop-trial-1-incongruent-13", "trial_type": "html-keyboard-response", "trial_index": 160, "time_elapsed": 276130, "internal_node_id": "0.0-6.0-65.0"}}, {"uniqueid": "w50581228:a92415529", "current_trial": 161, "dateTime": 1664464202650, "trialdata": {"rt": 833, "stimulus": "<p id='stroop-text' class='stroop-red'>BLUE</p>", "response": "r", "stimulus-type": "incongruent", "word": "blue", "color": "red", "correct_response": "r", "trial_id": "stroop-trial-1-incongruent-16", "trial_type": "html-keyboard-response", "trial_index": 161, "time_elapsed": 277468, "internal_node_id": "0.0-6.0-66.0"}}, {"uniqueid": "w50581228:a92415529", "current_trial": 162, "dateTime": 1664464203767, "trialdata": {"rt": 613, "stimulus": "<p id='stroop-text' class='stroop-yellow'>RED</p>", "response": "y", "stimulus-type": "incongruent", "word": "red", "color": "yellow", "correct_response": "y", "trial_id": "stroop-trial-1-incongruent-10", "trial_type": "html-keyboard-response", "trial_index": 162, "time_elapsed": 278586, "internal_node_id": "0.0-6.0-67.0"}}, {"uniqueid": "w50581228:a92415529", "current_trial": 163, "dateTime": 1664464205009, "trialdata": {"rt": 734, "stimulus": "<p id='stroop-text' class='stroop-blue'>BRAIN</p>", "response": "b", "stimulus-type": "unrelated", "word": "BRAIN", "color": "blue", "correct_response": "b", "trial_id": "stroop-trial-1-unrelated-21", "trial_type": "html-keyboard-response", "trial_index": 163, "time_elapsed": 279828, "internal_node_id": "0.0-6.0-68.0"}}, {"uniqueid": "w50581228:a92415529", "current_trial": 164, "dateTime": 1664464206352, "trialdata": {"rt": 837, "stimulus": "<p id='stroop-text' class='stroop-yellow'>BOTTLE</p>", "response": "y", "stimulus-type": "unrelated", "word": "BOTTLE", "color": "yellow", "correct_response": "y", "trial_id": "stroop-trial-1-unrelated-11", "trial_type": "html-keyboard-response", "trial_index": 164, "time_elapsed": 281171, "internal_node_id": "0.0-6.0-69.0"}}, {"uniqueid": "w50581228:a92415529", "current_trial": 165, "dateTime": 1664464207298, "trialdata": {"rt": 440, "stimulus": "<p id='stroop-text' class='stroop-yellow'>YELLOW</p>", "response": "y", "stimulus-type": "congruent", "word": "yellow", "color": "yellow", "correct_response": "y", "trial_id": "stroop-trial-1-congruent-6", "trial_type": "html-keyboard-response", "trial_index": 165, "time_elapsed": 282117, "internal_node_id": "0.0-6.0-70.0"}}, {"uniqueid": "w50581228:a92415529", "current_trial": 166, "dateTime": 1664464208508, "trialdata": {"rt": 705, "stimulus": "<p id='stroop-text' class='stroop-red'>DOG</p>", "response": "r", "stimulus-type": "unrelated", "word": "DOG", "color": "red", "correct_response": "r", "trial_id": "stroop-trial-1-unrelated-28", "trial_type": "html-keyboard-response", "trial_index": 166, "time_elapsed": 283327, "internal_node_id": "0.0-6.0-71.0"}}, {"uniqueid": "w50581228:a92415529", "current_trial": 167, "dateTime": 1664464209734, "trialdata": {"rt": 712, "stimulus": "<p id='stroop-text' class='stroop-red'>STONE</p>", "response": "r", "stimulus-type": "unrelated", "word": "STONE", "color": "red", "correct_response": "r", "trial_id": "stroop-trial-1-unrelated-20", "trial_type": "html-keyboard-response", "trial_index": 167, "time_elapsed": 284553, "internal_node_id": "0.0-6.0-72.0"}}, {"uniqueid": "w50581228:a92415529", "current_trial": 168, "dateTime": 1664464211033, "trialdata": {"rt": 793, "stimulus": "<p id='stroop-text' class='stroop-blue'>SHIP</p>", "response": "b", "stimulus-type": "unrelated", "word": "SHIP", "color": "blue", "correct_response": "b", "trial_id": "stroop-trial-1-unrelated-2", "trial_type": "html-keyboard-response", "trial_index": 168, "time_elapsed": 285852, "internal_node_id": "0.0-6.0-73.0"}}, {"uniqueid": "w50581228:a92415529", "current_trial": 169, "dateTime": 1664464212643, "trialdata": {"rt": 1106, "stimulus": "<p id='stroop-text' class='stroop-red'>GREEN</p>", "response": "r", "stimulus-type": "incongruent", "word": "green", "color": "red", "correct_response": "r", "trial_id": "stroop-trial-1-incongruent-5", "trial_type": "html-keyboard-response", "trial_index": 169, "time_elapsed": 287462, "internal_node_id": "0.0-6.0-74.0"}}, {"uniqueid": "w50581228:a92415529", "current_trial": 170, "dateTime": 1664464213940, "trialdata": {"rt": 791, "stimulus": "<p id='stroop-text' class='stroop-green'>CHAIR</p>", "response": "g", "stimulus-type": "unrelated", "word": "CHAIR", "color": "green", "correct_response": "g", "trial_id": "stroop-trial-1-unrelated-3", "trial_type": "html-keyboard-response", "trial_index": 170, "time_elapsed": 288758, "internal_node_id": "0.0-6.0-75.0"}}, {"uniqueid": "w50581228:a92415529", "current_trial": 171, "dateTime": 1664464215596, "trialdata": {"rt": 1150, "stimulus": "<p id='stroop-text' class='stroop-red'>RED</p>", "response": "r", "stimulus-type": "congruent", "word": "red", "color": "red", "correct_response": "r", "trial_id": "stroop-trial-1-congruent-11", "trial_type": "html-keyboard-response", "trial_index": 171, "time_elapsed": 290414, "internal_node_id": "0.0-6.0-76.0"}}, {"uniqueid": "w50581228:a92415529", "current_trial": 172, "dateTime": 1664464217568, "trialdata": {"rt": 1468, "stimulus": "<p id='stroop-text' class='stroop-blue'>YELLOW</p>", "response": "b", "stimulus-type": "incongruent", "word": "yellow", "color": "blue", "correct_response": "b", "trial_id": "stroop-trial-1-incongruent-9", "trial_type": "html-keyboard-response", "trial_index": 172, "time_elapsed": 292387, "internal_node_id": "0.0-6.0-77.0"}}, {"uniqueid": "w50581228:a92415529", "current_trial": 173, "dateTime": 1664464218777, "trialdata": {"rt": 705, "stimulus": "<p id='stroop-text' class='stroop-green'>STONE</p>", "response": "g", "stimulus-type": "unrelated", "word": "STONE", "color": "green", "correct_response": "g", "trial_id": "stroop-trial-1-unrelated-24", "trial_type": "html-keyboard-response", "trial_index": 173, "time_elapsed": 293595, "internal_node_id": "0.0-6.0-78.0"}}, {"uniqueid": "w50581228:a92415529", "current_trial": 174, "dateTime": 1664464220509, "trialdata": {"rt": 1220, "stimulus": "<p id='stroop-text' class='stroop-blue'>STONE</p>", "response": "b", "stimulus-type": "unrelated", "word": "STONE", "color": "blue", "correct_response": "b", "trial_id": "stroop-trial-1-unrelated-29", "trial_type": "html-keyboard-response", "trial_index": 174, "time_elapsed": 295327, "internal_node_id": "0.0-6.0-79.0"}}, {"uniqueid": "w50581228:a92415529", "current_trial": 175, "dateTime": 1664464222482, "trialdata": {"rt": 1469, "stimulus": "<p id='stroop-text' class='stroop-yellow'>RED</p>", "response": "y", "stimulus-type": "incongruent", "word": "red", "color": "yellow", "correct_response": "y", "trial_id": "stroop-trial-1-incongruent-22", "trial_type": "html-keyboard-response", "trial_index": 175, "time_elapsed": 297301, "internal_node_id": "0.0-6.0-80.0"}}, {"uniqueid": "w50581228:a92415529", "current_trial": 176, "dateTime": 1664464223528, "trialdata": {"rt": 540, "stimulus": "<p id='stroop-text' class='stroop-yellow'>BLUE</p>", "response": "y", "stimulus-type": "incongruent", "word": "blue", "color": "yellow", "correct_response": "y", "trial_id": "stroop-trial-1-incongruent-14", "trial_type": "html-keyboard-response", "trial_index": 176, "time_elapsed": 298346, "internal_node_id": "0.0-6.0-81.0"}}, {"uniqueid": "w50581228:a92415529", "current_trial": 177, "dateTime": 1664464224666, "trialdata": {"rt": 626, "stimulus": "<p id='stroop-text' class='stroop-blue'>BOAT</p>", "response": "b", "stimulus-type": "unrelated", "word": "BOAT", "color": "blue", "correct_response": "b", "trial_id": "stroop-trial-1-unrelated-8", "trial_type": "html-keyboard-response", "trial_index": 177, "time_elapsed": 299485, "internal_node_id": "0.0-6.0-82.0"}}, {"uniqueid": "w50581228:a92415529", "current_trial": 178, "dateTime": 1664464225604, "trialdata": {"rt": 435, "stimulus": "<p id='stroop-text' class='stroop-blue'>BLUE</p>", "response": "b", "stimulus-type": "congruent", "word": "blue", "color": "blue", "correct_response": "b", "trial_id": "stroop-trial-1-congruent-25", "trial_type": "html-keyboard-response", "trial_index": 178, "time_elapsed": 300423, "internal_node_id": "0.0-6.0-83.0"}}, {"uniqueid": "w50581228:a92415529", "current_trial": 179, "dateTime": 1664464226987, "trialdata": {"rt": 878, "stimulus": "<p id='stroop-text' class='stroop-yellow'>YELLOW</p>", "response": "y", "stimulus-type": "congruent", "word": "yellow", "color": "yellow", "correct_response": "y", "trial_id": "stroop-trial-1-congruent-5", "trial_type": "html-keyboard-response", "trial_index": 179, "time_elapsed": 301806, "internal_node_id": "0.0-6.0-84.0"}}, {"uniqueid": "w50581228:a92415529", "current_trial": 180, "dateTime": 1664464228427, "trialdata": {"rt": 936, "stimulus": "<p id='stroop-text' class='stroop-blue'>BOTTLE</p>", "response": "b", "stimulus-type": "unrelated", "word": "BOTTLE", "color": "blue", "correct_response": "b", "trial_id": "stroop-trial-1-unrelated-23", "trial_type": "html-keyboard-response", "trial_index": 180, "time_elapsed": 303246, "internal_node_id": "0.0-6.0-85.0"}}, {"uniqueid": "w50581228:a92415529", "current_trial": 181, "dateTime": 1664464229621, "trialdata": {"rt": 690, "stimulus": "<p id='stroop-text' class='stroop-blue'>WINDOW</p>", "response": "b", "stimulus-type": "unrelated", "word": "WINDOW", "color": "blue", "correct_response": "b", "trial_id": "stroop-trial-1-unrelated-26", "trial_type": "html-keyboard-response", "trial_index": 181, "time_elapsed": 304440, "internal_node_id": "0.0-6.0-86.0"}}, {"uniqueid": "w50581228:a92415529", "current_trial": 182, "dateTime": 1664464231373, "trialdata": {"rt": 1247, "stimulus": "<p id='stroop-text' class='stroop-green'>BLUE</p>", "response": "g", "stimulus-type": "incongruent", "word": "blue", "color": "green", "correct_response": "g", "trial_id": "stroop-trial-1-incongruent-19", "trial_type": "html-keyboard-response", "trial_index": 182, "time_elapsed": 306192, "internal_node_id": "0.0-6.0-87.0"}}, {"uniqueid": "w50581228:a92415529", "current_trial": 183, "dateTime": 1664464234626, "trialdata": {"rt": 2749, "stimulus": "<p id='stroop-text' class='stroop-red'>WINDOW</p>", "response": "r", "stimulus-type": "unrelated", "word": "WINDOW", "color": "red", "correct_response": "r", "trial_id": "stroop-trial-1-unrelated-9", "trial_type": "html-keyboard-response", "trial_index": 183, "time_elapsed": 309445, "internal_node_id": "0.0-6.0-88.0"}}, {"uniqueid": "w50581228:a92415529", "current_trial": 184, "dateTime": 1664464236279, "trialdata": {"rt": 1148, "stimulus": "<p id='stroop-text' class='stroop-green'>BRIDGE</p>", "response": "g", "stimulus-type": "unrelated", "word": "BRIDGE", "color": "green", "correct_response": "g", "trial_id": "stroop-trial-1-unrelated-25", "trial_type": "html-keyboard-response", "trial_index": 184, "time_elapsed": 311098, "internal_node_id": "0.0-6.0-89.0"}}, {"uniqueid": "w50581228:a92415529", "current_trial": 185, "dateTime": 1664464252750, "trialdata": {"rt": 15967, "stimulus": "  <h1> End of block! </h1>\n\n  You have reached the end of the block 2/5. If you need a short break, feel free to take one now before moving on.\n\n  <br><br>\n  In the next block, you will complete another 90 rounds of this game.\n\n  <br><br>\n  <div style='text-align: center;'>Press <code>space</code> to begin.</div>\n  <br><br>\n<div style='text-align: center;'>(If the experiment doesn't continue, try clicking on the text and then pressing <code>space</code>.)</div>", "response": " ", "trial_id": "stroop_1_ready_3", "trial_type": "html-keyboard-response", "trial_index": 185, "time_elapsed": 327569, "internal_node_id": "0.0-7.0"}}, {"uniqueid": "w50581228:a92415529", "current_trial": 186, "dateTime": 1664464253814, "trialdata": {"rt": 1059, "stimulus": "<p id='stroop-text' class='stroop-blue'>RED</p>", "response": "b", "stimulus-type": "incongruent", "word": "red", "color": "blue", "correct_response": "b", "trial_id": "stroop-trial-1-incongruent-7", "trial_type": "html-keyboard-response", "trial_index": 186, "time_elapsed": 328633, "internal_node_id": "0.0-8.0-0.0"}}, {"uniqueid": "w50581228:a92415529", "current_trial": 187, "dateTime": 1664464254719, "trialdata": {"rt": 399, "stimulus": "<p id='stroop-text' class='stroop-blue'>DOG</p>", "response": "b", "stimulus-type": "unrelated", "word": "DOG", "color": "blue", "correct_response": "b", "trial_id": "stroop-trial-1-unrelated-13", "trial_type": "html-keyboard-response", "trial_index": 187, "time_elapsed": 329538, "internal_node_id": "0.0-8.0-1.0"}}, {"uniqueid": "w50581228:a92415529", "current_trial": 188, "dateTime": 1664464256097, "trialdata": {"rt": 873, "stimulus": "<p id='stroop-text' class='stroop-yellow'>RED</p>", "response": "y", "stimulus-type": "incongruent", "word": "red", "color": "yellow", "correct_response": "y", "trial_id": "stroop-trial-1-incongruent-10", "trial_type": "html-keyboard-response", "trial_index": 188, "time_elapsed": 330916, "internal_node_id": "0.0-8.0-2.0"}}, {"uniqueid": "w50581228:a92415529", "current_trial": 189, "dateTime": 1664464257374, "trialdata": {"rt": 770, "stimulus": "<p id='stroop-text' class='stroop-green'>STONE</p>", "response": "g", "stimulus-type": "unrelated", "word": "STONE", "color": "green", "correct_response": "g", "trial_id": "stroop-trial-1-unrelated-6", "trial_type": "html-keyboard-response", "trial_index": 189, "time_elapsed": 332192, "internal_node_id": "0.0-8.0-3.0"}}, {"uniqueid": "w50581228:a92415529", "current_trial": 190, "dateTime": 1664464258846, "trialdata": {"rt": 967, "stimulus": "<p id='stroop-text' class='stroop-red'>SHIP</p>", "response": "r", "stimulus-type": "unrelated", "word": "SHIP", "color": "red", "correct_response": "r", "trial_id": "stroop-trial-1-unrelated-2", "trial_type": "html-keyboard-response", "trial_index": 190, "time_elapsed": 333664, "internal_node_id": "0.0-8.0-4.0"}}, {"uniqueid": "w50581228:a92415529", "current_trial": 191, "dateTime": 1664464259878, "trialdata": {"rt": 526, "stimulus": "<p id='stroop-text' class='stroop-yellow'>YELLOW</p>", "response": "y", "stimulus-type": "congruent", "word": "yellow", "color": "yellow", "correct_response": "y", "trial_id": "stroop-trial-1-congruent-3", "trial_type": "html-keyboard-response", "trial_index": 191, "time_elapsed": 334696, "internal_node_id": "0.0-8.0-5.0"}}, {"uniqueid": "w50581228:a92415529", "current_trial": 192, "dateTime": 1664464261010, "trialdata": {"rt": 618, "stimulus": "<p id='stroop-text' class='stroop-green'>GREEN</p>", "response": "g", "stimulus-type": "congruent", "word": "green", "color": "green", "correct_response": "g", "trial_id": "stroop-trial-1-congruent-8", "trial_type": "html-keyboard-response", "trial_index": 192, "time_elapsed": 335829, "internal_node_id": "0.0-8.0-6.0"}}, {"uniqueid": "w50581228:a92415529", "current_trial": 193, "dateTime": 1664464261992, "trialdata": {"rt": 476, "stimulus": "<p id='stroop-text' class='stroop-green'>GREEN</p>", "response": "g", "stimulus-type": "congruent", "word": "green", "color": "green", "correct_response": "g", "trial_id": "stroop-trial-1-congruent-9", "trial_type": "html-keyboard-response", "trial_index": 193, "time_elapsed": 336811, "internal_node_id": "0.0-8.0-7.0"}}, {"uniqueid": "w50581228:a92415529", "current_trial": 194, "dateTime": 1664464263018, "trialdata": {"rt": 522, "stimulus": "<p id='stroop-text' class='stroop-yellow'>YELLOW</p>", "response": "y", "stimulus-type": "congruent", "word": "yellow", "color": "yellow", "correct_response": "y", "trial_id": "stroop-trial-1-congruent-6", "trial_type": "html-keyboard-response", "trial_index": 194, "time_elapsed": 337836, "internal_node_id": "0.0-8.0-8.0"}}, {"uniqueid": "w50581228:a92415529", "current_trial": 195, "dateTime": 1664464264126, "trialdata": {"rt": 604, "stimulus": "<p id='stroop-text' class='stroop-red'>RED</p>", "response": "r", "stimulus-type": "congruent", "word": "red", "color": "red", "correct_response": "r", "trial_id": "stroop-trial-1-congruent-28", "trial_type": "html-keyboard-response", "trial_index": 195, "time_elapsed": 338945, "internal_node_id": "0.0-8.0-9.0"}}, {"uniqueid": "w50581228:a92415529", "current_trial": 196, "dateTime": 1664464265319, "trialdata": {"rt": 688, "stimulus": "<p id='stroop-text' class='stroop-red'>GREEN</p>", "response": "r", "stimulus-type": "incongruent", "word": "green", "color": "red", "correct_response": "r", "trial_id": "stroop-trial-1-incongruent-3", "trial_type": "html-keyboard-response", "trial_index": 196, "time_elapsed": 340137, "internal_node_id": "0.0-8.0-10.0"}}, {"uniqueid": "w50581228:a92415529", "current_trial": 197, "dateTime": 1664464266248, "trialdata": {"rt": 424, "stimulus": "<p id='stroop-text' class='stroop-red'>CHAIR</p>", "response": "r", "stimulus-type": "unrelated", "word": "CHAIR", "color": "red", "correct_response": "r", "trial_id": "stroop-trial-1-unrelated-4", "trial_type": "html-keyboard-response", "trial_index": 197, "time_elapsed": 341066, "internal_node_id": "0.0-8.0-11.0"}}, {"uniqueid": "w50581228:a92415529", "current_trial": 198, "dateTime": 1664464267077, "trialdata": {"rt": 315, "stimulus": "<p id='stroop-text' class='stroop-red'>GREEN</p>", "response": "r", "stimulus-type": "incongruent", "word": "green", "color": "red", "correct_response": "r", "trial_id": "stroop-trial-1-incongruent-13", "trial_type": "html-keyboard-response", "trial_index": 198, "time_elapsed": 341895, "internal_node_id": "0.0-8.0-12.0"}}, {"uniqueid": "w50581228:a92415529", "current_trial": 199, "dateTime": 1664464268756, "trialdata": {"rt": 1175, "stimulus": "<p id='stroop-text' class='stroop-green'>DOG</p>", "response": "g", "stimulus-type": "unrelated", "word": "DOG", "color": "green", "correct_response": "g", "trial_id": "stroop-trial-1-unrelated-22", "trial_type": "html-keyboard-response", "trial_index": 199, "time_elapsed": 343575, "internal_node_id": "0.0-8.0-13.0"}}, {"uniqueid": "w50581228:a92415529", "current_trial": 200, "dateTime": 1664464269793, "trialdata": {"rt": 533, "stimulus": "<p id='stroop-text' class='stroop-red'>RED</p>", "response": "r", "stimulus-type": "congruent", "word": "red", "color": "red", "correct_response": "r", "trial_id": "stroop-trial-1-congruent-2", "trial_type": "html-keyboard-response", "trial_index": 200, "time_elapsed": 344612, "internal_node_id": "0.0-8.0-14.0"}}, {"uniqueid": "w50581228:a92415529", "current_trial": 201, "dateTime": 1664464271044, "trialdata": {"rt": 746, "stimulus": "<p id='stroop-text' class='stroop-green'>DOG</p>", "response": "g", "stimulus-type": "unrelated", "word": "DOG", "color": "green", "correct_response": "g", "trial_id": "stroop-trial-1-unrelated-23", "trial_type": "html-keyboard-response", "trial_index": 201, "time_elapsed": 345862, "internal_node_id": "0.0-8.0-15.0"}}, {"uniqueid": "w50581228:a92415529", "current_trial": 202, "dateTime": 1664464272084, "trialdata": {"rt": 536, "stimulus": "<p id='stroop-text' class='stroop-yellow'>YELLOW</p>", "response": "y", "stimulus-type": "congruent", "word": "yellow", "color": "yellow", "correct_response": "y", "trial_id": "stroop-trial-1-congruent-11", "trial_type": "html-keyboard-response", "trial_index": 202, "time_elapsed": 346903, "internal_node_id": "0.0-8.0-16.0"}}, {"uniqueid": "w50581228:a92415529", "current_trial": 203, "dateTime": 1664464273504, "trialdata": {"rt": 916, "stimulus": "<p id='stroop-text' class='stroop-green'>SHIP</p>", "response": "g", "stimulus-type": "unrelated", "word": "SHIP", "color": "green", "correct_response": "g", "trial_id": "stroop-trial-1-unrelated-9", "trial_type": "html-keyboard-response", "trial_index": 203, "time_elapsed": 348323, "internal_node_id": "0.0-8.0-17.0"}}, {"uniqueid": "w50581228:a92415529", "current_trial": 204, "dateTime": 1664464274797, "trialdata": {"rt": 788, "stimulus": "<p id='stroop-text' class='stroop-blue'>CHAIR</p>", "response": "b", "stimulus-type": "unrelated", "word": "CHAIR", "color": "blue", "correct_response": "b", "trial_id": "stroop-trial-1-unrelated-11", "trial_type": "html-keyboard-response", "trial_index": 204, "time_elapsed": 349616, "internal_node_id": "0.0-8.0-18.0"}}, {"uniqueid": "w50581228:a92415529", "current_trial": 205, "dateTime": 1664464276151, "trialdata": {"rt": 840, "stimulus": "<p id='stroop-text' class='stroop-red'>STONE</p>", "response": "r", "stimulus-type": "unrelated", "word": "STONE", "color": "red", "correct_response": "r", "trial_id": "stroop-trial-1-unrelated-15", "trial_type": "html-keyboard-response", "trial_index": 205, "time_elapsed": 350969, "internal_node_id": "0.0-8.0-19.0"}}, {"uniqueid": "w50581228:a92415529", "current_trial": 206, "dateTime": 1664464277380, "trialdata": {"rt": 723, "stimulus": "<p id='stroop-text' class='stroop-yellow'>BLUE</p>", "response": "y", "stimulus-type": "incongruent", "word": "blue", "color": "yellow", "correct_response": "y", "trial_id": "stroop-trial-1-incongruent-17", "trial_type": "html-keyboard-response", "trial_index": 206, "time_elapsed": 352199, "internal_node_id": "0.0-8.0-20.0"}}, {"uniqueid": "w50581228:a92415529", "current_trial": 207, "dateTime": 1664464278709, "trialdata": {"rt": 823, "stimulus": "<p id='stroop-text' class='stroop-green'>GREEN</p>", "response": "g", "stimulus-type": "congruent", "word": "green", "color": "green", "correct_response": "g", "trial_id": "stroop-trial-1-congruent-1", "trial_type": "html-keyboard-response", "trial_index": 207, "time_elapsed": 353527, "internal_node_id": "0.0-8.0-21.0"}}, {"uniqueid": "w50581228:a92415529", "current_trial": 208, "dateTime": 1664464279810, "trialdata": {"rt": 589, "stimulus": "<p id='stroop-text' class='stroop-blue'>GREEN</p>", "response": "b", "stimulus-type": "incongruent", "word": "green", "color": "blue", "correct_response": "b", "trial_id": "stroop-trial-1-incongruent-28", "trial_type": "html-keyboard-response", "trial_index": 208, "time_elapsed": 354628, "internal_node_id": "0.0-8.0-22.0"}}, {"uniqueid": "w50581228:a92415529", "current_trial": 209, "dateTime": 1664464281018, "trialdata": {"rt": 704, "stimulus": "<p id='stroop-text' class='stroop-yellow'>STONE</p>", "response": "y", "stimulus-type": "unrelated", "word": "STONE", "color": "yellow", "correct_response": "y", "trial_id": "stroop-trial-1-unrelated-20", "trial_type": "html-keyboard-response", "trial_index": 209, "time_elapsed": 355837, "internal_node_id": "0.0-8.0-23.0"}}, {"uniqueid": "w50581228:a92415529", "current_trial": 210, "dateTime": 1664464282400, "trialdata": {"rt": 877, "stimulus": "<p id='stroop-text' class='stroop-blue'>GREEN</p>", "response": "b", "stimulus-type": "incongruent", "word": "green", "color": "blue", "correct_response": "b", "trial_id": "stroop-trial-1-incongruent-18", "trial_type": "html-keyboard-response", "trial_index": 210, "time_elapsed": 357219, "internal_node_id": "0.0-8.0-24.0"}}, {"uniqueid": "w50581228:a92415529", "current_trial": 211, "dateTime": 1664464283512, "trialdata": {"rt": 607, "stimulus": "<p id='stroop-text' class='stroop-red'>RED</p>", "response": "r", "stimulus-type": "congruent", "word": "red", "color": "red", "correct_response": "r", "trial_id": "stroop-trial-1-congruent-20", "trial_type": "html-keyboard-response", "trial_index": 211, "time_elapsed": 358330, "internal_node_id": "0.0-8.0-25.0"}}, {"uniqueid": "w50581228:a92415529", "current_trial": 212, "dateTime": 1664464284846, "trialdata": {"rt": 829, "stimulus": "<p id='stroop-text' class='stroop-red'>BOAT</p>", "response": "r", "stimulus-type": "unrelated", "word": "BOAT", "color": "red", "correct_response": "r", "trial_id": "stroop-trial-1-unrelated-27", "trial_type": "html-keyboard-response", "trial_index": 212, "time_elapsed": 359665, "internal_node_id": "0.0-8.0-26.0"}}, {"uniqueid": "w50581228:a92415529", "current_trial": 213, "dateTime": 1664464285787, "trialdata": {"rt": 436, "stimulus": "<p id='stroop-text' class='stroop-red'>GREEN</p>", "response": "r", "stimulus-type": "incongruent", "word": "green", "color": "red", "correct_response": "r", "trial_id": "stroop-trial-1-incongruent-5", "trial_type": "html-keyboard-response", "trial_index": 213, "time_elapsed": 360605, "internal_node_id": "0.0-8.0-27.0"}}, {"uniqueid": "w50581228:a92415529", "current_trial": 214, "dateTime": 1664464286669, "trialdata": {"rt": 377, "stimulus": "<p id='stroop-text' class='stroop-red'>BOTTLE</p>", "response": "r", "stimulus-type": "unrelated", "word": "BOTTLE", "color": "red", "correct_response": "r", "trial_id": "stroop-trial-1-unrelated-25", "trial_type": "html-keyboard-response", "trial_index": 214, "time_elapsed": 361487, "internal_node_id": "0.0-8.0-28.0"}}, {"uniqueid": "w50581228:a92415529", "current_trial": 215, "dateTime": 1664464288078, "trialdata": {"rt": 905, "stimulus": "<p id='stroop-text' class='stroop-blue'>GREEN</p>", "response": "b", "stimulus-type": "incongruent", "word": "green", "color": "blue", "correct_response": "b", "trial_id": "stroop-trial-1-incongruent-6", "trial_type": "html-keyboard-response", "trial_index": 215, "time_elapsed": 362897, "internal_node_id": "0.0-8.0-29.0"}}, {"uniqueid": "w50581228:a92415529", "current_trial": 216, "dateTime": 1664464289137, "trialdata": {"rt": 553, "stimulus": "<p id='stroop-text' class='stroop-red'>BOTTLE</p>", "response": "r", "stimulus-type": "unrelated", "word": "BOTTLE", "color": "red", "correct_response": "r", "trial_id": "stroop-trial-1-unrelated-21", "trial_type": "html-keyboard-response", "trial_index": 216, "time_elapsed": 363955, "internal_node_id": "0.0-8.0-30.0"}}, {"uniqueid": "w50581228:a92415529", "current_trial": 217, "dateTime": 1664464290006, "trialdata": {"rt": 365, "stimulus": "<p id='stroop-text' class='stroop-red'>GREEN</p>", "response": "r", "stimulus-type": "incongruent", "word": "green", "color": "red", "correct_response": "r", "trial_id": "stroop-trial-1-incongruent-22", "trial_type": "html-keyboard-response", "trial_index": 217, "time_elapsed": 364825, "internal_node_id": "0.0-8.0-31.0"}}, {"uniqueid": "w50581228:a92415529", "current_trial": 218, "dateTime": 1664464291047, "trialdata": {"rt": 536, "stimulus": "<p id='stroop-text' class='stroop-yellow'>YELLOW</p>", "response": "y", "stimulus-type": "congruent", "word": "yellow", "color": "yellow", "correct_response": "y", "trial_id": "stroop-trial-1-congruent-13", "trial_type": "html-keyboard-response", "trial_index": 218, "time_elapsed": 365866, "internal_node_id": "0.0-8.0-32.0"}}, {"uniqueid": "w50581228:a92415529", "current_trial": 219, "dateTime": 1664464292743, "trialdata": {"rt": 1192, "stimulus": "<p id='stroop-text' class='stroop-green'>YELLOW</p>", "response": "g", "stimulus-type": "incongruent", "word": "yellow", "color": "green", "correct_response": "g", "trial_id": "stroop-trial-1-incongruent-15", "trial_type": "html-keyboard-response", "trial_index": 219, "time_elapsed": 367562, "internal_node_id": "0.0-8.0-33.0"}}, {"uniqueid": "w50581228:a92415529", "current_trial": 220, "dateTime": 1664464293721, "trialdata": {"rt": 472, "stimulus": "<p id='stroop-text' class='stroop-green'>GREEN</p>", "response": "g", "stimulus-type": "congruent", "word": "green", "color": "green", "correct_response": "g", "trial_id": "stroop-trial-1-congruent-7", "trial_type": "html-keyboard-response", "trial_index": 220, "time_elapsed": 368540, "internal_node_id": "0.0-8.0-34.0"}}, {"uniqueid": "w50581228:a92415529", "current_trial": 221, "dateTime": 1664464294769, "trialdata": {"rt": 542, "stimulus": "<p id='stroop-text' class='stroop-red'>RED</p>", "response": "r", "stimulus-type": "congruent", "word": "red", "color": "red", "correct_response": "r", "trial_id": "stroop-trial-1-congruent-17", "trial_type": "html-keyboard-response", "trial_index": 221, "time_elapsed": 369587, "internal_node_id": "0.0-8.0-35.0"}}, {"uniqueid": "w50581228:a92415529", "current_trial": 222, "dateTime": 1664464296148, "trialdata": {"rt": 875, "stimulus": "<p id='stroop-text' class='stroop-blue'>BLUE</p>", "response": "b", "stimulus-type": "congruent", "word": "blue", "color": "blue", "correct_response": "b", "trial_id": "stroop-trial-1-congruent-4", "trial_type": "html-keyboard-response", "trial_index": 222, "time_elapsed": 370967, "i