{"condition": 1, "counterbalance": 0, "assignmentId": "a95200135", "workerId": "w81201253", "hitId": "h46209935", "currenttrial": 21, "bonus": 0, "data": [{"uniqueid": "w81201253:a95200135", "current_trial": 0, "dateTime": 1664555235401, "trialdata": {"success": true, "trial_type": "fullscreen", "trial_index": 0, "time_elapsed": 8411, "internal_node_id": "0.0-0.0"}}, {"uniqueid": "w81201253:a95200135", "current_trial": 1, "dateTime": 1664555248992, "trialdata": {"view_history": [{"page_index": 0, "viewing_time": 13583}], "rt": 13585, "trial_id": "exp_instructions_no_distractor", "trial_type": "instructions", "trial_index": 1, "time_elapsed": 22002, "internal_node_id": "0.0-1.0"}}, {"uniqueid": "w81201253:a95200135", "current_trial": 2, "dateTime": 1664555253038, "trialdata": {"success": true, "trial_type": "fullscreen", "trial_index": 2, "time_elapsed": 26048, "internal_node_id": "0.0-2.0-0.0"}}, {"uniqueid": "w81201253:a95200135", "current_trial": 3, "dateTime": 1664555375902, "trialdata": {"view_history": [{"page_index": 0, "viewing_time": 44879}, {"page_index": 1, "viewing_time": 35260}, {"page_index": 2, "viewing_time": 12432}, {"page_index": 3, "viewing_time": 6617}, {"page_index": 4, "viewing_time": 23673}], "rt": 122861, "trial_id": "mouselab_instructions_1", "trial_type": "instructions", "trial_index": 3, "time_elapsed": 148912, "internal_node_id": "0.0-2.0-1.0"}}, {"uniqueid": "w81201253:a95200135", "current_trial": 4, "dateTime": 1664555414848, "trialdata": {"revealed_states": [], "num_clicks_accrued": [0, 0, 0, 0, 0, 0, 0, 0, 0, 0, 0, 0, 0], "stateRewards": ["", -10, 10, 10, 10, -10, -10, -10, -10, -10, 10, -10, -10], "withholdReward": false, "trial_id": "practice_1", "block": "test", "trialIndex": 0, "score": 9, "costs": -3, "simulationMode": [null, null, null], "rewards": [-10, 10, 10], "path": ["0", "0", "1", "2", "4"], "rt": [27570, 581, 3878], "actions": ["up", "up", "left"], "actionTimes": [29672, 30748, 35144], "queries": {"click": {"state": {"target": ["5", "9", "1", "2", "4", "3", "7", "6", "8", "12", "10", "11"], "time": [15666, 17465, 18483, 22050, 22748, 23611, 24541, 25076, 25567, 26356, 26889, 27455]}, "edge": {"target": [], "time": []}}, "mouseover": {"state": {"target": ["0", "5", "9", "1", "0", "2", "4", "3", "7", "6", "8", "12", "10", "11"], "time": [10867, 15400, 16967, 18233, 19616, 20817, 22516, 23200, 23983, 24850, 25400, 26182, 26650, 27199]}, "edge": {"target": [], "time": []}}, "mouseout": {"state": {"target": ["0", "0", "5", "9", "1", "0", "1", "2", "4", "2", "3", "7", "6", "8", "12", "10", "11", "1", "1"], "time": [10201, 13683, 16666, 18150, 19366, 20339, 20483, 22450, 23083, 23133, 23933, 24799, 25349, 25949, 26566, 27150, 27899, 28083, 32565]}, "edge": {"target": [], "time": []}}}, "displayed_time": "35.63", "trialTime": 38671, "trial_type": "mouselab-mdp", "trial_index": 4, "time_elapsed": 187857, "internal_node_id": "0.0-2.0-2.0-0.0"}}, {"uniqueid": "w81201253:a95200135", "current_trial": 5, "dateTime": 1664555435537, "trialdata": {"revealed_states": [], "num_clicks_accrued": [0, 0, 0, 0, 0, 0, 0, 0, 0, 0, 0, 0, 0], "stateRewards": ["", -10, -10, 10, -10, -10, -10, -10, 10, -10, 10, 10, -10], "withholdReward": false, "trial_id": "practice_2", "block": "test", "trialIndex": 1, "score": 9, "costs": -3, "simulationMode": [null, null, null], "rewards": [-10, 10, 10], "path": ["0", "0", "9", "10", "11"], "rt": [13052, 558, 1521], "actions": ["left", "left", "up"], "actionTimes": [14385, 15461, 17492], "queries": {"click": {"state": {"target": ["1", "9", "2", "3", "4", "5", "6", "7", "8", "12", "11", "10"], "time": [2581, 4209, 6320, 7806, 8453, 9389, 9963, 10526, 11024, 11879, 12586, 13068]}, "edge": {"target": [], "time": []}}, "mouseover": {"state": {"target": ["1", "9", "2", "3", "4", "5", "6", "7", "8", "12", "10", "11", "10"], "time": [2088, 3171, 5454, 6986, 8221, 9186, 9788, 10354, 10887, 11753, 12170, 12236, 12820]}, "edge": {"target": [], "time": []}}, "mouseout": {"state": {"target": ["2", "1", "0", "0", "1", "9", "1", "2", "3", "2", "4", "9", "5", "6", "7", "6", "8", "12", "10", "11", "10", "9", "0"], "time": [639, 721, 839, 1153, 3038, 5337, 5437, 6920, 8103, 8170, 8770, 9053, 9753, 10270, 10720, 10803, 11354, 12153, 12220, 12771, 13770, 13820, 18453]}, "edge": {"target": [], "time": []}}}, "displayed_time": "18.00", "trialTime": 20617, "trial_type": "mouselab-mdp", "trial_index": 5, "time_elapsed": 208547, "internal_node_id": "0.0-2.0-2.0-1.0"}}, {"uniqueid": "w81201253:a95200135", "current_trial": 6, "dateTime": 1664555503189, "trialdata": {"view_history": [{"page_index": 0, "viewing_time": 37249}, {"page_index": 1, "viewing_time": 17754}, {"page_index": 2, "viewing_time": 12645}], "rt": 67648, "trial_id": "mouselab_instructions_2_scarce", "trial_type": "instructions", "trial_index": 6, "time_elapsed": 276199, "internal_node_id": "0.0-2.0-3.0"}}, {"uniqueid": "w81201253:a95200135", "current_trial": 7, "dateTime": 1664555549188, "trialdata": {"rt": 45994, "response": {"Q0": "$-48 to $48", "Q1": "The cost is always $0.25.", "Q2": "The better I perform the higher my bonus will be.", "Q3": "No, the amount of cash at each node of the web may be different each time.", "Q4": "The values of the nodes walked through from start to finish.", "Q5": "No, the spider might forget to count the money on some rounds."}, "question_order": [0, 1, 2, 3, 4, 5], "correct": {"Q0": "$-48 to $48", "Q1": "The cost is always $0.25.", "Q2": "The better I perform the higher my bonus will be.", "Q3": "No, the amount of cash at each node of the web may be different each time.", "Q4": "The values of the nodes walked through from start to finish.", "Q5": "No, the spider might forget to count the money on some rounds."}, "trial_id": "mouselab_quiz_scarce", "trial_type": "survey-multi-choice", "trial_index": 7, "time_elapsed": 322198, "internal_node_id": "0.0-2.0-4.0"}}, {"uniqueid": "w81201253:a95200135", "current_trial": 8, "dateTime": 1664555564333, "trialdata": {"rt": 15136, "stimulus": "\n<h1> Get ready to start the game! </h1>\n\nThank you for reading the instructions. Get ready start with the first of 4 block(s) of this game.\n<br><br>\nIn this first block, you will complete 30 rounds of this game before moving on.\n<br><br>\nRemember, the more money the spider gets, the bigger your bonus will be!\n<br><br>\n<div style='text-align: center;'>Press <code>space</code> to begin.</div>\n\n<br><br>\n(If, at any point, the <code>space</code> key does not take you to the next page, click once on the text and try again.)", "response": " ", "trial_id": "mdp_ready_1", "trial_type": "html-keyboard-response", "trial_index": 8, "time_elapsed": 337343, "internal_node_id": "0.0-4.0-0.0"}}, {"uniqueid": "w81201253:a95200135", "current_trial": 9, "dateTime": 1664555577793, "trialdata": {"revealed_states": [], "num_clicks_accrued": [0, 0, 0, 0, 0, 0, 0, 0, 0, 0, 0, 0, 0], "stateRewards": ["", 2, -4, 24, 48, -2, 4, -48, -48, -4, 4, 24, -24], "withholdReward": true, "trial_id": "mdp_900363662757", "block": "test1", "trialIndex": 2, "score": 50.75, "costs": -0.25, "simulationMode": [null, null, null], "rewards": [2, -4, 48], "path": ["0", "0", "1", "2", "4"], "rt": [6165, 255, 394], "actions": ["up", "up", "left"], "actionTimes": [8699, 9446, 10351], "queries": {"click": {"state": {"target": ["4"], "time": [5769]}, "edge": {"target": [], "time": []}}, "mouseover": {"state": {"target": ["1", "4"], "time": [3440, 5573]}, "edge": {"target": [], "time": []}}, "mouseout": {"state": {"target": ["0", "1"], "time": [2357, 5257]}, "edge": {"target": [], "time": []}}}, "displayed_time": "11.55", "trialTime": 13403, "trial_type": "mouselab-mdp", "trial_index": 9, "time_elapsed": 350803, "internal_node_id": "0.0-4.0-1.0-0.0"}}, {"uniqueid": "w81201253:a95200135", "current_trial": 10, "dateTime": 1664555589728, "trialdata": {"revealed_states": [], "num_clicks_accrued": [0, 0, 0, 0, 0, 0, 0, 0, 0, 0, 0, 0, 0], "stateRewards": ["", -4, 4, -24, -24, -4, -8, 24, 48, 4, -4, 24, 48], "withholdReward": true, "trial_id": "mdp_175395325183", "block": "test1", "trialIndex": 3, "score": 52.75, "costs": -0.25, "simulationMode": [null, null, null], "rewards": [4, -4, 48], "path": ["0", "0", "9", "10", "12"], "rt": [4262, 299, 449], "actions": ["left", "left", "down"], "actionTimes": [6177, 6968, 7933], "queries": {"click": {"state": {"target": ["12"], "time": [3864]}, "edge": {"target": [], "time": []}}, "mouseover": {"state": {"target": ["0", "12"], "time": [2734, 3000]}, "edge": {"target": [], "time": []}}, "mouseout": {"state": {"target": ["4", "1", "0", "12", "12"], "time": [1193, 1267, 2784, 10152, 10218]}, "edge": {"target": [], "time": []}}}, "displayed_time": "8.92", "trialTime": 11867, "trial_type": "mouselab-mdp", "trial_index": 10, "time_elapsed": 362738, "internal_node_id": "0.0-4.0-1.0-1.0"}}, {"uniqueid": "w81201253:a95200135", "current_trial": 11, "dateTime": 1664555601811, "trialdata": {"revealed_states": [], "num_clicks_accrued": [0, 0, 0, 0, 0, 0, 0, 0, 0, 0, 0, 0, 0], "stateRewards": ["", 2, -8, -24, -48, -2, -4, 48, 48, 4, 8, 48, 48], "withholdReward": false, "trial_id": "mdp_347285045422", "block": "test1", "trialIndex": 4, "score": 46.5, "costs": -0.5, "simulationMode": [null, null, null], "rewards": [-2, -4, 48], "path": ["0", "0", "5", "6", "7"], "rt": [5603, 293, 225], "actions": ["right", "right", "up"], "actionTimes": [7087, 7891, 8622], "queries": {"click": {"state": {"target": ["2", "7"], "time": [2634, 5509]}, "edge": {"target": [], "time": []}}, "mouseover": {"state": {"target": ["1", "2", "5", "6", "7", "1"], "time": [2214, 2331, 4247, 4897, 5298, 6163]}, "edge": {"target": [], "time": []}}, "mouseout": {"state": {"target": ["0", "1", "2", "5", "6", "7", "1"], "time": [1381, 2247, 4097, 4864, 5263, 6131, 6181]}, "edge": {"target": [], "time": []}}}, "displayed_time": "9.49", "trialTime": 12031, "trial_type": "mouselab-mdp", "trial_index": 11, "time_elapsed": 374821, "internal_node_id": "0.0-4.0-1.0-2.0"}}, {"uniqueid": "w81201253:a95200135", "current_trial": 12, "dateTime": 1664555613640, "trialdata": {"revealed_states": [], "num_clicks_accrued": [0, 0, 0, 0, 0, 0, 0, 0, 0, 0, 0, 0, 0], "stateRewards": ["", -2, 8, 24, -48, -2, -4, 24, 48, 2, 8, -48, -48], "withholdReward": true, "trial_id": "mdp_562228697607", "block": "test1", "trialIndex": 5, "score": 46.5, "costs": -0.5, "simulationMode": [null, null, null], "rewards": [-2, -4, 48], "path": ["0", "0", "5", "6", "8"], "rt": [6475, 209, 216], "actions": ["right", "right", "down"], "actionTimes": [8057, 8777, 9500], "queries": {"click": {"state": {"target": ["4", "8"], "time": [4354, 6754]}, "edge": {"target": [], "time": []}}, "mouseover": {"state": {"target": ["9", "11", "4", "1", "5", "8", "5"], "time": [2085, 2451, 3334, 5251, 5334, 5551, 7367]}, "edge": {"target": [], "time": []}}, "mouseout": {"state": {"target": ["0", "9", "11", "4", "1", "5", "8", "5"], "time": [2050, 2117, 3133, 5200, 5283, 5433, 7300, 10716]}, "edge": {"target": [], "time": []}}}, "displayed_time": "10.02", "trialTime": 11764, "trial_type": "mouselab-mdp", "trial_index": 12, "time_elapsed": 386650, "internal_node_id": "0.0-4.0-1.0-3.0"}}, {"uniqueid": "w81201253:a95200135", "current_trial": 13, "dateTime": 1664555623477, "trialdata": {"revealed_states": [], "num_clicks_accrued": [0, 0, 0, 0, 0, 0, 0, 0, 0, 0, 0, 0, 0], "stateRewards": ["", 4, 4, 48, -48, -2, 4, 48, -48, -4, 4, -24, -24], "withholdReward": true, "trial_id": "mdp_753324812898", "block": "test1", "trialIndex": 6, "score": 60.5, "costs": -0.5, "simulationMode": [null, null, null], "rewards": [4, 4, 48], "path": ["0", "0", "1", "2", "3"], "rt": [4331, 194, 389], "actions": ["up", "up", "right"], "actionTimes": [5770, 6479, 7375], "queries": {"click": {"state": {"target": ["10", "3"], "time": [3241, 4866]}, "edge": {"target": [], "time": []}}, "mouseover": {"state": {"target": ["9", "10", "1", "2", "3"], "time": [2318, 2918, 4084, 4435, 4703]}, "edge": {"target": [], "time": []}}, "mouseout": {"state": {"target": ["0", "9", "10", "1", "2"], "time": [2235, 2769, 4035, 4135, 4651]}, "edge": {"target": [], "time": []}}}, "displayed_time": "9.44", "trialTime": 9770, "trial_type": "mouselab-mdp", "trial_index": 13, "time_elapsed": 396487, "internal_node_id": "0.0-4.0-1.0-4.0"}}, {"uniqueid": "w81201253:a95200135", "current_trial": 14, "dateTime": 1664555633546, "trialdata": {"revealed_states": [], "num_clicks_accrued": [0, 0, 0, 0, 0, 0, 0, 0, 0, 0, 0, 0, 0], "stateRewards": ["", 2, -4, -24, 24, 2, 8, 48, 48, 2, -8, 48, -24], "withholdReward": false, "trial_id": "mdp_330392242530", "block": "test1", "trialIndex": 7, "score": 46.5, "costs": -0.5, "simulationMode": [null, null, null], "rewards": [2, -8, 48], "path": ["0", "0", "9", "10", "11"], "rt": [3350, 166, 240], "actions": ["left", "left", "up"], "actionTimes": [4510, 5180, 5938], "queries": {"click": {"state": {"target": ["3", "11"], "time": [2102, 3462]}, "edge": {"target": [], "time": []}}, "mouseover": {"state": {"target": ["3", "1", "9", "10", "11"], "time": [1897, 2730, 2946, 3213, 3313]}, "edge": {"target": [], "time": []}}, "mouseout": {"state": {"target": ["3", "3", "1", "9", "10"], "time": [764, 2680, 2797, 3013, 3246]}, "edge": {"target": [], "time": []}}}, "displayed_time": "9.16", "trialTime": 10000, "trial_type": "mouselab-mdp", "trial_index": 14, "time_elapsed": 406556, "internal_node_id": "0.0-4.0-1.0-5.0"}}, {"uniqueid": "w81201253:a95200135", "current_trial": 15, "dateTime": 1664555654113, "trialdata": {"revealed_states": [], "num_clicks_accrued": [0, 0, 0, 0, 0, 0, 0, 0, 0, 0, 0, 0, 0], "stateRewards": ["", -4, 8, 24, -24, 4, -8, -24, -24, -2, 8, -48, 24], "withholdReward": true, "trial_id": "mdp_240302100183", "block": "test1", "trialIndex": 8, "score": 30.25, "costs": -2.75, "simulationMode": [null, null, null], "rewards": [-4, 8, 24], "path": ["0", "0", "1", "2", "3"], "rt": [13097, 4, 2398], "actions": ["up", "up", "right"], "actionTimes": [15170, 15675, 18602], "queries": {"click": {"state": {"target": ["12", "3", "4", "6", "8", "7", "11", "9", "5", "1", "10"], "time": [3300, 4364, 5671, 6839, 7478, 8667, 9744, 10353, 11111, 11736, 13766]}, "edge": {"target": [], "time": []}}, "mouseover": {"state": {"target": ["12", "9", "1", "2", "3", "2", "4", "6", "8", "7", "11", "9", "0", "5", "1", "10", "2"], "time": [3105, 3821, 3887, 4020, 4188, 5122, 5454, 6487, 7355, 8220, 9537, 10170, 10820, 10970, 11604, 13287, 14337]}, "edge": {"target": [], "time": []}}, "mouseout": {"state": {"target": ["11", "9", "0", "12", "9", "1", "2", "3", "2", "4", "6", "8", "6", "7", "11", "9", "0", "5", "1", "10", "2"], "time": [1576, 1638, 2788, 3804, 3855, 3938, 4037, 5088, 5253, 6399, 7320, 7954, 8121, 9120, 10120, 10787, 10854, 11436, 12120, 14303, 14353]}, "edge": {"target": [], "time": []}}}, "displayed_time": "19.10", "trialTime": 20509, "trial_type": "mouselab-mdp", "trial_index": 15, "time_elapsed": 427123, "internal_node_id": "0.0-4.0-1.0-6.0"}}, {"uniqueid": "w81201253:a95200135", "current_trial": 16, "dateTime": 1664555664966, "trialdata": {"revealed_states": [], "num_clicks_accrued": [0, 0, 0, 0, 0, 0, 0, 0, 0, 0, 0, 0, 0], "stateRewards": ["", -2, 4, -48, 24, -4, 8, 48, 24, -2, 4, -48, -24], "withholdReward": true, "trial_id": "mdp_740882974347", "block": "test1", "trialIndex": 9, "score": 56.25, "costs": -0.75, "simulationMode": [null, null, null], "rewards": [-4, 8, 48], "path": ["0", "0", "5", "6", "7"], "rt": [3371, 359, 262], "actions": ["right", "right", "up"], "actionTimes": [4662, 5519, 6288], "queries": {"click": {"state": {"target": ["11", "12", "7"], "time": [1992, 2772, 3701]}, "edge": {"target": [], "time": []}}, "mouseover": {"state": {"target": ["11", "10", "12", "7"], "time": [1960, 2425, 2541, 3492]}, "edge": {"target": [], "time": []}}, "mouseout": {"state": {"target": ["2", "1", "0", "11", "10", "12", "7"], "time": [825, 858, 1192, 2369, 2459, 3125, 8292]}, "edge": {"target": [], "time": []}}}, "displayed_time": "9.29", "trialTime": 10785, "trial_type": "mouselab-mdp", "trial_index": 16, "time_elapsed": 437976, "internal_node_id": "0.0-4.0-1.0-7.0"}}, {"uniqueid": "w81201253:a95200135", "current_trial": 17, "dateTime": 1664555678233, "trialdata": {"revealed_states": [], "num_clicks_accrued": [0, 0, 0, 0, 0, 0, 0, 0, 0, 0, 0, 0, 0], "stateRewards": ["", -4, 4, 24, 24, 4, -8, 48, -48, -2, -8, 24, 24], "withholdReward": false, "trial_id": "mdp_395264223239", "block": "test1", "trialIndex": 10, "score": 28.5, "costs": -0.5, "simulationMode": [null, null, null], "rewards": [-4, 4, 24], "path": ["0", "0", "1", "2", "4"], "rt": [3273, 138, 143], "actions": ["up", "up", "left"], "actionTimes": [5176, 5830, 6485], "queries": {"click": {"state": {"target": ["2", "4"], "time": [3229, 3865]}, "edge": {"target": [], "time": []}}, "mouseover": {"state": {"target": ["2", "4"], "time": [3059, 3692]}, "edge": {"target": [], "time": []}}, "mouseout": {"state": {"target": ["0", "2"], "time": [2626, 3609]}, "edge": {"target": [], "time": []}}}, "displayed_time": "10.90", "trialTime": 13203, "trial_type": "mouselab-mdp", "trial_index": 17, "time_elapsed": 451243, "internal_node_id": "0.0-4.0-1.0-8.0"}}, {"uniqueid": "w81201253:a95200135", "current_trial": 18, "dateTime": 1664555692771, "trialdata": {"revealed_states": [], "num_clicks_accrued": [0, 0, 0, 0, 0, 0, 0, 0, 0, 0, 0, 0, 0], "stateRewards": ["", -4, -8, -48, 24, -4, -4, -24, -48, 2, -8, -24, -48], "withholdReward": true, "trial_id": "mdp_628181832088", "block": "test1", "trialIndex": 11, "score": 15.25, "costs": -1.75, "simulationMode": [null, null, null], "rewards": [-4, -8, 24], "path": ["0", "0", "1", "2", "4"], "rt": [8716, 505, 146], "actions": ["up", "up", "left"], "actionTimes": [10738, 11738, 12395], "queries": {"click": {"state": {"target": ["9", "3", "8", "7", "11", "12", "4"], "time": [2633, 4150, 5279, 6759, 7977, 8832, 9686]}, "edge": {"target": [], "time": []}}, "mouseover": {"state": {"target": ["9", "0", "5", "3", "7", "6", "8", "6", "7", "1", "11", "11", "10", "12", "4", "2"], "time": [2417, 3166, 3434, 3950, 4734, 4816, 5116, 5849, 5983, 7133, 7166, 7600, 8599, 8667, 9566, 10149]}, "edge": {"target": [], "time": []}}, "mouseout": {"state": {"target": ["4", "9", "0", "5", "3", "7", "6", "8", "6", "7", "1", "11", "11", "10", "12", "9", "4"], "time": [1668, 3151, 3233, 3883, 4651, 4783, 4866, 5816, 5900, 7099, 7150, 7183, 8566, 8633, 9183, 9233, 10049]}, "edge": {"target": [], "time": []}}}, "displayed_time": "12.90", "trialTime": 14482, "trial_type": "mouselab-mdp", "trial_index": 18, "time_elapsed": 465781, "internal_node_id": "0.0-4.0-1.0-9.0"}}, {"uniqueid": "w81201253:a95200135", "current_trial": 19, "dateTime": 1664555703600, "trialdata": {"revealed_states": [], "num_clicks_accrued": [0, 0, 0, 0, 0, 0, 0, 0, 0, 0, 0, 0, 0], "stateRewards": ["", -2, -4, -24, -48, -4, -8, -48, 24, -4, -8, -24, -48], "withholdReward": true, "trial_id": "mdp_475782454549", "block": "test1", "trialIndex": 12, "score": -56, "costs": -1, "simulationMode": [null, null, null], "rewards": [-4, -8, -48], "path": ["0", "0", "5", "6", "7"], "rt": [4014, 310, 62], "actions": ["right", "right", "up"], "actionTimes": [6403, 7222, 7791], "queries": {"click": {"state": {"target": ["4", "3", "1", "2"], "time": [3398, 3934, 4745, 5116]}, "edge": {"target": [], "time": []}}, "mouseover": {"state": {"target": ["4", "2", "3", "1", "1", "2", "7", "6"], "time": [3245, 3711, 3778, 4378, 4529, 4929, 5546, 5695]}, "edge": {"target": [], "time": []}}, "mouseout": {"state": {"target": ["2", "1", "4", "2", "3", "1", "1", "2", "7"], "time": [1878, 1928, 3696, 3762, 4278, 4395, 4862, 5328, 5663]}, "edge": {"target": [], "time": []}}}, "displayed_time": "10.39", "trialTime": 10758, "trial_type": "mouselab-mdp", "trial_index": 19, "time_elapsed": 476610, "internal_node_id": "0.0-4.0-1.0-10.0"}}, {"uniqueid": "w81201253:a95200135", "current_trial": 20, "dateTime": 1664555712859, "trialdata": {"revealed_states": [], "num_clicks_accrued": [0, 0, 0, 0, 0, 0, 0, 0, 0, 0, 0, 0, 0], "stateRewards": ["", -4, -4, -48, 48, -4, -8, -24, -48, -2, 8, 48, 24], "withholdReward": true, "trial_id": "mdp_365393526663", "block": "test1", "trialIndex": 13, "score": 44.75, "costs": -0.25, "simulationMode": [null, null, null], "rewards": [-4, -4, 48], "path": ["0", "0", "1", "2", "4"], "rt": [2250, 389, 404], "actions": ["up", "up", "left"], "actionTimes": [4001, 4889, 5787], "queries": {"click": {"state": {"target": ["4"], "time": [2622]}, "edge": {"target": [], "time": []}}, "mouseover": {"state": {"target": ["1", "2", "4", "1", "1", "1"], "time": [2249, 2333, 2449, 3066, 3366, 3566]}, "edge": {"target": [], "time": []}}, "mouseout": {"state": {"target": ["6", "5", "1", "2", "4", "1", "1", "1"], "time": [1349, 1400, 2284, 2366, 2966, 3167, 3399, 3616]}, "edge": {"target": [], "time": []}}}, "displayed_time": "8.75", "trialTime": 9189, "trial_type": "mouselab-mdp", "trial_index": 20, "time_elapsed": 485869, "internal_node_id": "0.0-4.0-1.0-11.0"}}], "questiondata": {"params": {"CODE": "C6DMOQA6", "MIN_TIME": 7, "inspectCost": 0.25, "startTime": "Fri Sep 30 2022 17:27:06 GMT+0100 (Hora de ver\u00e3o da Europa Ocidental)", "bonusRate": 0.002, "variance": "2_4_24", "branching": "312"}}, "eventdata": [{"eventtype": "initialized", "value": null, "timestamp": 1664555226239, "interval": 0}, {"eventtype": "window_resize", "value": [1024, 660], "timestamp": 1664555226239, "interval": 0}, {"eventtype": "window_resize", "value": [1024, 660], "timestamp": 1664555226520, "interval": 281}, {"eventtype": "window_resize", "value": [1366, 768], "timestamp": 1664555234627, "interval": 8107}, {"eventtype": "window_resize", "value": [1024, 660], "timestamp": 1664555714199, "interval": 479572}], "useragent": "Mozilla/5.0 (Windows NT 10.0; Win64; x64) AppleWebKit/537.36 (KHTML, like Gecko) Chrome/105.0.0.0 Safari/537.36", "mode": "live", "id": "w81201253:a95200135", "status": "user data saved", "Beginhit": "2022-09-30 16:27:06.205238", "Beginexp": "2022-09-30 16:27:16.284469", "Endhit": null, "psiturkStatus": 6, "browser": "<redacted>", "platform": "windows", "language": "pt-PT"}