{"condition": 0, "counterbalance": 0, "assignmentId": "a37705167", "workerId": "w73776195", "hitId": "h54719248", "currenttrial": 277, "bonus": 0, "data": [{"uniqueid": "w73776195:a37705167", "current_trial": 0, "dateTime": 1664367930390, "trialdata": {"success": true, "trial_type": "fullscreen", "trial_index": 0, "time_elapsed": 3672, "internal_node_id": "0.0-0.0"}}, {"uniqueid": "w73776195:a37705167", "current_trial": 1, "dateTime": 1664367945192, "trialdata": {"view_history": [{"page_index": 0, "viewing_time": 14793}], "rt": 14794, "trial_id": "exp_instructions_distractor", "trial_type": "instructions", "trial_index": 1, "time_elapsed": 18475, "internal_node_id": "0.0-1.0"}}, {"uniqueid": "w73776195:a37705167", "current_trial": 2, "dateTime": 1664367962171, "trialdata": {"view_history": [{"page_index": 0, "viewing_time": 16976}], "rt": 16977, "trial_id": "color_game_instructions", "trial_type": "instructions", "trial_index": 2, "time_elapsed": 35454, "internal_node_id": "0.0-2.0"}}, {"uniqueid": "w73776195:a37705167", "current_trial": 3, "dateTime": 1664367970204, "trialdata": {"rt": 8031, "stimulus": "<h1> Get ready to start the game! </h1>\n\nThank you for reading the instructions. Get ready start with the first of 5 block(s) of this game.\n<br><br>\nIn this first block, you will complete 90 rounds of this game before moving on.\n<br><br>\nRemember, the better you perform, the bigger your bonus will be!\n<br><br>\n<div style='text-align: center;'>Press <code>space</code> to begin.</div>", "response": " ", "trial_id": "stroop_1_ready_1", "trial_type": "html-keyboard-response", "trial_index": 3, "time_elapsed": 43487, "internal_node_id": "0.0-3.0"}}, {"uniqueid": "w73776195:a37705167", "current_trial": 4, "dateTime": 1664367971683, "trialdata": {"rt": 1465, "stimulus": "<p id='stroop-text' class='stroop-blue'>RED</p>", "response": "b", "stimulus-type": "incongruent", "word": "red", "color": "blue", "correct_response": "b", "trial_id": "stroop-trial-1-incongruent-23", "trial_type": "html-keyboard-response", "trial_index": 4, "time_elapsed": 44965, "internal_node_id": "0.0-4.0-0.0"}}, {"uniqueid": "w73776195:a37705167", "current_trial": 5, "dateTime": 1664367973123, "trialdata": {"rt": 937, "stimulus": "<p id='stroop-text' class='stroop-blue'>YELLOW</p>", "response": "b", "stimulus-type": "incongruent", "word": "yellow", "color": "blue", "correct_response": "b", "trial_id": "stroop-trial-1-incongruent-9", "trial_type": "html-keyboard-response", "trial_index": 5, "time_elapsed": 46405, "internal_node_id": "0.0-4.0-1.0"}}, {"uniqueid": "w73776195:a37705167", "current_trial": 6, "dateTime": 1664367975570, "trialdata": {"rt": 1944, "stimulus": "<p id='stroop-text' class='stroop-red'>BOAT</p>", "response": "r", "stimulus-type": "unrelated", "word": "BOAT", "color": "red", "correct_response": "r", "trial_id": "stroop-trial-1-unrelated-14", "trial_type": "html-keyboard-response", "trial_index": 6, "time_elapsed": 48853, "internal_node_id": "0.0-4.0-2.0"}}, {"uniqueid": "w73776195:a37705167", "current_trial": 7, "dateTime": 1664367977402, "trialdata": {"rt": 1329, "stimulus": "<p id='stroop-text' class='stroop-blue'>YELLOW</p>", "response": "y", "stimulus-type": "incongruent", "word": "yellow", "color": "blue", "correct_response": "b", "trial_id": "stroop-trial-1-incongruent-18", "trial_type": "html-keyboard-response", "trial_index": 7, "time_elapsed": 50685, "internal_node_id": "0.0-4.0-3.0"}}, {"uniqueid": "w73776195:a37705167", "current_trial": 8, "dateTime": 1664367979010, "trialdata": {"rt": 1104, "stimulus": "<p id='stroop-text' class='stroop-green'>STONE</p>", "response": "g", "stimulus-type": "unrelated", "word": "STONE", "color": "green", "correct_response": "g", "trial_id": "stroop-trial-1-unrelated-17", "trial_type": "html-keyboard-response", "trial_index": 8, "time_elapsed": 52292, "internal_node_id": "0.0-4.0-4.0"}}, {"uniqueid": "w73776195:a37705167", "current_trial": 9, "dateTime": 1664367980721, "trialdata": {"rt": 1206, "stimulus": "<p id='stroop-text' class='stroop-red'>RED</p>", "response": "r", "stimulus-type": "congruent", "word": "red", "color": "red", "correct_response": "r", "trial_id": "stroop-trial-1-congruent-3", "trial_type": "html-keyboard-response", "trial_index": 9, "time_elapsed": 54004, "internal_node_id": "0.0-4.0-5.0"}}, {"uniqueid": "w73776195:a37705167", "current_trial": 10, "dateTime": 1664367981922, "trialdata": {"rt": 697, "stimulus": "<p id='stroop-text' class='stroop-red'>RED</p>", "response": "r", "stimulus-type": "congruent", "word": "red", "color": "red", "correct_response": "r", "trial_id": "stroop-trial-1-congruent-23", "trial_type": "html-keyboard-response", "trial_index": 10, "time_elapsed": 55204, "internal_node_id": "0.0-4.0-6.0"}}, {"uniqueid": "w73776195:a37705167", "current_trial": 11, "dateTime": 1664367983346, "trialdata": {"rt": 921, "stimulus": "<p id='stroop-text' class='stroop-blue'>YELLOW</p>", "response": "b", "stimulus-type": "incongruent", "word": "yellow", "color": "blue", "correct_response": "b", "trial_id": "stroop-trial-1-incongruent-17", "trial_type": "html-keyboard-response", "trial_index": 11, "time_elapsed": 56628, "internal_node_id": "0.0-4.0-7.0"}}, {"uniqueid": "w73776195:a37705167", "current_trial": 12, "dateTime": 1664367984833, "trialdata": {"rt": 984, "stimulus": "<p id='stroop-text' class='stroop-red'>BRAIN</p>", "response": "r", "stimulus-type": "unrelated", "word": "BRAIN", "color": "red", "correct_response": "r", "trial_id": "stroop-trial-1-unrelated-26", "trial_type": "html-keyboard-response", "trial_index": 12, "time_elapsed": 58116, "internal_node_id": "0.0-4.0-8.0"}}, {"uniqueid": "w73776195:a37705167", "current_trial": 13, "dateTime": 1664367986890, "trialdata": {"rt": 1552, "stimulus": "<p id='stroop-text' class='stroop-green'>YELLOW</p>", "response": "g", "stimulus-type": "incongruent", "word": "yellow", "color": "green", "correct_response": "g", "trial_id": "stroop-trial-1-incongruent-24", "trial_type": "html-keyboard-response", "trial_index": 13, "time_elapsed": 60172, "internal_node_id": "0.0-4.0-9.0"}}, {"uniqueid": "w73776195:a37705167", "current_trial": 14, "dateTime": 1664367988634, "trialdata": {"rt": 1241, "stimulus": "<p id='stroop-text' class='stroop-blue'>BLUE</p>", "response": "b", "stimulus-type": "congruent", "word": "blue", "color": "blue", "correct_response": "b", "trial_id": "stroop-trial-1-congruent-8", "trial_type": "html-keyboard-response", "trial_index": 14, "time_elapsed": 61916, "internal_node_id": "0.0-4.0-10.0"}}, {"uniqueid": "w73776195:a37705167", "current_trial": 15, "dateTime": 1664367990777, "trialdata": {"rt": 1640, "stimulus": "<p id='stroop-text' class='stroop-yellow'>BLUE</p>", "response": "y", "stimulus-type": "incongruent", "word": "blue", "color": "yellow", "correct_response": "y", "trial_id": "stroop-trial-1-incongruent-3", "trial_type": "html-keyboard-response", "trial_index": 15, "time_elapsed": 64060, "internal_node_id": "0.0-4.0-11.0"}}, {"uniqueid": "w73776195:a37705167", "current_trial": 16, "dateTime": 1664367992850, "trialdata": {"rt": 1570, "stimulus": "<p id='stroop-text' class='stroop-green'>BLUE</p>", "response": "g", "stimulus-type": "incongruent", "word": "blue", "color": "green", "correct_response": "g", "trial_id": "stroop-trial-1-incongruent-20", "trial_type": "html-keyboard-response", "trial_index": 16, "time_elapsed": 66132, "internal_node_id": "0.0-4.0-12.0"}}, {"uniqueid": "w73776195:a37705167", "current_trial": 17, "dateTime": 1664367994138, "trialdata": {"rt": 785, "stimulus": "<p id='stroop-text' class='stroop-green'>CHAIR</p>", "response": "g", "stimulus-type": "unrelated", "word": "CHAIR", "color": "green", "correct_response": "g", "trial_id": "stroop-trial-1-unrelated-20", "trial_type": "html-keyboard-response", "trial_index": 17, "time_elapsed": 67420, "internal_node_id": "0.0-4.0-13.0"}}, {"uniqueid": "w73776195:a37705167", "current_trial": 18, "dateTime": 1664367996097, "trialdata": {"rt": 1455, "stimulus": "<p id='stroop-text' class='stroop-blue'>BLUE</p>", "response": "b", "stimulus-type": "congruent", "word": "blue", "color": "blue", "correct_response": "b", "trial_id": "stroop-trial-1-congruent-10", "trial_type": "html-keyboard-response", "trial_index": 18, "time_elapsed": 69380, "internal_node_id": "0.0-4.0-14.0"}}, {"uniqueid": "w73776195:a37705167", "current_trial": 19, "dateTime": 1664367997601, "trialdata": {"rt": 1001, "stimulus": "<p id='stroop-text' class='stroop-red'>YELLOW</p>", "response": "r", "stimulus-type": "incongruent", "word": "yellow", "color": "red", "correct_response": "r", "trial_id": "stroop-trial-1-incongruent-26", "trial_type": "html-keyboard-response", "trial_index": 19, "time_elapsed": 70884, "internal_node_id": "0.0-4.0-15.0"}}, {"uniqueid": "w73776195:a37705167", "current_trial": 20, "dateTime": 1664367998905, "trialdata": {"rt": 800, "stimulus": "<p id='stroop-text' class='stroop-yellow'>STONE</p>", "response": "y", "stimulus-type": "unrelated", "word": "STONE", "color": "yellow", "correct_response": "y", "trial_id": "stroop-trial-1-unrelated-25", "trial_type": "html-keyboard-response", "trial_index": 20, "time_elapsed": 72188, "internal_node_id": "0.0-4.0-16.0"}}, {"uniqueid": "w73776195:a37705167", "current_trial": 21, "dateTime": 1664368000553, "trialdata": {"rt": 1144, "stimulus": "<p id='stroop-text' class='stroop-blue'>RED</p>", "response": "b", "stimulus-type": "incongruent", "word": "red", "color": "blue", "correct_response": "b", "trial_id": "stroop-trial-1-incongruent-29", "trial_type": "html-keyboard-response", "trial_index": 21, "time_elapsed": 73836, "internal_node_id": "0.0-4.0-17.0"}}, {"uniqueid": "w73776195:a37705167", "current_trial": 22, "dateTime": 1664368002129, "trialdata": {"rt": 1073, "stimulus": "<p id='stroop-text' class='stroop-yellow'>GREEN</p>", "response": "y", "stimulus-type": "incongruent", "word": "green", "color": "yellow", "correct_response": "y", "trial_id": "stroop-trial-1-incongruent-7", "trial_type": "html-keyboard-response", "trial_index": 22, "time_elapsed": 75412, "internal_node_id": "0.0-4.0-18.0"}}, {"uniqueid": "w73776195:a37705167", "current_trial": 23, "dateTime": 1664368003737, "trialdata": {"rt": 1105, "stimulus": "<p id='stroop-text' class='stroop-green'>FORK</p>", "response": "g", "stimulus-type": "unrelated", "word": "FORK", "color": "green", "correct_response": "g", "trial_id": "stroop-trial-1-unrelated-28", "trial_type": "html-keyboard-response", "trial_index": 23, "time_elapsed": 77020, "internal_node_id": "0.0-4.0-19.0"}}, {"uniqueid": "w73776195:a37705167", "current_trial": 24, "dateTime": 1664368006554, "trialdata": {"rt": 2313, "stimulus": "<p id='stroop-text' class='stroop-blue'>BLUE</p>", "response": "b", "stimulus-type": "congruent", "word": "blue", "color": "blue", "correct_response": "b", "trial_id": "stroop-trial-1-congruent-26", "trial_type": "html-keyboard-response", "trial_index": 24, "time_elapsed": 79836, "internal_node_id": "0.0-4.0-20.0"}}, {"uniqueid": "w73776195:a37705167", "current_trial": 25, "dateTime": 1664368007705, "trialdata": {"rt": 649, "stimulus": "<p id='stroop-text' class='stroop-blue'>CHAIR</p>", "response": "b", "stimulus-type": "unrelated", "word": "CHAIR", "color": "blue", "correct_response": "b", "trial_id": "stroop-trial-1-unrelated-6", "trial_type": "html-keyboard-response", "trial_index": 25, "time_elapsed": 80988, "internal_node_id": "0.0-4.0-21.0"}}, {"uniqueid": "w73776195:a37705167", "current_trial": 26, "dateTime": 1664368009617, "trialdata": {"rt": 1408, "stimulus": "<p id='stroop-text' class='stroop-yellow'>GREEN</p>", "response": "y", "stimulus-type": "incongruent", "word": "green", "color": "yellow", "correct_response": "y", "trial_id": "stroop-trial-1-incongruent-27", "trial_type": "html-keyboard-response", "trial_index": 26, "time_elapsed": 82900, "internal_node_id": "0.0-4.0-22.0"}}, {"uniqueid": "w73776195:a37705167", "current_trial": 27, "dateTime": 1664368010961, "trialdata": {"rt": 840, "stimulus": "<p id='stroop-text' class='stroop-yellow'>YELLOW</p>", "response": "y", "stimulus-type": "congruent", "word": "yellow", "color": "yellow", "correct_response": "y", "trial_id": "stroop-trial-1-congruent-11", "trial_type": "html-keyboard-response", "trial_index": 27, "time_elapsed": 84244, "internal_node_id": "0.0-4.0-23.0"}}, {"uniqueid": "w73776195:a37705167", "current_trial": 28, "dateTime": 1664368012249, "trialdata": {"rt": 784, "stimulus": "<p id='stroop-text' class='stroop-yellow'>GREEN</p>", "response": "y", "stimulus-type": "incongruent", "word": "green", "color": "yellow", "correct_response": "y", "trial_id": "stroop-trial-1-incongruent-15", "trial_type": "html-keyboard-response", "trial_index": 28, "time_elapsed": 85532, "internal_node_id": "0.0-4.0-24.0"}}, {"uniqueid": "w73776195:a37705167", "current_trial": 29, "dateTime": 1664368013337, "trialdata": {"rt": 584, "stimulus": "<p id='stroop-text' class='stroop-yellow'>SHIP</p>", "response": "y", "stimulus-type": "unrelated", "word": "SHIP", "color": "yellow", "correct_response": "y", "trial_id": "stroop-trial-1-unrelated-24", "trial_type": "html-keyboard-response", "trial_index": 29, "time_elapsed": 86620, "internal_node_id": "0.0-4.0-25.0"}}, {"uniqueid": "w73776195:a37705167", "current_trial": 30, "dateTime": 1664368014577, "trialdata": {"rt": 736, "stimulus": "<p id='stroop-text' class='stroop-red'>RED</p>", "response": "r", "stimulus-type": "congruent", "word": "red", "color": "red", "correct_response": "r", "trial_id": "stroop-trial-1-congruent-22", "trial_type": "html-keyboard-response", "trial_index": 30, "time_elapsed": 87860, "internal_node_id": "0.0-4.0-26.0"}}, {"uniqueid": "w73776195:a37705167", "current_trial": 31, "dateTime": 1664368016193, "trialdata": {"rt": 1113, "stimulus": "<p id='stroop-text' class='stroop-green'>MONKEY</p>", "response": "g", "stimulus-type": "unrelated", "word": "MONKEY", "color": "green", "correct_response": "g", "trial_id": "stroop-trial-1-unrelated-22", "trial_type": "html-keyboard-response", "trial_index": 31, "time_elapsed": 89476, "internal_node_id": "0.0-4.0-27.0"}}, {"uniqueid": "w73776195:a37705167", "current_trial": 32, "dateTime": 1664368017506, "trialdata": {"rt": 809, "stimulus": "<p id='stroop-text' class='stroop-red'>RED</p>", "response": "r", "stimulus-type": "congruent", "word": "red", "color": "red", "correct_response": "r", "trial_id": "stroop-trial-1-congruent-17", "trial_type": "html-keyboard-response", "trial_index": 32, "time_elapsed": 90788, "internal_node_id": "0.0-4.0-28.0"}}, {"uniqueid": "w73776195:a37705167", "current_trial": 33, "dateTime": 1664368018689, "trialdata": {"rt": 680, "stimulus": "<p id='stroop-text' class='stroop-green'>GREEN</p>", "response": "g", "stimulus-type": "congruent", "word": "green", "color": "green", "correct_response": "g", "trial_id": "stroop-trial-1-congruent-14", "trial_type": "html-keyboard-response", "trial_index": 33, "time_elapsed": 91972, "internal_node_id": "0.0-4.0-29.0"}}, {"uniqueid": "w73776195:a37705167", "current_trial": 34, "dateTime": 1664368019777, "trialdata": {"rt": 583, "stimulus": "<p id='stroop-text' class='stroop-green'>BRAIN</p>", "response": "r", "stimulus-type": "unrelated", "word": "BRAIN", "color": "green", "correct_response": "g", "trial_id": "stroop-trial-1-unrelated-2", "trial_type": "html-keyboard-response", "trial_index": 34, "time_elapsed": 93060, "internal_node_id": "0.0-4.0-30.0"}}, {"uniqueid": "w73776195:a37705167", "current_trial": 35, "dateTime": 1664368021433, "trialdata": {"rt": 1153, "stimulus": "<p id='stroop-text' class='stroop-blue'>BLUE</p>", "response": "b", "stimulus-type": "congruent", "word": "blue", "color": "blue", "correct_response": "b", "trial_id": "stroop-trial-1-congruent-6", "trial_type": "html-keyboard-response", "trial_index": 35, "time_elapsed": 94716, "internal_node_id": "0.0-4.0-31.0"}}, {"uniqueid": "w73776195:a37705167", "current_trial": 36, "dateTime": 1664368023097, "trialdata": {"rt": 1161, "stimulus": "<p id='stroop-text' class='stroop-blue'>BLUE</p>", "response": "b", "stimulus-type": "congruent", "word": "blue", "color": "blue", "correct_response": "b", "trial_id": "stroop-trial-1-congruent-4", "trial_type": "html-keyboard-response", "trial_index": 36, "time_elapsed": 96380, "internal_node_id": "0.0-4.0-32.0"}}, {"uniqueid": "w73776195:a37705167", "current_trial": 37, "dateTime": 1664368024257, "trialdata": {"rt": 656, "stimulus": "<p id='stroop-text' class='stroop-red'>RED</p>", "response": "r", "stimulus-type": "congruent", "word": "red", "color": "red", "correct_response": "r", "trial_id": "stroop-trial-1-congruent-19", "trial_type": "html-keyboard-response", "trial_index": 37, "time_elapsed": 97540, "internal_node_id": "0.0-4.0-33.0"}}, {"uniqueid": "w73776195:a37705167", "current_trial": 38, "dateTime": 1664368025609, "trialdata": {"rt": 849, "stimulus": "<p id='stroop-text' class='stroop-red'>GREEN</p>", "response": "r", "stimulus-type": "incongruent", "word": "green", "color": "red", "correct_response": "r", "trial_id": "stroop-trial-1-incongruent-22", "trial_type": "html-keyboard-response", "trial_index": 38, "time_elapsed": 98892, "internal_node_id": "0.0-4.0-34.0"}}, {"uniqueid": "w73776195:a37705167", "current_trial": 39, "dateTime": 1664368026705, "trialdata": {"rt": 592, "stimulus": "<p id='stroop-text' class='stroop-yellow'>DOG</p>", "response": "y", "stimulus-type": "unrelated", "word": "DOG", "color": "yellow", "correct_response": "y", "trial_id": "stroop-trial-1-unrelated-13", "trial_type": "html-keyboard-response", "trial_index": 39, "time_elapsed": 99988, "internal_node_id": "0.0-4.0-35.0"}}, {"uniqueid": "w73776195:a37705167", "current_trial": 40, "dateTime": 1664368028314, "trialdata": {"rt": 1105, "stimulus": "<p id='stroop-text' class='stroop-red'>YELLOW</p>", "response": "r", "stimulus-type": "incongruent", "word": "yellow", "color": "red", "correct_response": "r", "trial_id": "stroop-trial-1-incongruent-28", "trial_type": "html-keyboard-response", "trial_index": 40, "time_elapsed": 101596, "internal_node_id": "0.0-4.0-36.0"}}, {"uniqueid": "w73776195:a37705167", "current_trial": 41, "dateTime": 1664368029393, "trialdata": {"rt": 574, "stimulus": "<p id='stroop-text' class='stroop-red'>RED</p>", "response": "r", "stimulus-type": "congruent", "word": "red", "color": "red", "correct_response": "r", "trial_id": "stroop-trial-1-congruent-15", "trial_type": "html-keyboard-response", "trial_index": 41, "time_elapsed": 102676, "internal_node_id": "0.0-4.0-37.0"}}, {"uniqueid": "w73776195:a37705167", "current_trial": 42, "dateTime": 1664368030329, "trialdata": {"rt": 432, "stimulus": "<p id='stroop-text' class='stroop-red'>FORK</p>", "response": "r", "stimulus-type": "unrelated", "word": "FORK", "color": "red", "correct_response": "r", "trial_id": "stroop-trial-1-unrelated-16", "trial_type": "html-keyboard-response", "trial_index": 42, "time_elapsed": 103612, "internal_node_id": "0.0-4.0-38.0"}}, {"uniqueid": "w73776195:a37705167", "current_trial": 43, "dateTime": 1664368031273, "trialdata": {"rt": 441, "stimulus": "<p id='stroop-text' class='stroop-red'>YELLOW</p>", "response": "r", "stimulus-type": "incongruent", "word": "yellow", "color": "red", "correct_response": "r", "trial_id": "stroop-trial-1-incongruent-14", "trial_type": "html-keyboard-response", "trial_index": 43, "time_elapsed": 104556, "internal_node_id": "0.0-4.0-39.0"}}, {"uniqueid": "w73776195:a37705167", "current_trial": 44, "dateTime": 1664368032505, "trialdata": {"rt": 728, "stimulus": "<p id='stroop-text' class='stroop-green'>BOTTLE</p>", "response": "g", "stimulus-type": "unrelated", "word": "BOTTLE", "color": "green", "correct_response": "g", "trial_id": "stroop-trial-1-unrelated-5", "trial_type": "html-keyboard-response", "trial_index": 44, "time_elapsed": 105788, "internal_node_id": "0.0-4.0-40.0"}}, {"uniqueid": "w73776195:a37705167", "current_trial": 45, "dateTime": 1664368033785, "trialdata": {"rt": 777, "stimulus": "<p id='stroop-text' class='stroop-blue'>BRIDGE</p>", "response": "b", "stimulus-type": "unrelated", "word": "BRIDGE", "color": "blue", "correct_response": "b", "trial_id": "stroop-trial-1-unrelated-15", "trial_type": "html-keyboard-response", "trial_index": 45, "time_elapsed": 107068, "internal_node_id": "0.0-4.0-41.0"}}, {"uniqueid": "w73776195:a37705167", "current_trial": 46, "dateTime": 1664368034977, "trialdata": {"rt": 689, "stimulus": "<p id='stroop-text' class='stroop-green'>BRIDGE</p>", "response": "g", "stimulus-type": "unrelated", "word": "BRIDGE", "color": "green", "correct_response": "g", "trial_id": "stroop-trial-1-unrelated-4", "trial_type": "html-keyboard-response", "trial_index": 46, "time_elapsed": 108260, "internal_node_id": "0.0-4.0-42.0"}}, {"uniqueid": "w73776195:a37705167", "current_trial": 47, "dateTime": 1664368035945, "trialdata": {"rt": 465, "stimulus": "<p id='stroop-text' class='stroop-green'>GREEN</p>", "response": "g", "stimulus-type": "congruent", "word": "green", "color": "green", "correct_response": "g", "trial_id": "stroop-trial-1-congruent-9", "trial_type": "html-keyboard-response", "trial_index": 47, "time_elapsed": 109228, "internal_node_id": "0.0-4.0-43.0"}}, {"uniqueid": "w73776195:a37705167", "current_trial": 48, "dateTime": 1664368037449, "trialdata": {"rt": 999, "stimulus": "<p id='stroop-text' class='stroop-yellow'>MONKEY</p>", "response": "y", "stimulus-type": "unrelated", "word": "MONKEY", "color": "yellow", "correct_response": "y", "trial_id": "stroop-trial-1-unrelated-27", "trial_type": "html-keyboard-response", "trial_index": 48, "time_elapsed": 110732, "internal_node_id": "0.0-4.0-44.0"}}, {"uniqueid": "w73776195:a37705167", "current_trial": 49, "dateTime": 1664368038361, "trialdata": {"rt": 409, "stimulus": "<p id='stroop-text' class='stroop-yellow'>YELLOW</p>", "response": "y", "stimulus-type": "congruent", "word": "yellow", "color": "yellow", "correct_response": "y", "trial_id": "stroop-trial-1-congruent-20", "trial_type": "html-keyboard-response", "trial_index": 49, "time_elapsed": 111644, "internal_node_id": "0.0-4.0-45.0"}}, {"uniqueid": "w73776195:a37705167", "current_trial": 50, "dateTime": 1664368039313, "trialdata": {"rt": 448, "stimulus": "<p id='stroop-text' class='stroop-yellow'>YELLOW</p>", "response": "y", "stimulus-type": "congruent", "word": "yellow", "color": "yellow", "correct_response": "y", "trial_id": "stroop-trial-1-congruent-24", "trial_type": "html-keyboard-response", "trial_index": 50, "time_elapsed": 112596, "internal_node_id": "0.0-4.0-46.0"}}, {"uniqueid": "w73776195:a37705167", "current_trial": 51, "dateTime": 1664368040201, "trialdata": {"rt": 385, "stimulus": "<p id='stroop-text' class='stroop-yellow'>BRAIN</p>", "response": "y", "stimulus-type": "unrelated", "word": "BRAIN", "color": "yellow", "correct_response": "y", "trial_id": "stroop-trial-1-unrelated-29", "trial_type": "html-keyboard-response", "trial_index": 51, "time_elapsed": 113484, "internal_node_id": "0.0-4.0-47.0"}}, {"uniqueid": "w73776195:a37705167", "current_trial": 52, "dateTime": 1664368042265, "trialdata": {"rt": 1561, "stimulus": "<p id='stroop-text' class='stroop-blue'>GREEN</p>", "response": "b", "stimulus-type": "incongruent", "word": "green", "color": "blue", "correct_response": "b", "trial_id": "stroop-trial-1-incongruent-11", "trial_type": "html-keyboard-response", "trial_index": 52, "time_elapsed": 115548, "internal_node_id": "0.0-4.0-48.0"}}, {"uniqueid": "w73776195:a37705167", "current_trial": 53, "dateTime": 1664368043457, "trialdata": {"rt": 689, "stimulus": "<p id='stroop-text' class='stroop-blue'>YELLOW</p>", "response": "b", "stimulus-type": "incongruent", "word": "yellow", "color": "blue", "correct_response": "b", "trial_id": "stroop-trial-1-incongruent-6", "trial_type": "html-keyboard-response", "trial_index": 53, "time_elapsed": 116740, "internal_node_id": "0.0-4.0-49.0"}}, {"uniqueid": "w73776195:a37705167", "current_trial": 54, "dateTime": 1664368044489, "trialdata": {"rt": 527, "stimulus": "<p id='stroop-text' class='stroop-blue'>BLUE</p>", "response": "b", "stimulus-type": "congruent", "word": "blue", "color": "blue", "correct_response": "b", "trial_id": "stroop-trial-1-congruent-27", "trial_type": "html-keyboard-response", "trial_index": 54, "time_elapsed": 117772, "internal_node_id": "0.0-4.0-50.0"}}, {"uniqueid": "w73776195:a37705167", "current_trial": 55, "dateTime": 1664368045465, "trialdata": {"rt": 473, "stimulus": "<p id='stroop-text' class='stroop-blue'>BLUE</p>", "response": "b", "stimulus-type": "congruent", "word": "blue", "color": "blue", "correct_response": "b", "trial_id": "stroop-trial-1-congruent-25", "trial_type": "html-keyboard-response", "trial_index": 55, "time_elapsed": 118748, "internal_node_id": "0.0-4.0-51.0"}}, {"uniqueid": "w73776195:a37705167", "current_trial": 56, "dateTime": 1664368046505, "trialdata": {"rt": 537, "stimulus": "<p id='stroop-text' class='stroop-green'>YELLOW</p>", "response": "g", "stimulus-type": "incongruent", "word": "yellow", "color": "green", "correct_response": "g", "trial_id": "stroop-trial-1-incongruent-2", "trial_type": "html-keyboard-response", "trial_index": 56, "time_elapsed": 119788, "internal_node_id": "0.0-4.0-52.0"}}, {"uniqueid": "w73776195:a37705167", "current_trial": 57, "dateTime": 1664368047649, "trialdata": {"rt": 628, "stimulus": "<p id='stroop-text' class='stroop-blue'>BLUE</p>", "response": "b", "stimulus-type": "congruent", "word": "blue", "color": "blue", "correct_response": "b", "trial_id": "stroop-trial-1-congruent-30", "trial_type": "html-keyboard-response", "trial_index": 57, "time_elapsed": 120932, "internal_node_id": "0.0-4.0-53.0"}}, {"uniqueid": "w73776195:a37705167", "current_trial": 58, "dateTime": 1664368048873, "trialdata": {"rt": 721, "stimulus": "<p id='stroop-text' class='stroop-red'>GREEN</p>", "response": "r", "stimulus-type": "incongruent", "word": "green", "color": "red", "correct_response": "r", "trial_id": "stroop-trial-1-incongruent-21", "trial_type": "html-keyboard-response", "trial_index": 58, "time_elapsed": 122156, "internal_node_id": "0.0-4.0-54.0"}}, {"uniqueid": "w73776195:a37705167", "current_trial": 59, "dateTime": 1664368050473, "trialdata": {"rt": 1096, "stimulus": "<p id='stroop-text' class='stroop-blue'>MONKEY</p>", "response": "b", "stimulus-type": "unrelated", "word": "MONKEY", "color": "blue", "correct_response": "b", "trial_id": "stroop-trial-1-unrelated-3", "trial_type": "html-keyboard-response", "trial_index": 59, "time_elapsed": 123756, "internal_node_id": "0.0-4.0-55.0"}}, {"uniqueid": "w73776195:a37705167", "current_trial": 60, "dateTime": 1664368051601, "trialdata": {"rt": 625, "stimulus": "<p id='stroop-text' class='stroop-blue'>STONE</p>", "response": "b", "stimulus-type": "unrelated", "word": "STONE", "color": "blue", "correct_response": "b", "trial_id": "stroop-trial-1-unrelated-30", "trial_type": "html-keyboard-response", "trial_index": 60, "time_elapsed": 124884, "internal_node_id": "0.0-4.0-56.0"}}, {"uniqueid": "w73776195:a37705167", "current_trial": 61, "dateTime": 1664368052657, "trialdata": {"rt": 551, "stimulus": "<p id='stroop-text' class='stroop-red'>RED</p>", "response": "r", "stimulus-type": "congruent", "word": "red", "color": "red", "correct_response": "r", "trial_id": "stroop-trial-1-congruent-2", "trial_type": "html-keyboard-response", "trial_index": 61, "time_elapsed": 125940, "internal_node_id": "0.0-4.0-57.0"}}, {"uniqueid": "w73776195:a37705167", "current_trial": 62, "dateTime": 1664368053833, "trialdata": {"rt": 671, "stimulus": "<p id='stroop-text' class='stroop-green'>RED</p>", "response": "g", "stimulus-type": "incongruent", "word": "red", "color": "green", "correct_response": "g", "trial_id": "stroop-trial-1-incongruent-30", "trial_type": "html-keyboard-response", "trial_index": 62, "time_elapsed": 127116, "internal_node_id": "0.0-4.0-58.0"}}, {"uniqueid": "w73776195:a37705167", "current_trial": 63, "dateTime": 1664368054849, "trialdata": {"rt": 512, "stimulus": "<p id='stroop-text' class='stroop-red'>BRIDGE</p>", "response": "r", "stimulus-type": "unrelated", "word": "BRIDGE", "color": "red", "correct_response": "r", "trial_id": "stroop-trial-1-unrelated-11", "trial_type": "html-keyboard-response", "trial_index": 63, "time_elapsed": 128132, "internal_node_id": "0.0-4.0-59.0"}}, {"uniqueid": "w73776195:a37705167", "current_trial": 64, "dateTime": 1664368055721, "trialdata": {"rt": 369, "stimulus": "<p id='stroop-text' class='stroop-green'>RED</p>", "response": "g", "stimulus-type": "incongruent", "word": "red", "color": "green", "correct_response": "g", "trial_id": "stroop-trial-1-incongruent-1", "trial_type": "html-keyboard-response", "trial_index": 64, "time_elapsed": 129004, "internal_node_id": "0.0-4.0-60.0"}}, {"uniqueid": "w73776195:a37705167", "current_trial": 65, "dateTime": 1664368056857, "trialdata": {"rt": 632, "stimulus": "<p id='stroop-text' class='stroop-yellow'>YELLOW</p>", "response": "y", "stimulus-type": "congruent", "word": "yellow", "color": "yellow", "correct_response": "y", "trial_id": "stroop-trial-1-congruent-12", "trial_type": "html-keyboard-response", "trial_index": 65, "time_elapsed": 130140, "internal_node_id": "0.0-4.0-61.0"}}, {"uniqueid": "w73776195:a37705167", "current_trial": 66, "dateTime": 1664368058105, "trialdata": {"rt": 745, "stimulus": "<p id='stroop-text' class='stroop-red'>BRIDGE</p>", "response": "r", "stimulus-type": "unrelated", "word": "BRIDGE", "color": "red", "correct_response": "r", "trial_id": "stroop-trial-1-unrelated-18", "trial_type": "html-keyboard-response", "trial_index": 66, "time_elapsed": 131388, "internal_node_id": "0.0-4.0-62.0"}}, {"uniqueid": "w73776195:a37705167", "current_trial": 67, "dateTime": 1664368059153, "trialdata": {"rt": 542, "stimulus": "<p id='stroop-text' class='stroop-blue'>YELLOW</p>", "response": "b", "stimulus-type": "incongruent", "word": "yellow", "color": "blue", "correct_response": "b", "trial_id": "stroop-trial-1-incongruent-13", "trial_type": "html-keyboard-response", "trial_index": 67, "time_elapsed": 132436, "internal_node_id": "0.0-4.0-63.0"}}, {"uniqueid": "w73776195:a37705167", "current_trial": 68, "dateTime": 1664368060337, "trialdata": {"rt": 680, "stimulus": "<p id='stroop-text' class='stroop-yellow'>MONKEY</p>", "response": "y", "stimulus-type": "unrelated", "word": "MONKEY", "color": "yellow", "correct_response": "y", "trial_id": "stroop-trial-1-unrelated-19", "trial_type": "html-keyboard-response", "trial_index": 68, "time_elapsed": 133620, "internal_node_id": "0.0-4.0-64.0"}}, {"uniqueid": "w73776195:a37705167", "current_trial": 69, "dateTime": 1664368061385, "trialdata": {"rt": 545, "stimulus": "<p id='stroop-text' class='stroop-red'>WINDOW</p>", "response": "r", "stimulus-type": "unrelated", "word": "WINDOW", "color": "red", "correct_response": "r", "trial_id": "stroop-trial-1-unrelated-8", "trial_type": "html-keyboard-response", "trial_index": 69, "time_elapsed": 134668, "internal_node_id": "0.0-4.0-65.0"}}, {"uniqueid": "w73776195:a37705167", "current_trial": 70, "dateTime": 1664368062793, "trialdata": {"rt": 905, "stimulus": "<p id='stroop-text' class='stroop-yellow'>YELLOW</p>", "response": "b", "stimulus-type": "congruent", "word": "yellow", "color": "yellow", "correct_response": "y", "trial_id": "stroop-trial-1-congruent-5", "trial_type": "html-keyboard-response", "trial_index": 70, "time_elapsed": 136076, "internal_node_id": "0.0-4.0-66.0"}}, {"uniqueid": "w73776195:a37705167", "current_trial": 71, "dateTime": 1664368064193, "trialdata": {"rt": 895, "stimulus": "<p id='stroop-text' class='stroop-blue'>WINDOW</p>", "response": "b", "stimulus-type": "unrelated", "word": "WINDOW", "color": "blue", "correct_response": "b", "trial_id": "stroop-trial-1-unrelated-9", "trial_type": "html-keyboard-response", "trial_index": 71, "time_elapsed": 137476, "internal_node_id": "0.0-4.0-67.0"}}, {"uniqueid": "w73776195:a37705167", "current_trial": 72, "dateTime": 1664368065393, "trialdata": {"rt": 696, "stimulus": "<p id='stroop-text' class='stroop-green'>GREEN</p>", "response": "g", "stimulus-type": "congruent", "word": "green", "color": "green", "correct_response": "g", "trial_id": "stroop-trial-1-congruent-16", "trial_type": "html-keyboard-response", "trial_index": 72, "time_elapsed": 138676, "internal_node_id": "0.0-4.0-68.0"}}, {"uniqueid": "w73776195:a37705167", "current_trial": 73, "dateTime": 1664368066585, "trialdata": {"rt": 687, "stimulus": "<p id='stroop-text' class='stroop-yellow'>YELLOW</p>", "response": "y", "stimulus-type": "congruent", "word": "yellow", "color": "yellow", "correct_response": "y", "trial_id": "stroop-trial-1-congruent-1", "trial_type": "html-keyboard-response", "trial_index": 73, "time_elapsed": 139868, "internal_node_id": "0.0-4.0-69.0"}}, {"uniqueid": "w73776195:a37705167", "current_trial": 74, "dateTime": 1664368068073, "trialdata": {"rt": 985, "stimulus": "<p id='stroop-text' class='stroop-blue'>DOG</p>", "response": "b", "stimulus-type": "unrelated", "word": "DOG", "color": "blue", "correct_response": "b", "trial_id": "stroop-trial-1-unrelated-7", "trial_type": "html-keyboard-response", "trial_index": 74, "time_elapsed": 141356, "internal_node_id": "0.0-4.0-70.0"}}, {"uniqueid": "w73776195:a37705167", "current_trial": 75, "dateTime": 1664368069345, "trialdata": {"rt": 769, "stimulus": "<p id='stroop-text' class='stroop-yellow'>YELLOW</p>", "response": "y", "stimulus-type": "congruent", "word": "yellow", "color": "yellow", "correct_response": "y", "trial_id": "stroop-trial-1-congruent-29", "trial_type": "html-keyboard-response", "trial_index": 75, "time_elapsed": 142628, "internal_node_id": "0.0-4.0-71.0"}}, {"uniqueid": "w73776195:a37705167", "current_trial": 76, "dateTime": 1664368070777, "trialdata": {"rt": 928, "stimulus": "<p id='stroop-text' class='stroop-blue'>BLUE</p>", "response": "b", "stimulus-type": "congruent", "word": "blue", "color": "blue", "correct_response": "b", "trial_id": "stroop-trial-1-congruent-13", "trial_type": "html-keyboard-response", "trial_index": 76, "time_elapsed": 144060, "internal_node_id": "0.0-4.0-72.0"}}, {"uniqueid": "w73776195:a37705167", "current_trial": 77, "dateTime": 1664368073065, "trialdata": {"rt": 1784, "stimulus": "<p id='stroop-text' class='stroop-green'>GREEN</p>", "response": "g", "stimulus-type": "congruent", "word": "green", "color": "green", "correct_response": "g", "trial_id": "stroop-trial-1-congruent-21", "trial_type": "html-keyboard-response", "trial_index": 77, "time_elapsed": 146347, "internal_node_id": "0.0-4.0-73.0"}}, {"uniqueid": "w73776195:a37705167", "current_trial": 78, "dateTime": 1664368074825, "trialdata": {"rt": 1257, "stimulus": "<p id='stroop-text' class='stroop-yellow'>RED</p>", "response": "r", "stimulus-type": "incongruent", "word": "red", "color": "yellow", "correct_response": "y", "trial_id": "stroop-trial-1-incongruent-25", "trial_type": "html-keyboard-response", "trial_index": 78, "time_elapsed": 148108, "internal_node_id": "0.0-4.0-74.0"}}, {"uniqueid": "w73776195:a37705167", "current_trial": 79, "dateTime": 1664368075897, "trialdata": {"rt": 568, "stimulus": "<p id='stroop-text' class='stroop-yellow'>YELLOW</p>", "response": "y", "stimulus-type": "congruent", "word": "yellow", "color": "yellow", "correct_response": "y", "trial_id": "stroop-trial-1-congruent-7", "trial_type": "html-keyboard-response", "trial_index": 79, "time_elapsed": 149179, "internal_node_id": "0.0-4.0-75.0"}}, {"uniqueid": "w73776195:a37705167", "current_trial": 80, "dateTime": 1664368077417, "trialdata": {"rt": 1017, "stimulus": "<p id='stroop-text' class='stroop-green'>FORK</p>", "response": "g", "stimulus-type": "unrelated", "word": "FORK", "color": "green", "correct_response": "g", "trial_id": "stroop-trial-1-unrelated-23", "trial_type": "html-keyboard-response", "trial_index": 80, "time_elapsed": 150699, "internal_node_id": "0.0-4.0-76.0"}}, {"uniqueid": "w73776195:a37705167", "current_trial": 81, "dateTime": 1664368078553, "trialdata": {"rt": 632, "stimulus": "<p id='stroop-text' class='stroop-red'>BLUE</p>", "response": "r", "stimulus-type": "incongruent", "word": "blue", "color": "red", "correct_response": "r", "trial_id": "stroop-trial-1-incongruent-5", "trial_type": "html-keyboard-response", "trial_index": 81, "time_elapsed": 151836, "internal_node_id": "0.0-4.0-77.0"}}, {"uniqueid": "w73776195:a37705167", "current_trial": 82, "dateTime": 1664368080169, "trialdata": {"rt": 1111, "stimulus": "<p id='stroop-text' class='stroop-blue'>RED</p>", "response": "b", "stimulus-type": "incongruent", "word": "red", "color": "blue", "correct_response": "b", "trial_id": "stroop-trial-1-incongruent-4", "trial_type": "html-keyboard-response", "trial_index": 82, "time_elapsed": 153452, "internal_node_id": "0.0-4.0-78.0"}}, {"uniqueid": "w73776195:a37705167", "current_trial": 83, "dateTime": 1664368081881, "trialdata": {"rt": 1209, "stimulus": "<p id='stroop-text' class='stroop-yellow'>YELLOW</p>", "response": "y", "stimulus-type": "congruent", "word": "yellow", "color": "yellow", "correct_response": "y", "trial_id": "stroop-trial-1-congruent-28", "trial_type": "html-keyboard-response", "trial_index": 83, "time_elapsed": 155163, "internal_node_id": "0.0-4.0-79.0"}}, {"uniqueid": "w73776195:a37705167", "current_trial": 84, "dateTime": 1664368083809, "trialdata": {"rt": 1425, "stimulus": "<p id='stroop-text' class='stroop-blue'>BRAIN</p>", "response": "b", "stimulus-type": "unrelated", "word": "BRAIN", "color": "blue", "correct_response": "b", "trial_id": "stroop-trial-1-unrelated-21", "trial_type": "html-keyboard-response", "trial_index": 84, "time_elapsed": 157092, "internal_node_id": "0.0-4.0-80.0"}}, {"uniqueid": "w73776195:a37705167", "current_trial": 85, "dateTime": 1664368085505, "trialdata": {"rt": 1192, "stimulus": "<p id='stroop-text' class='stroop-green'>BLUE</p>", "response": "g", "stimulus-type": "incongruent", "word": "blue", "color": "green", "correct_response": "g", "trial_id": "stroop-trial-1-incongruent-10", "trial_type": "html-keyboard-response", "trial_index": 85, "time_elapsed": 158788, "internal_node_id": "0.0-4.0-81.0"}}, {"uniqueid": "w73776195:a37705167", "current_trial": 86, "dateTime": 1664368086769, "trialdata": {"rt": 761, "stimulus": "<p id='stroop-text' class='stroop-yellow'>BLUE</p>", "response": "y", "stimulus-type": "incongruent", "word": "blue", "color": "yellow", "correct_response": "y", "trial_id": "stroop-trial-1-incongruent-19", "trial_type": "html-keyboard-response", "trial_index": 86, "time_elapsed": 160051, "internal_node_id": "0.0-4.0-82.0"}}, {"uniqueid": "w73776195:a37705167", "current_trial": 87, "dateTime": 1664368087897, "trialdata": {"rt": 625, "stimulus": "<p id='stroop-text' class='stroop-yellow'>RED</p>", "response": "y", "stimulus-type": "incongruent", "word": "red", "color": "yellow", "correct_response": "y", "trial_id": "stroop-trial-1-incongruent-12", "trial_type": "html-keyboard-response", "trial_index": 87, "time_elapsed": 161179, "internal_node_id": "0.0-4.0-83.0"}}, {"uniqueid": "w73776195:a37705167", "current_trial": 88, "dateTime": 1664368088865, "trialdata": {"rt": 465, "stimulus": "<p id='stroop-text' class='stroop-yellow'>YELLOW</p>", "response": "y", "stimulus-type": "congruent", "word": "yellow", "color": "yellow", "correct_response": "y", "trial_id": "stroop-trial-1-congruent-18", "trial_type": "html-keyboard-response", "trial_index": 88, "time_elapsed": 162147, "internal_node_id": "0.0-4.0-84.0"}}, {"uniqueid": "w73776195:a37705167", "current_trial": 89, "dateTime": 1664368090009, "trialdata": {"rt": 641, "stimulus": "<p id='stroop-text' class='stroop-green'>BLUE</p>", "response": "g", "stimulus-type": "incongruent", "word": "blue", "color": "green", "correct_response": "g", "trial_id": "stroop-trial-1-incongruent-16", "trial_type": "html-keyboard-response", "trial_index": 89, "time_elapsed": 163291, "internal_node_id": "0.0-4.0-85.0"}}, {"uniqueid": "w73776195:a37705167", "current_trial": 90, "dateTime": 1664368090993, "trialdata": {"rt": 481, "stimulus": "<p id='stroop-text' class='stroop-blue'>BOAT</p>", "response": "b", "stimulus-type": "unrelated", "word": "BOAT", "color": "blue", "correct_response": "b", "trial_id": "stroop-trial-1-unrelated-1", "trial_type": "html-keyboard-response", "trial_index": 90, "time_elapsed": 164276, "internal_node_id": "0.0-4.0-86.0"}}, {"uniqueid": "w73776195:a37705167", "current_trial": 91, "dateTime": 1664368092041, "trialdata": {"rt": 544, "stimulus": "<p id='stroop-text' class='stroop-blue'>CHAIR</p>", "response": "b", "stimulus-type": "unrelated", "word": "CHAIR", "color": "blue", "correct_response": "b", "trial_id": "stroop-trial-1-unrelated-12", "trial_type": "html-keyboard-response", "trial_index": 91, "time_elapsed": 165323, "internal_node_id": "0.0-4.0-87.0"}}, {"uniqueid": "w73776195:a37705167", "current_trial": 92, "dateTime": 1664368093025, "trialdata": {"rt": 480, "stimulus": "<p id='stroop-text' class='stroop-red'>BOAT</p>", "response": "r", "stimulus-type": "unrelated", "word": "BOAT", "color": "red", "correct_response": "r", "trial_id": "stroop-trial-1-unrelated-10", "trial_type": "html-keyboard-response", "trial_index": 92, "time_elapsed": 166307, "internal_node_id": "0.0-4.0-88.0"}}, {"uniqueid": "w73776195:a37705167", "current_trial": 93, "dateTime": 1664368094201, "trialdata": {"rt": 670, "stimulus": "<p id='stroop-text' class='stroop-blue'>RED</p>", "response": "b", "stimulus-type": "incongruent", "word": "red", "color": "blue", "correct_response": "b", "trial_id": "stroop-trial-1-incongruent-8", "trial_type": "html-keyboard-response", "trial_index": 93, "time_elapsed": 167483, "internal_node_id": "0.0-4.0-89.0"}}, {"uniqueid": "w73776195:a37705167", "current_trial": 94, "dateTime": 1664368102176, "trialdata": {"rt": 7470, "stimulus": "  <h1> End of block! </h1>\n\n  You have reached the end of the block 1/5. If you need a short break, feel free to take one now before moving on.\n\n  <br><br>\n  In the next block, you will complete another 90 rounds of this game.\n\n  <br><br>\n  <div style='text-align: center;'>Press <code>space</code> to begin.</div>\n  <br><br>\n<div style='text-align: center;'>(If the experiment doesn't continue, try clicking on the text and then pressing <code>space</code>.)</div>", "response": " ", "trial_id": "stroop_1_ready_2", "trial_type": "html-keyboard-response", "trial_index": 94, "time_elapsed": 175459, "internal_node_id": "0.0-5.0"}}, {"uniqueid": "w73776195:a37705167", "current_trial": 95, "dateTime": 1664368102848, "trialdata": {"rt": 668, "stimulus": "<p id='stroop-text' class='stroop-red'>BRAIN</p>", "response": "r", "stimulus-type": "unrelated", "word": "BRAIN", "color": "red", "correct_response": "r", "trial_id": "stroop-trial-1-unrelated-24", "trial_type": "html-keyboard-response", "trial_index": 95, "time_elapsed": 176131, "internal_node_id": "0.0-6.0-0.0"}}, {"uniqueid": "w73776195:a37705167", "current_trial": 96, "dateTime": 1664368104168, "trialdata": {"rt": 816, "stimulus": "<p id='stroop-text' class='stroop-blue'>GREEN</p>", "response": "b", "stimulus-type": "incongruent", "word": "green", "color": "blue", "correct_response": "b", "trial_id": "stroop-trial-1-incongruent-24", "trial_type": "html-keyboard-response", "trial_index": 96, "time_elapsed": 177451, "internal_node_id": "0.0-6.0-1.0"}}, {"uniqueid": "w73776195:a37705167", "current_trial": 97, "dateTime": 1664368105096, "trialdata": {"rt": 424, "stimulus": "<p id='stroop-text' class='stroop-blue'>DOG</p>", "response": "b", "stimulus-type": "unrelated", "word": "DOG", "color": "blue", "correct_response": "b", "trial_id": "stroop-trial-1-unrelated-28", "trial_type": "html-keyboard-response", "trial_index": 97, "time_elapsed": 178379, "internal_node_id": "0.0-6.0-2.0"}}, {"uniqueid": "w73776195:a37705167", "current_trial": 98, "dateTime": 1664368105976, "trialdata": {"rt": 375, "stimulus": "<p id='stroop-text' class='stroop-blue'>GREEN</p>", "response": "b", "stimulus-type": "incongruent", "word": "green", "color": "blue", "correct_response": "b", "trial_id": "stroop-trial-1-incongruent-13", "trial_type": "html-keyboard-response", "trial_index": 98, "time_elapsed": 179259, "internal_node_id": "0.0-6.0-3.0"}}, {"uniqueid": "w73776195:a37705167", "current_trial": 99, "dateTime": 1664368106864, "trialdata": {"rt": 384, "stimulus": "<p id='stroop-text' class='stroop-blue'>RED</p>", "response": "b", "stimulus-type": "incongruent", "word": "red", "color": "blue", "correct_response": "b", "trial_id": "stroop-trial-1-incongruent-10", "trial_type": "html-keyboard-response", "trial_index": 99, "time_elapsed": 180147, "internal_node_id": "0.0-6.0-4.0"}}, {"uniqueid": "w73776195:a37705167", "current_trial": 100, "dateTime": 1664368107936, "trialdata": {"rt": 568, "stimulus": "<p id='stroop-text' class='stroop-yellow'>GREEN</p>", "response": "y", "stimulus-type": "incongruent", "word": "green", "color": "yellow", "correct_response": "y", "trial_id": "stroop-trial-1-incongruent-6", "trial_type": "html-keyboard-response", "trial_index": 100, "time_elapsed": 181219, "internal_node_id": "0.0-6.0-5.0"}}, {"uniqueid": "w73776195:a37705167", "current_trial": 101, "dateTime": 1664368109000, "trialdata": {"rt": 560, "stimulus": "<p id='stroop-text' class='stroop-red'>RED</p>", "response": "r", "stimulus-type": "congruent", "word": "red", "color": "red", "correct_response": "r", "trial_id": "stroop-trial-1-congruent-19", "trial_type": "html-keyboard-response", "trial_index": 101, "time_elapsed": 182283, "internal_node_id": "0.0-6.0-6.0"}}, {"uniqueid": "w73776195:a37705167", "current_trial": 102, "dateTime": 1664368110008, "trialdata": {"rt": 505, "stimulus": "<p id='stroop-text' class='stroop-blue'>MONKEY</p>", "response": "b", "stimulus-type": "unrelated", "word": "MONKEY", "color": "blue", "correct_response": "b", "trial_id": "stroop-trial-1-unrelated-18", "trial_type": "html-keyboard-response", "trial_index": 102, "time_elapsed": 183291, "internal_node_id": "0.0-6.0-7.0"}}, {"uniqueid": "w73776195:a37705167", "current_trial": 103, "dateTime": 1664368111008, "trialdata": {"rt": 490, "stimulus": "<p id='stroop-text' class='stroop-red'>RED</p>", "response": "r", "stimulus-type": "congruent", "word": "red", "color": "red", "correct_response": "r", "trial_id": "stroop-trial-1-congruent-26", "trial_type": "html-keyboard-response", "trial_index": 103, "time_elapsed": 184291, "internal_node_id": "0.0-6.0-8.0"}}, {"uniqueid": "w73776195:a37705167", "current_trial": 104, "dateTime": 1664368112120, "trialdata": {"rt": 600, "stimulus": "<p id='stroop-text' class='stroop-red'>BLUE</p>", "response": "r", "stimulus-type": "incongruent", "word": "blue", "color": "red", "correct_response": "r", "trial_id": "stroop-trial-1-incongruent-28", "trial_type": "html-keyboard-response", "trial_index": 104, "time_elapsed": 185403, "internal_node_id": "0.0-6.0-9.0"}}, {"uniqueid": "w73776195:a37705167", "current_trial": 105, "dateTime": 1664368113713, "trialdata": {"rt": 1089, "stimulus": "<p id='stroop-text' class='stroop-blue'>GREEN</p>", "response": "b", "stimulus-type": "incongruent", "word": "green", "color": "blue", "correct_response": "b", "trial_id": "stroop-trial-1-incongruent-21", "trial_type": "html-keyboard-response", "trial_index": 105, "time_elapsed": 186995, "internal_node_id": "0.0-6.0-10.0"}}, {"uniqueid": "w73776195:a37705167", "current_trial": 106, "dateTime": 1664368114816, "trialdata": {"rt": 600, "stimulus": "<p id='stroop-text' class='stroop-yellow'>BOAT</p>", "response": "y", "stimulus-type": "unrelated", "word": "BOAT", "color": "yellow", "correct_response": "y", "trial_id": "stroop-trial-1-unrelated-26", "trial_type": "html-keyboard-response", "trial_index": 106, "time_elapsed": 188099, "internal_node_id": "0.0-6.0-11.0"}}, {"uniqueid": "w73776195:a37705167", "current_trial": 107, "dateTime": 1664368115920, "trialdata": {"rt": 601, "stimulus": "<p id='stroop-text' class='stroop-red'>BLUE</p>", "response": "r", "stimulus-type": "incongruent", "word": "blue", "color": "red", "correct_response": "r", "trial_id": "stroop-trial-1-incongruent-7", "trial_type": "html-keyboard-response", "trial_index": 107, "time_elapsed": 189203, "internal_node_id": "0.0-6.0-12.0"}}, {"uniqueid": "w73776195:a37705167", "current_trial": 108, "dateTime": 1664368116880, "trialdata": {"rt": 456, "stimulus": "<p id='stroop-text' class='stroop-red'>BOAT</p>", "response": "r", "stimulus-type": "unrelated", "word": "BOAT", "color": "red", "correct_response": "r", "trial_id": "stroop-trial-1-unrelated-7", "trial_type": "html-keyboard-response", "trial_index": 108, "time_elapsed": 190163, "internal_node_id": "0.0-6.0-13.0"}}, {"uniqueid": "w73776195:a37705167", "current_trial": 109, "dateTime": 1664368117800, "trialdata": {"rt": 417, "stimulus": "<p id='stroop-text' class='stroop-blue'>GREEN</p>", "response": "b", "stimulus-type": "incongruent", "word": "green", "color": "blue", "correct_response": "b", "trial_id": "stroop-trial-1-incongruent-25", "trial_type": "html-keyboard-response", "trial_index": 109, "time_elapsed": 191083, "internal_node_id": "0.0-6.0-14.0"}}, {"uniqueid": "w73776195:a37705167", "current_trial": 110, "dateTime": 1664368118720, "trialdata": {"rt": 416, "stimulus": "<p id='stroop-text' class='stroop-blue'>BRIDGE</p>", "response": "b", "stimulus-type": "unrelated", "word": "BRIDGE", "color": "blue", "correct_response": "b", "trial_id": "stroop-trial-1-unrelated-15", "trial_type": "html-keyboard-response", "trial_index": 110, "time_elapsed": 192003, "internal_node_id": "0.0-6.0-15.0"}}, {"uniqueid": "w73776195:a37705167", "current_trial": 111, "dateTime": 1664368119800, "trialdata": {"rt": 576, "stimulus": "<p id='stroop-text' class='stroop-red'>RED</p>", "response": "r", "stimulus-type": "congruent", "word": "red", "color": "red", "correct_response": "r", "trial_id": "stroop-trial-1-congruent-11", "trial_type": "html-keyboard-response", "trial_index": 111, "time_elapsed": 193083, "internal_node_id": "0.0-6.0-16.0"}}, {"uniqueid": "w73776195:a37705167", "current_trial": 112, "dateTime": 1664368121048, "trialdata": {"rt": 744, "stimulus": "<p id='stroop-text' class='stroop-yellow'>STONE</p>", "response": "y", "stimulus-type": "unrelated", "word": "STONE", "color": "yellow", "correct_response": "y", "trial_id": "stroop-trial-1-unrelated-17", "trial_type": "html-keyboard-response", "trial_index": 112, "time_elapsed": 194331, "internal_node_id": "0.0-6.0-17.0"}}, {"uniqueid": "w73776195:a37705167", "current_trial": 113, "dateTime": 1664368122408, "trialdata": {"rt": 857, "stimulus": "<p id='stroop-text' class='stroop-green'>STONE</p>", "response": "g", "stimulus-type": "unrelated", "word": "STONE", "color": "green", "correct_response": "g", "trial_id": "stroop-trial-1-unrelated-23", "trial_type": "html-keyboard-response", "trial_index": 113, "time_elapsed": 195691, "internal_node_id": "0.0-6.0-18.0"}}, {"uniqueid": "w73776195:a37705167", "current_trial": 114, "dateTime": 1664368123777, "trialdata": {"rt": 865, "stimulus": "<p id='stroop-text' class='stroop-yellow'>RED</p>", "response": "y", "stimulus-type": "incongruent", "word": "red", "color": "yellow", "correct_response": "y", "trial_id": "stroop-trial-1-incongruent-11", "trial_type": "html-keyboard-response", "trial_index": 114, "time_elapsed": 197059, "internal_node_id": "0.0-6.0-19.0"}}, {"uniqueid": "w73776195:a37705167", "current_trial": 115, "dateTime": 1664368124936, "trialdata": {"rt": 656, "stimulus": "<p id='stroop-text' class='stroop-red'>STONE</p>", "response": "r", "stimulus-type": "unrelated", "word": "STONE", "color": "red", "correct_response": "r", "trial_id": "stroop-trial-1-unrelated-3", "trial_type": "html-keyboard-response", "trial_index": 115, "time_elapsed": 198219, "internal_node_id": "0.0-6.0-20.0"}}, {"uniqueid": "w73776195:a37705167", "current_trial": 116, "dateTime": 1664368126528, "trialdata": {"rt": 1089, "stimulus": "<p id='stroop-text' class='stroop-blue'>RED</p>", "response": "b", "stimulus-type": "incongruent", "word": "red", "color": "blue", "correct_response": "b", "trial_id": "stroop-trial-1-incongruent-17", "trial_type": "html-keyboard-response", "trial_index": 116, "time_elapsed": 199811, "internal_node_id": "0.0-6.0-21.0"}}, {"uniqueid": "w73776195:a37705167", "current_trial": 117, "dateTime": 1664368127417, "trialdata": {"rt": 374, "stimulus": "<p id='stroop-text' class='stroop-blue'>BOAT</p>", "response": "b", "stimulus-type": "unrelated", "word": "BOAT", "color": "blue", "correct_response": "b", "trial_id": "stroop-trial-1-unrelated-14", "trial_type": "html-keyboard-response", "trial_index": 117, "time_elapsed": 200699, "internal_node_id": "0.0-6.0-22.0"}}, {"uniqueid": "w73776195:a37705167", "current_trial": 118, "dateTime": 1664368128424, "trialdata": {"rt": 502, "stimulus": "<p id='stroop-text' class='stroop-yellow'>YELLOW</p>", "response": "y", "stimulus-type": "congruent", "word": "yellow", "color": "yellow", "correct_response": "y", "trial_id": "stroop-trial-1-congruent-15", "trial_type": "html-keyboard-response", "trial_index": 118, "time_elapsed": 201707, "internal_node_id": "0.0-6.0-23.0"}}, {"uniqueid": "w73776195:a37705167", "current_trial": 119, "dateTime": 1664368129560, "trialdata": {"rt": 632, "stimulus": "<p id='stroop-text' class='stroop-red'>BOTTLE</p>", "response": "r", "stimulus-type": "unrelated", "word": "BOTTLE", "color": "red", "correct_response": "r", "trial_id": "stroop-trial-1-unrelated-22", "trial_type": "html-keyboard-response", "trial_index": 119, "time_elapsed": 202843, "internal_node_id": "0.0-6.0-24.0"}}, {"uniqueid": "w73776195:a37705167", "current_trial": 120, "dateTime": 1664368130488, "trialdata": {"rt": 424, "stimulus": "<p id='stroop-text' class='stroop-red'>DOG</p>", "response": "r", "stimulus-type": "unrelated", "word": "DOG", "color": "red", "correct_response": "r", "trial_id": "stroop-trial-1-unrelated-27", "trial_type": "html-keyboard-response", "trial_index": 120, "time_elapsed": 203771, "internal_node_id": "0.0-6.0-25.0"}}, {"uniqueid": "w73776195:a37705167", "current_trial": 121, "dateTime": 1664368131408, "trialdata": {"rt": 415, "stimulus": "<p id='stroop-text' class='stroop-yellow'>RED</p>", "response": "r", "stimulus-type": "incongruent", "word": "red", "color": "yellow", "correct_response": "y", "trial_id": "stroop-trial-1-incongruent-5", "trial_type": "html-keyboard-response", "trial_index": 121, "time_elapsed": 204691, "internal_node_id": "0.0-6.0-26.0"}}, {"uniqueid": "w73776195:a37705167", "current_trial": 122, "dateTime": 1664368133064, "trialdata": {"rt": 1152, "stimulus": "<p id='stroop-text' class='stroop-blue'>GREEN</p>", "response": "b", "stimulus-type": "incongruent", "word": "green", "color": "blue", "correct_response": "b", "trial_id": "stroop-trial-1-incongruent-9", "trial_type": "html-keyboard-response", "trial_index": 122, "time_elapsed": 206347, "internal_node_id": "0.0-6.0-27.0"}}, {"uniqueid": "w73776195:a37705167", "current_trial": 123, "dateTime": 1664368133960, "trialdata": {"rt": 393, "stimulus": "<p id='stroop-text' class='stroop-blue'>GREEN</p>", "response": "b", "stimulus-type": "incongruent", "word": "green", "color": "blue", "correct_response": "b", "trial_id": "stroop-trial-1-incongruent-30", "trial_type": "html-keyboard-response", "trial_index": 123, "time_elapsed": 207243, "internal_node_id": "0.0-6.0-28.0"}}, {"uniqueid": "w73776195:a37705167", "current_trial": 124, "dateTime": 1664368134944, "trialdata": {"rt": 480, "stimulus": "<p id='stroop-text' class='stroop-yellow'>YELLOW</p>", "response": "y", "stimulus-type": "congruent", "word": "yellow", "color": "yellow", "correct_response": "y", "trial_id": "stroop-trial-1-congruent-21", "trial_type": "html-keyboard-response", "trial_index": 124, "time_elapsed": 208227, "internal_node_id": "0.0-6.0-29.0"}}, {"uniqueid": "w73776195:a37705167", "current_trial": 125, "dateTime": 1664368136056, "trialdata": {"rt": 607, "stimulus": "<p id='stroop-text' class='stroop-green'>GREEN</p>", "response": "g", "stimulus-type": "congruent", "word": "green", "color": "green", "correct_response": "g", "trial_id": "stroop-trial-1-congruent-4", "trial_type": "html-keyboard-response", "trial_index": 125, "time_elapsed": 209339, "internal_node_id": "0.0-6.0-30.0"}}, {"uniqueid": "w73776195:a37705167", "current_trial": 126, "dateTime": 1664368136912, "trialdata": {"rt": 352, "stimulus": "<p id='stroop-text' class='stroop-green'>GREEN</p>", "response": "g", "stimulus-type": "congruent", "word": "green", "color": "green", "correct_response": "g", "trial_id": "stroop-trial-1-congruent-13", "trial_type": "html-keyboard-response", "trial_index": 126, "time_elapsed": 210195, "internal_node_id": "0.0-6.0-31.0"}}, {"uniqueid": "w73776195:a37705167", "current_trial": 127, "dateTime": 1664368138336, "trialdata": {"rt": 920, "stimulus": "<p id='stroop-text' class='stroop-red'>BLUE</p>", "response": "r", "stimulus-type": "incongruent", "word": "blue", "color": "red", "correct_response": "r", "trial_id": "stroop-trial-1-incongruent-26", "trial_type": "html-keyboard-response", "trial_index": 127, "time_elapsed": 211619, "internal_node_id": "0.0-6.0-32.0"}}, {"uniqueid": "w73776195:a37705167", "current_trial": 128, "dateTime": 1664368139472, "trialdata": {"rt": 631, "stimulus": "<p id='stroop-text' class='stroop-blue'>BLUE</p>", "response": "b", "stimulus-type": "congruent", "word": "blue", "color": "blue", "correct_response": "b", "trial_id": "stroop-trial-1-congruent-29", "trial_type": "html-keyboard-response", "trial_index": 128, "time_elapsed": 212755, "internal_node_id": "0.0-6.0-33.0"}}, {"uniqueid": "w73776195:a37705167", "current_trial": 129, "dateTime": 1664368140560, "trialdata": {"rt": 584, "stimulus": "<p id='stroop-text' class='stroop-yellow'>YELLOW</p>", "response": "y", "stimulus-type": "congruent", "word": "yellow", "color": "yellow", "correct_response": "y", "trial_id": "stroop-trial-1-congruent-25", "trial_type": "html-keyboard-response", "trial_index": 129, "time_elapsed": 213843, "internal_node_id": "0.0-6.0-34.0"}}, {"uniqueid": "w73776195:a37705167", "current_trial": 130, "dateTime": 1664368141696, "trialdata": {"rt": 632, "stimulus": "<p id='stroop-text' class='stroop-yellow'>RED</p>", "response": "r", "stimulus-type": "incongruent", "word": "red", "color": "yellow", "correct_response": "y", "trial_id": "stroop-trial-1-incongruent-15", "trial_type": "html-keyboard-response", "trial_index": 130, "time_elapsed": 214979, "internal_node_id": "0.0-6.0-35.0"}}, {"uniqueid": "w73776195:a37705167", "current_trial": 131, "dateTime": 1664368143920, "trialdata": {"rt": 1720, "stimulus": "<p id='stroop-text' class='stroop-green'>BRAIN</p>", "response": "g", "stimulus-type": "unrelated", "word": "BRAIN", "color": "green", "correct_response": "g", "trial_id": "stroop-trial-1-unrelated-5", "trial_type": "html-keyboard-response", "trial_index": 131, "time_elapsed": 217203, "internal_node_id": "0.0-6.0-36.0"}}, {"uniqueid": "w73776195:a37705167", "current_trial": 132, "dateTime": 1664368145888, "trialdata": {"rt": 1462, "stimulus": "<p id='stroop-text' class='stroop-yellow'>GREEN</p>", "response": "y", "stimulus-type": "incongruent", "word": "green", "color": "yellow", "correct_response": "y", "trial_id": "stroop-trial-1-incongruent-14", "trial_type": "html-keyboard-response", "trial_index": 132, "time_elapsed": 219171, "internal_node_id": "0.0-6.0-37.0"}}, {"uniqueid": "w73776195:a37705167", "current_trial": 133, "dateTime": 1664368146816, "trialdata": {"rt": 424, "stimulus": "<p id='stroop-text' class='stroop-yellow'>YELLOW</p>", "response": "y", "stimulus-type": "congruent", "word": "yellow", "color": "yellow", "correct_response": "y", "trial_id": "stroop-trial-1-congruent-24", "trial_type": "html-keyboard-response", "trial_index": 133, "time_elapsed": 220099, "internal_node_id": "0.0-6.0-38.0"}}, {"uniqueid": "w73776195:a37705167", "current_trial": 134, "dateTime": 1664368148144, "trialdata": {"rt": 823, "stimulus": "<p id='stroop-text' class='stroop-blue'>RED</p>", "response": "b", "stimulus-type": "incongruent", "word": "red", "color": "blue", "correct_response": "b", "trial_id": "stroop-trial-1-incongruent-22", "trial_type": "html-keyboard-response", "trial_index": 134, "time_elapsed": 221427, "internal_node_id": "0.0-6.0-39.0"}}, {"uniqueid": "w73776195:a37705167", "current_trial": 135, "dateTime": 1664368149136, "trialdata": {"rt": 487, "stimulus": "<p id='stroop-text' class='stroop-red'>RED</p>", "response": "r", "stimulus-type": "congruent", "word": "red", "color": "red", "correct_response": "r", "trial_id": "stroop-trial-1-congruent-12", "trial_type": "html-keyboard-response", "trial_index": 135, "time_elapsed": 222419, "internal_node_id": "0.0-6.0-40.0"}}, {"uniqueid": "w73776195:a37705167", "current_trial": 136, "dateTime": 1664368150056, "trialdata": {"rt": 416, "stimulus": "<p id='stroop-text' class='stroop-yellow'>RED</p>", "response": "r", "stimulus-type": "incongruent", "word": "red", "color": "yellow", "correct_response": "y", "trial_id": "stroop-trial-1-incongruent-12", "trial_type": "html-keyboard-response", "trial_index": 136, "time_elapsed": 223339, "internal_node_id": "0.0-6.0-41.0"}}, {"uniqueid": "w73776195:a37705167", "current_trial": 137, "dateTime": 1664368151384, "trialdata": {"rt": 824, "stimulus": "<p id='stroop-text' class='stroop-yellow'>YELLOW</p>", "response": "y", "stimulus-type": "congruent", "word": "yellow", "color": "yellow", "correct_response": "y", "trial_id": "stroop-trial-1-congruent-17", "trial_type": "html-keyboard-response", "trial_index": 137, "time_elapsed": 224667, "internal_node_id": "0.0-6.0-42.0"}}, {"uniqueid": "w73776195:a37705167", "current_trial": 138, "dateTime": 1664368152648, "trialdata": {"rt": 760, "stimulus": "<p id='stroop-text' class='stroop-green'>GREEN</p>", "response": "g", "stimulus-type": "congruent", "word": "green", "color": "green", "correct_response": "g", "trial_id": "stroop-trial-1-congruent-8", "trial_type": "html-keyboard-response", "trial_index": 138, "time_elapsed": 225931, "internal_node_id": "0.0-6.0-43.0"}}, {"uniqueid": "w73776195:a37705167", "current_trial": 139, "dateTime": 1664368153784, "trialdata": {"rt": 631, "stimulus": "<p id='stroop-text' class='stroop-blue'>BOAT</p>", "response": "b", "stimulus-type": "unrelated", "word": "BOAT", "color": "blue", "correct_response": "b", "trial_id": "stroop-trial-1-unrelated-16", "trial_type": "html-keyboard-response", "trial_index": 139, "time_elapsed": 227067, "internal_node_id": "0.0-6.0-44.0"}}, {"uniqueid": "w73776195:a37705167", "current_trial": 140, "dateTime": 1664368154848, "trialdata": {"rt": 560, "stimulus": "<p id='stroop-text' class='stroop-blue'>MONKEY</p>", "response": "b", "stimulus-type": "unrelated", "word": "MONKEY", "color": "blue", "correct_response": "b", "trial_id": "stroop-trial-1-unrelated-6", "trial_type": "html-keyboard-response", "trial_index": 140, "time_elapsed": 228131, "internal_node_id": "0.0-6.0-45.0"}}, {"uniqueid": "w73776195:a37705167", "current_trial": 141, "dateTime": 1664368156360, "trialdata": {"rt": 1007, "stimulus": "<p id='stroop-text' class='stroop-green'>BLUE</p>", "response": "g", "stimulus-type": "incongruent", "word": "blue", "color": "green", "correct_response": "g", "trial_id": "stroop-trial-1-incongruent-29", "trial_type": "html-keyboard-response", "trial_index": 141, "time_elapsed": 229643, "internal_node_id": "0.0-6.0-46.0"}}, {"uniqueid": "w73776195:a37705167", "current_trial": 142, "dateTime": 1664368157608, "trialdata": {"rt": 735, "stimulus": "<p id='stroop-text' class='stroop-yellow'>RED</p>", "response": "y", "stimulus-type": "incongruent", "word": "red", "color": "yellow", "correct_response": "y", "trial_id": "stroop-trial-1-incongruent-20", "trial_type": "html-keyboard-response", "trial_index": 142, "time_elapsed": 230891, "internal_node_id": "0.0-6.0-47.0"}}, {"uniqueid": "w73776195:a37705167", "current_trial": 143, "dateTime": 1664368159120, "trialdata": {"rt": 1007, "stimulus": "<p id='stroop-text' class='stroop-green'>BLUE</p>", "response": "g", "stimulus-type": "incongruent", "word": "blue", "color": "green", "correct_response": "g", "trial_id": "stroop-trial-1-incongruent-3", "trial_type": "html-keyboard-response", "trial_index": 143, "time_elapsed": 232403, "internal_node_id": "0.0-6.0-48.0"}}, {"uniqueid": "w73776195:a37705167", "current_trial": 144, "dateTime": 1664368160680, "trialdata": {"rt": 1057, "stimulus": "<p id='stroop-text' class='stroop-yellow'>RED</p>", "response": "y", "stimulus-type": "incongruent", "word": "red", "color": "yellow", "correct_response": "y", "trial_id": "stroop-trial-1-incongruent-18", "trial_type": "html-keyboard-response", "trial_index": 144, "time_elapsed": 233963, "internal_node_id": "0.0-6.0-49.0"}}, {"uniqueid": "w73776195:a37705167", "current_trial": 145, "dateTime": 1664368161640, "trialdata": {"rt": 455, "stimulus": "<p id='stroop-text' class='stroop-yellow'>YELLOW</p>", "response": "y", "stimulus-type": "congruent", "word": "yellow", "color": "yellow", "correct_response": "y", "trial_id": "stroop-trial-1-congruent-7", "trial_type": "html-keyboard-response", "trial_index": 145, "time_elapsed": 234923, "internal_node_id": "0.0-6.0-50.0"}}, {"uniqueid": "w73776195:a37705167", "current_trial": 146, "dateTime": 1664368162664, "trialdata": {"rt": 509, "stimulus": "<p id='stroop-text' class='stroop-yellow'>CHAIR</p>", "response": "y", "stimulus-type": "unrelated", "word": "CHAIR", "color": "yellow", "correct_response": "y", "trial_id": "stroop-trial-1-unrelated-29", "trial_type": "html-keyboard-response", "trial_index": 146, "time_elapsed": 235947, "internal_node_id": "0.0-6.0-51.0"}}, {"uniqueid": "w73776195:a37705167", "current_trial": 147, "dateTime": 1664368164240, "trialdata": {"rt": 1071, "stimulus": "<p id='stroop-text' class='stroop-blue'>BLUE</p>", "response": "b", "stimulus-type": "congruent", "word": "blue", "color": "blue", "correct_response": "b", "trial_id": "stroop-trial-1-congruent-22", "trial_type": "html-keyboard-response", "trial_index": 147, "time_elapsed": 237523, "internal_node_id": "0.0-6.0-52.0"}}, {"uniqueid": "w73776195:a37705167", "current_trial": 148, "dateTime": 1664368165208, "trialdata": {"rt": 462, "stimulus": "<p id='stroop-text' class='stroop-blue'>SHIP</p>", "response": "b", "stimulus-type": "unrelated", "word": "SHIP", "color": "blue", "correct_response": "b", "trial_id": "stroop-trial-1-unrelated-2", "trial_type": "html-keyboard-response", "trial_index": 148, "time_elapsed": 238491, "internal_node_id": "0.0-6.0-53.0"}}, {"uniqueid": "w73776195:a37705167", "current_trial": 149, "dateTime": 1664368166817, "trialdata": {"rt": 1105, "stimulus": "<p id='stroop-text' class='stroop-yellow'>YELLOW</p>", "response": "y", "stimulus-type": "congruent", "word": "yellow", "color": "yellow", "correct_response": "y", "trial_id": "stroop-trial-1-congruent-9", "trial_type": "html-keyboard-response", "trial_index": 149, "time_elapsed": 240099, "internal_node_id": "0.0-6.0-54.0"}}, {"uniqueid": "w73776195:a37705167", "current_trial": 150, "dateTime": 1664368167896, "trialdata": {"rt": 576, "stimulus": "<p id='stroop-text' class='stroop-red'>RED</p>", "response": "r", "stimulus-type": "congruent", "word": "red", "color": "red", "correct_response": "r", "trial_id": "stroop-trial-1-congruent-20", "trial_type": "html-keyboard-response", "trial_index": 150, "time_elapsed": 241179, "internal_node_id": "0.0-6.0-55.0"}}, {"uniqueid": "w73776195:a37705167", "current_trial": 151, "dateTime": 1664368169328, "trialdata": {"rt": 928, "stimulus": "<p id='stroop-text' class='stroop-blue'>GREEN</p>", "response": "b", "stimulus-type": "incongruent", "word": "green", "color": "blue", "correct_response": "b", "trial_id": "stroop-trial-1-incongruent-4", "trial_type": "html-keyboard-response", "trial_index": 151, "time_elapsed": 242611, "internal_node_id": "0.0-6.0-56.0"}}, {"uniqueid": "w73776195:a37705167", "current_trial": 152, "dateTime": 1664368171080, "trialdata": {"rt": 1243, "stimulus": "<p id='stroop-text' class='stroop-yellow'>BRAIN</p>", "response": "y", "stimulus-type": "unrelated", "word": "BRAIN", "color": "yellow", "correct_response": "y", "trial_id": "stroop-trial-1-unrelated-30", "trial_type": "html-keyboard-response", "trial_index": 152, "time_elapsed": 244363, "internal_node_id": "0.0-6.0-57.0"}}, {"uniqueid": "w73776195:a37705167", "current_trial": 153, "dateTime": 1664368173376, "trialdata": {"rt": 1790, "stimulus": "<p id='stroop-text' class='stroop-blue'>RED</p>", "response": "b", "stimulus-type": "incongruent", "word": "red", "color": "blue", "correct_response": "b", "trial_id": "stroop-trial-1-incongruent-19", "trial_type": "html-keyboard-response", "trial_index": 153, "time_elapsed": 246659, "internal_node_id": "0.0-6.0-58.0"}}, {"uniqueid": "w73776195:a37705167", "current_trial": 154, "dateTime": 1664368174672, "trialdata": {"rt": 792, "stimulus": "<p id='stroop-text' class='stroop-red'>BRIDGE</p>", "response": "r", "stimulus-type": "unrelated", "word": "BRIDGE", "color": "red", "correct_response": "r", "trial_id": "stroop-trial-1-unrelated-11", "trial_type": "html-keyboard-response", "trial_index": 154, "time_elapsed": 247955, "internal_node_id": "0.0-6.0-59.0"}}, {"uniqueid": "w73776195:a37705167", "current_trial": 155, "dateTime": 1664368176392, "trialdata": {"rt": 1214, "stimulus": "<p id='stroop-text' class='stroop-green'>RED</p>", "response": "g", "stimulus-type": "incongruent", "word": "red", "color": "green", "correct_response": "g", "trial_id": "stroop-trial-1-incongruent-27", "trial_type": "html-keyboard-response", "trial_index": 155, "time_elapsed": 249675, "internal_node_id": "0.0-6.0-60.0"}}, {"uniqueid": "w73776195:a37705167", "current_trial": 156, "dateTime": 1664368177520, "trialdata": {"rt": 623, "stimulus": "<p id='stroop-text' class='stroop-red'>RED</p>", "response": "r", "stimulus-type": "congruent", "word": "red", "color": "red", "correct_response": "r", "trial_id": "stroop-trial-1-congruent-28", "trial_type": "html-keyboard-response", "trial_index": 156, "time_elapsed": 250803, "internal_node_id": "0.0-6.0-61.0"}}, {"uniqueid": "w73776195:a37705167", "current_trial": 157, "dateTime": 1664368178488, "trialdata": {"rt": 464, "stimulus": "<p id='stroop-text' class='stroop-red'>RED</p>", "response": "r", "stimulus-type": "congruent", "word": "red", "color": "red", "correct_response": "r", "trial_id": "stroop-trial-1-congruent-5", "trial_type": "html-keyboard-response", "trial_index": 157, "time_elapsed": 251771, "internal_node_id": "0.0-6.0-62.0"}}, {"uniqueid": "w73776195:a37705167", "current_trial": 158, "dateTime": 1664368179688, "trialdata": {"rt": 695, "stimulus": "<p id='stroop-text' class='stroop-blue'>RED</p>", "response": "b", "stimulus-type": "incongruent", "word": "red", "color": "blue", "correct_response": "b", "trial_id": "stroop-trial-1-incongruent-16", "trial_type": "html-keyboard-response", "trial_index": 158, "time_elapsed": 252971, "internal_node_id": "0.0-6.0-63.0"}}, {"uniqueid": "w73776195:a37705167", "current_trial": 159, "dateTime": 1664368180720, "trialdata": {"rt": 528, "stimulus": "<p id='stroop-text' class='stroop-green'>FORK</p>", "response": "g", "stimulus-type": "unrelated", "word": "FORK", "color": "green", "correct_response": "g", "trial_id": "stroop-trial-1-unrelated-1", "trial_type": "html-keyboard-response", "trial_index": 159, "time_elapsed": 254003, "internal_node_id": "0.0-6.0-64.0"}}, {"uniqueid": "w73776195:a37705167", "current_trial": 160, "dateTime": 1664368181648, "trialdata": {"rt": 423, "stimulus": "<p id='stroop-text' class='stroop-red'>FORK</p>", "response": "g", "stimulus-type": "unrelated", "word": "FORK", "color": "red", "correct_response": "r", "trial_id": "stroop-trial-1-unrelated-21", "trial_type": "html-keyboard-response", "trial_index": 160, "time_elapsed": 254931, "internal_node_id": "0.0-6.0-65.0"}}, {"uniqueid": "w73776195:a37705167", "current_trial": 161, "dateTime": 1664368183256, "trialdata": {"rt": 1102, "stimulus": "<p id='stroop-text' class='stroop-blue'>BLUE</p>", "response": "b", "stimulus-type": "congruent", "word": "blue", "color": "blue", "correct_response": "b", "trial_id": "stroop-trial-1-congruent-14", "trial_type": "html-keyboard-response", "trial_index": 161, "time_elapsed": 256539, "internal_node_id": "0.0-6.0-66.0"}}, {"uniqueid": "w73776195:a37705167", "current_trial": 162, "dateTime": 1664368184632, "trialdata": {"rt": 871, "stimulus": "<p id='stroop-text' class='stroop-yellow'>YELLOW</p>", "response": "y", "stimulus-type": "congruent", "word": "yellow", "color": "yellow", "correct_response": "y", "trial_id": "stroop-trial-1-congruent-23", "trial_type": "html-keyboard-response", "trial_index": 162, "time_elapsed": 257915, "internal_node_id": "0.0-6.0-67.0"}}, {"uniqueid": "w73776195:a37705167", "current_trial": 163, "dateTime": 1664368185769, "trialdata": {"rt": 632, "stimulus": "<p id='stroop-text' class='stroop-blue'>FORK</p>", "response": "b", "stimulus-type": "unrelated", "word": "FORK", "color": "blue", "correct_response": "b", "trial_id": "stroop-trial-1-unrelated-25", "trial_type": "html-keyboard-response", "trial_index": 163, "time_elapsed": 259051, "internal_node_id": "0.0-6.0-68.0"}}, {"uniqueid": "w73776195:a37705167", "current_trial": 164, "dateTime": 1664368186832, "trialdata": {"rt": 558, "stimulus": "<p id='stroop-text' class='stroop-yellow'>DOG</p>", "response": "r", "stimulus-type": "unrelated", "word": "DOG", "color": "yellow", "correct_response": "y", "trial_id": "stroop-trial-1-unrelated-8", "trial_type": "html-keyboard-response", "trial_index": 164, "time_elapsed": 260115, "internal_node_id": "0.0-6.0-69.0"}}, {"uniqueid": "w73776195:a37705167", "current_trial": 165, "dateTime": 1664368187993, "trialdata": {"rt": 656, "stimulus": "<p id='stroop-text' class='stroop-green'>BOTTLE</p>", "response": "g", "stimulus-type": "unrelated", "word": "BOTTLE", "color": "green", "correct_response": "g", "trial_id": "stroop-trial-1-unrelated-19", "trial_type": "html-keyboard-response", "trial_index": 165, "time_elapsed": 261275, "internal_node_id": "0.0-6.0-70.0"}}, {"uniqueid": "w73776195:a37705167", "current_trial": 166, "dateTime": 1664368188944, "trialdata": {"rt": 446, "stimulus": "<p id='stroop-text' class='stroop-green'>GREEN</p>", "response": "g", "stimulus-type": "congruent", "word": "green", "color": "green", "correct_response": "g", "trial_id": "stroop-trial-1-congruent-16", "trial_type": "html-keyboard-response", "trial_index": 166, "time_elapsed": 262227, "internal_node_id": "0.0-6.0-71.0"}}, {"uniqueid": "w73776195:a37705167", "current_trial": 167, "dateTime": 1664368190192, "trialdata": {"rt": 743, "stimulus": "<p id='stroop-text' class='stroop-yellow'>RED</p>", "response": "y", "stimulus-type": "incongruent", "word": "red", "color": "yellow", "correct_response": "y", "trial_id": "stroop-trial-1-incongruent-1", "trial_type": "html-keyboard-response", "trial_index": 167, "time_elapsed": 263475, "internal_node_id": "0.0-6.0-72.0"}}, {"uniqueid": "w73776195:a37705167", "current_trial": 168, "dateTime": 1664368191208, "trialdata": {"rt": 511, "stimulus": "<p id='stroop-text' class='stroop-yellow'>BLUE</p>", "response": "y", "stimulus-type": "incongruent", "word": "blue", "color": "yellow", "correct_response": "y", "trial_id": "stroop-trial-1-incongruent-23", "trial_type": "html-keyboard-response", "trial_index": 168, "time_elapsed": 264491, "internal_node_id": "0.0-6.0-73.0"}}, {"uniqueid": "w73776195:a37705167", "current_trial": 169, "dateTime": 1664368192400, "trialdata": {"rt": 687, "stimulus": "<p id='stroop-text' class='stroop-red'>RED</p>", "response": "r", "stimulus-type": "congruent", "word": "red", "color": "red", "correct_response": "r", "trial_id": "stroop-trial-1-congruent-3", "trial_type": "html-keyboard-response", "trial_index": 169, "time_elapsed": 265683, "internal_node_id": "0.0-6.0-74.0"}}, {"uniqueid": "w73776195:a37705167", "current_trial": 170, "dateTime": 1664368193384, "trialdata": {"rt": 480, "stimulus": "<p id='stroop-text' class='stroop-green'>GREEN</p>", "response": "g", "stimulus-type": "congruent", "word": "green", "color": "green", "correct_response": "g", "trial_id": "stroop-trial-1-congruent-6", "trial_type": "html-keyboard-response", "trial_index": 170, "time_elapsed": 266667, "internal_node_id": "0.0-6.0-75.0"}}, {"uniqueid": "w73776195:a37705167", "current_trial": 171, "dateTime": 1664368194480, "trialdata": {"rt": 590, "stimulus": "<p id='stroop-text' class='stroop-red'>BOAT</p>", "response": "r", "stimulus-type": "unrelated", "word": "BOAT", "color": "red", "correct_response": "r", "trial_id": "stroop-trial-1-unrelated-9", "trial_type": "html-keyboard-response", "trial_index": 171, "time_elapsed": 267763, "internal_node_id": "0.0-6.0-76.0"}}, {"uniqueid": "w73776195:a37705167", "current_trial": 172, "dateTime": 1664368195552, "trialdata": {"rt": 568, "stimulus": "<p id='stroop-text' class='stroop-yellow'>BRIDGE</p>", "response": "y", "stimulus-type": "unrelated", "word": "BRIDGE", "color": "yellow", "correct_response": "y", "trial_id": "stroop-trial-1-unrelated-12", "trial_type": "html-keyboard-response", "trial_index": 172, "time_elapsed": 268835, "internal_node_id": "0.0-6.0-77.0"}}, {"uniqueid": "w73776195:a37705167", "current_trial": 173, "dateTime": 1664368196832, "trialdata": {"rt": 776, "stimulus": "<p id='stroop-text' class='stroop-blue'>BLUE</p>", "response": "b", "stimulus-type": "congruent", "word": "blue", "color": "blue", "correct_response": "b", "trial_id": "stroop-trial-1-congruent-2", "trial_type": "html-keyboard-response", "trial_index": 173, "time_elapsed": 270115, "internal_node_id": "0.0-6.0-78.0"}}, {"uniqueid": "w73776195:a37705167", "current_trial": 174, "dateTime": 1664368197960, "trialdata": {"rt": 623, "stimulus": "<p id='stroop-text' class='stroop-green'>WINDOW</p>", "response": "g", "stimulus-type": "unrelated", "word": "WINDOW", "color": "green", "correct_response": "g", "trial_id": "stroop-trial-1-unrelated-4", "trial_type": "html-keyboard-response", "trial_index": 174, "time_elapsed": 271243, "internal_node_id": "0.0-6.0-79.0"}}, {"uniqueid": "w73776195:a37705167", "current_trial": 175, "dateTime": 1664368199040, "trialdata": {"rt": 577, "stimulus": "<p id='stroop-text' class='stroop-yellow'>YELLOW</p>", "response": "y", "stimulus-type": "congruent", "word": "yellow", "color": "yellow", "correct_response": "y", "trial_id": "stroop-trial-1-congruent-27", "trial_type": "html-keyboard-response", "trial_index": 175, "time_elapsed": 272323, "internal_node_id": "0.0-6.0-80.0"}}, {"uniqueid": "w73776195:a37705167", "current_trial": 176, "dateTime": 1664368200160, "trialdata": {"rt": 615, "stimulus": "<p id='stroop-text' class='stroop-red'>WINDOW</p>", "response": "r", "stimulus-type": "unrelated", "word": "WINDOW", "color": "red", "correct_response": "r", "trial_id": "stroop-trial-1-unrelated-13", "trial_type": "html-keyboard-response", "trial_index": 176, "time_elapsed": 273443, "internal_node_id": "0.0-6.0-81.0"}}, {"uniqueid": "w73776195:a37705167", "current_trial": 177, "dateTime": 1664368201144, "trialdata": {"rt": 479, "stimulus": "<p id='stroop-text' class='stroop-blue'>BLUE</p>", "response": "b", "stimulus-type": "congruent", "word": "blue", "color": "blue", "correct_response": "b", "trial_id": "stroop-trial-1-congruent-18", "trial_type": "html-keyboard-response", "trial_index": 177, "time_elapsed": 274427, "internal_node_id": "0.0-6.0-82.0"}}, {"uniqueid": "w73776195:a37705167", "current_trial": 178, "dateTime": 1664368202240, "trialdata": {"rt": 592, "stimulus": "<p id='stroop-text' class='stroop-red'>RED</p>", "response": "r", "stimulus-type": "congruent", "word": "red", "color": "red", "correct_response": "r", "trial_id": "stroop-trial-1-congruent-1", "trial_type": "html-keyboard-response", "trial_index": 178, "time_elapsed": 275523, "internal_node_id": "0.0-6.0-83.0"}}, {"uniqueid": "w73776195:a37705167", "current_trial": 179, "dateTime": 1664368203480, "trialdata": {"rt": 736, "stimulus": "<p id='stroop-text' class='stroop-green'>WINDOW</p>", "response": "g", "stimulus-type": "unrelated", "word": "WINDOW", "color": "green", "correct_response": "g", "trial_id": "stroop-trial-1-unrelated-20", "trial_type": "html-keyboard-response", "trial_index": 179, "time_elapsed": 276763, "internal_node_id": "0.0-6.0-84.0"}}, {"uniqueid": "w73776195:a37705167", "current_trial": 180, "dateTime": 1664368204552, "trialdata": {"rt": 568, "stimulus": "<p id='stroop-text' class='stroop-blue'>FORK</p>", "response": "b", "stimulus-type": "unrelated", "word": "FORK", "color": "blue", "correct_response": "b", "trial_id": "stroop-trial-1-unrelated-10", "trial_type": "html-keyboard-response", "trial_index": 180, "time_elapsed": 277835, "internal_node_id": "0.0-6.0-85.0"}}, {"uniqueid": "w73776195:a37705167", "current_trial": 181, "dateTime": 1664368205752, "trialdata": {"rt": 695, "stimulus": "<p id='stroop-text' class='stroop-red'>BLUE</p>", "response": "r", "stimulus-type": "incongruent", "word": "blue", "color": "red", "correct_response": "r", "trial_id": "stroop-trial-1-incongruent-2", "trial_type": "html-keyboard-response", "trial_index": 181, "time_elapsed": 279035, "internal_node_id": "0.0-6.0-86.0"}}, {"uniqueid": "w73776195:a37705167", "current_trial": 182, "dateTime": 1664368206768, "trialdata": {"rt": 506, "stimulus": "<p id='stroop-text' class='stroop-red'>RED</p>", "response": "r", "stimulus-type": "congruent", "word": "red", "color": "red", "correct_response": "r", "trial_id": "stroop-trial-1-congruent-30", "trial_type": "html-keyboard-response", "trial_index": 182, "time_elapsed": 280050, "internal_node_id": "0.0-6.0-87.0"}}, {"uniqueid": "w73776195:a37705167", "current_trial": 183, "dateTime": 1664368207832, "trialdata": {"rt": 560, "stimulus": "<p id='stroop-text' class='stroop-yellow'>GREEN</p>", "response": "y", "stimulus-type": "incongruent", "word": "green", "color": "yellow", "correct_response": "y", "trial_id": "stroop-trial-1-incongruent-8", "trial_type": "html-keyboard-response", "trial_index": 183, "time_elapsed": 281115, "internal_node_id": "0.0-6.0-88.0"}}, {"uniqueid": "w73776195:a37705167", "current_trial": 184, "dateTime": 1664368208752, "trialdata": {"rt": 415, "stimulus": "<p id='stroop-text' class='stroop-yellow'>YELLOW</p>", "response": "y", "stimulus-type": "congruent", "word": "yellow", "color": "yellow", "correct_response": "y", "trial_id": "stroop-trial-1-congruent-10", "trial_type": "html-keyboard-response", "trial_index": 184, "time_elapsed": 282035, "internal_node_id": "0.0-6.0-89.0"}}, {"uniqueid": "w73776195:a37705167", "current_trial": 185, "dateTime": 1664368210240, "trialdata": {"rt": 983, "stimulus": "  <h1> End of block! </h1>\n\n  You have reached the end of the block 2/5. If you need a short break, feel free to take one now before moving on.\n\n  <br><br>\n  In the next block, you will complete another 90 rounds of this game.\n\n  <br><br>\n  <div style='text-align: center;'>Press <code>space</code> to begin.</div>\n  <br><br>\n<div style='text-align: center;'>(If the experiment doesn't continue, try clicking on the text and then pressing <code>space</code>.)</div>", "response": " ", "trial_id": "stroop_1_ready_3", "trial_type": "html-keyboard-response", "trial_index": 185, "time_elapsed": 283523, "internal_node_id": "0.0-7.0"}}, {"uniqueid": "w73776195:a37705167", "current_trial": 186, "dateTime": 1664368211504, "trialdata": {"rt": 1258, "stimulus": "<p id='stroop-text' class='stroop-green'>GREEN</p>", "response": "g", "stimulus-type": "congruent", "word": "green", "color": "green", "correct_response": "g", "trial_id": "stroop-trial-1-congruent-10", "trial_type": "html-keyboard-response", "trial_index": 186, "time_elapsed": 284786, "internal_node_id": "0.0-8.0-0.0"}}, {"uniqueid": "w73776195:a37705167", "current_trial": 187, "dateTime": 1664368213584, "trialdata": {"rt": 1576, "stimulus": "<p id='stroop-text' class='stroop-red'>BLUE</p>", "response": "r", "stimulus-type": "incongruent", "word": "blue", "color": "red", "correct_response": "r", "trial_id": "stroop-trial-1-incongruent-19", "trial_type": "html-keyboard-response", "trial_index": 187, "time_elapsed": 286867, "internal_node_id": "0.0-8.0-1.0"}}, {"uniqueid": "w73776195:a37705167", "current_trial": 188, "dateTime": 1664368214633, "trialdata": {"rt": 543, "stimulus": "<p id='stroop-text' class='stroop-blue'>RED</p>", "response": "b", "stimulus-type": "incongruent", "word": "red", "color": "blue", "correct_response": "b", "trial_id": "stroop-trial-1-incongruent-28", "trial_type": "html-keyboard-response", "trial_index": 188, "time_elapsed": 287915, "internal_node_id": "0.0-8.0-2.0"}}, {"uniqueid": "w73776195:a37705167", "current_trial": 189, "dateTime": 1664368215616, "trialdata": {"rt": 478, "stimulus": "<p id='stroop-text' class='stroop-red'>RED</p>", "response": "r", "stimulus-type": "congruent", "word": "red", "color": "red", "correct_response": "r", "trial_id": "stroop-trial-1-congruent-3", "trial_type": "html-keyboard-response", "trial_index": 189, "time_elapsed": 288898, "internal_node_id": "0.0-8.0-3.0"}}, {"uniqueid": "w73776195:a37705167", "current_trial": 190, "dateTime": 1664368216488, "trialdata": {"rt": 368, "stimulus": "<p id='stroop-text' class='stroop-red'>RED</p>", "response": "r", "stimulus-type": "congruent", "word": "red", "color": "red", "correct_response": "r", "trial_id": "stroop-trial-1-congruent-2", "trial_type": "html-keyboard-response", "trial_index": 190, "time_elapsed": 289771, "internal_node_id": "0.0-8.0-4.0"}}, {"uniqueid": "w73776195:a37705167", "current_trial": 191, "dateTime": 1664368217744, "trialdata": {"rt": 750, "stimulus": "<p id='stroop-text' class='stroop-green'>GREEN</p>", "response": "g", "stimulus-type": "congruent", "word": "green", "color": "green", "correct_response": "g", "trial_id": "stroop-trial-1-congruent-25", "trial_type": "html-keyboard-response", "trial_index": 191, "time_elapsed": 291026, "internal_node_id": "0.0-8.0-5.0"}}, {"uniqueid": "w73776195:a37705167", "current_trial": 192, "dateTime": 1664368218608, "trialdata": {"rt": 358, "stimulus": "<p id='stroop-text' class='stroop-green'>MONKEY</p>", "response": "g", "stimulus-type": "unrelated", "word": "MONKEY", "color": "green", "correct_response": "g", "trial_id": "stroop-trial-1-unrelated-27", "trial_type": "html-keyboard-response", "trial_index": 192, "time_elapsed": 291890, "internal_node_id": "0.0-8.0-6.0"}}, {"uniqueid": "w73776195:a37705167", "current_trial": 193, "dateTime": 1664368219672, "trialdata": {"rt": 559, "stimulus": "<p id='stroop-text' class='stroop-blue'>STONE</p>", "response": "b", "stimulus-type": "unrelated", "word": "STONE", "color": "blue", "correct_response": "b", "trial_id": "stroop-trial-1-unrelated-9", "trial_type": "html-keyboard-response", "trial_index": 193, "time_elapsed": 292955, "internal_node_id": "0.0-8.0-7.0"}}, {"uniqueid": "w73776195:a37705167", "current_trial": 194, "dateTime": 1664368221112, "trialdata": {"rt": 934, "stimulus": "<p id='stroop-text' class='stroop-yellow'>GREEN</p>", "response": "y", "stimulus-type": "incongruent", "word": "green", "color": "yellow", "correct_response": "y", "trial_id": "stroop-trial-1-incongruent-24", "trial_type": "html-keyboard-response", "trial_index": 194, "time_elapsed": 294395, "internal_node_id": "0.0-8.0-8.0"}}, {"uniqueid": "w73776195:a37705167", "current_trial": 195, "dateTime": 1664368222080, "trialdata": {"rt": 452, "stimulus": "<p id='stroop-text' class='stroop-yellow'>SHIP</p>", "response": "y", "stimulus-type": "unrelated", "word": "SHIP", "color": "yellow", "correct_response": "y", "trial_id": "stroop-trial-1-unrelated-10", "trial_type": "html-keyboard-response", "trial_index": 195, "time_elapsed": 295362, "internal_node_id": "0.0-8.0-9.0"}}, {"uniqueid": "w73776195:a37705167", "current_trial": 196, "dateTime": 1664368223232, "trialdata": {"rt": 647, "stimulus": "<p id='stroop-text' class='stroop-red'>BOAT</p>", "response": "r", "stimulus-type": "unrelated", "word": "BOAT", "color": "red", "correct_response": "r", "trial_id": "stroop-trial-1-unrelated-5", "trial_type": "html-keyboard-response", "trial_index": 196, "time_elapsed": 296514, "internal_node_id": "0.0-8.0-10.0"}}, {"uniqueid": "w73776195:a37705167", "current_trial": 197, "dateTime": 1664368225136, "trialdata": {"rt": 1400, "stimulus": "<p id='stroop-text' class='stroop-blue'>GREEN</p>", "response": "b", "stimulus-type": "incongruent", "word": "green", "color": "blue", "correct_response": "b", "trial_id": "stroop-trial-1-incongruent-10", "trial_type": "html-keyboard-response", "trial_index": 197, "time_elapsed": 298419, "internal_node_id": "0.0-8.0-11.0"}}, {"uniqueid": "w73776195:a37705167", "current_trial": 198, "dateTime": 1664368229455, "trialdata": {"rt": 3814, "stimulus": "<p id='stroop-text' class='stroop-red'>CHAIR</p>", "response": "r", "stimulus-type": "unrelated", "word": "CHAIR", "color": "red", "correct_response": "r", "trial_id": "stroop-trial-1-unrelated-19", "trial_type": "html-keyboard-response", "trial_index": 198, "time_elapsed": 302738, "internal_node_id": "0.0-8.0-12.0"}}, {"uniqueid": "w73776195:a37705167", "current_trial": 199, "dateTime": 1664368230639, "trialdata": {"rt": 679, "stimulus": "<p id='stroop-text' class='stroop-green'>YELLOW</p>", "response": "g", "stimulus-type": "incongruent", "word": "yellow", "color": "green", "correct_response": "g", "trial_id": "stroop-trial-1-incongruent-15", "trial_type": "html-keyboard-response", "trial_index": 199, "time_elapsed": 303922, "internal_node_id": "0.0-8.0-13.0"}}, {"uniqueid": "w73776195:a37705167", "current_trial": 200, "dateTime": 1664368231800, "trialdata": {"rt": 656, "stimulus": "<p id='stroop-text' class='stroop-green'>FORK</p>", "response": "r", "stimulus-type": "unrelated", "word": "FORK", "color": "green", "correct_response": "g", "trial_id": "stroop-trial-1-unrelated-13", "trial_type": "html-keyboard-response", "trial_index": 200, "time_elapsed": 305083, "internal_node_id": "0.0-8.0-14.0"}}, {"uniqueid": "w73776195:a37705167", "current_trial": 201, "dateTime": 1664368232864, "trialdata": {"rt": 557, "stimulus": "<p id='stroop-text' class='stroop-red'>RED</p>", "response": "r", "stimulus-type": "congruent", "word": "red", "color": "red", "correct_response": "r", "trial_id": "stroop-trial-1-congruent-13", "trial_type": "html-keyboard-response", "trial_index": 201, "time_elapsed": 306146, "internal_node_id": "0.0-8.0-15.0"}}, {"uniqueid": "w73776195:a37705167", "current_trial": 202, "dateTime": 1664368233856, "trialdata": {"rt": 488, "stimulus": "<p id='stroop-text' class='stroop-yellow'>YELLOW</p>", "response": "b", "stimulus-type": "congruent", "word": "yellow", "color": "yellow", "correct_response": "y", "trial_id": "stroop-trial-1-congruent-23", "trial_type": "html-keyboard-response", "trial_index": 202, "time_elapsed": 307138, "internal_node_id": "0.0-8.0-16.0"}}, {"uniqueid": "w73776195:a37705167", "current_trial": 203, "dateTime": 1664368234928, "trialdata": {"rt": 567, "stimulus": "<p id='stroop-text' class='stroop-red'>BLUE</p>", "response": "r", "stimulus-type": "incongruent", "word": "blue", "color": "red", "correct_response": "r", "trial_id": "stroop-trial-1-incongruent-13", "trial_type": "html-keyboard-response", "trial_index": 203, "time_elapsed": 308210, "internal_node_id": "0.0-8.0-17.0"}}, {"uniqueid": "w73776195:a37705167", "current_trial": 204, "dateTime": 1664368236056, "trialdata": {"rt": 623, "stimulus": "<p id='stroop-text' class='stroop-green'>STONE</p>", "response": "g", "stimulus-type": "unrelated", "word": "STONE", "color": "green", "correct_response": "g", "trial_id": "stroop-trial-1-unrelated-11", "trial_type": "html-keyboard-response", "trial_index": 204, "time_elapsed": 309338, "internal_node_id": "0.0-8.0-18.0"}}, {"uniqueid": "w73776195:a37705167", "current_trial": 205, "dateTime": 1664368237104, "trialdata": {"rt": 543, "stimulus": "<p id='stroop-text' class='stroop-red'>RED</p>", "response": "r", "stimulus-type": "congruent", "word": "red", "color": "red", "correct_response": "r", "trial_id": "stroop-trial-1-congruent-21", "trial_type": "html-keyboard-response", "trial_index": 205, "time_elapsed": 310386, "internal_node_id": "0.0-8.0-19.0"}}, {"uniqueid": "w73776195:a37705167", "current_trial": 206, "dateTime": 1664368238168, "trialdata": {"rt": 558, "stimulus": "<p id='stroop-text' class='stroop-red'>WINDOW</p>", "response": "r", "stimulus-type": "unrelated", "word": "WINDOW", "color": "red", "correct_response": "r", "trial_id": "stroop-trial-1-unrelated-24", "trial_type": "html-keyboard-response", "trial_index": 206, "time_elapsed": 311450, "internal_node_id": "0.0-8.0-20.0"}}, {"uniqueid": "w73776195:a37705167", "current_trial": 207, "dateTime": 1664368239008, "trialdata": {"rt": 336, "stimulus": "<p id='stroop-text' class='stroop-red'>DOG</p>", "response": "r", "stimulus-type": "unrelated", "word": "DOG", "color": "red", "correct_response": "r", "trial_id": "stroop-trial-1-unrelated-17", "trial_type": "html-keyboard-response", "trial_index": 207, "time_elapsed": 312291, "internal_node_id": "0.0-8.0-21.0"}}, {"uniqueid": "w73776195:a37705167", "current_trial": 208, "dateTime": 1664368240008, "trialdata": {"rt": 494, "stimulus": "<p id='stroop-text' class='stroop-yellow'>YELLOW</p>", "response": "y", "stimulus-type": "congruent", "word": "yellow", "color": "yellow", "correct_response": "y", "trial_id": "stroop-trial-1-congruent-14", "trial_type": "html-keyboard-response", "trial_index": 208, "time_elapsed": 313290, "internal_node_id": "0.0-8.0-22.0"}}, {"uniqueid": "w73776195:a37705167", "current_trial": 209, "dateTime": 1664368241160, "trialdata": {"rt": 647, "stimulus": "<p id='stroop-text' class='stroop-blue'>YELLOW</p>", "response": "b", "stimulus-type": "incongruent", "word": "yellow", "color": "blue", "correct_response": "b", "trial_id": "stroop-trial-1-incongruent-17", "trial_type": "html-keyboard-response", "trial_index": 209, "time_elapsed": 314442, "internal_node_id": "0.0-8.0-23.0"}}, {"uniqueid": "w73776195:a37705167", "current_trial": 210, "dateTime": 1664368242264, "trialdata": {"rt": 594, "stimulus": "<p id='stroop-text' class='stroop-green'>BRIDGE</p>", "response": "g", "stimulus-type": "unrelated", "word": "BRIDGE", "color": "green", "correct_response": "g", "trial_id": "stroop-trial-1-unrelated-7", "trial_type": "html-keyboard-response", "trial_index": 210, "time_elapsed": 315547, "internal_node_id": "0.0-8.0-24.0"}}, {"uniqueid": "w73776195:a37705167", "current_trial": 211, "dateTime": 1664368243176, "trialdata": {"rt": 408, "stimulus": "<p id='stroop-text' class='stroop-green'>YELLOW</p>", "response": "g", "stimulus-type": "incongruent", "word": "yellow", "color": "green", "correct_response": "g", "trial_id": "stroop-trial-1-incongruent-26", "trial_type": "html-keyboard-response", "trial_index": 211, "time_elapsed": 316458, "internal_node_id": "0.0-8.0-25.0"}}, {"uniqueid": "w73776195:a37705167", "current_trial": 212, "dateTime": 1664368244304, "trialdata": {"rt": 622, "stimulus": "<p id='stroop-text' class='stroop-yellow'>YELLOW</p>", "response": "y", "stimulus-type": "congruent", "word": "yellow", "color": "yellow", "correct_response": "y", "trial_id": "stroop-trial-1-congruent-22", "trial_type": "html-keyboard-response", "trial_index": 212, "time_elapsed": 317586, "internal_node_id": "0.0-8.0-26.0"}}, {"uniqueid": "w73776195:a37705167", "current_trial": 213, "dateTime": 1664368245560, "trialdata": {"rt": 747, "stimulus": "<p id='stroop-text' class='stroop-blue'>MONKEY</p>", "response": "b", "stimulus-type": "unrelated", "word": "MONKEY", "color": "blue", "correct_response": "b", "trial_id": "stroop-trial-1-unrelated-30", "trial_type": "html-keyboard-response", "trial_index": 213, "time_elapsed": 318842, "internal_node_id": "0.0-8.0-27.0"}}, {"uniqueid": "w73776195:a37705167", "current_trial": 214, "dateTime": 1664368246648, "trialdata": {"rt": 584, "stimulus": "<p id='stroop-text' class='stroop-yellow'>BRIDGE</p>", "response": "y", "stimulus-type": "unrelated", "word": "BRIDGE", "color": "yellow", "correct_response": "y", "trial_id": "stroop-trial-1-unrelated-20", "trial_type": "html-keyboard-response", "trial_index": 214, "time_elapsed": 319930, "internal_node_id": "0.0-8.0-28.0"}}, {"uniqueid": "w73776195:a37705167", "current_trial": 215, "dateTime": 1664368247816, "trialdata": {"rt": 664, "stimulus": "<p id='stroop-text' class='stroop-green'>YELLOW</p>", "response": "g", "stimulus-type": "incongruent", "word": "yellow", "color": "green", "correct_response": "g", "trial_id": "stroop-trial-1-incongruent-2", "trial_type": "html-keyboard-response", "trial_index": 215, "time_elapsed": 321099, "internal_node_id": "0.0-8.0-29.0"}}, {"uniqueid": "w73776195:a37705167", "current_trial": 216, "dateTime": 1664368248888, "trialdata": {"rt": 566, "stimulus": "<p id='stroop-text' class='stroop-red'>BOTTLE</p>", "response": "r", "stimulus-type": "unrelated", "word": "BOTTLE", "color": "red", "correct_response": "r", "trial_id": "stroop-trial-1-unrelated-25", "trial_type": "html-keyboard-response", "trial_index": 216, "time_elapsed": 322170, "internal_node_id": "0.0-8.0-30.0"}}, {"uniqueid": "w73776195:a37705167", "current_trial": 217, "dateTime": 1664368249944, "trialdata": {"rt": 552, "stimulus": "<p id='stroop-text' class='stroop-yellow'>FORK</p>", "response": "g", "stimulus-type": "unrelated", "word": "FORK", "color": "yellow", "correct_response": "y", "trial_id": "stroop-trial-1-unrelated-15", "trial_type": "html-keyboard-response", "trial_index": 217, "time_elapsed": 323226, "internal_node_id": "0.0-8.0-31.0"}}, {"uniqueid": "w73776195:a37705167", "current_trial": 218, "dateTime": 1664368251376, "trialdata": {"rt": 927, "stimulus": "<p id='stroop-text' class='stroop-blue'>BOAT</p>", "response": "b", "stimulus-type": "unrelated", "word": "BOAT", "color": "blue", "correct_response": "b", "trial_id": "stroop-trial-1-unrelated-6", "trial_type": "html-keyboard-response", "trial_index": 218, "time_elapsed": 324658, "internal_node_id": "0.0-8.0-32.0"}}, {"uniqueid": "w73776195:a37705167", "current_trial": 219, "dateTime": 1664368252568, "trialdata": {"rt": 687, "stimulus": "<p id='stroop-text' class='stroop-yellow'>YELLOW</p>", "response": "y", "stimulus-type": "congruent", "word": "yellow", "color": "yellow", "correct_response": "y", "trial_id": "stroop-trial-1-congruent-11", "trial_type": "html-keyboard-response", "trial_index": 219, "time_elapsed": 325851, "internal_node_id": "0.0-8.0-33.0"}}, {"uniqueid": "w73776195:a37705167", "current_trial": 220, "dateTime": 1664368253720, "trialdata": {"rt": 647, "stimulus": "<p id='stroop-text' class='stroop-red'>MONKEY</p>", "response": "r", "stimulus-type": "unrelated", "word": "MONKEY", "color": "red", "correct_response": "r", "trial_id": "stroop-trial-1-unrelated-21", "trial_type": "html-keyboard-response", "trial_index": 220, "time_elapsed": 327002, "internal_node_id": "0.0-8.0-34.0"}}, {"uniqueid": "w73776195:a37705167", "current_trial": 221, "dateTime": 1664368254696, "trialdata": {"rt": 471, "stimulus": "<p id='stroop-text' class='stroop-red'>DOG</p>", "response": "r", "stimulus-type": "unrelated", "word": "DOG", "color": "red", "correct_response": "r", "trial_id": "stroop-trial-1-unrelated-22", "trial_type": "html-keyboard-response", "trial_index": 221, "time_elapsed": 327978, "internal_node_id": "0.0-8.0-35.0"}}, {"uniqueid": "w73776195:a37705167", "current_trial": 222, "dateTime": 1664368255656, "trialdata": {"rt": 455, "stimulus": "<p id='stroop-text' class='stroop-yellow'>MONKEY</p>", "response": "y", "stimulus-type": "unrelated", "word": "MONKEY", "color": "yellow", "correct_response": "y", "trial_id": "stroop-trial-1-unrelated-2", "trial_type": "html-keyboard-response", "trial_index": 222, "time_elapsed": 328938, "interna