{"condition": 0, "counterbalance": 0, "assignmentId": "a89137991", "workerId": "w24930683", "hitId": "h70616776", "currenttrial": 965, "bonus": 0, "data": [{"uniqueid": "w24930683:a89137991", "current_trial": 0, "dateTime": 1664873108784, "trialdata": {"success": true, "trial_type": "fullscreen", "trial_index": 0, "time_elapsed": 4853, "internal_node_id": "0.0-0.0"}}, {"uniqueid": "w24930683:a89137991", "current_trial": 1, "dateTime": 1664873147280, "trialdata": {"view_history": [{"page_index": 0, "viewing_time": 38480}], "rt": 38481, "trial_id": "exp_instructions_distractor", "trial_type": "instructions", "trial_index": 1, "time_elapsed": 43349, "internal_node_id": "0.0-1.0"}}, {"uniqueid": "w24930683:a89137991", "current_trial": 2, "dateTime": 1664873195758, "trialdata": {"view_history": [{"page_index": 0, "viewing_time": 48473}], "rt": 48474, "trial_id": "color_game_instructions", "trial_type": "instructions", "trial_index": 2, "time_elapsed": 91828, "internal_node_id": "0.0-2.0"}}, {"uniqueid": "w24930683:a89137991", "current_trial": 3, "dateTime": 1664873226743, "trialdata": {"rt": 30982, "stimulus": "<h1> Get ready to start the game! </h1>\n\nThank you for reading the instructions. Get ready start with the first of 5 block(s) of this game.\n<br><br>\nIn this first block, you will complete 90 rounds of this game before moving on.\n<br><br>\nRemember, the better you perform, the bigger your bonus will be!\n<br><br>\n<div style='text-align: center;'>Press <code>space</code> to begin.</div>", "response": " ", "trial_id": "stroop_1_ready_1", "trial_type": "html-keyboard-response", "trial_index": 3, "time_elapsed": 122813, "internal_node_id": "0.0-3.0"}}, {"uniqueid": "w24930683:a89137991", "current_trial": 4, "dateTime": 1664873233227, "trialdata": {"rt": 6472, "stimulus": "<p id='stroop-text' class='stroop-yellow'>BOAT</p>", "response": "y", "stimulus-type": "unrelated", "word": "BOAT", "color": "yellow", "correct_response": "y", "trial_id": "stroop-trial-1-unrelated-17", "trial_type": "html-keyboard-response", "trial_index": 4, "time_elapsed": 129296, "internal_node_id": "0.0-4.0-0.0"}}, {"uniqueid": "w24930683:a89137991", "current_trial": 5, "dateTime": 1664873239083, "trialdata": {"rt": 5353, "stimulus": "<p id='stroop-text' class='stroop-green'>RED</p>", "response": "g", "stimulus-type": "incongruent", "word": "red", "color": "green", "correct_response": "g", "trial_id": "stroop-trial-1-incongruent-26", "trial_type": "html-keyboard-response", "trial_index": 5, "time_elapsed": 135152, "internal_node_id": "0.0-4.0-1.0"}}, {"uniqueid": "w24930683:a89137991", "current_trial": 6, "dateTime": 1664873241574, "trialdata": {"rt": 1988, "stimulus": "<p id='stroop-text' class='stroop-red'>RED</p>", "response": "r", "stimulus-type": "congruent", "word": "red", "color": "red", "correct_response": "r", "trial_id": "stroop-trial-1-congruent-20", "trial_type": "html-keyboard-response", "trial_index": 6, "time_elapsed": 137643, "internal_node_id": "0.0-4.0-2.0"}}, {"uniqueid": "w24930683:a89137991", "current_trial": 7, "dateTime": 1664873244183, "trialdata": {"rt": 2106, "stimulus": "<p id='stroop-text' class='stroop-blue'>YELLOW</p>", "response": "b", "stimulus-type": "incongruent", "word": "yellow", "color": "blue", "correct_response": "b", "trial_id": "stroop-trial-1-incongruent-20", "trial_type": "html-keyboard-response", "trial_index": 7, "time_elapsed": 140252, "internal_node_id": "0.0-4.0-3.0"}}, {"uniqueid": "w24930683:a89137991", "current_trial": 8, "dateTime": 1664873246937, "trialdata": {"rt": 2252, "stimulus": "<p id='stroop-text' class='stroop-yellow'>YELLOW</p>", "response": "y", "stimulus-type": "congruent", "word": "yellow", "color": "yellow", "correct_response": "y", "trial_id": "stroop-trial-1-congruent-24", "trial_type": "html-keyboard-response", "trial_index": 8, "time_elapsed": 143007, "internal_node_id": "0.0-4.0-4.0"}}, {"uniqueid": "w24930683:a89137991", "current_trial": 9, "dateTime": 1664873248967, "trialdata": {"rt": 1526, "stimulus": "<p id='stroop-text' class='stroop-blue'>BLUE</p>", "response": "b", "stimulus-type": "congruent", "word": "blue", "color": "blue", "correct_response": "b", "trial_id": "stroop-trial-1-congruent-25", "trial_type": "html-keyboard-response", "trial_index": 9, "time_elapsed": 145036, "internal_node_id": "0.0-4.0-5.0"}}, {"uniqueid": "w24930683:a89137991", "current_trial": 10, "dateTime": 1664873250770, "trialdata": {"rt": 1301, "stimulus": "<p id='stroop-text' class='stroop-green'>BLUE</p>", "response": "b", "stimulus-type": "incongruent", "word": "blue", "color": "green", "correct_response": "g", "trial_id": "stroop-trial-1-incongruent-18", "trial_type": "html-keyboard-response", "trial_index": 10, "time_elapsed": 146840, "internal_node_id": "0.0-4.0-6.0"}}, {"uniqueid": "w24930683:a89137991", "current_trial": 11, "dateTime": 1664873254201, "trialdata": {"rt": 2928, "stimulus": "<p id='stroop-text' class='stroop-yellow'>YELLOW</p>", "response": "y", "stimulus-type": "congruent", "word": "yellow", "color": "yellow", "correct_response": "y", "trial_id": "stroop-trial-1-congruent-1", "trial_type": "html-keyboard-response", "trial_index": 11, "time_elapsed": 150271, "internal_node_id": "0.0-4.0-7.0"}}, {"uniqueid": "w24930683:a89137991", "current_trial": 12, "dateTime": 1664873255807, "trialdata": {"rt": 1103, "stimulus": "<p id='stroop-text' class='stroop-red'>RED</p>", "response": "r", "stimulus-type": "congruent", "word": "red", "color": "red", "correct_response": "r", "trial_id": "stroop-trial-1-congruent-8", "trial_type": "html-keyboard-response", "trial_index": 12, "time_elapsed": 151877, "internal_node_id": "0.0-4.0-8.0"}}, {"uniqueid": "w24930683:a89137991", "current_trial": 13, "dateTime": 1664873258041, "trialdata": {"rt": 1731, "stimulus": "<p id='stroop-text' class='stroop-green'>RED</p>", "response": "r", "stimulus-type": "incongruent", "word": "red", "color": "green", "correct_response": "g", "trial_id": "stroop-trial-1-incongruent-21", "trial_type": "html-keyboard-response", "trial_index": 13, "time_elapsed": 154111, "internal_node_id": "0.0-4.0-9.0"}}, {"uniqueid": "w24930683:a89137991", "current_trial": 14, "dateTime": 1664873262211, "trialdata": {"rt": 3666, "stimulus": "<p id='stroop-text' class='stroop-yellow'>YELLOW</p>", "response": "y", "stimulus-type": "congruent", "word": "yellow", "color": "yellow", "correct_response": "y", "trial_id": "stroop-trial-1-congruent-18", "trial_type": "html-keyboard-response", "trial_index": 14, "time_elapsed": 158280, "internal_node_id": "0.0-4.0-10.0"}}, {"uniqueid": "w24930683:a89137991", "current_trial": 15, "dateTime": 1664873263914, "trialdata": {"rt": 1201, "stimulus": "<p id='stroop-text' class='stroop-red'>RED</p>", "response": "r", "stimulus-type": "congruent", "word": "red", "color": "red", "correct_response": "r", "trial_id": "stroop-trial-1-congruent-27", "trial_type": "html-keyboard-response", "trial_index": 15, "time_elapsed": 159984, "internal_node_id": "0.0-4.0-11.0"}}, {"uniqueid": "w24930683:a89137991", "current_trial": 16, "dateTime": 1664873266265, "trialdata": {"rt": 1848, "stimulus": "<p id='stroop-text' class='stroop-red'>WINDOW</p>", "response": "r", "stimulus-type": "unrelated", "word": "WINDOW", "color": "red", "correct_response": "r", "trial_id": "stroop-trial-1-unrelated-7", "trial_type": "html-keyboard-response", "trial_index": 16, "time_elapsed": 162335, "internal_node_id": "0.0-4.0-12.0"}}, {"uniqueid": "w24930683:a89137991", "current_trial": 17, "dateTime": 1664873270083, "trialdata": {"rt": 3315, "stimulus": "<p id='stroop-text' class='stroop-red'>BRAIN</p>", "response": "r", "stimulus-type": "unrelated", "word": "BRAIN", "color": "red", "correct_response": "r", "trial_id": "stroop-trial-1-unrelated-13", "trial_type": "html-keyboard-response", "trial_index": 17, "time_elapsed": 166153, "internal_node_id": "0.0-4.0-13.0"}}, {"uniqueid": "w24930683:a89137991", "current_trial": 18, "dateTime": 1664873272919, "trialdata": {"rt": 2334, "stimulus": "<p id='stroop-text' class='stroop-yellow'>RED</p>", "response": "r", "stimulus-type": "incongruent", "word": "red", "color": "yellow", "correct_response": "y", "trial_id": "stroop-trial-1-incongruent-23", "trial_type": "html-keyboard-response", "trial_index": 18, "time_elapsed": 168989, "internal_node_id": "0.0-4.0-14.0"}}, {"uniqueid": "w24930683:a89137991", "current_trial": 19, "dateTime": 1664873274772, "trialdata": {"rt": 1351, "stimulus": "<p id='stroop-text' class='stroop-blue'>BLUE</p>", "response": "b", "stimulus-type": "congruent", "word": "blue", "color": "blue", "correct_response": "b", "trial_id": "stroop-trial-1-congruent-4", "trial_type": "html-keyboard-response", "trial_index": 19, "time_elapsed": 170842, "internal_node_id": "0.0-4.0-15.0"}}, {"uniqueid": "w24930683:a89137991", "current_trial": 20, "dateTime": 1664873277058, "trialdata": {"rt": 1783, "stimulus": "<p id='stroop-text' class='stroop-blue'>YELLOW</p>", "response": "y", "stimulus-type": "incongruent", "word": "yellow", "color": "blue", "correct_response": "b", "trial_id": "stroop-trial-1-incongruent-1", "trial_type": "html-keyboard-response", "trial_index": 20, "time_elapsed": 173128, "internal_node_id": "0.0-4.0-16.0"}}, {"uniqueid": "w24930683:a89137991", "current_trial": 21, "dateTime": 1664873279176, "trialdata": {"rt": 1616, "stimulus": "<p id='stroop-text' class='stroop-blue'>BRAIN</p>", "response": "b", "stimulus-type": "unrelated", "word": "BRAIN", "color": "blue", "correct_response": "b", "trial_id": "stroop-trial-1-unrelated-25", "trial_type": "html-keyboard-response", "trial_index": 21, "time_elapsed": 175246, "internal_node_id": "0.0-4.0-17.0"}}, {"uniqueid": "w24930683:a89137991", "current_trial": 22, "dateTime": 1664873281748, "trialdata": {"rt": 2068, "stimulus": "<p id='stroop-text' class='stroop-green'>RED</p>", "response": "r", "stimulus-type": "incongruent", "word": "red", "color": "green", "correct_response": "g", "trial_id": "stroop-trial-1-incongruent-2", "trial_type": "html-keyboard-response", "trial_index": 22, "time_elapsed": 177817, "internal_node_id": "0.0-4.0-18.0"}}, {"uniqueid": "w24930683:a89137991", "current_trial": 23, "dateTime": 1664873292447, "trialdata": {"rt": 10197, "stimulus": "<p id='stroop-text' class='stroop-yellow'>FORK</p>", "response": "y", "stimulus-type": "unrelated", "word": "FORK", "color": "yellow", "correct_response": "y", "trial_id": "stroop-trial-1-unrelated-11", "trial_type": "html-keyboard-response", "trial_index": 23, "time_elapsed": 188517, "internal_node_id": "0.0-4.0-19.0"}}, {"uniqueid": "w24930683:a89137991", "current_trial": 24, "dateTime": 1664873296627, "trialdata": {"rt": 3677, "stimulus": "<p id='stroop-text' class='stroop-yellow'>BLUE</p>", "response": "b", "stimulus-type": "incongruent", "word": "blue", "color": "yellow", "correct_response": "y", "trial_id": "stroop-trial-1-incongruent-4", "trial_type": "html-keyboard-response", "trial_index": 24, "time_elapsed": 192697, "internal_node_id": "0.0-4.0-20.0"}}, {"uniqueid": "w24930683:a89137991", "current_trial": 25, "dateTime": 1664873300654, "trialdata": {"rt": 3523, "stimulus": "<p id='stroop-text' class='stroop-green'>GREEN</p>", "response": "g", "stimulus-type": "congruent", "word": "green", "color": "green", "correct_response": "g", "trial_id": "stroop-trial-1-congruent-21", "trial_type": "html-keyboard-response", "trial_index": 25, "time_elapsed": 196723, "internal_node_id": "0.0-4.0-21.0"}}, {"uniqueid": "w24930683:a89137991", "current_trial": 26, "dateTime": 1664873304081, "trialdata": {"rt": 2925, "stimulus": "<p id='stroop-text' class='stroop-red'>BOAT</p>", "response": "r", "stimulus-type": "unrelated", "word": "BOAT", "color": "red", "correct_response": "r", "trial_id": "stroop-trial-1-unrelated-12", "trial_type": "html-keyboard-response", "trial_index": 26, "time_elapsed": 200151, "internal_node_id": "0.0-4.0-22.0"}}, {"uniqueid": "w24930683:a89137991", "current_trial": 27, "dateTime": 1664873306079, "trialdata": {"rt": 1496, "stimulus": "<p id='stroop-text' class='stroop-blue'>YELLOW</p>", "response": "y", "stimulus-type": "incongruent", "word": "yellow", "color": "blue", "correct_response": "b", "trial_id": "stroop-trial-1-incongruent-8", "trial_type": "html-keyboard-response", "trial_index": 27, "time_elapsed": 202149, "internal_node_id": "0.0-4.0-23.0"}}, {"uniqueid": "w24930683:a89137991", "current_trial": 28, "dateTime": 1664873309707, "trialdata": {"rt": 3124, "stimulus": "<p id='stroop-text' class='stroop-yellow'>RED</p>", "response": "r", "stimulus-type": "incongruent", "word": "red", "color": "yellow", "correct_response": "y", "trial_id": "stroop-trial-1-incongruent-25", "trial_type": "html-keyboard-response", "trial_index": 28, "time_elapsed": 205777, "internal_node_id": "0.0-4.0-24.0"}}, {"uniqueid": "w24930683:a89137991", "current_trial": 29, "dateTime": 1664873317737, "trialdata": {"rt": 7527, "stimulus": "<p id='stroop-text' class='stroop-yellow'>RED</p>", "response": "y", "stimulus-type": "incongruent", "word": "red", "color": "yellow", "correct_response": "y", "trial_id": "stroop-trial-1-incongruent-28", "trial_type": "html-keyboard-response", "trial_index": 29, "time_elapsed": 213806, "internal_node_id": "0.0-4.0-25.0"}}, {"uniqueid": "w24930683:a89137991", "current_trial": 30, "dateTime": 1664873319429, "trialdata": {"rt": 1190, "stimulus": "<p id='stroop-text' class='stroop-yellow'>SHIP</p>", "response": "y", "stimulus-type": "unrelated", "word": "SHIP", "color": "yellow", "correct_response": "y", "trial_id": "stroop-trial-1-unrelated-16", "trial_type": "html-keyboard-response", "trial_index": 30, "time_elapsed": 215499, "internal_node_id": "0.0-4.0-26.0"}}, {"uniqueid": "w24930683:a89137991", "current_trial": 31, "dateTime": 1664873321386, "trialdata": {"rt": 1454, "stimulus": "<p id='stroop-text' class='stroop-red'>BRIDGE</p>", "response": "r", "stimulus-type": "unrelated", "word": "BRIDGE", "color": "red", "correct_response": "r", "trial_id": "stroop-trial-1-unrelated-18", "trial_type": "html-keyboard-response", "trial_index": 31, "time_elapsed": 217456, "internal_node_id": "0.0-4.0-27.0"}}, {"uniqueid": "w24930683:a89137991", "current_trial": 32, "dateTime": 1664873323081, "trialdata": {"rt": 1191, "stimulus": "<p id='stroop-text' class='stroop-red'>BLUE</p>", "response": "b", "stimulus-type": "incongruent", "word": "blue", "color": "red", "correct_response": "r", "trial_id": "stroop-trial-1-incongruent-17", "trial_type": "html-keyboard-response", "trial_index": 32, "time_elapsed": 219151, "internal_node_id": "0.0-4.0-28.0"}}, {"uniqueid": "w24930683:a89137991", "current_trial": 33, "dateTime": 1664873325280, "trialdata": {"rt": 1697, "stimulus": "<p id='stroop-text' class='stroop-yellow'>DOG</p>", "response": "y", "stimulus-type": "unrelated", "word": "DOG", "color": "yellow", "correct_response": "y", "trial_id": "stroop-trial-1-unrelated-8", "trial_type": "html-keyboard-response", "trial_index": 33, "time_elapsed": 221350, "internal_node_id": "0.0-4.0-29.0"}}, {"uniqueid": "w24930683:a89137991", "current_trial": 34, "dateTime": 1664873327221, "trialdata": {"rt": 1437, "stimulus": "<p id='stroop-text' class='stroop-yellow'>STONE</p>", "response": "y", "stimulus-type": "unrelated", "word": "STONE", "color": "yellow", "correct_response": "y", "trial_id": "stroop-trial-1-unrelated-28", "trial_type": "html-keyboard-response", "trial_index": 34, "time_elapsed": 223291, "internal_node_id": "0.0-4.0-30.0"}}, {"uniqueid": "w24930683:a89137991", "current_trial": 35, "dateTime": 1664873329514, "trialdata": {"rt": 1791, "stimulus": "<p id='stroop-text' class='stroop-green'>YELLOW</p>", "response": "y", "stimulus-type": "incongruent", "word": "yellow", "color": "green", "correct_response": "g", "trial_id": "stroop-trial-1-incongruent-29", "trial_type": "html-keyboard-response", "trial_index": 35, "time_elapsed": 225584, "internal_node_id": "0.0-4.0-31.0"}}, {"uniqueid": "w24930683:a89137991", "current_trial": 36, "dateTime": 1664873332318, "trialdata": {"rt": 2302, "stimulus": "<p id='stroop-text' class='stroop-green'>CHAIR</p>", "response": "g", "stimulus-type": "unrelated", "word": "CHAIR", "color": "green", "correct_response": "g", "trial_id": "stroop-trial-1-unrelated-3", "trial_type": "html-keyboard-response", "trial_index": 36, "time_elapsed": 228388, "internal_node_id": "0.0-4.0-32.0"}}, {"uniqueid": "w24930683:a89137991", "current_trial": 37, "dateTime": 1664873337207, "trialdata": {"rt": 4387, "stimulus": "<p id='stroop-text' class='stroop-red'>GREEN</p>", "response": "g", "stimulus-type": "incongruent", "word": "green", "color": "red", "correct_response": "r", "trial_id": "stroop-trial-1-incongruent-27", "trial_type": "html-keyboard-response", "trial_index": 37, "time_elapsed": 233277, "internal_node_id": "0.0-4.0-33.0"}}, {"uniqueid": "w24930683:a89137991", "current_trial": 38, "dateTime": 1664873339795, "trialdata": {"rt": 2080, "stimulus": "<p id='stroop-text' class='stroop-blue'>YELLOW</p>", "response": "b", "stimulus-type": "incongruent", "word": "yellow", "color": "blue", "correct_response": "b", "trial_id": "stroop-trial-1-incongruent-19", "trial_type": "html-keyboard-response", "trial_index": 38, "time_elapsed": 235864, "internal_node_id": "0.0-4.0-34.0"}}, {"uniqueid": "w24930683:a89137991", "current_trial": 39, "dateTime": 1664873341459, "trialdata": {"rt": 1160, "stimulus": "<p id='stroop-text' class='stroop-blue'>WINDOW</p>", "response": "b", "stimulus-type": "unrelated", "word": "WINDOW", "color": "blue", "correct_response": "b", "trial_id": "stroop-trial-1-unrelated-23", "trial_type": "html-keyboard-response", "trial_index": 39, "time_elapsed": 237529, "internal_node_id": "0.0-4.0-35.0"}}, {"uniqueid": "w24930683:a89137991", "current_trial": 40, "dateTime": 1664873343168, "trialdata": {"rt": 1206, "stimulus": "<p id='stroop-text' class='stroop-yellow'>STONE</p>", "response": "y", "stimulus-type": "unrelated", "word": "STONE", "color": "yellow", "correct_response": "y", "trial_id": "stroop-trial-1-unrelated-6", "trial_type": "html-keyboard-response", "trial_index": 40, "time_elapsed": 239237, "internal_node_id": "0.0-4.0-36.0"}}, {"uniqueid": "w24930683:a89137991", "current_trial": 41, "dateTime": 1664873344797, "trialdata": {"rt": 1126, "stimulus": "<p id='stroop-text' class='stroop-blue'>SHIP</p>", "response": "b", "stimulus-type": "unrelated", "word": "SHIP", "color": "blue", "correct_response": "b", "trial_id": "stroop-trial-1-unrelated-5", "trial_type": "html-keyboard-response", "trial_index": 41, "time_elapsed": 240867, "internal_node_id": "0.0-4.0-37.0"}}, {"uniqueid": "w24930683:a89137991", "current_trial": 42, "dateTime": 1664873347865, "trialdata": {"rt": 2565, "stimulus": "<p id='stroop-text' class='stroop-yellow'>GREEN</p>", "response": "y", "stimulus-type": "incongruent", "word": "green", "color": "yellow", "correct_response": "y", "trial_id": "stroop-trial-1-incongruent-5", "trial_type": "html-keyboard-response", "trial_index": 42, "time_elapsed": 243935, "internal_node_id": "0.0-4.0-38.0"}}, {"uniqueid": "w24930683:a89137991", "current_trial": 43, "dateTime": 1664873350243, "trialdata": {"rt": 1874, "stimulus": "<p id='stroop-text' class='stroop-green'>WINDOW</p>", "response": "g", "stimulus-type": "unrelated", "word": "WINDOW", "color": "green", "correct_response": "g", "trial_id": "stroop-trial-1-unrelated-15", "trial_type": "html-keyboard-response", "trial_index": 43, "time_elapsed": 246312, "internal_node_id": "0.0-4.0-39.0"}}, {"uniqueid": "w24930683:a89137991", "current_trial": 44, "dateTime": 1664873351957, "trialdata": {"rt": 1211, "stimulus": "<p id='stroop-text' class='stroop-blue'>BLUE</p>", "response": "b", "stimulus-type": "congruent", "word": "blue", "color": "blue", "correct_response": "b", "trial_id": "stroop-trial-1-congruent-17", "trial_type": "html-keyboard-response", "trial_index": 44, "time_elapsed": 248026, "internal_node_id": "0.0-4.0-40.0"}}, {"uniqueid": "w24930683:a89137991", "current_trial": 45, "dateTime": 1664873353561, "trialdata": {"rt": 1101, "stimulus": "<p id='stroop-text' class='stroop-blue'>STONE</p>", "response": "b", "stimulus-type": "unrelated", "word": "STONE", "color": "blue", "correct_response": "b", "trial_id": "stroop-trial-1-unrelated-29", "trial_type": "html-keyboard-response", "trial_index": 45, "time_elapsed": 249631, "internal_node_id": "0.0-4.0-41.0"}}, {"uniqueid": "w24930683:a89137991", "current_trial": 46, "dateTime": 1664873355066, "trialdata": {"rt": 1002, "stimulus": "<p id='stroop-text' class='stroop-green'>GREEN</p>", "response": "g", "stimulus-type": "congruent", "word": "green", "color": "green", "correct_response": "g", "trial_id": "stroop-trial-1-congruent-29", "trial_type": "html-keyboard-response", "trial_index": 46, "time_elapsed": 251135, "internal_node_id": "0.0-4.0-42.0"}}, {"uniqueid": "w24930683:a89137991", "current_trial": 47, "dateTime": 1664873356533, "trialdata": {"rt": 964, "stimulus": "<p id='stroop-text' class='stroop-red'>RED</p>", "response": "r", "stimulus-type": "congruent", "word": "red", "color": "red", "correct_response": "r", "trial_id": "stroop-trial-1-congruent-28", "trial_type": "html-keyboard-response", "trial_index": 47, "time_elapsed": 252603, "internal_node_id": "0.0-4.0-43.0"}}, {"uniqueid": "w24930683:a89137991", "current_trial": 48, "dateTime": 1664873358017, "trialdata": {"rt": 980, "stimulus": "<p id='stroop-text' class='stroop-red'>RED</p>", "response": "r", "stimulus-type": "congruent", "word": "red", "color": "red", "correct_response": "r", "trial_id": "stroop-trial-1-congruent-15", "trial_type": "html-keyboard-response", "trial_index": 48, "time_elapsed": 254087, "internal_node_id": "0.0-4.0-44.0"}}, {"uniqueid": "w24930683:a89137991", "current_trial": 49, "dateTime": 1664873359511, "trialdata": {"rt": 991, "stimulus": "<p id='stroop-text' class='stroop-yellow'>YELLOW</p>", "response": "y", "stimulus-type": "congruent", "word": "yellow", "color": "yellow", "correct_response": "y", "trial_id": "stroop-trial-1-congruent-16", "trial_type": "html-keyboard-response", "trial_index": 49, "time_elapsed": 255581, "internal_node_id": "0.0-4.0-45.0"}}, {"uniqueid": "w24930683:a89137991", "current_trial": 50, "dateTime": 1664873360956, "trialdata": {"rt": 943, "stimulus": "<p id='stroop-text' class='stroop-red'>RED</p>", "response": "r", "stimulus-type": "congruent", "word": "red", "color": "red", "correct_response": "r", "trial_id": "stroop-trial-1-congruent-11", "trial_type": "html-keyboard-response", "trial_index": 50, "time_elapsed": 257026, "internal_node_id": "0.0-4.0-46.0"}}, {"uniqueid": "w24930683:a89137991", "current_trial": 51, "dateTime": 1664873362367, "trialdata": {"rt": 896, "stimulus": "<p id='stroop-text' class='stroop-yellow'>YELLOW</p>", "response": "y", "stimulus-type": "congruent", "word": "yellow", "color": "yellow", "correct_response": "y", "trial_id": "stroop-trial-1-congruent-26", "trial_type": "html-keyboard-response", "trial_index": 51, "time_elapsed": 258437, "internal_node_id": "0.0-4.0-47.0"}}, {"uniqueid": "w24930683:a89137991", "current_trial": 52, "dateTime": 1664873363712, "trialdata": {"rt": 841, "stimulus": "<p id='stroop-text' class='stroop-yellow'>YELLOW</p>", "response": "y", "stimulus-type": "congruent", "word": "yellow", "color": "yellow", "correct_response": "y", "trial_id": "stroop-trial-1-congruent-10", "trial_type": "html-keyboard-response", "trial_index": 52, "time_elapsed": 259781, "internal_node_id": "0.0-4.0-48.0"}}, {"uniqueid": "w24930683:a89137991", "current_trial": 53, "dateTime": 1664873365134, "trialdata": {"rt": 920, "stimulus": "<p id='stroop-text' class='stroop-blue'>STONE</p>", "response": "b", "stimulus-type": "unrelated", "word": "STONE", "color": "blue", "correct_response": "b", "trial_id": "stroop-trial-1-unrelated-19", "trial_type": "html-keyboard-response", "trial_index": 53, "time_elapsed": 261204, "internal_node_id": "0.0-4.0-49.0"}}, {"uniqueid": "w24930683:a89137991", "current_trial": 54, "dateTime": 1664873367640, "trialdata": {"rt": 2004, "stimulus": "<p id='stroop-text' class='stroop-green'>FORK</p>", "response": "g", "stimulus-type": "unrelated", "word": "FORK", "color": "green", "correct_response": "g", "trial_id": "stroop-trial-1-unrelated-20", "trial_type": "html-keyboard-response", "trial_index": 54, "time_elapsed": 263710, "internal_node_id": "0.0-4.0-50.0"}}, {"uniqueid": "w24930683:a89137991", "current_trial": 55, "dateTime": 1664873369130, "trialdata": {"rt": 985, "stimulus": "<p id='stroop-text' class='stroop-blue'>STONE</p>", "response": "b", "stimulus-type": "unrelated", "word": "STONE", "color": "blue", "correct_response": "b", "trial_id": "stroop-trial-1-unrelated-9", "trial_type": "html-keyboard-response", "trial_index": 55, "time_elapsed": 265200, "internal_node_id": "0.0-4.0-51.0"}}, {"uniqueid": "w24930683:a89137991", "current_trial": 56, "dateTime": 1664873370435, "trialdata": {"rt": 803, "stimulus": "<p id='stroop-text' class='stroop-blue'>BLUE</p>", "response": "b", "stimulus-type": "congruent", "word": "blue", "color": "blue", "correct_response": "b", "trial_id": "stroop-trial-1-congruent-30", "trial_type": "html-keyboard-response", "trial_index": 56, "time_elapsed": 266505, "internal_node_id": "0.0-4.0-52.0"}}, {"uniqueid": "w24930683:a89137991", "current_trial": 57, "dateTime": 1664873373608, "trialdata": {"rt": 2670, "stimulus": "<p id='stroop-text' class='stroop-blue'>GREEN</p>", "response": "b", "stimulus-type": "incongruent", "word": "green", "color": "blue", "correct_response": "b", "trial_id": "stroop-trial-1-incongruent-24", "trial_type": "html-keyboard-response", "trial_index": 57, "time_elapsed": 269677, "internal_node_id": "0.0-4.0-53.0"}}, {"uniqueid": "w24930683:a89137991", "current_trial": 58, "dateTime": 1664873375873, "trialdata": {"rt": 1762, "stimulus": "<p id='stroop-text' class='stroop-green'>BRAIN</p>", "response": "g", "stimulus-type": "unrelated", "word": "BRAIN", "color": "green", "correct_response": "g", "trial_id": "stroop-trial-1-unrelated-1", "trial_type": "html-keyboard-response", "trial_index": 58, "time_elapsed": 271942, "internal_node_id": "0.0-4.0-54.0"}}, {"uniqueid": "w24930683:a89137991", "current_trial": 59, "dateTime": 1664873377604, "trialdata": {"rt": 1228, "stimulus": "<p id='stroop-text' class='stroop-yellow'>STONE</p>", "response": "y", "stimulus-type": "unrelated", "word": "STONE", "color": "yellow", "correct_response": "y", "trial_id": "stroop-trial-1-unrelated-14", "trial_type": "html-keyboard-response", "trial_index": 59, "time_elapsed": 273674, "internal_node_id": "0.0-4.0-55.0"}}, {"uniqueid": "w24930683:a89137991", "current_trial": 60, "dateTime": 1664873379298, "trialdata": {"rt": 1191, "stimulus": "<p id='stroop-text' class='stroop-red'>BLUE</p>", "response": "r", "stimulus-type": "incongruent", "word": "blue", "color": "red", "correct_response": "r", "trial_id": "stroop-trial-1-incongruent-11", "trial_type": "html-keyboard-response", "trial_index": 60, "time_elapsed": 275367, "internal_node_id": "0.0-4.0-56.0"}}, {"uniqueid": "w24930683:a89137991", "current_trial": 61, "dateTime": 1664873380900, "trialdata": {"rt": 1100, "stimulus": "<p id='stroop-text' class='stroop-yellow'>YELLOW</p>", "response": "y", "stimulus-type": "congruent", "word": "yellow", "color": "yellow", "correct_response": "y", "trial_id": "stroop-trial-1-congruent-13", "trial_type": "html-keyboard-response", "trial_index": 61, "time_elapsed": 276970, "internal_node_id": "0.0-4.0-57.0"}}, {"uniqueid": "w24930683:a89137991", "current_trial": 62, "dateTime": 1664873382565, "trialdata": {"rt": 1163, "stimulus": "<p id='stroop-text' class='stroop-green'>SHIP</p>", "response": "g", "stimulus-type": "unrelated", "word": "SHIP", "color": "green", "correct_response": "g", "trial_id": "stroop-trial-1-unrelated-21", "trial_type": "html-keyboard-response", "trial_index": 62, "time_elapsed": 278635, "internal_node_id": "0.0-4.0-58.0"}}, {"uniqueid": "w24930683:a89137991", "current_trial": 63, "dateTime": 1664873384046, "trialdata": {"rt": 978, "stimulus": "<p id='stroop-text' class='stroop-yellow'>YELLOW</p>", "response": "y", "stimulus-type": "congruent", "word": "yellow", "color": "yellow", "correct_response": "y", "trial_id": "stroop-trial-1-congruent-19", "trial_type": "html-keyboard-response", "trial_index": 63, "time_elapsed": 280115, "internal_node_id": "0.0-4.0-59.0"}}, {"uniqueid": "w24930683:a89137991", "current_trial": 64, "dateTime": 1664873387094, "trialdata": {"rt": 2546, "stimulus": "<p id='stroop-text' class='stroop-red'>BLUE</p>", "response": "r", "stimulus-type": "incongruent", "word": "blue", "color": "red", "correct_response": "r", "trial_id": "stroop-trial-1-incongruent-12", "trial_type": "html-keyboard-response", "trial_index": 64, "time_elapsed": 283164, "internal_node_id": "0.0-4.0-60.0"}}, {"uniqueid": "w24930683:a89137991", "current_trial": 65, "dateTime": 1664873388903, "trialdata": {"rt": 1306, "stimulus": "<p id='stroop-text' class='stroop-green'>MONKEY</p>", "response": "g", "stimulus-type": "unrelated", "word": "MONKEY", "color": "green", "correct_response": "g", "trial_id": "stroop-trial-1-unrelated-30", "trial_type": "html-keyboard-response", "trial_index": 65, "time_elapsed": 284972, "internal_node_id": "0.0-4.0-61.0"}}, {"uniqueid": "w24930683:a89137991", "current_trial": 66, "dateTime": 1664873390976, "trialdata": {"rt": 1570, "stimulus": "<p id='stroop-text' class='stroop-green'>YELLOW</p>", "response": "g", "stimulus-type": "incongruent", "word": "yellow", "color": "green", "correct_response": "g", "trial_id": "stroop-trial-1-incongruent-7", "trial_type": "html-keyboard-response", "trial_index": 66, "time_elapsed": 287045, "internal_node_id": "0.0-4.0-62.0"}}, {"uniqueid": "w24930683:a89137991", "current_trial": 67, "dateTime": 1664873392488, "trialdata": {"rt": 1008, "stimulus": "<p id='stroop-text' class='stroop-green'>FORK</p>", "response": "g", "stimulus-type": "unrelated", "word": "FORK", "color": "green", "correct_response": "g", "trial_id": "stroop-trial-1-unrelated-10", "trial_type": "html-keyboard-response", "trial_index": 67, "time_elapsed": 288557, "internal_node_id": "0.0-4.0-63.0"}}, {"uniqueid": "w24930683:a89137991", "current_trial": 68, "dateTime": 1664873394066, "trialdata": {"rt": 1076, "stimulus": "<p id='stroop-text' class='stroop-yellow'>STONE</p>", "response": "y", "stimulus-type": "unrelated", "word": "STONE", "color": "yellow", "correct_response": "y", "trial_id": "stroop-trial-1-unrelated-22", "trial_type": "html-keyboard-response", "trial_index": 68, "time_elapsed": 290136, "internal_node_id": "0.0-4.0-64.0"}}, {"uniqueid": "w24930683:a89137991", "current_trial": 69, "dateTime": 1664873395827, "trialdata": {"rt": 1258, "stimulus": "<p id='stroop-text' class='stroop-yellow'>BLUE</p>", "response": "y", "stimulus-type": "incongruent", "word": "blue", "color": "yellow", "correct_response": "y", "trial_id": "stroop-trial-1-incongruent-15", "trial_type": "html-keyboard-response", "trial_index": 69, "time_elapsed": 291897, "internal_node_id": "0.0-4.0-65.0"}}, {"uniqueid": "w24930683:a89137991", "current_trial": 70, "dateTime": 1664873397377, "trialdata": {"rt": 1047, "stimulus": "<p id='stroop-text' class='stroop-blue'>BLUE</p>", "response": "b", "stimulus-type": "congruent", "word": "blue", "color": "blue", "correct_response": "b", "trial_id": "stroop-trial-1-congruent-12", "trial_type": "html-keyboard-response", "trial_index": 70, "time_elapsed": 293446, "internal_node_id": "0.0-4.0-66.0"}}, {"uniqueid": "w24930683:a89137991", "current_trial": 71, "dateTime": 1664873398828, "trialdata": {"rt": 948, "stimulus": "<p id='stroop-text' class='stroop-green'>BLUE</p>", "response": "b", "stimulus-type": "incongruent", "word": "blue", "color": "green", "correct_response": "g", "trial_id": "stroop-trial-1-incongruent-22", "trial_type": "html-keyboard-response", "trial_index": 71, "time_elapsed": 294898, "internal_node_id": "0.0-4.0-67.0"}}, {"uniqueid": "w24930683:a89137991", "current_trial": 72, "dateTime": 1664873401847, "trialdata": {"rt": 2517, "stimulus": "<p id='stroop-text' class='stroop-red'>BOTTLE</p>", "response": "r", "stimulus-type": "unrelated", "word": "BOTTLE", "color": "red", "correct_response": "r", "trial_id": "stroop-trial-1-unrelated-27", "trial_type": "html-keyboard-response", "trial_index": 72, "time_elapsed": 297917, "internal_node_id": "0.0-4.0-68.0"}}, {"uniqueid": "w24930683:a89137991", "current_trial": 73, "dateTime": 1664873404052, "trialdata": {"rt": 1700, "stimulus": "<p id='stroop-text' class='stroop-blue'>RED</p>", "response": "b", "stimulus-type": "incongruent", "word": "red", "color": "blue", "correct_response": "b", "trial_id": "stroop-trial-1-incongruent-14", "trial_type": "html-keyboard-response", "trial_index": 73, "time_elapsed": 300121, "internal_node_id": "0.0-4.0-69.0"}}, {"uniqueid": "w24930683:a89137991", "current_trial": 74, "dateTime": 1664873406046, "trialdata": {"rt": 1489, "stimulus": "<p id='stroop-text' class='stroop-red'>BRIDGE</p>", "response": "r", "stimulus-type": "unrelated", "word": "BRIDGE", "color": "red", "correct_response": "r", "trial_id": "stroop-trial-1-unrelated-4", "trial_type": "html-keyboard-response", "trial_index": 74, "time_elapsed": 302115, "internal_node_id": "0.0-4.0-70.0"}}, {"uniqueid": "w24930683:a89137991", "current_trial": 75, "dateTime": 1664873408612, "trialdata": {"rt": 2063, "stimulus": "<p id='stroop-text' class='stroop-red'>BRAIN</p>", "response": "r", "stimulus-type": "unrelated", "word": "BRAIN", "color": "red", "correct_response": "r", "trial_id": "stroop-trial-1-unrelated-24", "trial_type": "html-keyboard-response", "trial_index": 75, "time_elapsed": 304681, "internal_node_id": "0.0-4.0-71.0"}}, {"uniqueid": "w24930683:a89137991", "current_trial": 76, "dateTime": 1664873411511, "trialdata": {"rt": 2397, "stimulus": "<p id='stroop-text' class='stroop-yellow'>GREEN</p>", "response": "y", "stimulus-type": "incongruent", "word": "green", "color": "yellow", "correct_response": "y", "trial_id": "stroop-trial-1-incongruent-13", "trial_type": "html-keyboard-response", "trial_index": 76, "time_elapsed": 307581, "internal_node_id": "0.0-4.0-72.0"}}, {"uniqueid": "w24930683:a89137991", "current_trial": 77, "dateTime": 1664873413615, "trialdata": {"rt": 1602, "stimulus": "<p id='stroop-text' class='stroop-blue'>BRIDGE</p>", "response": "b", "stimulus-type": "unrelated", "word": "BRIDGE", "color": "blue", "correct_response": "b", "trial_id": "stroop-trial-1-unrelated-26", "trial_type": "html-keyboard-response", "trial_index": 77, "time_elapsed": 309685, "internal_node_id": "0.0-4.0-73.0"}}, {"uniqueid": "w24930683:a89137991", "current_trial": 78, "dateTime": 1664873415746, "trialdata": {"rt": 1625, "stimulus": "<p id='stroop-text' class='stroop-yellow'>WINDOW</p>", "response": "y", "stimulus-type": "unrelated", "word": "WINDOW", "color": "yellow", "correct_response": "y", "trial_id": "stroop-trial-1-unrelated-2", "trial_type": "html-keyboard-response", "trial_index": 78, "time_elapsed": 311815, "internal_node_id": "0.0-4.0-74.0"}}, {"uniqueid": "w24930683:a89137991", "current_trial": 79, "dateTime": 1664873417804, "trialdata": {"rt": 1555, "stimulus": "<p id='stroop-text' class='stroop-blue'>GREEN</p>", "response": "b", "stimulus-type": "incongruent", "word": "green", "color": "blue", "correct_response": "b", "trial_id": "stroop-trial-1-incongruent-6", "trial_type": "html-keyboard-response", "trial_index": 79, "time_elapsed": 313874, "internal_node_id": "0.0-4.0-75.0"}}, {"uniqueid": "w24930683:a89137991", "current_trial": 80, "dateTime": 1664873419318, "trialdata": {"rt": 1010, "stimulus": "<p id='stroop-text' class='stroop-yellow'>YELLOW</p>", "response": "y", "stimulus-type": "congruent", "word": "yellow", "color": "yellow", "correct_response": "y", "trial_id": "stroop-trial-1-congruent-14", "trial_type": "html-keyboard-response", "trial_index": 80, "time_elapsed": 315388, "internal_node_id": "0.0-4.0-76.0"}}, {"uniqueid": "w24930683:a89137991", "current_trial": 81, "dateTime": 1664873421548, "trialdata": {"rt": 1727, "stimulus": "<p id='stroop-text' class='stroop-red'>RED</p>", "response": "r", "stimulus-type": "congruent", "word": "red", "color": "red", "correct_response": "r", "trial_id": "stroop-trial-1-congruent-5", "trial_type": "html-keyboard-response", "trial_index": 81, "time_elapsed": 317617, "internal_node_id": "0.0-4.0-77.0"}}, {"uniqueid": "w24930683:a89137991", "current_trial": 82, "dateTime": 1664873423257, "trialdata": {"rt": 1207, "stimulus": "<p id='stroop-text' class='stroop-yellow'>GREEN</p>", "response": "g", "stimulus-type": "incongruent", "word": "green", "color": "yellow", "correct_response": "y", "trial_id": "stroop-trial-1-incongruent-30", "trial_type": "html-keyboard-response", "trial_index": 82, "time_elapsed": 319327, "internal_node_id": "0.0-4.0-78.0"}}, {"uniqueid": "w24930683:a89137991", "current_trial": 83, "dateTime": 1664873425094, "trialdata": {"rt": 1333, "stimulus": "<p id='stroop-text' class='stroop-blue'>RED</p>", "response": "b", "stimulus-type": "incongruent", "word": "red", "color": "blue", "correct_response": "b", "trial_id": "stroop-trial-1-incongruent-9", "trial_type": "html-keyboard-response", "trial_index": 83, "time_elapsed": 321163, "internal_node_id": "0.0-4.0-79.0"}}, {"uniqueid": "w24930683:a89137991", "current_trial": 84, "dateTime": 1664873427966, "trialdata": {"rt": 2370, "stimulus": "<p id='stroop-text' class='stroop-green'>GREEN</p>", "response": "g", "stimulus-type": "congruent", "word": "green", "color": "green", "correct_response": "g", "trial_id": "stroop-trial-1-congruent-22", "trial_type": "html-keyboard-response", "trial_index": 84, "time_elapsed": 324035, "internal_node_id": "0.0-4.0-80.0"}}, {"uniqueid": "w24930683:a89137991", "current_trial": 85, "dateTime": 1664873430715, "trialdata": {"rt": 2247, "stimulus": "<p id='stroop-text' class='stroop-red'>YELLOW</p>", "response": "r", "stimulus-type": "incongruent", "word": "yellow", "color": "red", "correct_response": "r", "trial_id": "stroop-trial-1-incongruent-10", "trial_type": "html-keyboard-response", "trial_index": 85, "time_elapsed": 326785, "internal_node_id": "0.0-4.0-81.0"}}, {"uniqueid": "w24930683:a89137991", "current_trial": 86, "dateTime": 1664873432266, "trialdata": {"rt": 1048, "stimulus": "<p id='stroop-text' class='stroop-red'>RED</p>", "response": "r", "stimulus-type": "congruent", "word": "red", "color": "red", "correct_response": "r", "trial_id": "stroop-trial-1-congruent-2", "trial_type": "html-keyboard-response", "trial_index": 86, "time_elapsed": 328336, "internal_node_id": "0.0-4.0-82.0"}}, {"uniqueid": "w24930683:a89137991", "current_trial": 87, "dateTime": 1664873434079, "trialdata": {"rt": 1309, "stimulus": "<p id='stroop-text' class='stroop-green'>GREEN</p>", "response": "g", "stimulus-type": "congruent", "word": "green", "color": "green", "correct_response": "g", "trial_id": "stroop-trial-1-congruent-23", "trial_type": "html-keyboard-response", "trial_index": 87, "time_elapsed": 330148, "internal_node_id": "0.0-4.0-83.0"}}, {"uniqueid": "w24930683:a89137991", "current_trial": 88, "dateTime": 1664873435807, "trialdata": {"rt": 1226, "stimulus": "<p id='stroop-text' class='stroop-green'>YELLOW</p>", "response": "y", "stimulus-type": "incongruent", "word": "yellow", "color": "green", "correct_response": "g", "trial_id": "stroop-trial-1-incongruent-16", "trial_type": "html-keyboard-response", "trial_index": 88, "time_elapsed": 331877, "internal_node_id": "0.0-4.0-84.0"}}, {"uniqueid": "w24930683:a89137991", "current_trial": 89, "dateTime": 1664873438409, "trialdata": {"rt": 2100, "stimulus": "<p id='stroop-text' class='stroop-red'>YELLOW</p>", "response": "r", "stimulus-type": "incongruent", "word": "yellow", "color": "red", "correct_response": "r", "trial_id": "stroop-trial-1-incongruent-3", "trial_type": "html-keyboard-response", "trial_index": 89, "time_elapsed": 334479, "internal_node_id": "0.0-4.0-85.0"}}, {"uniqueid": "w24930683:a89137991", "current_trial": 90, "dateTime": 1664873440531, "trialdata": {"rt": 1620, "stimulus": "<p id='stroop-text' class='stroop-red'>RED</p>", "response": "r", "stimulus-type": "congruent", "word": "red", "color": "red", "correct_response": "r", "trial_id": "stroop-trial-1-congruent-7", "trial_type": "html-keyboard-response", "trial_index": 90, "time_elapsed": 336601, "internal_node_id": "0.0-4.0-86.0"}}, {"uniqueid": "w24930683:a89137991", "current_trial": 91, "dateTime": 1664873442150, "trialdata": {"rt": 1116, "stimulus": "<p id='stroop-text' class='stroop-yellow'>YELLOW</p>", "response": "y", "stimulus-type": "congruent", "word": "yellow", "color": "yellow", "correct_response": "y", "trial_id": "stroop-trial-1-congruent-6", "trial_type": "html-keyboard-response", "trial_index": 91, "time_elapsed": 338220, "internal_node_id": "0.0-4.0-87.0"}}, {"uniqueid": "w24930683:a89137991", "current_trial": 92, "dateTime": 1664873444000, "trialdata": {"rt": 1345, "stimulus": "<p id='stroop-text' class='stroop-blue'>BLUE</p>", "response": "b", "stimulus-type": "congruent", "word": "blue", "color": "blue", "correct_response": "b", "trial_id": "stroop-trial-1-congruent-3", "trial_type": "html-keyboard-response", "trial_index": 92, "time_elapsed": 340069, "internal_node_id": "0.0-4.0-88.0"}}, {"uniqueid": "w24930683:a89137991", "current_trial": 93, "dateTime": 1664873446043, "trialdata": {"rt": 1540, "stimulus": "<p id='stroop-text' class='stroop-green'>GREEN</p>", "response": "g", "stimulus-type": "congruent", "word": "green", "color": "green", "correct_response": "g", "trial_id": "stroop-trial-1-congruent-9", "trial_type": "html-keyboard-response", "trial_index": 93, "time_elapsed": 342113, "internal_node_id": "0.0-4.0-89.0"}}, {"uniqueid": "w24930683:a89137991", "current_trial": 94, "dateTime": 1664873462717, "trialdata": {"rt": 16169, "stimulus": "  <h1> End of block! </h1>\n\n  You have reached the end of the block 1/5. If you need a short break, feel free to take one now before moving on.\n\n  <br><br>\n  In the next block, you will complete another 90 rounds of this game.\n\n  <br><br>\n  <div style='text-align: center;'>Press <code>space</code> to begin.</div>\n  <br><br>\n<div style='text-align: center;'>(If the experiment doesn't continue, try clicking on the text and then pressing <code>space</code>.)</div>", "response": " ", "trial_id": "stroop_1_ready_2", "trial_type": "html-keyboard-response", "trial_index": 94, "time_elapsed": 358787, "internal_node_id": "0.0-5.0"}}, {"uniqueid": "w24930683:a89137991", "current_trial": 95, "dateTime": 1664873464014, "trialdata": {"rt": 1294, "stimulus": "<p id='stroop-text' class='stroop-red'>RED</p>", "response": "r", "stimulus-type": "congruent", "word": "red", "color": "red", "correct_response": "r", "trial_id": "stroop-trial-1-congruent-7", "trial_type": "html-keyboard-response", "trial_index": 95, "time_elapsed": 360084, "internal_node_id": "0.0-6.0-0.0"}}, {"uniqueid": "w24930683:a89137991", "current_trial": 96, "dateTime": 1664873465924, "trialdata": {"rt": 1407, "stimulus": "<p id='stroop-text' class='stroop-red'>YELLOW</p>", "response": "r", "stimulus-type": "incongruent", "word": "yellow", "color": "red", "correct_response": "r", "trial_id": "stroop-trial-1-incongruent-2", "trial_type": "html-keyboard-response", "trial_index": 96, "time_elapsed": 361994, "internal_node_id": "0.0-6.0-1.0"}}, {"uniqueid": "w24930683:a89137991", "current_trial": 97, "dateTime": 1664873467490, "trialdata": {"rt": 1062, "stimulus": "<p id='stroop-text' class='stroop-red'>RED</p>", "response": "r", "stimulus-type": "congruent", "word": "red", "color": "red", "correct_response": "r", "trial_id": "stroop-trial-1-congruent-17", "trial_type": "html-keyboard-response", "trial_index": 97, "time_elapsed": 363560, "internal_node_id": "0.0-6.0-2.0"}}, {"uniqueid": "w24930683:a89137991", "current_trial": 98, "dateTime": 1664873469042, "trialdata": {"rt": 1048, "stimulus": "<p id='stroop-text' class='stroop-blue'>DOG</p>", "response": "b", "stimulus-type": "unrelated", "word": "DOG", "color": "blue", "correct_response": "b", "trial_id": "stroop-trial-1-unrelated-8", "trial_type": "html-keyboard-response", "trial_index": 98, "time_elapsed": 365111, "internal_node_id": "0.0-6.0-3.0"}}, {"uniqueid": "w24930683:a89137991", "current_trial": 99, "dateTime": 1664873470628, "trialdata": {"rt": 1083, "stimulus": "<p id='stroop-text' class='stroop-green'>GREEN</p>", "response": "g", "stimulus-type": "congruent", "word": "green", "color": "green", "correct_response": "g", "trial_id": "stroop-trial-1-congruent-6", "trial_type": "html-keyboard-response", "trial_index": 99, "time_elapsed": 366698, "internal_node_id": "0.0-6.0-4.0"}}, {"uniqueid": "w24930683:a89137991", "current_trial": 100, "dateTime": 1664873472300, "trialdata": {"rt": 1169, "stimulus": "<p id='stroop-text' class='stroop-red'>RED</p>", "response": "r", "stimulus-type": "congruent", "word": "red", "color": "red", "correct_response": "r", "trial_id": "stroop-trial-1-congruent-12", "trial_type": "html-keyboard-response", "trial_index": 100, "time_elapsed": 368370, "internal_node_id": "0.0-6.0-5.0"}}, {"uniqueid": "w24930683:a89137991", "current_trial": 101, "dateTime": 1664873474660, "trialdata": {"rt": 1855, "stimulus": "<p id='stroop-text' class='stroop-red'>GREEN</p>", "response": "r", "stimulus-type": "incongruent", "word": "green", "color": "red", "correct_response": "r", "trial_id": "stroop-trial-1-incongruent-9", "trial_type": "html-keyboard-response", "trial_index": 101, "time_elapsed": 370729, "internal_node_id": "0.0-6.0-6.0"}}, {"uniqueid": "w24930683:a89137991", "current_trial": 102, "dateTime": 1664873476414, "trialdata": {"rt": 1251, "stimulus": "<p id='stroop-text' class='stroop-yellow'>BRIDGE</p>", "response": "y", "stimulus-type": "unrelated", "word": "BRIDGE", "color": "yellow", "correct_response": "y", "trial_id": "stroop-trial-1-unrelated-22", "trial_type": "html-keyboard-response", "trial_index": 102, "time_elapsed": 372483, "internal_node_id": "0.0-6.0-7.0"}}, {"uniqueid": "w24930683:a89137991", "current_trial": 103, "dateTime": 1664873478431, "trialdata": {"rt": 1513, "stimulus": "<p id='stroop-text' class='stroop-green'>GREEN</p>", "response": "g", "stimulus-type": "congruent", "word": "green", "color": "green", "correct_response": "g", "trial_id": "stroop-trial-1-congruent-27", "trial_type": "html-keyboard-response", "trial_index": 103, "time_elapsed": 374500, "internal_node_id": "0.0-6.0-8.0"}}, {"uniqueid": "w24930683:a89137991", "current_trial": 104, "dateTime": 1664873480126, "trialdata": {"rt": 1193, "stimulus": "<p id='stroop-text' class='stroop-blue'>RED</p>", "response": "b", "stimulus-type": "incongruent", "word": "red", "color": "blue", "correct_response": "b", "trial_id": "stroop-trial-1-incongruent-18", "trial_type": "html-keyboard-response", "trial_index": 104, "time_elapsed": 376196, "internal_node_id": "0.0-6.0-9.0"}}, {"uniqueid": "w24930683:a89137991", "current_trial": 105, "dateTime": 1664873481854, "trialdata": {"rt": 1224, "stimulus": "<p id='stroop-text' class='stroop-blue'>WINDOW</p>", "response": "b", "stimulus-type": "unrelated", "word": "WINDOW", "color": "blue", "correct_response": "b", "trial_id": "stroop-trial-1-unrelated-20", "trial_type": "html-keyboard-response", "trial_index": 105, "time_elapsed": 377924, "internal_node_id": "0.0-6.0-10.0"}}, {"uniqueid": "w24930683:a89137991", "current_trial": 106, "dateTime": 1664873483269, "trialdata": {"rt": 911, "stimulus": "<p id='stroop-text' class='stroop-blue'>RED</p>", "response": "b", "stimulus-type": "incongruent", "word": "red", "color": "blue", "correct_response": "b", "trial_id": "stroop-trial-1-incongruent-26", "trial_type": "html-keyboard-response", "trial_index": 106, "time_elapsed": 379339, "internal_node_id": "0.0-6.0-11.0"}}, {"uniqueid": "w24930683:a89137991", "current_trial": 107, "dateTime": 1664873484801, "trialdata": {"rt": 1027, "stimulus": "<p id='stroop-text' class='stroop-yellow'>RED</p>", "response": "y", "stimulus-type": "incongruent", "word": "red", "color": "yellow", "correct_response": "y", "trial_id": "stroop-trial-1-incongruent-12", "trial_type": "html-keyboard-response", "trial_index": 107, "time_elapsed": 380870, "internal_node_id": "0.0-6.0-12.0"}}, {"uniqueid": "w24930683:a89137991", "current_trial": 108, "dateTime": 1664873486263, "trialdata": {"rt": 959, "stimulus": "<p id='stroop-text' class='stroop-yellow'>YELLOW</p>", "response": "y", "stimulus-type": "congruent", "word": "yellow", "color": "yellow", "correct_response": "y", "trial_id": "stroop-trial-1-congruent-13", "trial_type": "html-keyboard-response", "trial_index": 108, "time_elapsed": 382333, "internal_node_id": "0.0-6.0-13.0"}}, {"uniqueid": "w24930683:a89137991", "current_trial": 109, "dateTime": 1664873488022, "trialdata": {"rt": 1255, "stimulus": "<p id='stroop-text' class='stroop-red'>BRAIN</p>", "response": "r", "stimulus-type": "unrelated", "word": "BRAIN", "color": "red", "correct_response": "r", "trial_id": "stroop-trial-1-unrelated-19", "trial_type": "html-keyboard-response", "trial_index": 109, "time_elapsed": 384091, "internal_node_id": "0.0-6.0-14.0"}}, {"uniqueid": "w24930683:a89137991", "current_trial": 110, "dateTime": 1664873489509, "trialdata": {"rt": 984, "stimulus": "<p id='stroop-text' class='stroop-green'>GREEN</p>", "response": "g", "stimulus-type": "congruent", "word": "green", "color": "green", "correct_response": "g", "trial_id": "stroop-trial-1-congruent-9", "trial_type": "html-keyboard-response", "trial_index": 110, "time_elapsed": 385579, "internal_node_id": "0.0-6.0-15.0"}}, {"uniqueid": "w24930683:a89137991", "current_trial": 111, "dateTime": 1664873491162, "trialdata": {"rt": 1149, "stimulus": "<p id='stroop-text' class='stroop-yellow'>GREEN</p>", "response": "y", "stimulus-type": "incongruent", "word": "green", "color": "yellow", "correct_response": "y", "trial_id": "stroop-trial-1-incongruent-8", "trial_type": "html-keyboard-response", "trial_index": 111, "time_elapsed": 387232, "internal_node_id": "0.0-6.0-16.0"}}, {"uniqueid": "w24930683:a89137991", "current_trial": 112, "dateTime": 1664873492731, "trialdata": {"rt": 1067, "stimulus": "<p id='stroop-text' class='stroop-green'>GREEN</p>", "response": "g", "stimulus-type": "congruent", "word": "green", "color": "green", "correct_response": "g", "trial_id": "stroop-trial-1-congruent-16", "trial_type": "html-keyboard-response", "trial_index": 112, "time_elapsed": 388801, "internal_node_id": "0.0-6.0-17.0"}}, {"uniqueid": "w24930683:a89137991", "current_trial": 113, "dateTime": 1664873494265, "trialdata": {"rt": 1030, "stimulus": "<p id='stroop-text' class='stroop-yellow'>YELLOW</p>", "response": "y", "stimulus-type": "congruent", "word": "yellow", "color": "yellow", "correct_response": "y", "trial_id": "stroop-trial-1-congruent-21", "trial_type": "html-keyboard-response", "trial_index": 113, "time_elapsed": 390335, "internal_node_id": "0.0-6.0-18.0"}}, {"uniqueid": "w24930683:a89137991", "current_trial": 114, "dateTime": 1664873495977, "trialdata": {"rt": 1208, "stimulus": "<p id='stroop-text' class='stroop-yellow'>GREEN</p>", "response": "y", "stimulus-type": "incongruent", "word": "green", "color": "yellow", "correct_response": "y", "trial_id": "stroop-trial-1-incongruent-6", "trial_type": "html-keyboard-response", "trial_index": 114, "time_elapsed": 392047, "internal_node_id": "0.0-6.0-19.0"}}, {"uniqueid": "w24930683:a89137991", "current_trial": 115, "dateTime": 1664873497447, "trialdata": {"rt": 967, "stimulus": "<p id='stroop-text' class='stroop-blue'>WINDOW</p>", "response": "b", "stimulus-type": "unrelated", "word": "WINDOW", "color": "blue", "correct_response": "b", "trial_id": "stroop-trial-1-unrelated-30", "trial_type": "html-keyboard-response", "trial_index": 115, "time_elapsed": 393517, "internal_node_id": "0.0-6.0-20.0"}}, {"uniqueid": "w24930683:a89137991", "current_trial": 116, "dateTime": 1664873499533, "trialdata": {"rt": 1584, "stimulus": "<p id='stroop-text' class='stroop-blue'>RED</p>", "response": "b", "stimulus-type": "incongruent", "word": "red", "color": "blue", "correct_response": "b", "trial_id": "stroop-trial-1-incongruent-5", "trial_type": "html-keyboard-response", "trial_index": 116, "time_elapsed": 395603, "internal_node_id": "0.0-6.0-21.0"}}, {"uniqueid": "w24930683:a89137991", "current_trial": 117, "dateTime": 1664873501089, "trialdata": {"rt": 1050, "stimulus": "<p id='stroop-text' class='stroop-red'>STONE</p>", "response": "r", "stimulus-type": "unrelated", "word": "STONE", "color": "red", "correct_response": "r", "trial_id": "stroop-trial-1-unrelated-13", "trial_type": "html-keyboard-response", "trial_index": 117, "time_elapsed": 397159, "internal_node_id": "0.0-6.0-22.0"}}, {"uniqueid": "w24930683:a89137991", "current_trial": 118, "dateTime": 1664873503177, "trialdata": {"rt": 1585, "stimulus": "<p id='stroop-text' class='stroop-green'>RED</p>", "response": "g", "stimulus-type": "incongruent", "word": "red", "color": "green", "correct_response": "g", "trial_id": "stroop-trial-1-incongruent-16", "trial_type": "html-keyboard-response", "trial_index": 118, "time_elapsed": 399247, "internal_node_id": "0.0-6.0-23.0"}}, {"uniqueid": "w24930683:a89137991", "current_trial": 119, "dateTime": 1664873504992, "trialdata": {"rt": 1312, "stimulus": "<p id='stroop-text' class='stroop-blue'>YELLOW</p>", "response": "b", "stimulus-type": "incongruent", "word": "yellow", "color": "blue", "correct_response": "b", "trial_id": "stroop-trial-1-incongruent-17", "trial_type": "html-keyboard-response", "trial_index": 119, "time_elapsed": 401061, "internal_node_id": "0.0-6.0-24.0"}}, {"uniqueid": "w24930683:a89137991", "current_trial": 120, "dateTime": 1664873506561, "trialdata": {"rt": 1066, "stimulus": "<p id='stroop-text' class='stroop-blue'>DOG</p>", "response": "b", "stimulus-type": "unrelated", "word": "DOG", "color": "blue", "correct_response": "b", "trial_id": "stroop-trial-1-unrelated-3", "trial_type": "html-keyboard-response", "trial_index": 120, "time_elapsed": 402630, "internal_node_id": "0.0-6.0-25.0"}}, {"uniqueid": "w24930683:a89137991", "current_trial": 121, "dateTime": 1664873508239, "trialdata": {"rt": 1175, "stimulus": "<p id='stroop-text' class='stroop-yellow'>GREEN</p>", "response": "y", "stimulus-type": "incongruent", "word": "green", "color": "yellow", "correct_response": "y", "trial_id": "stroop-trial-1-incongruent-14", "trial_type": "html-keyboard-response", "trial_index": 121, "time_elapsed": 404308, "internal_node_id": "0.0-6.0-26.0"}}, {"uniqueid": "w24930683:a89137991", "current_trial": 122, "dateTime": 1664873509648, "trialdata": {"rt": 907, "stimulus": "<p id='stroop-text' class='stroop-red'>RED</p>", "response": "r", "stimulus-type": "congruent", "word": "red", "color": "red", "correct_response": "r", "trial_id": "stroop-trial-1-congruent-20", "trial_type": "html-keyboard-response", "trial_index": 122, "time_elapsed": 405718, "internal_node_id": "0.0-6.0-27.0"}}, {"uniqueid": "w24930683:a89137991", "current_trial": 123, "dateTime": 1664873511260, "trialdata": {"rt": 1108, "stimulus": "<p id='stroop-text' class='stroop-red'>RED</p>", "response": "r", "stimulus-type": "congruent", "word": "red", "color": "red", "correct_response": "r", "trial_id": "stroop-trial-1-congruent-14", "trial_type": "html-keyboard-response", "trial_index": 123, "time_elapsed": 407330, "internal_node_id": "0.0-6.0-28.0"}}, {"uniqueid": "w24930683:a89137991", "current_trial": 124, "dateTime": 1664873513762, "trialdata": {"rt": 1999, "stimulus": "<p id='stroop-text' class='stroop-blue'>GREEN</p>", "response": "b", "stimulus-type": "incongruent", "word": "green", "color": "blue", "correct_response": "b", "trial_id": "stroop-trial-1-incongruent-24", "trial_type": "html-keyboard-response", "trial_index": 124, "time_elapsed": 409832, "internal_node_id": "0.0-6.0-29.0"}}, {"uniqueid": "w24930683:a89137991", "current_trial": 125, "dateTime": 1664873515233, "trialdata": {"rt": 968, "stimulus": "<p id='stroop-text' class='stroop-blue'>BLUE</p>", "response": "b", "stimulus-type": "congruent", "word": "blue", "color": "blue", "correct_response": "b", "trial_id": "stroop-trial-1-congruent-25", "trial_type": "html-keyboard-response", "trial_index": 125, "time_elapsed": 411303, "internal_node_id": "0.0-6.0-30.0"}}, {"uniqueid": "w24930683:a89137991", "current_trial": 126, "dateTime": 1664873516853, "trialdata": {"rt": 1117, "stimulus": "<p id='stroop-text' class='stroop-red'>RED</p>", "response": "r", "stimulus-type": "congruent", "word": "red", "color": "red", "correct_response": "r", "trial_id": "stroop-trial-1-congruent-30", "trial_type": "html-keyboard-response", "trial_index": 126, "time_elapsed": 412923, "internal_node_id": "0.0-6.0-31.0"}}, {"uniqueid": "w24930683:a89137991", "current_trial": 127, "dateTime": 1664873519783, "trialdata": {"rt": 2426, "stimulus": "<p id='stroop-text' class='stroop-green'>YELLOW</p>", "response": "g", "stimulus-type": "incongruent", "word": "yellow", "color": "green", "correct_response": "g", "trial_id": "stroop-trial-1-incongruent-19", "trial_type": "html-keyboard-response", "trial_index": 127, "time_elapsed": 415853, "internal_node_id": "0.0-6.0-32.0"}}, {"uniqueid": "w24930683:a89137991", "current_trial": 128, "dateTime": 1664873521684, "trialdata": {"rt": 1397, "stimulus": "<p id='stroop-text' class='stroop-red'>DOG</p>", "response": "r", "stimulus-type": "unrelated", "word": "DOG", "color": "red", "correct_response": "r", "trial_id": "stroop-trial-1-unrelated-25", "trial_type": "html-keyboard-response", "trial_index": 128, "time_elapsed": 417754, "internal_node_id": "0.0-6.0-33.0"}}, {"uniqueid": "w24930683:a89137991", "current_trial": 129, "dateTime": 1664873523195, "trialdata": {"rt": 1008, "stimulus": "<p id='stroop-text' class='stroop-yellow'>FORK</p>", "response": "y", "stimulus-type": "unrelated", "word": "FORK", "color": "yellow", "correct_response": "y", "trial_id": "stroop-trial-1-unrelated-18", "trial_type": "html-keyboard-response", "trial_index": 129, "time_elapsed": 419265, "internal_node_id": "0.0-6.0-34.0"}}, {"uniqueid": "w24930683:a89137991", "current_trial": 130, "dateTime": 1664873524859, "trialdata": {"rt": 1160, "stimulus": "<p id='stroop-text' class='stroop-red'>RED</p>", "response": "r", "stimulus-type": "congruent", "word": "red", "color": "red", "correct_response": "r", "trial_id": "stroop-trial-1-congruent-23", "trial_type": "html-keyboard-response", "trial_index": 130, "time_elapsed": 420929, "internal_node_id": "0.0-6.0-35.0"}}, {"uniqueid": "w24930683:a89137991", "current_trial": 131, "dateTime": 1664873526488, "trialdata": {"rt": 1127, "stimulus": "<p id='stroop-text' class='stroop-red'>BRAIN</p>", "response": "r", "stimulus-type": "unrelated", "word": "BRAIN", "color": "red", "correct_response": "r", "trial_id": "stroop-trial-1-unrelated-1", "trial_type": "html-keyboard-response", "trial_index": 131, "time_elapsed": 422558, "internal_node_id": "0.0-6.0-36.0"}}, {"uniqueid": "w24930683:a89137991", "current_trial": 132, "dateTime": 1664873528099, "trialdata": {"rt": 1106, "stimulus": "<p id='stroop-text' class='stroop-yellow'>SHIP</p>", "response": "y", "stimulus-type": "unrelated", "word": "SHIP", "color": "yellow", "correct_response": "y", "trial_id": "stroop-trial-1-unrelated-26", "trial_type": "html-keyboard-response", "trial_index": 132, "time_elapsed": 424169, "internal_node_id": "0.0-6.0-37.0"}}, {"uniqueid": "w24930683:a89137991", "current_trial": 133, "dateTime": 1664873529739, "trialdata": {"rt": 1136, "stimulus": "<p id='stroop-text' class='stroop-blue'>CHAIR</p>", "response": "b", "stimulus-type": "unrelated", "word": "CHAIR", "color": "blue", "correct_response": "b", "trial_id": "stroop-trial-1-unrelated-29", "trial_type": "html-keyboard-response", "trial_index": 133, "time_elapsed": 425809, "internal_node_id": "0.0-6.0-38.0"}}, {"uniqueid": "w24930683:a89137991", "current_trial": 134, "dateTime": 1664873533891, "trialdata": {"rt": 3650, "stimulus": "<p id='stroop-text' class='stroop-blue'>RED</p>", "response": "b", "stimulus-type": "incongruent", "word": "red", "color": "blue", "correct_response": "b", "trial_id": "stroop-trial-1-incongruent-28", "trial_type": "html-keyboard-response", "trial_index": 134, "time_elapsed": 429961, "internal_node_id": "0.0-6.0-39.0"}}, {"uniqueid": "w24930683:a89137991", "current_trial": 135, "dateTime": 1664873535438, "trialdata": {"rt": 1043, "stimulus": "<p id='stroop-text' class='stroop-green'>BOAT</p>", "response": "g", "stimulus-type": "unrelated", "word": "BOAT", "color": "green", "correct_response": "g", "trial_id": "stroop-trial-1-unrelated-11", "trial_type": "html-keyboard-response", "trial_index": 135, "time_elapsed": 431508, "internal_node_id": "0.0-6.0-40.0"}}, {"uniqueid": "w24930683:a89137991", "current_trial": 136, "dateTime": 1664873537606, "trialdata": {"rt": 1665, "stimulus": "<p id='stroop-text' class='stroop-yellow'>BLUE</p>", "response": "y", "stimulus-type": "incongruent", "word": "blue", "color": "yellow", "correct_response": "y", "trial_id": "stroop-trial-1-incongruent-27", "trial_type": "html-keyboard-response", "trial_index": 136, "time_elapsed": 433676, "internal_node_id": "0.0-6.0-41.0"}}, {"uniqueid": "w24930683:a89137991", "current_trial": 137, "dateTime": 1664873540399, "trialdata": {"rt": 2290, "stimulus": "<p id='stroop-text' class='stroop-green'>BRAIN</p>", "response": "g", "stimulus-type": "unrelated", "word": "BRAIN", "color": "green", "correct_response": "g", "trial_id": "stroop-trial-1-unrelated-16", "trial_type": "html-keyboard-response", "trial_index": 137, "time_elapsed": 436469, "internal_node_id": "0.0-6.0-42.0"}}, {"uniqueid": "w24930683:a89137991", "current_trial": 138, "dateTime": 1664873541941, "trialdata": {"rt": 1036, "stimulus": "<p id='stroop-text' class='stroop-green'>WINDOW</p>", "response": "g", "stimulus-type": "unrelated", "word": "WINDOW", "color": "green", "correct_response": "g", "trial_id": "stroop-trial-1-unrelated-24", "trial_type": "html-keyboard-response", "trial_index": 138, "time_elapsed": 438011, "internal_node_id": "0.0-6.0-43.0"}}, {"uniqueid": "w24930683:a89137991", "current_trial": 139, "dateTime": 1664873544436, "trialdata": {"rt": 1989, "stimulus": "<p id='stroop-text' class='stroop-yellow'>CHAIR</p>", "response": "y", "stimulus-type": "unrelated", "word": "CHAIR", "color": "yellow", "correct_response": "y", "trial_id": "stroop-trial-1-unrelated-15", "trial_type": "html-keyboard-response", "trial_index": 139, "time_elapsed": 440505, "internal_node_id": "0.0-6.0-44.0"}}, {"uniqueid": "w24930683:a89137991", "current_trial": 140, "dateTime": 1664873546892, "trialdata": {"rt": 1953, "stimulus": "<p id='stroop-text' class='stroop-red'>RED</p>", "response": "r", "stimulus-type": "congruent", "word": "red", "color": "red", "correct_response": "r", "trial_id": "stroop-trial-1-congruent-4", "trial_type": "html-keyboard-response", "trial_index": 140, "time_elapsed": 442962, "internal_node_id": "0.0-6.0-45.0"}}, {"uniqueid": "w24930683:a89137991", "current_trial": 141, "dateTime": 1664873548627, "trialdata": {"rt": 1231, "stimulus": "<p id='stroop-text' class='stroop-green'>GREEN</p>", "response": "g", "stimulus-type": "congruent", "word": "green", "color": "green", "correct_response": "g", "trial_id": "stroop-trial-1-congruent-8", "trial_type": "html-keyboard-response", "trial_index": 141, "time_elapsed": 444696, "internal_node_id": "0.0-6.0-46.0"}}, {"uniqueid": "w24930683:a89137991", "current_trial": 142, "dateTime": 1664873551003, "trialdata": {"rt": 1873, "stimulus": "<p id='stroop-text' class='stroop-green'>STONE</p>", "response": "g", "stimulus-type": "unrelated", "word": "STONE", "color": "green", "correct_response": "g", "trial_id": "stroop-trial-1-unrelated-10", "trial_type": "html-keyboard-response", "trial_index": 142, "time_elapsed": 447073, "internal_node_id": "0.0-6.0-47.0"}}, {"uniqueid": "w24930683:a89137991", "current_trial": 143, "dateTime": 1664873552403, "trialdata": {"rt": 897, "stimulus": "<p id='stroop-text' class='stroop-blue'>BLUE</p>", "response": "b", "stimulus-type": "congruent", "word": "blue", "color": "blue", "correct_response": "b", "trial_id": "stroop-trial-1-congruent-11", "trial_type": "html-keyboard-response", "trial_index": 143, "time_elapsed": 448473, "internal_node_id": "0.0-6.0-48.0"}}, {"uniqueid": "w24930683:a89137991", "current_trial": 144, "dateTime": 1664873553917, "trialdata": {"rt": 1011, "stimulus": "<p id='stroop-text' class='stroop-yellow'>GREEN</p>", "response": "y", "stimulus-type": "incongruent", "word": "green", "color": "yellow", "correct_response": "y", "trial_id": "stroop-trial-1-incongruent-13", "trial_type": "html-keyboard-response", "trial_index": 144, "time_elapsed": 449987, "internal_node_id": "0.0-6.0-49.0"}}, {"uniqueid": "w24930683:a89137991", "current_trial": 145, "dateTime": 1664873555302, "trialdata": {"rt": 881, "stimulus": "<p id='stroop-text' class='stroop-yellow'>STONE</p>", "response": "y", "stimulus-type": "unrelated", "word": "STONE", "color": "yellow", "correct_response": "y", "trial_id": "stroop-trial-1-unrelated-28", "trial_type": "html-keyboard-response", "trial_index": 145, "time_elapsed": 451372, "internal_node_id": "0.0-6.0-50.0"}}, {"uniqueid": "w24930683:a89137991", "current_trial": 146, "dateTime": 1664873556493, "trialdata": {"rt": 686, "stimulus": "<p id='stroop-text' class='stroop-yellow'>YELLOW</p>", "response": "y", "stimulus-type": "congruent", "word": "yellow", "color": "yellow", "correct_response": "y", "trial_id": "stroop-trial-1-congruent-24", "trial_type": "html-keyboard-response", "trial_index": 146, "time_elapsed": 452562, "internal_node_id": "0.0-6.0-51.0"}}, {"uniqueid": "w24930683:a89137991", "current_trial": 147, "dateTime": 1664873558587, "trialdata": {"rt": 1591, "stimulus": "<p id='stroop-text' class='stroop-blue'>GREEN</p>", "response": "b", "stimulus-type": "incongruent", "word": "green", "color": "blue", "correct_response": "b", "trial_id": "stroop-trial-1-incongruent-29", "trial_type": "html-keyboard-response", "trial_index": 147, "time_elapsed": 454657, "internal_node_id": "0.0-6.0-52.0"}}, {"uniqueid": "w24930683:a89137991", "current_trial": 148, "dateTime": 1664873561454, "trialdata": {"rt": 2361, "stimulus": "<p id='stroop-text' class='stroop-blue'>BRAIN</p>", "response": "b", "stimulus-type": "unrelated", "word": "BRAIN", "color": "blue", "correct_response": "b", "trial_id": "stroop-trial-1-unrelated-23", "trial_type": "html-keyboard-response", "trial_index": 148, "time_elapsed": 457524, "internal_node_id": "0.0-6.0-53.0"}}, {"uniqueid": "w24930683:a89137991", "current_trial": 149, "dateTime": 1664873562977, "trialdata": {"rt": 1019, "stimulus": "<p id='stroop-text' class='stroop-yellow'>BRAIN</p>", "response": "y", "stimulus-type": "unrelated", "word": "BRAIN", "color": "yellow", "correct_response": "y", "trial_id": "stroop-trial-1-unrelated-6", "trial_type": "html-keyboard-response", "trial_index": 149, "time_elapsed": 459047, "internal_node_id": "0.0-6.0-54.0"}}, {"uniqueid": "w24930683:a89137991", "current_trial": 150, "dateTime": 1664873564440, "trialdata": {"rt": 960, "stimulus": "<p id='stroop-text' class='stroop-red'>RED</p>", "response": "r", "stimulus-type": "congruent", "word": "red", "color": "red", "correct_response": "r", "trial_id": "stroop-trial-1-congruent-5", "trial_type": "html-keyboard-response", "trial_index": 150, "time_elapsed": 460510, "internal_node_id": "0.0-6.0-55.0"}}, {"uniqueid": "w24930683:a89137991", "current_trial": 151, "dateTime": 1664873567282, "trialdata": {"rt": 2338, "stimulus": "<p id='stroop-text' class='stroop-blue'>DOG</p>", "response": "b", "stimulus-type": "unrelated", "word": "DOG", "color": "blue", "correct_response": "b", "trial_id": "stroop-trial-1-unrelated-27", "trial_type": "html-keyboard-response", "trial_index": 151, "time_elapsed": 463352, "internal_node_id": "0.0-6.0-56.0"}}, {"uniqueid": "w24930683:a89137991", "current_trial": 152, "dateTime": 1664873569640, "trialdata": {"rt": 1855, "stimulus": "<p id='stroop-text' class='stroop-red'>GREEN</p>", "response": "r", "stimulus-type": "incongruent", "word": "green", "color": "red", "correct_response": "r", "trial_id": "stroop-trial-1-incongruent-4", "trial_type": "html-keyboard-response", "trial_index": 152, "time_elapsed": 465710, "internal_node_id": "0.0-6.0-57.0"}}, {"uniqueid": "w24930683:a89137991", "current_trial": 153, "dateTime": 1664873572220, "trialdata": {"rt": 2076, "stimulus": "<p id='stroop-text' class='stroop-blue'>RED</p>", "response": "b", "stimulus-type": "incongruent", "word": "red", "color": "blue", "correct_response": "b", "trial_id": "stroop-trial-1-incongruent-11", "trial_type": "html-keyboard-response", "trial_index": 153, "time_elapsed": 468290, "internal_node_id": "0.0-6.0-58.0"}}, {"uniqueid": "w24930683:a89137991", "current_trial": 154, "dateTime": 1664873576000, "trialdata": {"rt": 3276, "stimulus": "<p id='stroop-text' class='stroop-yellow'>BRAIN</p>", "response": "y", "stimulus-type": "unrelated", "word": "BRAIN", "color": "yellow", "correct_response": "y", "trial_id": "stroop-trial-1-unrelated-2", "trial_type": "html-keyboard-response", "trial_index": 154, "time_elapsed": 472069, "internal_node_id": "0.0-6.0-59.0"}}, {"uniqueid": "w24930683:a89137991", "current_trial": 155, "dateTime": 1664873577825, "trialdata": {"rt": 1320, "stimulus": "<p id='stroop-text' class='stroop-blue'>MONKEY</p>", "response": "b", "stimulus-type": "unrelated", "word": "MONKEY", "color": "blue", "correct_response": "b", "trial_id": "stroop-trial-1-unrelated-14", "trial_type": "html-keyboard-response", "trial_index": 155, "time_elapsed": 473894, "internal_node_id": "0.0-6.0-60.0"}}, {"uniqueid": "w24930683:a89137991", "current_trial": 156, "dateTime": 1664873579495, "trialdata": {"rt": 1166, "stimulus": "<p id='stroop-text' class='stroop-red'>RED</p>", "response": "r", "stimulus-type": "congruent", "word": "red", "color": "red", "correct_response": "r", "trial_id": "stroop-trial-1-congruent-26", "trial_type": "html-keyboard-response", "trial_index": 156, "time_elapsed": 475564, "internal_node_id": "0.0-6.0-61.0"}}, {"uniqueid": "w24930683:a89137991", "current_trial": 157, "dateTime": 1664873581282, "trialdata": {"rt": 1284, "stimulus": "<p id='stroop-text' class='stroop-yellow'>YELLOW</p>", "response": "y", "stimulus-type": "congruent", "word": "yellow", "color": "yellow", "correct_response": "y", "trial_id": "stroop-trial-1-congruent-1", "trial_type": "html-keyboard-response", "trial_index": 157, "time_elapsed": 477352, "internal_node_id": "0.0-6.0-62.0"}}, {"uniqueid": "w24930683:a89137991", "current_trial": 158, "dateTime": 1664873582705, "trialdata": {"rt": 919, "stimulus": "<p id='stroop-text' class='stroop-yellow'>YELLOW</p>", "response": "y", "stimulus-type": "congruent", "word": "yellow", "color": "yellow", "correct_response": "y", "trial_id": "stroop-trial-1-congruent-10", "trial_type": "html-keyboard-response", "trial_index": 158, "time_elapsed": 478775, "internal_node_id": "0.0-6.0-63.0"}}, {"uniqueid": "w24930683:a89137991", "current_trial": 159, "dateTime": 1664873584997, "trialdata": {"rt": 1788, "stimulus": "<p id='stroop-text' class='stroop-red'>BLUE</p>", "response": "r", "stimulus-type": "incongruent", "word": "blue", "color": "red", "correct_response": "r", "trial_id": "stroop-trial-1-incongruent-21", "trial_type": "html-keyboard-response", "trial_index": 159, "time_elapsed": 481066, "internal_node_id": "0.0-6.0-64.0"}}, {"uniqueid": "w24930683:a89137991", "current_trial": 160, "dateTime": 1664873587343, "trialdata": {"rt": 1843, "stimulus": "<p id='stroop-text' class='stroop-blue'>RED</p>", "response": "b", "stimulus-type": "incongruent", "word": "red", "color": "blue", "correct_response": "b", "trial_id": "stroop-trial-1-incongruent-20", "trial_type": "html-keyboard-response", "trial_index": 160, "time_elapsed": 483413, "internal_node_id": "0.0-6.0-65.0"}}, {"uniqueid": "w24930683:a89137991", "current_trial": 161, "dateTime": 1664873589798, "trialdata": {"rt": 1950, "stimulus": "<p id='stroop-text' class='stroop-red'>BRIDGE</p>", "response": "r", "stimulus-type": "unrelated", "word": "BRIDGE", "color": "red", "correct_response": "r", "trial_id": "stroop-trial-1-unrelated-5", "trial_type": "html-keyboard-response", "trial_index": 161, "time_elapsed": 485868, "internal_node_id": "0.0-6.0-66.0"}}, {"uniqueid": "w24930683:a89137991", "current_trial": 162, "dateTime": 1664873591474, "trialdata": {"rt": 1173, "stimulus": "<p id='stroop-text' class='stroop-yellow'>YELLOW</p>", "response": "y", "stimulus-type": "congruent", "word": "yellow", "color": "yellow", "correct_response": "y", "trial_id": "stroop-trial-1-congruent-15", "trial_type": "html-keyboard-response", "trial_index": 162, "time_elapsed": 487543, "internal_node_id": "0.0-6.0-67.0"}}, {"uniqueid": "w24930683:a89137991", "current_trial": 163, "dateTime": 1664873593041, "trialdata": {"rt": 1063, "stimulus": "<p id='stroop-text' class='stroop-yellow'>STONE</p>", "response": "y", "stimulus-type": "unrelated", "word": "STONE", "color": "yellow", "correct_response": "y", "trial_id": "stroop-trial-1-unrelated-21", "trial_type": "html-keyboard-response", "trial_index": 163, "time_elapsed": 489111, "internal_node_id": "0.0-6.0-68.0"}}, {"uniqueid": "w24930683:a89137991", "current_trial": 164, "dateTime": 1664873594960, "trialdata": {"rt": 1415, "stimulus": "<p id='stroop-text' class='stroop-green'>GREEN</p>", "response": "g", "stimulus-type": "congruent", "word": "green", "color": "green", "correct_response": "g", "trial_id": "stroop-trial-1-congruent-3", "trial_type": "html-keyboard-response", "trial_index": 164, "time_elapsed": 491030, "internal_node_id": "0.0-6.0-69.0"}}, {"uniqueid": "w24930683:a89137991", "current_trial": 165, "dateTime": 1664873597068, "trialdata": {"rt": 1604, "stimulus": "<p id='stroop-text' class='stroop-green'>GREEN</p>", "response": "g", "stimulus-type": "congruent", "word": "green", "color": "green", "correct_response": "g", "trial_id": "stroop-trial-1-congruent-19", "trial_type": "html-keyboard-response", "trial_index": 165, "time_elapsed": 493137, "internal_node_id": "0.0-6.0-70.0"}}, {"uniqueid": "w24930683:a89137991", "current_trial": 166, "dateTime": 1664873599456, "trialdata": {"rt": 1886, "stimulus": "<p id='stroop-text' class='stroop-blue'>RED</p>", "response": "b", "stimulus-type": "incongruent", "word": "red", "color": "blue", "correct_response": "b", "trial_id": "stroop-trial-1-incongruent-30", "trial_type": "html-keyboard-response", "trial_index": 166, "time_elapsed": 495526, "internal_node_id": "0.0-6.0-71.0"}}, {"uniqueid": "w24930683:a89137991", "current_trial": 167, "dateTime": 1664873601606, "trialdata": {"rt": 1645, "stimulus": "<p id='stroop-text' class='stroop-green'>BLUE</p>", "response": "g", "stimulus-type": "incongruent", "word": "blue", "color": "green", "correct_response": "g", "trial_id": "stroop-trial-1-incongruent-10", "trial_type": "html-keyboard-response", "trial_index": 167, "time_elapsed": 497676, "internal_node_id": "0.0-6.0-72.0"}}, {"uniqueid": "w24930683:a89137991", "current_trial": 168, "dateTime": 1664873603643, "trialdata": {"rt": 1533, "stimulus": "<p id='stroop-text' class='stroop-blue'>YELLOW</p>", "response": "b", "stimulus-type": "incongruent", "word": "yellow", "color": "blue", "correct_response": "b", "trial_id": "stroop-trial-1-incongruent-3", "trial_type": "html-keyboard-response", "trial_index": 168, "time_elapsed": 499713, "internal_node_id": "0.0-6.0-73.0"}}, {"uniqueid": "w24930683:a89137991", "current_trial": 169, "dateTime": 1664873605453, "trialdata": {"rt": 1306, "stimulus": "<p id='stroop-text' class='stroop-green'>RED</p>", "response": "g", "stimulus-type": "incongruent", "word": "red", "color": "green", "correct_response": "g", "trial_id": "stroop-trial-1-incongruent-25", "trial_type": "html-keyboard-response", "trial_index": 169, "time_elapsed": 501522, "internal_node_id": "0.0-6.0-74.0"}}, {"uniqueid": "w24930683:a89137991", "current_trial": 170, "dateTime": 1664873607761, "trialdata": {"rt": 1803, "stimulus": "<p id='stroop-text' class='stroop-blue'>RED</p>", "response": "b", "stimulus-type": "incongruent", "word": "red", "color": "blue", "correct_response": "b", "trial_id": "stroop-trial-1-incongruent-7", "trial_type": "html-keyboard-response", "trial_index": 170, "time_elapsed": 503831, "internal_node_id": "0.0-6.0-75.0"}}, {"uniqueid": "w24930683:a89137991", "current_trial": 171, "dateTime": 1664873609270, "trialdata": {"rt": 1000, "stimulus": "<p id='stroop-text' class='stroop-red'>RED</p>", "response": "r", "stimulus-type": "congruent", "word": "red", "color": "red", "correct_response": "r", "trial_id": "stroop-trial-1-congruent-29", "trial_type": "html-keyboard-response", "trial_index": 171, "time_elapsed": 505340, "internal_node_id": "0.0-6.0-76.0"}}, {"uniqueid": "w24930683:a89137991", "current_trial": 172, "dateTime": 1664873612137, "trialdata": {"rt": 2362, "stimulus": "<p id='stroop-text' class='stroop-red'>MONKEY</p>", "response": "r", "stimulus-type": "unrelated", "word": "MONKEY", "color": "red", "correct_response": "r", "trial_id": "stroop-trial-1-unrelated-7", "trial_type": "html-keyboard-response", "trial_index": 172, "time_elapsed": 508207, "internal_node_id": "0.0-6.0-77.0"}}, {"uniqueid": "w24930683:a89137991", "current_trial": 173, "dateTime": 1664873613871, "trialdata": {"rt": 1230, "stimulus": "<p id='stroop-text' class='stroop-blue'>BLUE</p>", "response": "b", "stimulus-type": "congruent", "word": "blue", "color": "blue", "correct_response": "b", "trial_id": "stroop-trial-1-congruent-18", "trial_type": "html-keyboard-response", "trial_index": 173, "time_elapsed": 509941, "internal_node_id": "0.0-6.0-78.0"}}, {"uniqueid": "w24930683:a89137991", "current_trial": 174, "dateTime": 1664873615590, "trialdata": {"rt": 1214, "stimulus": "<p id='stroop-text' class='stroop-blue'>SHIP</p>", "response": "b", "stimulus-type": "unrelated", "word": "SHIP", "color": "blue", "correct_response": "b", "trial_id": "stroop-trial-1-unrelated-4", "trial_type": "html-keyboard-response", "trial_index": 174, "time_elapsed": 511660, "internal_node_id": "0.0-6.0-79.0"}}, {"uniqueid": "w24930683:a89137991", "current_trial": 175, "dateTime": 1664873618007, "trialdata": {"rt": 1911, "stimulus": "<p id='stroop-text' class='stroop-green'>BLUE</p>", "response": "g", "stimulus-type": "incongruent", "word": "blue", "color": "green", "correct_response": "g", "trial_id": "stroop-trial-1-incongruent-1", "trial_type": "html-keyboard-response", "trial_index": 175, "time_elapsed": 514076, "internal_node_id": "0.0-6.0-80.0"}}, {"uniqueid": "w24930683:a89137991", "current_trial": 176, "dateTime": 1664873622227, "trialdata": {"rt": 3716, "stimulus": "<p id='stroop-text' class='stroop-green'>BLUE</p>", "response": "g", "stimulus-type": "incongruent", "word": "blue", "color": "green", "correct_response": "g", "trial_id": "stroop-trial-1-incongruent-22", "trial_type": "html-keyboard-response", "trial_index": 176, "time_elapsed": 518296, "internal_node_id": "0.0-6.0-81.0"}}, {"uniqueid": "w24930683:a89137991", "current_trial": 177, "dateTime": 1664873624008, "trialdata": {"rt": 1275, "stimulus": "<p id='stroop-text' class='stroop-red'>BOAT</p>", "response": "r", "stimulus-type": "unrelated", "word": "BOAT", "color": "red", "correct_response": "r", "trial_id": "stroop-trial-1-unrelated-17", "trial_type": "html-keyboard-response", "trial_index": 177, "time_elapsed": 520077, "internal_node_id": "0.0-6.0-82.0"}}, {"uniqueid": "w24930683:a89137991", "current_trial": 178, "dateTime": 1664873627100, "trialdata": {"rt": 2586, "stimulus": "<p id='stroop-text' class='stroop-green'>RED</p>", "response": "g", "stimulus-type": "incongruent", "word": "red", "color": "green", "correct_response": "g", "trial_id": "stroop-trial-1-incongruent-15", "trial_type": "html-keyboard-response", "trial_index": 178, "time_elapsed": 523169, "internal_node_id": "0.0-6.0-83.0"}}, {"uniqueid": "w24930683:a89137991", "current_trial": 179, "dateTime": 1664873629539, "trialdata": {"rt": 1935, "stimulus": "<p id='stroop-text' class='stroop-red'>BLUE</p>", "response": "r", "stimulus-type": "incongruent", "word": "blue", "color": "red", "correct_response": "r", "trial_id": "stroop-trial-1-incongruent-23", "trial_type": "html-keyboard-response", "trial_index": 179, "time_elapsed": 525608, "internal_node_id": "0.0-6.0-84.0"}}, {"uniqueid": "w24930683:a89137991", "current_trial": 180, "dateTime": 1664873631159, "trialdata": {"rt": 1115, "stimulus": "<p id='stroop-text' class='stroop-yellow'>FORK</p>", "response": "y", "stimulus-type": "unrelated", "word": "FORK", "color": "yellow", "correct_response": "y", "trial_id": "stroop-trial-1-unrelated-9", "trial_type": "html-keyboard-response", "trial_index": 180, "time_elapsed": 527229, "internal_node_id": "0.0-6.0-85.0"}}, {"uniqueid": "w24930683:a89137991", "current_trial": 181, "dateTime": 1664873632992, "trialdata": {"rt": 1328, "stimulus": "<p id='stroop-text' class='stroop-red'>RED</p>", "response": "r", "stimulus-type": "congruent", "word": "red", "color": "red", "correct_response": "r", "trial_id": "stroop-trial-1-congruent-2", "trial_type": "html-keyboard-response", "trial_index": 181, "time_elapsed": 529062, "internal_node_id": "0.0-6.0-86.0"}}, {"uniqueid": "w24930683:a89137991", "current_trial": 182, "dateTime": 1664873634959, "trialdata": {"rt": 1463, "stimulus": "<p id='stroop-text' class='stroop-green'>GREEN</p>", "response": "g", "stimulus-type": "congruent", "word": "green", "color": "green", "correct_response": "g", "trial_id": "stroop-trial-1-congruent-28", "trial_type": "html-keyboard-response", "trial_index": 182, "time_elapsed": 531029, "internal_node_id": "0.0-6.0-87.0"}}, {"uniqueid": "w24930683:a89137991", "current_trial": 183, "dateTime": 1664873638050, "trialdata": {"rt": 2585, "stimulus": "<p id='stroop-text' class='stroop-green'>GREEN</p>", "response": "g", "stimulus-type": "congruent", "word": "green", "color": "green", "correct_response": "g", "trial_id": "stroop-trial-1-congruent-22", "trial_type": "html-keyboard-response", "trial_index": 183, "time_elapsed": 534119, "internal_node_id": "0.0-6.0-88.0"}}, {"uniqueid": "w24930683:a89137991", "current_trial": 184, "dateTime": 1664873639495, "trialdata": {"rt": 942, "stimulus": "<p id='stroop-text' class='stroop-blue'>BRAIN</p>", "response": "b", "stimulus-type": "unrelated", "word": "BRAIN", "color": "blue", "correct_response": "b", "trial_id": "stroop-trial-1-unrelated-12", "trial_type": "html-keyboard-response", "trial_index": 184, "time_elapsed": 535565, "internal_node_id": "0.0-6.0-89.0"}}, {"uniqueid": "w24930683:a89137991", "current_trial": 185, "dateTime": 1664873650112, "trialdata": {"rt": 10112, "stimulus": "  <h1> End of block! </h1>\n\n  You have reached the end of the block 2/5. If you need a short break, feel free to take one now before moving on.\n\n  <br><br>\n  In the next block, you will complete another 90 rounds of this game.\n\n  <br><br>\n  <div style='text-align: center;'>Press <code>space</code> to begin.</div>\n  <br><br>\n<div style='text-align: center;'>(If the experiment doesn't continue, try clicking on the text and then pressing <code>space</code>.)</div>", "response": " ", "trial_id": "stroop_1_ready_3", "trial_type": "html-keyboard-response", "trial_index": 185, "time_elapsed": 546182, "internal_node_id": "0.0-7.0"}}, {"uniqueid": "w24930683:a89137991", "current_trial": 186, "dateTime": 1664873651426, "trialdata": {"rt": 1311, "stimulus": "<p id='stroop-text' class='stroop-green'>BOAT</p>", "response": "g", "stimulus-type": "unrelated", "word": "BOAT", "color": "green", "correct_response": "g", "trial_id": "stroop-trial-1-unrelated-30", "trial_type": "html-keyboard-response", "trial_index": 186, "time_elapsed": 547496, "internal_node_id": "0.0-8.0-0.0"}}, {"uniqueid": "w24930683:a89137991", "current_trial": 187, "dateTime": 1664873652859, "trialdata": {"rt": 927, "stimulus": "<p id='stroop-text' class='stroop-green'>RED</p>", "response": "g", "stimulus-type": "incongruent", "word": "red", "color": "green", "correct_response": "g", "trial_id": "stroop-trial-1-incongruent-2", "trial_type": "html-keyboard-response", "trial_index": 187, "time_elapsed": 548928, "internal_node_id": "0.0-8.0-1.0"}}, {"uniqueid": "w24930683:a89137991", "current_trial": 188, "dateTime": 1664873654369, "trialdata": {"rt": 1006, "stimulus": "<p id='stroop-text' class='stroop-red'>SHIP</p>", "response": "r", "stimulus-type": "unrelated", "word": "SHIP", "color": "red", "correct_response": "r", "trial_id": "stroop-trial-1-unrelated-7", "trial_type": "html-keyboard-response", "trial_index": 188, "time_elapsed": 550439, "internal_node_id": "0.0-8.0-2.0"}}, {"uniqueid": "w24930683:a89137991", "current_trial": 189, "dateTime": 1664873655781, "trialdata": {"rt": 908, "stimulus": "<p id='stroop-text' class='stroop-blue'>BRAIN</p>", "response": "b", "stimulus-type": "unrelated", "word": "BRAIN", "color": "blue", "correct_response": "b", "trial_id": "stroop-trial-1-unrelated-3", "trial_type": "html-keyboard-response", "trial_index": 189, "time_elapsed": 551850, "internal_node_id": "0.0-8.0-3.0"}}, {"uniqueid": "w24930683:a89137991", "current_trial": 190, "dateTime": 1664873657327, "trialdata": {"rt": 1039, "stimulus": "<p id='stroop-text' class='stroop-yellow'>BLUE</p>", "response": "y", "stimulus-type": "incongruent", "word": "blue", "color": "yellow", "correct_response": "y", "trial_id": "stroop-trial-1-incongruent-19", "trial_type": "html-keyboard-response", "trial_index": 190, "time_elapsed": 553397, "internal_node_id": "0.0-8.0-4.0"}}, {"uniqueid": "w24930683:a89137991", "current_trial": 191, "dateTime": 1664873658985, "trialdata": {"rt": 1153, "stimulus": "<p id='stroop-text' class='stroop-blue'>BLUE</p>", "response": "b", "stimulus-type": "congruent", "word": "blue", "color": "blue", "correct_response": "b", "trial_id": "stroop-trial-1-congruent-18", "trial_type": "html-keyboard-response", "trial_index": 191, "time_elapsed": 555054, "internal_node_id": "0.0-8.0-5.0"}}, {"uniqueid": "w24930683:a89137991", "current_trial": 192, "dateTime": 1664873661398, "trialdata": {"rt": 1909, "stimulus": "<p id='stroop-text' class='stroop-red'>GREEN</p>", "response": "r", "stimulus-type": "incongruent", "word": "green", "color": "red", "correct_response": "r", "trial_id": "stroop-trial-1-incongruent-29", "trial_type": "html-keyboard-response", "trial_index": 192, "time_elapsed": 557468, "internal_node_id": "0.0-8.0-6.0"}}, {"uniqueid": "w24930683:a89137991", "current_trial": 193, "dateTime": 1664873663179, "trialdata": {"rt": 1275, "stimulus": "<p id='stroop-text' class='stroop-green'>BRIDGE</p>", "response": "g", "stimulus-type": "unrelated", "word": "BRIDGE", "color": "green", "correct_response": "g", "trial_id": "stroop-trial-1-unrelated-20", "trial_type": "html-keyboard-response", "trial_index": 193, "time_elapsed": 559249, "internal_node_id": "0.0-8.0-7.0"}}, {"uniqueid": "w24930683:a89137991", "current_trial": 194, "dateTime": 1664873664935, "trialdata": {"rt": 1252, "stimulus": "<p id='stroop-text' class='stroop-red'>BOAT</p>", "response": "r", "stimulus-type": "unrelated", "word": "BOAT", "color": "red", "correct_response": "r", "trial_id": "stroop-trial-1-unrelated-28", "trial_type": "html-keyboard-response", "trial_index": 194, "time_elapsed": 561004, "internal_node_id": "0.0-8.0-8.0"}}, {"uniqueid": "w24930683:a89137991", "current_trial": 195, "dateTime": 1664873666794, "trialdata": {"rt": 1355, "stimulus": "<p id='stroop-text' class='stroop-green'>BLUE</p>", "response": "g", "stimulus-type": "incongruent", "word": "blue", "color": "green", "correct_response": "g", "trial_id": "stroop-trial-1-incongruent-1", "trial_type": "html-keyboard-response", "trial_index": 195, "time_elapsed": 562864, "internal_node_id": "0.0-8.0-9.0"}}, {"uniqueid": "w24930683:a89137991", "current_trial": 196, "dateTime": 1664873668523, "trialdata": {"rt": 1224, "stimulus": "<p id='stroop-text' class='stroop-blue'>BRAIN</p>", "response": "b", "stimulus-type": "unrelated", "word": "BRAIN", "color": "blue", "correct_response": "b", "trial_id": "stroop-trial-1-unrelated-15", "trial_type": "html-keyboard-response", "trial_index": 196, "time_elapsed": 564592, "internal_node_id": "0.0-8.0-10.0"}}, {"uniqueid": "w24930683:a89137991", "current_trial": 197, "dateTime": 1664873669956, "trialdata": {"rt": 927, "stimulus": "<p id='stroop-text' class='stroop-yellow'>YELLOW</p>", "response": "y", "stimulus-type": "congruent", "word": "yellow", "color": "yellow", "correct_response": "y", "trial_id": "stroop-trial-1-congruent-27", "trial_type": "html-keyboard-response", "trial_index": 197, "time_elapsed": 566025, "internal_node_id": "0.0-8.0-11.0"}}, {"uniqueid": "w24930683:a89137991", "current_trial": 198, "dateTime": 1664873671782, "trialdata": {"rt": 1320, "stimulus": "<p id='stroop-text' class='stroop-green'>GREEN</p>", "response": "g", "stimulus-type": "congruent", "word": "green", "color": "green", "correct_response": "g", "trial_id": "stroop-trial-1-congruent-8", "trial_type": "html-keyboard-response", "trial_index": 198, "time_elapsed": 567852, "internal_node_id": "0.0-8.0-12.0"}}, {"uniqueid": "w24930683:a89137991", "current_trial": 199, "dateTime": 1664873673786, "trialdata": {"rt": 1499, "stimulus": "<p id='stroop-text' class='stroop-red'>GREEN</p>", "response": "r", "stimulus-type": "incongruent", "word": "green", "color": "red", "correct_response": "r", "trial_id": "stroop-trial-1-incongruent-16", "trial_type": "html-keyboard-response", "trial_index": 199, "time_elapsed": 569855, "internal_node_id": "0.0-8.0-13.0"}}, {"uniqueid": "w24930683:a89137991", "current_trial": 200, "dateTime": 1664873675914, "trialdata": {"rt": 1623, "stimulus": "<p id='stroop-text' class='stroop-red'>BRAIN</p>", "response": "r", "stimulus-type": "unrelated", "word": "BRAIN", "color": "red", "correct_response": "r", "trial_id": "stroop-trial-1-unrelated-11", "trial_type": "html-keyboard-response", "trial_index": 200, "time_elapsed": 571984, "internal_node_id": "0.0-8.0-14.0"}}, {"uniqueid": "w24930683:a89137991", "current_trial": 201, "dateTime": 1664873677915, "trialdata": {"rt": 1497, "stimulus": "<p id='stroop-text' class='stroop-red'>RED</p>", "response": "r", "stimulus-type": "congruent", "word": "red", "color": "red", "correct_response": "r", "trial_id": "stroop-trial-1-congruent-7", "trial_type": "html-keyboard-response", "trial_index": 201, "time_elapsed": 573985, "internal_node_id": "0.0-8.0-15.0"}}, {"uniqueid": "w24930683:a89137991", "current_trial": 202, "dateTime": 1664873679472, "trialdata": {"rt": 1052, "stimulus": "<p id='stroop-text' class='stroop-yellow'>YELLOW</p>", "response": "y", "stimulus-type": "congruent", "word": "yellow", "color": "yellow", "correct_response": "y", "trial_id": "stroop-trial-1-congruent-19", "trial_type": "html-keyboard-response", "trial_index": 202, "time_elapsed": 575542, "internal_node_id": "0.0-8.0-16.0"}}, {"uniqueid": "w24930683:a89137991", "current_trial": 203, "dateTime": 1664873681173, "trialdata": {"rt": 1196, "stimulus": "<p id='stroop-text' class='stroop-green'>GREEN</p>", "response": "g", "stimulus-type": "congruent", "word": "green", "color": "green", "correct_response": "g", "trial_id": "stroop-trial-1-congruent-29", "trial_type": "html-keyboard-response", "trial_index": 203, "time_elapsed": 577243, "internal_node_id": "0.0-8.0-17.0"}}, {"uniqueid": "w24930683:a89137991", "current_trial": 204, "dateTime": 1664873684286, "trialdata": {"rt": 2608, "stimulus": "<p id='stroop-text' class='stroop-yellow'>YELLOW</p>", "response": "y", "stimulus-type": "congruent", "word": "yellow", "color": "yellow", "correct_response": "y", "trial_id": "stroop-trial-1-congruent-24", "trial_type": "html-keyboard-response", "trial_index": 204, "time_elapsed": 580356, "internal_node_id": "0.0-8.0-18.0"}}, {"uniqueid": "w24930683:a89137991", "current_trial": 205, "dateTime": 1664873689624, "trialdata": {"rt": 4826, "stimulus": "<p id='stroop-text' class='stroop-red'>YELLOW</p>", "response": "r", "stimulus-type": "incongruent", "word": "yellow", "color": "red", "correct_response": "r", "trial_id": "stroop-trial-1-incongruent-25", "trial_type": "html-keyboard-response", "trial_index": 205, "time_elapsed": 585693, "internal_node_id": "0.0-8.0-19.0"}}, {"uniqueid": "w24930683:a89137991", "current_trial": 206, "dateTime": 1664873691603, "trialdata": {"rt": 1475, "stimulus": "<p id='stroop-text' class='stroop-blue'>BLUE</p>", "response": "b", "stimulus-type": "congruent", "word": "blue", "color": "blue", "correct_response": "b", "trial_id": "stroop-trial-1-congruent-21", "trial_type": "html-keyboard-response", "trial_index": 206, "time_elapsed": 587673, "internal_node_id": "0.0-8.0-20.0"}}, {"uniqueid": "w24930683:a89137991", "current_trial": 207, "dateTime": 1664873695313, "trialdata": {"rt": 3205, "stimulus": "<p id='stroop-text' class='stroop-red'>RED</p>", "response": "r", "stimulus-type": "congruent", "word": "red", "color": "red", "correct_response": "r", "trial_id": "stroop-trial-1-congruent-30", "trial_type": "html-keyboard-response", "trial_index": 207, "time_elapsed": 591383, "internal_node_id": "0.0-8.0-21.0"}}, {"uniqueid": "w24930683:a89137991", "current_trial": 208, "dateTime": 1664873696741, "trialdata": {"rt": 923, "stimulus": "<p id='stroop-text' class='stroop-blue'>BOAT</p>", "response": "b", "stimulus-type": "unrelated", "word": "BOAT", "color": "blue", "correct_response": "b", "trial_id": "stroop-trial-1-unrelated-16", "trial_type": "html-keyboard-response", "trial_index": 208, "time_elapsed": 592811, "internal_node_id": "0.0-8.0-22.0"}}, {"uniqueid": "w24930683:a89137991", "current_trial": 209, "dateTime": 1664873698222, "trialdata": {"rt": 977, "stimulus": "<p id='stroop-text' class='stroop-yellow'>CHAIR</p>", "response": "y", "stimulus-type": "unrelated", "word": "CHAIR", "color": "yellow", "correct_response": "y", "trial_id": "stroop-trial-1-unrelated-2", "trial_type": "html-keyboard-response", "trial_index": 209, "time_elapsed": 594292, "internal_node_id": "0.0-8.0-23.0"}}, {"uniqueid": "w24930683:a89137991", "current_trial": 210, "dateTime": 1664873700964, "trialdata": {"rt": 2236, "stimulus": "<p id='stroop-text' class='stroop-red'>BRAIN</p>", "response": "r", "stimulus-type": "unrelated", "word": "BRAIN", "color": "red", "correct_response": "r", "trial_id": "stroop-trial-1-unrelated-24", "trial_type": "html-keyboard-response", "trial_index": 210, "time_elapsed": 597034, "internal_node_id": "0.0-8.0-24.0"}}, {"uniqueid": "w24930683:a89137991", "current_trial": 211, "dateTime": 1664873702327, "trialdata": {"rt": 859, "stimulus": "<p id='stroop-text' class='stroop-blue'>CHAIR</p>", "response": "b", "stimulus-type": "unrelated", "word": "CHAIR", "color": "blue", "correct_response": "b", "trial_id": "stroop-trial-1-unrelated-19", "trial_type": "html-keyboard-response", "trial_index": 211, "time_elapsed": 598397, "internal_node_id": "0.0-8.0-25.0"}}, {"uniqueid": "w24930683:a89137991", "current_trial": 212, "dateTime": 1664873703791, "trialdata": {"rt": 959, "stimulus": "<p id='stroop-text' class='stroop-yellow'>GREEN</p>", "response": "y", "stimulus-type": "incongruent", "word": "green", "color": "yellow", "correct_response": "y", "trial_id": "stroop-trial-1-incongruent-30", "trial_type": "html-keyboard-response", "trial_index": 212, "time_elapsed": 599860, "internal_node_id": "0.0-8.0-26.0"}}, {"uniqueid": "w24930683:a89137991", "current_trial": 213, "dateTime": 1664873705185, "trialdata": {"rt": 891, "stimulus": "<p id='stroop-text' class='stroop-yellow'>RED</p>", "response": "y", "stimulus-type": "incongruent", "word": "red", "color": "yellow", "correct_response": "y", "trial_id": "stroop-trial-1-incongruent-15", "trial_type": "html-keyboard-response", "trial_index": 213, "time_elapsed": 601255, "internal_node_id": "0.0-8.0-27.0"}}, {"uniqueid": "w24930683:a89137991", "current_trial": 214, "dateTime": 1664873706455, "trialdata": {"rt": 765, "stimulus": "<p id='stroop-text' class='stroop-yellow'>YELLOW</p>", "response": "y", "stimulus-type": "congruent", "word": "yellow", "color": "yellow", "correct_response": "y", "trial_id": "stroop-trial-1-congruent-9", "trial_type": "html-keyboard-response", "trial_index": 214, "time_elapsed": 602524, "internal_node_id": "0.0-8.0-28.0"}}, {"uniqueid": "w24930683:a89137991", "current_trial": 215, "dateTime": 1664873708173, "trialdata": {"rt": 1215, "stimulus": "<p id='stroop-text' class='stroop-red'>GREEN</p>", "response": "r", "stimulus-type": "incongruent", "word": "green", "color": "red", "correct_response": "r", "trial_id": "stroop-trial-1-incongruent-27", "trial_type": "html-keyboard-response", "trial_index": 215, "time_elapsed": 604243, "internal_node_id": "0.0-8.0-29.0"}}, {"uniqueid": "w24930683:a89137991", "current_trial": 216, "dateTime": 1664873709735, "trialdata": {"rt": 1057, "stimulus": "<p id='stroop-text' class='stroop-green'>BRIDGE</p>", "response": "g", "stimulus-type": "unrelated", "word": "BRIDGE", "color": "green", "correct_response": "g", "trial_id": "stroop-trial-1-unrelated-17", "trial_type": "html-keyboard-response", "trial_index": 216, "time_elapsed": 605805, "internal_node_id": "0.0-8.0-30.0"}}, {"uniqueid": "w24930683:a89137991", "current_trial": 217, "dateTime": 1664873711162, "trialdata": {"rt": 924, "stimulus": "<p id='stroop-text' class='stroop-yellow'>YELLOW</p>", "response": "y", "stimulus-type": "congruent", "word": "yellow", "color": "yellow", "correct_response": "y", "trial_id": "stroop-trial-1-congruent-6", "trial_type": "html-keyboard-response", "trial_index": 217, "time_elapsed": 607232, "internal_node_id": "0.0-8.0-31.0"}}, {"uniqueid": "w24930683:a89137991", "current_trial": 218, "dateTime": 1664873712499, "trialdata": {"rt": 831, "stimulus": "<p id='stroop-text' class='stroop-red'>RED</p>", "response": "r", "stimulus-type": "congruent", "word": "red", "color": "red", "correct_response": "r", "trial_id": "stroop-trial-1-congruent-14", "trial_type": "html-keyboard-response", "trial_index": 218, "time_elapsed": 608568, "internal_node_id": "0.0-8.0-32.0"}}, {"uniqueid": "w24930683:a89137991", "current_trial": 219, "dateTime": 1664873713823, "trialdata": {"rt": 820, "stimulus": "<p id='stroop-text' class='stroop-yellow'>YELLOW</p>", "response": "y", "stimulus-type": "congruent", "word": "yellow", "color": "yellow", "correct_response": "y", "trial_id": "stroop-trial-1-congruent-4", "trial_type": "html-keyboard-response", "trial_index": 219, "time_elapsed": 609893, "internal_node_id": "0.0-8.0-33.0"}}, {"uniqueid": "w24930683:a89137991", "current_trial": 220, "dateTime": 1664873715215, "trialdata": {"rt": 887, "stimulus": "<p id='stroop-text' class='stroop-yellow'>WINDOW</p>", "response": "y", "stimulus-type": "unrelated", "word": "WINDOW", "color": "yellow", "correct_response": "y", "trial_id": "stroop-trial-1-unrelated-12", "trial_type": "html-keyboard-response", "trial_index": 220, "time_elapsed": 611284, "internal_node_id": "0.0-8.0-34.0"}}, {"uniqueid": "w24930683:a89137991", "current_trial": 221, "dateTime": 1664873716551, "trialdata": {"rt": 833, "stimulus": "<p id='stroop-text' class='stroop-red'>GREEN</p>", "response": "r", "stimulus-type": "incongruent", "word": "green", "color": "red", "correct_response": "r", "trial_id": "stroop-trial-1-incongruent-21", "trial_type": "html-keyboard-response", "trial_index": 221, "time_elapsed": 612621, "internal_node_id": "0.0-8.0-35.0"}}, {"uniqueid": "w24930683:a89137991", "current_trial": 222, "dateTime": 1664873717905, "trialdata": {"rt": 849, "stimulus": "<p id='stroop-text' class='stroop-yellow'>YELLOW</p>", "response": "y", "stimulus-type": "congruent", "word": "yellow", "colo