{"condition": 1, "counterbalance": 0, "assignmentId": "a64179554", "workerId": "w61897809", "hitId": "h19603138", "currenttrial": 143, "bonus": 0, "data": [{"uniqueid": "w61897809:a64179554", "current_trial": 0, "dateTime": 1664555378723, "trialdata": {"success": true, "trial_type": "fullscreen", "trial_index": 0, "time_elapsed": 8478, "internal_node_id": "0.0-0.0"}}, {"uniqueid": "w61897809:a64179554", "current_trial": 1, "dateTime": 1664555405833, "trialdata": {"view_history": [{"page_index": 0, "viewing_time": 27107}], "rt": 27108, "trial_id": "exp_instructions_no_distractor", "trial_type": "instructions", "trial_index": 1, "time_elapsed": 35588, "internal_node_id": "0.0-1.0"}}, {"uniqueid": "w61897809:a64179554", "current_trial": 2, "dateTime": 1664555409524, "trialdata": {"success": true, "trial_type": "fullscreen", "trial_index": 2, "time_elapsed": 39279, "internal_node_id": "0.0-2.0-0.0"}}, {"uniqueid": "w61897809:a64179554", "current_trial": 3, "dateTime": 1664555502721, "trialdata": {"view_history": [{"page_index": 0, "viewing_time": 31618}, {"page_index": 1, "viewing_time": 28422}, {"page_index": 2, "viewing_time": 8692}, {"page_index": 3, "viewing_time": 5005}, {"page_index": 4, "viewing_time": 19458}], "rt": 93195, "trial_id": "mouselab_instructions_1", "trial_type": "instructions", "trial_index": 3, "time_elapsed": 132476, "internal_node_id": "0.0-2.0-1.0"}}, {"uniqueid": "w61897809:a64179554", "current_trial": 4, "dateTime": 1664555525109, "trialdata": {"revealed_states": [], "num_clicks_accrued": [0, 0, 0, 0, 0, 0, 0, 0, 0, 0, 0, 0, 0], "stateRewards": ["", -10, 10, 10, -10, -10, 10, -10, -10, 10, -10, -10, 10], "withholdReward": false, "trial_id": "practice_1", "block": "test", "trialIndex": 0, "score": 21.25, "costs": -0.75, "simulationMode": [null, null, null, null, null, null, null], "rewards": [10, 10, -10, 10], "path": ["0", "0", "9", "9", "10", "12"], "rt": [11004, 7816, 1435, 931, 1115, 631, 467], "actions": ["left", "left", "left", "left", "left", "left", "down"], "actionTimes": [7816, 7817, 9253, 9254, 10371, 10372, 11325], "queries": {"click": {"state": {"target": ["5", "9", "1"], "time": [3846, 5495, 6479]}, "edge": {"target": [], "time": []}}, "mouseover": {"state": {"target": ["0", "0", "5", "0", "9", "1"], "time": [null, 506, 3489, 4474, 5324, 5889]}, "edge": {"target": [], "time": []}}, "mouseout": {"state": {"target": ["0", "0", "0", "5", "0", "9", "1", "8"], "time": [null, null, 3323, 4423, 4574, 5807, 6723, 14839]}, "edge": {"target": [], "time": []}}}, "displayed_time": "11.82", "trialTime": 17531, "trial_type": "mouselab-mdp", "trial_index": 4, "time_elapsed": 154863, "internal_node_id": "0.0-2.0-2.0-0.0"}}, {"uniqueid": "w61897809:a64179554", "current_trial": 5, "dateTime": 1664555533470, "trialdata": {"revealed_states": [], "num_clicks_accrued": [0, 0, 0, 0, 0, 0, 0, 0, 0, 0, 0, 0, 0], "stateRewards": ["", -10, 10, -10, -10, 10, -10, -10, -10, 10, 10, -10, 10], "withholdReward": false, "trial_id": "practice_2", "block": "test", "trialIndex": 1, "score": 11.75, "costs": -0.25, "simulationMode": [null, null, null], "rewards": [10, 10, -10], "path": ["0", "0", "9", "10", "11"], "rt": [2334, 162, 109], "actions": ["left", "left", "up"], "actionTimes": [4609, 5268, 5882], "queries": {"click": {"state": {"target": ["9"], "time": [3423]}, "edge": {"target": [], "time": []}}, "mouseover": {"state": {"target": ["9"], "time": [3207]}, "edge": {"target": [], "time": []}}, "mouseout": {"state": {"target": ["0", "9"], "time": [3113, 7406]}, "edge": {"target": [], "time": []}}}, "displayed_time": "6.39", "trialTime": 8326, "trial_type": "mouselab-mdp", "trial_index": 5, "time_elapsed": 163225, "internal_node_id": "0.0-2.0-2.0-1.0"}}, {"uniqueid": "w61897809:a64179554", "current_trial": 6, "dateTime": 1664555590583, "trialdata": {"view_history": [{"page_index": 0, "viewing_time": 37393}, {"page_index": 1, "viewing_time": 9088}, {"page_index": 2, "viewing_time": 10630}], "rt": 57111, "trial_id": "mouselab_instructions_2_scarce", "trial_type": "instructions", "trial_index": 6, "time_elapsed": 220338, "internal_node_id": "0.0-2.0-3.0"}}, {"uniqueid": "w61897809:a64179554", "current_trial": 7, "dateTime": 1664555630750, "trialdata": {"rt": 40164, "response": {"Q0": "$-10 to $10", "Q1": "The cost is always $0.25.", "Q2": "The better I perform the higher my bonus will be.", "Q3": "No, the amount of cash at each node of the web may be different each time.", "Q4": "The values of the nodes walked through from start to finish.", "Q5": "No, the spider might forget to count the money on some rounds."}, "question_order": [0, 1, 2, 3, 4, 5], "correct": {"Q0": "$-48 to $48", "Q1": "The cost is always $0.25.", "Q2": "The better I perform the higher my bonus will be.", "Q3": "No, the amount of cash at each node of the web may be different each time.", "Q4": "The values of the nodes walked through from start to finish.", "Q5": "No, the spider might forget to count the money on some rounds."}, "trial_id": "mouselab_quiz_scarce", "trial_type": "survey-multi-choice", "trial_index": 7, "time_elapsed": 260505, "internal_node_id": "0.0-2.0-4.0"}}, {"uniqueid": "w61897809:a64179554", "current_trial": 8, "dateTime": 1664555638700, "trialdata": {"success": true, "trial_type": "fullscreen", "trial_index": 8, "time_elapsed": 268455, "internal_node_id": "0.0-2.1-0.1"}}, {"uniqueid": "w61897809:a64179554", "current_trial": 9, "dateTime": 1664555650418, "trialdata": {"view_history": [{"page_index": 0, "viewing_time": 2981}, {"page_index": 1, "viewing_time": 4345}, {"page_index": 2, "viewing_time": 1776}, {"page_index": 3, "viewing_time": 1118}, {"page_index": 4, "viewing_time": 1496}], "rt": 11716, "trial_id": "mouselab_instructions_1", "trial_type": "instructions", "trial_index": 9, "time_elapsed": 280173, "internal_node_id": "0.0-2.1-1.1"}}, {"uniqueid": "w61897809:a64179554", "current_trial": 10, "dateTime": 1664555664898, "trialdata": {"revealed_states": [], "num_clicks_accrued": [0, 0, 0, 0, 0, 0, 0, 0, 0, 0, 0, 0, 0], "stateRewards": ["", -10, 10, 10, -10, -10, 10, -10, -10, 10, -10, -10, 10], "withholdReward": false, "trial_id": "practice_1", "block": "test", "trialIndex": 2, "score": 9, "costs": -3, "simulationMode": [null, null, null], "rewards": [-10, 10, 10], "path": ["0", "0", "1", "2", "3"], "rt": [7099, 103, 166], "actions": ["up", "up", "right"], "actionTimes": [8340, 8959, 9622], "queries": {"click": {"state": {"target": ["5", "6", "7", "1", "2", "3", "4", "11", "10", "12", "9", "8"], "time": [1865, 2294, 2718, 3270, 3573, 3856, 4330, 5053, 5354, 5638, 6358, 6949]}, "edge": {"target": [], "time": []}}, "mouseover": {"state": {"target": ["0", "5", "6", "7", "1", "2", "3", "4", "11", "10", "12", "9", "8"], "time": [1589, 1789, 2255, 2655, 3072, 3522, 3822, 4089, 4847, 5288, 5588, 6051, 6788]}, "edge": {"target": [], "time": []}}, "mouseout": {"state": {"target": ["5", "0", "0", "5", "6", "7", "1", "2", "3", "2", "4", "11", "10", "12", "9", "8", "8"], "time": [373, 1155, 1639, 2155, 2572, 2956, 3405, 3755, 3989, 4055, 4505, 5223, 5522, 5805, 6555, 7323, 11122]}, "edge": {"target": [], "time": []}}}, "displayed_time": "10.14", "trialTime": 14454, "trial_type": "mouselab-mdp", "trial_index": 10, "time_elapsed": 294653, "internal_node_id": "0.0-2.1-2.1-0.1"}}, {"uniqueid": "w61897809:a64179554", "current_trial": 11, "dateTime": 1664555672265, "trialdata": {"revealed_states": [], "num_clicks_accrued": [0, 0, 0, 0, 0, 0, 0, 0, 0, 0, 0, 0, 0], "stateRewards": ["", -10, 10, -10, -10, 10, -10, -10, -10, 10, 10, -10, 10], "withholdReward": false, "trial_id": "practice_2", "block": "test", "trialIndex": 3, "score": -8, "costs": 0, "simulationMode": [null, null, null], "rewards": [-10, 10, -10], "path": ["0", "0", "1", "2", "4"], "rt": [931, 710, 124], "actions": ["up", "up", "left"], "actionTimes": [2893, 4101, 4714], "queries": {"click": {"state": {"target": [], "time": []}, "edge": {"target": [], "time": []}}, "mouseover": {"state": {"target": [], "time": []}, "edge": {"target": [], "time": []}}, "mouseout": {"state": {"target": ["0", "5", "6"], "time": [5440, 5473, 5656]}, "edge": {"target": [], "time": []}}}, "displayed_time": "5.21", "trialTime": 7339, "trial_type": "mouselab-mdp", "trial_index": 11, "time_elapsed": 302020, "internal_node_id": "0.0-2.1-2.1-1.1"}}, {"uniqueid": "w61897809:a64179554", "current_trial": 12, "dateTime": 1664555707661, "trialdata": {"view_history": [{"page_index": 0, "viewing_time": 31722}, {"page_index": 1, "viewing_time": 2595}, {"page_index": 2, "viewing_time": 1077}], "rt": 35394, "trial_id": "mouselab_instructions_2_scarce", "trial_type": "instructions", "trial_index": 12, "time_elapsed": 337416, "internal_node_id": "0.0-2.1-3.1"}}, {"uniqueid": "w61897809:a64179554", "current_trial": 13, "dateTime": 1664555760622, "trialdata": {"rt": 52959, "response": {"Q0": "$-48 to $48", "Q1": "The cost is always $0.25.", "Q2": "The better I perform the higher my bonus will be.", "Q3": "No, the amount of cash at each node of the web may be different each time.", "Q4": "The values of the nodes walked through from start to finish.", "Q5": "No, the spider might forget to count the money on some rounds."}, "question_order": [0, 1, 2, 3, 4, 5], "correct": {"Q0": "$-48 to $48", "Q1": "The cost is always $0.25.", "Q2": "The better I perform the higher my bonus will be.", "Q3": "No, the amount of cash at each node of the web may be different each time.", "Q4": "The values of the nodes walked through from start to finish.", "Q5": "No, the spider might forget to count the money on some rounds."}, "trial_id": "mouselab_quiz_scarce", "trial_type": "survey-multi-choice", "trial_index": 13, "time_elapsed": 390377, "internal_node_id": "0.0-2.1-4.1"}}, {"uniqueid": "w61897809:a64179554", "current_trial": 14, "dateTime": 1664555763857, "trialdata": {"rt": 3231, "stimulus": "\n<h1> Get ready to start the game! </h1>\n\nThank you for reading the instructions. Get ready start with the first of 4 block(s) of this game.\n<br><br>\nIn this first block, you will complete 30 rounds of this game before moving on.\n<br><br>\nRemember, the more money the spider gets, the bigger your bonus will be!\n<br><br>\n<div style='text-align: center;'>Press <code>space</code> to begin.</div>\n\n<br><br>\n(If, at any point, the <code>space</code> key does not take you to the next page, click once on the text and try again.)", "response": " ", "trial_id": "mdp_ready_1", "trial_type": "html-keyboard-response", "trial_index": 14, "time_elapsed": 393612, "internal_node_id": "0.0-4.0-0.0"}}, {"uniqueid": "w61897809:a64179554", "current_trial": 15, "dateTime": 1664555777274, "trialdata": {"revealed_states": [], "num_clicks_accrued": [0, 0, 0, 0, 0, 0, 0, 0, 0, 0, 0, 0, 0], "stateRewards": ["", -4, 8, -48, -48, -2, -8, -24, -48, 2, -4, -48, 24], "withholdReward": true, "trial_id": "mdp_743906784415", "block": "test1", "trialIndex": 4, "score": 26.5, "costs": -0.5, "simulationMode": [null, null, null], "rewards": [2, -4, 24], "path": ["0", "0", "9", "10", "12"], "rt": [4231, 3276, 517], "actions": ["left", "left", "down"], "actionTimes": [6409, 10175, 11182], "queries": {"click": {"state": {"target": ["5", "9"], "time": [3852, 4541]}, "edge": {"target": [], "time": []}}, "mouseover": {"state": {"target": ["5", "0", "9", "1"], "time": [3180, 4167, 4415, 5097]}, "edge": {"target": [], "time": []}}, "mouseout": {"state": {"target": ["1", "1", "0", "5", "0", "9", "1", "5", "10", "12"], "time": [1514, 1697, 2382, 4047, 4181, 4714, 5114, 6964, 7714, 7931]}, "edge": {"target": [], "time": []}}}, "displayed_time": "11.70", "trialTime": 13388, "trial_type": "mouselab-mdp", "trial_index": 15, "time_elapsed": 407029, "internal_node_id": "0.0-4.0-1.0-0.0"}}, {"uniqueid": "w61897809:a64179554", "current_trial": 16, "dateTime": 1664555792029, "trialdata": {"revealed_states": [], "num_clicks_accrued": [0, 0, 0, 0, 0, 0, 0, 0, 0, 0, 0, 0, 0], "stateRewards": ["", -4, -4, -24, 24, -4, 4, -24, 48, -2, 4, 48, -48], "withholdReward": true, "trial_id": "mdp_774757609669", "block": "test1", "trialIndex": 5, "score": 19.75, "costs": -1.25, "simulationMode": [null, null, null], "rewards": [-4, -4, 24], "path": ["0", "0", "1", "2", "4"], "rt": [6524, 147, 133], "actions": ["up", "up", "left"], "actionTimes": [7864, 8503, 9140], "queries": {"click": {"state": {"target": ["9", "5", "2", "3", "4"], "time": [2047, 3363, 4935, 5808, 6811]}, "edge": {"target": [], "time": []}}, "mouseover": {"state": {"target": ["9", "0", "5", "6", "5", "1", "2", "3", "4"], "time": [1772, 2489, 2589, 2989, 3239, 3972, 4489, 5172, 6705]}, "edge": {"target": [], "time": []}}, "mouseout": {"state": {"target": ["9", "0", "9", "0", "5", "6", "5", "1", "2", "3", "2", "4", "2", "7"], "time": [1188, 1272, 2222, 2505, 2889, 3057, 3506, 4456, 5122, 6089, 6539, 6989, 7056, 12956]}, "edge": {"target": [], "time": []}}}, "displayed_time": "10.34", "trialTime": 14718, "trial_type": "mouselab-mdp", "trial_index": 16, "time_elapsed": 421784, "internal_node_id": "0.0-4.0-1.0-1.0"}}, {"uniqueid": "w61897809:a64179554", "current_trial": 17, "dateTime": 1664555803983, "trialdata": {"revealed_states": [], "num_clicks_accrued": [0, 0, 0, 0, 0, 0, 0, 0, 0, 0, 0, 0, 0], "stateRewards": ["", -4, -8, 48, -48, 2, -4, 48, -24, 2, -8, -48, -48], "withholdReward": true, "trial_id": "mdp_624553692913", "block": "test1", "trialIndex": 6, "score": 49.5, "costs": -1.5, "simulationMode": [null, null, null], "rewards": [2, -4, 48], "path": ["0", "0", "5", "6", "7"], "rt": [8114, 20, 25], "actions": ["right", "right", "up"], "actionTimes": [9688, 10208, 10730], "queries": {"click": {"state": {"target": ["9", "12", "11", "6", "8", "7"], "time": [3018, 4094, 4835, 7165, 7721, 8297]}, "edge": {"target": [], "time": []}}, "mouseover": {"state": {"target": ["0", "9", "10", "12", "10", "11", "10", "0", "5", "6", "5", "0", "10", "6", "8", "7", "7"], "time": [2305, 2838, 3638, 3988, 4288, 4621, 5087, 5621, 5638, 5838, 6289, 6355, 6556, 6956, 7454, 8004, 8104]}, "edge": {"target": [], "time": []}}, "mouseout": {"state": {"target": ["12", "11", "1", "0", "9", "10", "12", "10", "11", "10", "9", "0", "5", "6", "5", "0", "9", "10", "9", "6", "8", "6", "7", "7", "6", "8"], "time": [971, 1137, 1338, 2804, 3171, 3671, 4221, 4356, 4988, 5538, 5588, 5638, 5671, 6271, 6305, 6371, 6488, 6772, 6821, 7388, 7871, 7956, 8054, 8472, 11688, 11756]}, "edge": {"target": [], "time": []}}}, "displayed_time": "11.22", "trialTime": 11921, "trial_type": "mouselab-mdp", "trial_index": 17, "time_elapsed": 433738, "internal_node_id": "0.0-4.0-1.0-2.0"}}, {"uniqueid": "w61897809:a64179554", "current_trial": 18, "dateTime": 1664555814850, "trialdata": {"revealed_states": [], "num_clicks_accrued": [0, 0, 0, 0, 0, 0, 0, 0, 0, 0, 0, 0, 0], "stateRewards": ["", 4, -8, -24, 24, 2, -4, 24, 24, 2, -4, 48, 48], "withholdReward": false, "trial_id": "mdp_457607480918", "block": "test1", "trialIndex": 7, "score": 26.75, "costs": -0.25, "simulationMode": [null, null, null], "rewards": [2, -4, 24], "path": ["0", "0", "5", "6", "7"], "rt": [2083, 23, 11], "actions": ["right", "right", "up"], "actionTimes": [3137, 3647, 4184], "queries": {"click": {"state": {"target": ["7"], "time": [1825]}, "edge": {"target": [], "time": []}}, "mouseover": {"state": {"target": ["5", "6", "7", "6", "5"], "time": [1390, 1440, 1706, 2240, 2373]}, "edge": {"target": [], "time": []}}, "mouseout": {"state": {"target": ["0", "5", "6", "7", "6", "5"], "time": [1240, 1406, 1456, 2174, 2256, 5057]}, "edge": {"target": [], "time": []}}}, "displayed_time": "9.05", "trialTime": 10840, "trial_type": "mouselab-mdp", "trial_index": 18, "time_elapsed": 444605, "internal_node_id": "0.0-4.0-1.0-3.0"}}, {"uniqueid": "w61897809:a64179554", "current_trial": 19, "dateTime": 1664555824459, "trialdata": {"revealed_states": [], "num_clicks_accrued": [0, 0, 0, 0, 0, 0, 0, 0, 0, 0, 0, 0, 0], "stateRewards": ["", -4, -4, 24, -48, -2, 8, -24, -48, -4, 4, 24, -48], "withholdReward": false, "trial_id": "mdp_934626330092", "block": "test1", "trialIndex": 8, "score": 28.25, "costs": -0.75, "simulationMode": [null, null, null], "rewards": [-4, 4, 24], "path": ["0", "0", "9", "10", "11"], "rt": [3370, 46, 49], "actions": ["left", "left", "up"], "actionTimes": [4059, 4596, 5150], "queries": {"click": {"state": {"target": ["12", "11", "4"], "time": [1258, 1843, 3350]}, "edge": {"target": [], "time": []}}, "mouseover": {"state": {"target": ["12", "10", "11", "11", "4", "2", "4"], "time": [1100, 1417, 1467, 1700, 2050, 2117, 3167]}, "edge": {"target": [], "time": []}}, "mouseout": {"state": {"target": ["0", "12", "10", "11", "11", "4", "2", "4"], "time": [950, 1401, 1450, 1517, 2017, 2067, 2900, 6034]}, "edge": {"target": [], "time": []}}}, "displayed_time": "8.69", "trialTime": 9576, "trial_type": "mouselab-mdp", "trial_index": 19, "time_elapsed": 454214, "internal_node_id": "0.0-4.0-1.0-4.0"}}, {"uniqueid": "w61897809:a64179554", "current_trial": 20, "dateTime": 1664555835400, "trialdata": {"revealed_states": [], "num_clicks_accrued": [0, 0, 0, 0, 0, 0, 0, 0, 0, 0, 0, 0, 0], "stateRewards": ["", -2, -4, -24, 24, -2, 4, -24, -24, -4, 4, 24, -24], "withholdReward": true, "trial_id": "mdp_999419261719", "block": "test1", "trialIndex": 9, "score": 22, "costs": -1, "simulationMode": [null, null, null], "rewards": [-2, -4, 24], "path": ["0", "0", "1", "2", "4"], "rt": [3951, 59, 12], "actions": ["up", "up", "left"], "actionTimes": [4741, 5290, 5826], "queries": {"click": {"state": {"target": ["8", "7", "3", "4"], "time": [1477, 2199, 3063, 3637]}, "edge": {"target": [], "time": []}}, "mouseover": {"state": {"target": ["8", "6", "7", "3", "3", "2", "4"], "time": [1347, 1647, 1780, 2430, 2898, 3330, 3530]}, "edge": {"target": [], "time": []}}, "mouseout": {"state": {"target": ["0", "8", "6", "7", "3", "3", "2", "4", "9"], "time": [1097, 1631, 1664, 2380, 2513, 3263, 3430, 3813, 6930]}, "edge": {"target": [], "time": []}}}, "displayed_time": "9.79", "trialTime": 10914, "trial_type": "mouselab-mdp", "trial_index": 20, "time_elapsed": 465155, "internal_node_id": "0.0-4.0-1.0-5.0"}}, {"uniqueid": "w61897809:a64179554", "current_trial": 21, "dateTime": 1664555846024, "trialdata": {"revealed_states": [], "num_clicks_accrued": [0, 0, 0, 0, 0, 0, 0, 0, 0, 0, 0, 0, 0], "stateRewards": ["", 4, 4, -24, -48, -4, 4, -48, 24, 4, -8, -48, 48], "withholdReward": true, "trial_id": "mdp_566768794366", "block": "test1", "trialIndex": 10, "score": 48.75, "costs": -0.25, "simulationMode": [null, null, null], "rewards": [4, -8, 48], "path": ["0", "0", "9", "10", "12"], "rt": [1611, 42, 64], "actions": ["left", "left", "down"], "actionTimes": [2374, 2913, 3484], "queries": {"click": {"state": {"target": ["12"], "time": [1349]}, "edge": {"target": [], "time": []}}, "mouseover": {"state": {"target": ["12", "10", "11"], "time": [1220, 1521, 1654]}, "edge": {"target": [], "time": []}}, "mouseout": {"state": {"target": ["0", "12", "10", "11", "9"], "time": [988, 1504, 1570, 1887, 4420]}, "edge": {"target": [], "time": []}}}, "displayed_time": "9.76", "trialTime": 10595, "trial_type": "mouselab-mdp", "trial_index": 21, "time_elapsed": 475779, "internal_node_id": "0.0-4.0-1.0-6.0"}}, {"uniqueid": "w61897809:a64179554", "current_trial": 22, "dateTime": 1664555856801, "trialdata": {"revealed_states": [], "num_clicks_accrued": [0, 0, 0, 0, 0, 0, 0, 0, 0, 0, 0, 0, 0], "stateRewards": ["", -4, -8, -48, 24, -4, -4, -24, -48, 2, -8, -24, -48], "withholdReward": false, "trial_id": "mdp_628181832088", "block": "test1", "trialIndex": 11, "score": 16.25, "costs": -0.75, "simulationMode": [null, null, null], "rewards": [-4, -8, 24], "path": ["0", "0", "1", "2", "4"], "rt": [2877, 389, 122], "actions": ["up", "up", "left"], "actionTimes": [3505, 4405, 5038], "queries": {"click": {"state": {"target": ["12", "11", "4"], "time": [1109, 1640, 2295]}, "edge": {"target": [], "time": []}}, "mouseover": {"state": {"target": ["9", "12", "10", "11", "4", "2"], "time": [833, 966, 1399, 1516, 2216, 2900]}, "edge": {"target": [], "time": []}}, "mouseout": {"state": {"target": ["0", "9", "12", "10", "11", "4", "2"], "time": [766, 882, 1366, 1449, 1882, 2499, 3017]}, "edge": {"target": [], "time": []}}}, "displayed_time": "9.63", "trialTime": 10750, "trial_type": "mouselab-mdp", "trial_index": 22, "time_elapsed": 486556, "internal_node_id": "0.0-4.0-1.0-7.0"}}, {"uniqueid": "w61897809:a64179554", "current_trial": 23, "dateTime": 1664555867833, "trialdata": {"revealed_states": [], "num_clicks_accrued": [0, 0, 0, 0, 0, 0, 0, 0, 0, 0, 0, 0, 0], "stateRewards": ["", -2, -4, -24, -48, 2, -8, -24, -24, 4, -8, 48, 48], "withholdReward": true, "trial_id": "mdp_950599994674", "block": "test1", "trialIndex": 12, "score": 48.75, "costs": -0.25, "simulationMode": [null, null, null], "rewards": [4, -8, 48], "path": ["0", "0", "9", "10", "12"], "rt": [1584, 100, 27], "actions": ["left", "left", "down"], "actionTimes": [3042, 3631, 4175], "queries": {"click": {"state": {"target": ["12"], "time": [2147]}, "edge": {"target": [], "time": []}}, "mouseover": {"state": {"target": ["9", "10", "12", "10"], "time": [1831, 1914, 2047, 2331]}, "edge": {"target": [], "time": []}}, "mouseout": {"state": {"target": ["0", "9", "10", "12", "10", "10"], "time": [1781, 1881, 1998, 2297, 2449, 5249]}, "edge": {"target": [], "time": []}}}, "displayed_time": "10.46", "trialTime": 10997, "trial_type": "mouselab-mdp", "trial_index": 23, "time_elapsed": 497587, "internal_node_id": "0.0-4.0-1.0-8.0"}}, {"uniqueid": "w61897809:a64179554", "current_trial": 24, "dateTime": 1664555879515, "trialdata": {"revealed_states": [], "num_clicks_accrued": [0, 0, 0, 0, 0, 0, 0, 0, 0, 0, 0, 0, 0], "stateRewards": ["", 2, -4, -48, 24, 4, 4, 48, -48, -2, -4, -24, -48], "withholdReward": false, "trial_id": "mdp_858916930936", "block": "test1", "trialIndex": 13, "score": 26, "costs": -1, "simulationMode": [null, null, null], "rewards": [2, -4, 24], "path": ["0", "0", "1", "2", "4"], "rt": [3628, 87, 53], "actions": ["up", "up", "left"], "actionTimes": [5479, 6054, 6620], "queries": {"click": {"state": {"target": ["12", "11", "4", "3"], "time": [2974, 3473, 4039, 4743]}, "edge": {"target": [], "time": []}}, "mouseover": {"state": {"target": ["9", "12", "10", "11", "4", "2", "3"], "time": [2184, 2867, 3167, 3350, 3984, 4267, 4550]}, "edge": {"target": [], "time": []}}, "mouseout": {"state": {"target": ["0", "9", "12", "10", "11", "4", "2", "3", "5"], "time": [2066, 2750, 3133, 3250, 3650, 4233, 4333, 7600, 7716]}, "edge": {"target": [], "time": []}}}, "displayed_time": "10.85", "trialTime": 11648, "trial_type": "mouselab-mdp", "trial_index": 24, "time_elapsed": 509270, "internal_node_id": "0.0-4.0-1.0-9.0"}}, {"uniqueid": "w61897809:a64179554", "current_trial": 25, "dateTime": 1664555890808, "trialdata": {"revealed_states": [], "num_clicks_accrued": [0, 0, 0, 0, 0, 0, 0, 0, 0, 0, 0, 0, 0], "stateRewards": ["", 2, 4, 48, 24, -2, -8, 24, 24, -2, 4, -48, 24], "withholdReward": true, "trial_id": "mdp_130849500124", "block": "test1", "trialIndex": 14, "score": 30.75, "costs": -0.25, "simulationMode": [null, null, null], "rewards": [-2, 4, 24], "path": ["0", "0", "9", "10", "12"], "rt": [2002, 393, 126], "actions": ["left", "left", "down"], "actionTimes": [3237, 4143, 4759], "queries": {"click": {"state": {"target": ["12"], "time": [2288]}, "edge": {"target": [], "time": []}}, "mouseover": {"state": {"target": ["0", "9", "10", "12", "11"], "time": [1393, 1666, 1817, 2166, 2599]}, "edge": {"target": [], "time": []}}, "mouseout": {"state": {"target": ["0", "0", "9", "10", "12", "11", "9"], "time": [1182, 1616, 1749, 2066, 2449, 5566, 5633]}, "edge": {"target": [], "time": []}}}, "displayed_time": "10.24", "trialTime": 11257, "trial_type": "mouselab-mdp", "trial_index": 25, "time_elapsed": 520563, "internal_node_id": "0.0-4.0-1.0-10.0"}}, {"uniqueid": "w61897809:a64179554", "current_trial": 26, "dateTime": 1664555901178, "trialdata": {"revealed_states": [], "num_clicks_accrued": [0, 0, 0, 0, 0, 0, 0, 0, 0, 0, 0, 0, 0], "stateRewards": ["", 2, 8, 48, -24, -4, 4, 48, 24, -2, 8, 24, 24], "withholdReward": true, "trial_id": "mdp_123436106791", "block": "test1", "trialIndex": 15, "score": 34.75, "costs": -0.25, "simulationMode": [null, null, null], "rewards": [-2, 8, 24], "path": ["0", "0", "9", "10", "12"], "rt": [2480, 39, 30], "actions": ["left", "left", "down"], "actionTimes": [3665, 4198, 4740], "queries": {"click": {"state": {"target": ["12"], "time": [2613]}, "edge": {"target": [], "time": []}}, "mouseover": {"state": {"target": ["0", "9", "12", "12", "10", "10", "12", "10"], "time": [1509, 1625, 1775, 2008, 2092, 2325, 2492, 2993]}, "edge": {"target": [], "time": []}}, "mouseout": {"state": {"target": ["0", "0", "9", "12", "12", "10", "10", "12", "10", "6"], "time": [808, 1577, 1675, 1842, 2042, 2208, 2425, 2959, 3025, 9943]}, "edge": {"target": [], "time": []}}}, "displayed_time": "9.19", "trialTime": 10337, "trial_type": "mouselab-mdp", "trial_index": 26, "time_elapsed": 530933, "internal_node_id": "0.0-4.0-1.0-11.0"}}, {"uniqueid": "w61897809:a64179554", "current_trial": 27, "dateTime": 1664555910636, "trialdata": {"revealed_states": [], "num_clicks_accrued": [0, 0, 0, 0, 0, 0, 0, 0, 0, 0, 0, 0, 0], "stateRewards": ["", 2, 8, -48, -24, 2, -4, -48, 24, 2, -4, -24, -24], "withholdReward": true, "trial_id": "mdp_954659099093", "block": "test1", "trialIndex": 16, "score": 26.75, "costs": -0.25, "simulationMode": [null, null, null], "rewards": [2, -4, 24], "path": ["0", "0", "5", "6", "8"], "rt": [1451, 1, 15], "actions": ["right", "right", "down"], "actionTimes": [2111, 2609, 3156], "queries": {"click": {"state": {"target": ["8"], "time": [1190]}, "edge": {"target": [], "time": []}}, "mouseover": {"state": {"target": ["8", "6"], "time": [990, 1374]}, "edge": {"target": [], "time": []}}, "mouseout": {"state": {"target": ["0", "8", "6", "7", "7", "5", "5"], "time": [907, 1340, 1407, 4373, 5873, 6457, 7607]}, "edge": {"target": [], "time": []}}}, "displayed_time": "8.66", "trialTime": 9409, "trial_type": "mouselab-mdp", "trial_index": 27, "time_elapsed": 540391, "internal_node_id": "0.0-4.0-1.0-12.0"}}, {"uniqueid": "w61897809:a64179554", "current_trial": 28, "dateTime": 1664555920176, "trialdata": {"revealed_states": [], "num_clicks_accrued": [0, 0, 0, 0, 0, 0, 0, 0, 0, 0, 0, 0, 0], "stateRewards": ["", 2, 4, -48, -24, -4, 4, -24, 24, -2, -8, -24, 24], "withholdReward": false, "trial_id": "mdp_640720803523", "block": "test1", "trialIndex": 17, "score": 28.5, "costs": -0.5, "simulationMode": [null, null, null], "rewards": [-4, 4, 24], "path": ["0", "0", "5", "6", "8"], "rt": [2223, 478, 69], "actions": ["right", "right", "down"], "actionTimes": [2883, 3874, 4432], "queries": {"click": {"state": {"target": ["7", "8"], "time": [1229, 1810]}, "edge": {"target": [], "time": []}}, "mouseover": {"state": {"target": ["5", "7", "6", "8", "12"], "time": [895, 1062, 1629, 1728, 2345]}, "edge": {"target": [], "time": []}}, "mouseout": {"state": {"target": ["0", "5", "7", "6", "8", "12", "12"], "time": [595, 962, 1428, 1662, 1979, 2445, 8945]}, "edge": {"target": [], "time": []}}}, "displayed_time": "8.66", "trialTime": 9504, "trial_type": "mouselab-mdp", "trial_index": 28, "time_elapsed": 549931, "internal_node_id": "0.0-4.0-1.0-13.0"}}, {"uniqueid": "w61897809:a64179554", "current_trial": 29, "dateTime": 1664555931064, "trialdata": {"revealed_states": [], "num_clicks_accrued": [0, 0, 0, 0, 0, 0, 0, 0, 0, 0, 0, 0, 0], "stateRewards": ["", 4, 4, 24, 24, 4, -4, 48, 48, 4, 4, 24, -48], "withholdReward": false, "trial_id": "mdp_454251689008", "block": "test1", "trialIndex": 18, "score": 36, "costs": -1, "simulationMode": [null, null, null], "rewards": [4, 4, 24], "path": ["0", "0", "9", "10", "11"], "rt": [2623, 87, 67], "actions": ["left", "left", "up"], "actionTimes": [3618, 4202, 4782], "queries": {"click": {"state": {"target": ["12", "11", "10", "9"], "time": [1495, 2028, 2525, 2843]}, "edge": {"target": [], "time": []}}, "mouseover": {"state": {"target": ["0", "12", "10", "11", "10", "9"], "time": [1164, 1332, 1698, 1814, 2381, 2714]}, "edge": {"target": [], "time": []}}, "mouseout": {"state": {"target": ["0", "0", "12", "10", "11", "10", "9", "0", "5", "5"], "time": [947, 1198, 1665, 1764, 2266, 2664, 2998, 5998, 6047, 6164]}, "edge": {"target": [], "time": []}}}, "displayed_time": "9.99", "trialTime": 10862, "trial_type": "mouselab-mdp", "trial_index": 29, "time_elapsed": 560819, "internal_node_id": "0.0-4.0-1.0-14.0"}}, {"uniqueid": "w61897809:a64179554", "current_trial": 30, "dateTime": 1664555941645, "trialdata": {"revealed_states": [], "num_clicks_accrued": [0, 0, 0, 0, 0, 0, 0, 0, 0, 0, 0, 0, 0], "stateRewards": ["", -2, -8, 48, 24, 4, -8, 24, 48, 4, -4, 24, -48], "withholdReward": true, "trial_id": "mdp_871576155740", "block": "test1", "trialIndex": 19, "score": 28.5, "costs": -0.5, "simulationMode": [null, null, null], "rewards": [4, -4, 24], "path": ["0", "0", "9", "10", "11"], "rt": [2406, 18, 446], "actions": ["left", "left", "up"], "actionTimes": [3504, 4025, 5004], "queries": {"click": {"state": {"target": ["12", "11"], "time": [1638, 2511]}, "edge": {"target": [], "time": []}}, "mouseover": {"state": {"target": ["12", "10", "11"], "time": [1456, 1940, 2377]}, "edge": {"target": [], "time": []}}, "mouseout": {"state": {"target": ["12", "10", "11", "0"], "time": [1907, 1973, 5807, 5873]}, "edge": {"target": [], "time": []}}}, "displayed_time": "10.10", "trialTime": 10551, "trial_type": "mouselab-mdp", "trial_index": 30, "time_elapsed": 571400, "internal_node_id": "0.0-4.0-1.0-15.0"}}, {"uniqueid": "w61897809:a64179554", "current_trial": 31, "dateTime": 1664555952158, "trialdata": {"revealed_states": [], "num_clicks_accrued": [0, 0, 0, 0, 0, 0, 0, 0, 0, 0, 0, 0, 0], "stateRewards": ["", 4, -8, -24, 48, -4, 8, -24, -48, -4, -4, 24, 48], "withholdReward": true, "trial_id": "mdp_282352776624", "block": "test1", "trialIndex": 20, "score": 44.25, "costs": -0.75, "simulationMode": [null, null, null], "rewards": [-4, -4, 48], "path": ["0", "0", "9", "10", "12"], "rt": [2677, 418, 91], "actions": ["left", "left", "down"], "actionTimes": [3382, 4309, 4899], "queries": {"click": {"state": {"target": ["7", "8", "12"], "time": [1224, 1779, 2413]}, "edge": {"target": [], "time": []}}, "mouseover": {"state": {"target": ["5", "7", "6", "8", "12"], "time": [940, 1073, 1607, 1708, 2308]}, "edge": {"target": [], "time": []}}, "mouseout": {"state": {"target": ["0", "5", "7", "6", "8", "12", "10"], "time": [640, 973, 1574, 1658, 1990, 2524, 5958]}, "edge": {"target": [], "time": []}}}, "displayed_time": "9.71", "trialTime": 10482, "trial_type": "mouselab-mdp", "trial_index": 31, "time_elapsed": 581913, "internal_node_id": "0.0-4.0-1.0-16.0"}}, {"uniqueid": "w61897809:a64179554", "current_trial": 32, "dateTime": 1664555962447, "trialdata": {"revealed_states": [], "num_clicks_accrued": [0, 0, 0, 0, 0, 0, 0, 0, 0, 0, 0, 0, 0], "stateRewards": ["", -4, -4, -48, 48, -4, -8, -24, -48, -2, 8, 48, 24], "withholdReward": true, "trial_id": "mdp_365393526663", "block": "test1", "trialIndex": 21, "score": 58.75, "costs": -0.25, "simulationMode": [null, null, null], "rewards": [-2, 8, 48], "path": ["0", "0", "9", "10", "11"], "rt": [1772, 57, 35], "actions": ["left", "left", "up"], "actionTimes": [2286, 2840, 3368], "queries": {"click": {"state": {"target": ["11"], "time": [1269]}, "edge": {"target": [], "time": []}}, "mouseover": {"state": {"target": ["9", "10", "11", "10", "10"], "time": [866, 932, 1099, 1683, 1849]}, "edge": {"target": [], "time": []}}, "mouseout": {"state": {"target": ["0", "9", "10", "11", "10", "10", "9"], "time": [833, 916, 999, 1633, 1699, 1882, 4266]}, "edge": {"target": [], "time": []}}}, "displayed_time": "9.52", "trialTime": 10246, "trial_type": "mouselab-mdp", "trial_index": 32, "time_elapsed": 592202, "internal_node_id": "0.0-4.0-1.0-17.0"}}, {"uniqueid": "w61897809:a64179554", "current_trial": 33, "dateTime": 1664555986835, "trialdata": {"revealed_states": [], "num_clicks_accrued": [0, 0, 0, 0, 0, 0, 0, 0, 0, 0, 0, 0, 0], "stateRewards": ["", -2, 4, -24, 48, 4, -8, 48, -48, 2, -8, 48, 24], "withholdReward": true, "trial_id": "mdp_501111216502", "block": "test1", "trialIndex": 22, "score": 22.75, "costs": -0.25, "simulationMode": [null, null, null], "rewards": [2, -8, 24], "path": ["0", "0", "9", "10", "12"], "rt": [1360, 466, 16], "actions": ["left", "left", "down"], "actionTimes": [2190, 3174, 3690], "queries": {"click": {"state": {"target": ["12"], "time": [1288]}, "edge": {"target": [], "time": []}}, "mouseover": {"state": {"target": ["12", "10"], "time": [1224, 1491]}, "edge": {"target": [], "time": []}}, "mouseout": {"state": {"target": ["0", "12", "10", "10", "9"], "time": [1040, 1458, 1574, 23508, 23591]}, "edge": {"target": [], "time": []}}}, "displayed_time": "8.83", "trialTime": 24359, "trial_type": "mouselab-mdp", "trial_index": 33, "time_elapsed": 616590, "internal_node_id": "0.0-4.0-1.0-18.0"}}, {"uniqueid": "w61897809:a64179554", "current_trial": 34, "dateTime": 1664555999232, "trialdata": {"revealed_states": [], "num_clicks_accrued": [0, 0, 0, 0, 0, 0, 0, 0, 0, 0, 0, 0, 0], "stateRewards": ["", -4, 4, -24, -24, -4, -8, 24, 48, 4, -4, 24, 48], "withholdReward": true, "trial_id": "mdp_175395325183", "block": "test1", "trialIndex": 23, "score": 16.75, "costs": -0.25, "simulationMode": [null, null, null], "rewards": [-4, -8, 24], "path": ["0", "0", "5", "6", "7"], "rt": [1702, 376, 82], "actions": ["right", "right", "up"], "actionTimes": [2902, 3786, 4358], "queries": {"click": {"state": {"target": ["7"], "time": [1873]}, "edge": {"target": [], "time": []}}, "mouseover": {"state": {"target": ["0", "5", "7", "8"], "time": [1343, 1493, 1811, 2359]}, "edge": {"target": [], "time": []}}, "mouseout": {"state": {"target": ["0", "0", "5", "7", "8"], "time": [1076, 1459, 1526, 2260, 10309]}, "edge": {"target": [], "time": []}}}, "displayed_time": "10.20", "trialTime": 12358, "trial_type": "mouselab-mdp", "trial_index": 34, "time_elapsed": 628987, "internal_node_id": "0.0-4.0-1.0-19.0"}}, {"uniqueid": "w61897809:a64179554", "current_trial": 35, "dateTime": 1664556012827, "trialdata": {"revealed_states": [], "num_clicks_accrued": [0, 0, 0, 0, 0, 0, 0, 0, 0, 0, 0, 0, 0], "stateRewards": ["", -4, 4, 24, 24, -2, 8, 24, -48, 4, -8, -24, -48], "withholdReward": false, "trial_id": "mdp_651542905861", "block": "test1", "trialIndex": 24, "score": 34, "costs": -1, "simulationMode": [null, null, null], "rewards": [-2, 8, 24], "path": ["0", "0", "5", "6", "7"], "rt": [4793, 33, 5], "actions": ["right", "right", "up"], "actionTimes": [7812, 8335, 8858], "queries": {"click": {"state": {"target": ["11", "12", "8", "7"], "time": [4898, 5442, 6325, 6835]}, "edge": {"target": [], "time": []}}, "mouseover": {"state": {"target": ["9", "10", "11", "10", "12", "8", "8", "6", "7"], "time": [4553, 4686, 4803, 5187, 5320, 5870, 6153, 6553, 6653]}, "edge": {"target": [], "time": []}}, "mouseout": {"state": {"target": ["9", "9", "5", "0", "9", "10", "11", "10", "12", "8", "8", "6", "7", "6"], "time": [2552, 2636, 2820, 4453, 4619, 4736, 5119, 5270, 5703, 5937, 6520, 6586, 12885, 13136]}, "edge": {"target": [], "time": []}}}, "displayed_time": "12.02", "trialTime": 13563, "trial_type": "mouselab-mdp", "trial_index": 35, "time_elapsed": 642582, "internal_node_id": "0.0-4.0-1.0-20.0"}}, {"uniqueid": "w61897809:a64179554", "current_trial": 36, "dateTime": 1664556023047, "trialdata": {"revealed_states": [], "num_clicks_accrued": [0, 0, 0, 0, 0, 0, 0, 0, 0, 0, 0, 0, 0], "stateRewards": ["", -4, -4, -48, -24, 2, 8, 24, -48, 4, 4, 48, 48], "withholdReward": true, "trial_id": "mdp_693501840209", "block": "test1", "trialIndex": 25, "score": 38.25, "costs": -0.75, "simulationMode": [null, null, null], "rewards": [2, 8, 24], "path": ["0", "0", "5", "6", "7"], "rt": [2946, 127, 426], "actions": ["right", "right", "up"], "actionTimes": [3507, 4131, 5063], "queries": {"click": {"state": {"target": ["4", "3", "7"], "time": [1363, 1915, 2427]}, "edge": {"target": [], "time": []}}, "mouseover": {"state": {"target": ["1", "2", "4", "2", "3", "7", "6"], "time": [821, 971, 1171, 1671, 1754, 2254, 2721]}, "edge": {"target": [], "time": []}}, "mouseout": {"state": {"target": ["0", "1", "2", "4", "2", "3", "7", "6"], "time": [754, 904, 1054, 1637, 1704, 2188, 2671, 2821]}, "edge": {"target": [], "time": []}}}, "displayed_time": "9.56", "trialTime": 10185, "trial_type": "mouselab-mdp", "trial_index": 36, "time_elapsed": 652802, "internal_node_id": "0.0-4.0-1.0-21.0"}}, {"uniqueid": "w61897809:a64179554", "current_trial": 37, "dateTime": 1664556032480, "trialdata": {"revealed_states": [], "num_clicks_accrued": [0, 0, 0, 0, 0, 0, 0, 0, 0, 0, 0, 0, 0], "stateRewards": ["", 2, 4, -48, 24, -4, 4, -24, 48, -2, -8, -48, 48], "withholdReward": true, "trial_id": "mdp_424193661731", "block": "test1", "trialIndex": 26, "score": 42.75, "costs": -0.25, "simulationMode": [null, null, null], "rewards": [-2, -8, 48], "path": ["0", "0", "9", "10", "12"], "rt": [1437, 161, 143], "actions": ["left", "left", "down"], "actionTimes": [1992, 2652, 3301], "queries": {"click": {"state": {"target": ["12"], "time": [1116]}, "edge": {"target": [], "time": []}}, "mouseover": {"state": {"target": ["9", "10", "12", "10", "11"], "time": [791, 858, 975, 1291, 1391]}, "edge": {"target": [], "time": []}}, "mouseout": {"state": {"target": ["0", "9", "10", "12", "10", "11", "9"], "time": [774, 824, 874, 1258, 1341, 4158, 4308]}, "edge": {"target": [], "time": []}}}, "displayed_time": "8.56", "trialTime": 9405, "trial_type": "mouselab-mdp", "trial_index": 37, "time_elapsed": 662235, "internal_node_id": "0.0-4.0-1.0-22.0"}}, {"uniqueid": "w61897809:a64179554", "current_trial": 38, "dateTime": 1664556041596, "trialdata": {"revealed_states": [], "num_clicks_accrued": [0, 0, 0, 0, 0, 0, 0, 0, 0, 0, 0, 0, 0], "stateRewards": ["", 2, -8, -24, -48, -2, -4, 48, 48, 4, 8, 48, 48], "withholdReward": true, "trial_id": "mdp_347285045422", "block": "test1", "trialIndex": 27, "score": 64.75, "costs": -0.25, "simulationMode": [null, null, null], "rewards": [4, 8, 48], "path": ["0", "0", "9", "10", "12"], "rt": [1472, 132, 226], "actions": ["left", "left", "down"], "actionTimes": [2112, 2736, 3464], "queries": {"click": {"state": {"target": ["12"], "time": [1208]}, "edge": {"target": [], "time": []}}, "mouseover": {"state": {"target": ["12", "12"], "time": [921, 1121]}, "edge": {"target": [], "time": []}}, "mouseout": {"state": {"target": ["0", "12", "12", "0"], "time": [821, 937, 1604, 6438]}, "edge": {"target": [], "time": []}}}, "displayed_time": "8.64", "trialTime": 9084, "trial_type": "mouselab-mdp", "trial_index": 38, "time_elapsed": 671351, "internal_node_id": "0.0-4.0-1.0-23.0"}}, {"uniqueid": "w61897809:a64179554", "current_trial": 39, "dateTime": 1664556050746, "trialdata": {"revealed_states": [], "num_clicks_accrued": [0, 0, 0, 0, 0, 0, 0, 0, 0, 0, 0, 0, 0], "stateRewards": ["", 4, 8, 48, -48, -4, 8, -24, -24, -4, 8, 48, 48], "withholdReward": false, "trial_id": "mdp_377640328420", "block": "test1", "trialIndex": 28, "score": 56.25, "costs": -0.75, "simulationMode": [null, null, null], "rewards": [-4, 8, 48], "path": ["0", "0", "9", "10", "11"], "rt": [3081, 155, 162], "actions": ["left", "left", "up"], "actionTimes": [3472, 4118, 4792], "queries": {"click": {"state": {"target": ["8", "7", "11"], "time": [1494, 2113, 2784]}, "edge": {"target": [], "time": []}}, "mouseover": {"state": {"target": ["8", "6", "7", "1", "11"], "time": [1413, 1847, 1963, 2447, 2680]}, "edge": {"target": [], "time": []}}, "mouseout": {"state": {"target": ["0", "8", "6", "7", "1", "11", "9"], "time": [1013, 1798, 1897, 2313, 2480, 2980, 6197]}, "edge": {"target": [], "time": []}}}, "displayed_time": "8.39", "trialTime": 9110, "trial_type": "mouselab-mdp", "trial_index": 39, "time_elapsed": 680501, "internal_node_id": "0.0-4.0-1.0-24.0"}}, {"uniqueid": "w61897809:a64179554", "current_trial": 40, "dateTime": 1664556065624, "trialdata": {"revealed_states": [], "num_clicks_accrued": [0, 0, 0, 0, 0, 0, 0, 0, 0, 0, 0, 0, 0], "stateRewards": ["", 2, -4, -24, -24, -2, -8, -48, 24, -4, -8, 24, 24], "withholdReward": true, "trial_id": "mdp_521351546461", "block": "test1", "trialIndex": 29, "score": 16.75, "costs": -0.25, "simulationMode": [null, null, null], "rewards": [-4, -8, 24], "path": ["0", "0", "9", "10", "11"], "rt": [1753, 18, 77], "actions": ["left", "left", "up"], "actionTimes": [3462, 3975, 4567], "queries": {"click": {"state": {"target": ["11"], "time": [2643]}, "edge": {"target": [], "time": []}}, "mouseover": {"state": {"target": ["9", "11", "10"], "time": [2290, 2407, 2890]}, "edge": {"target": [], "time": []}}, "mouseout": {"state": {"target": ["0", "9", "11", "10", "1"], "time": [2257, 2340, 2823, 13724, 13790]}, "edge": {"target": [], "time": []}}}, "displayed_time": "10.71", "trialTime": 14847, "trial_type": "mouselab-mdp", "trial_index": 40, "time_elapsed": 695379, "internal_node_id": "0.0-4.0-1.0-25.0"}}, {"uniqueid": "w61897809:a64179554", "current_trial": 41, "dateTime": 1664556076412, "trialdata": {"revealed_states": [], "num_clicks_accrued": [0, 0, 0, 0, 0, 0, 0, 0, 0, 0, 0, 0, 0], "stateRewards": ["", -2, -4, -48, 48, -2, -4, 24, 48, -4, -8, -24, 24], "withholdReward": true, "trial_id": "mdp_917590390609", "block": "test1", "trialIndex": 30, "score": 46.75, "costs": -0.25, "simulationMode": [null, null, null], "rewards": [-2, -4, 48], "path": ["0", "0", "5", "6", "8"], "rt": [1734, 136, 2775], "actions": ["right", "right", "down"], "actionTimes": [3103, 3727, 6999], "queries": {"click": {"state": {"target": ["8"], "time": [2177]}, "edge": {"target": [], "time": []}}, "mouseover": {"state": {"target": ["5", "8", "6"], "time": [1573, 2124, 2556]}, "edge": {"target": [], "time": []}}, "mouseout": {"state": {"target": ["8", "6", "0", "0", "5", "8", "6", "7", "6"], "time": [656, 689, 1056, 1556, 1791, 2524, 2607, 8824, 8906]}, "edge": {"target": [], "time": []}}}, "displayed_time": "10.37", "trialTime": 10752, "trial_type": "mouselab-mdp", "trial_index": 41, "time_elapsed": 706167, "internal_node_id": "0.0-4.0-1.0-26.0"}}, {"uniqueid": "w61897809:a64179554", "current_trial": 42, "dateTime": 1664556086413, "trialdata": {"revealed_states": [], "num_clicks_accrued": [0, 0, 0, 0, 0, 0, 0, 0, 0, 0, 0, 0, 0], "stateRewards": ["", -2, -4, -24, -48, -4, -8, -48, 24, -4, -8, -24, -48], "withholdReward": true, "trial_id": "mdp_475782454549", "block": "test1", "trialIndex": 31, "score": 16.75, "costs": -0.25, "simulationMode": [null, null, null], "rewards": [-4, -8, 24], "path": ["0", "0", "5", "6", "8"], "rt": [1765, 61, 86], "actions": ["right", "right", "down"], "actionTimes": [2128, 2681, 3273], "queries": {"click": {"state": {"target": ["8"], "time": [1158]}, "edge": {"target": [], "time": []}}, "mouseover": {"state": {"target": ["5", "8", "6", "7"], "time": [853, 1069, 1470, 1536]}, "edge": {"target": [], "time": []}}, "mouseout": {"state": {"target": ["0", "5", "8", "6", "7", "7", "5"], "time": [270, 870, 1420, 1504, 1553, 6653, 6736]}, "edge": {"target": [], "time": []}}}, "displayed_time": "9.36", "trialTime": 9965, "trial_type": "mouselab-mdp", "trial_index": 42, "time_elapsed": 716168, "internal_node_id": "0.0-4.0-1.0-27.0"}}, {"uniqueid": "w61897809:a64179554", "current_trial": 43, "dateTime": 1664556095455, "trialdata": {"revealed_states": [], "num_clicks_accrued": [0, 0, 0, 0, 0, 0, 0, 0, 0, 0, 0, 0, 0], "stateRewards": ["", 2, -4, 24, 48, -2, 4, -48, -48, -4, 4, 24, -24], "withholdReward": true, "trial_id": "mdp_900363662757", "block": "test1", "trialIndex": 32, "score": 28.5, "costs": -0.5, "simulationMode": [null, null, null], "rewards": [-4, 4, 24], "path": ["0", "0", "9", "10", "11"], "rt": [2624, 210, 250], "actions": ["left", "left", "up"], "actionTimes": [2994, 3708, 4465], "queries": {"click": {"state": {"target": ["12", "11"], "time": [996, 1508]}, "edge": {"target": [], "time": []}}, "mouseover": {"state": {"target": ["0", "9", "12", "10", "11", "1"], "time": [631, 680, 847, 1163, 1263, 1813]}, "edge": {"target": [], "time": []}}, "mouseout": {"state": {"target": ["0", "0", "9", "12", "10", "11", "1"], "time": [343, 664, 763, 1147, 1213, 1680, 1897]}, "edge": {"target": [], "time": []}}}, "displayed_time": "8.37", "trialTime": 9002, "trial_type": "mouselab-mdp", "trial_index": 43, "time_elapsed": 725210, "internal_node_id": "0.0-4.0-1.0-28.0"}}, {"uniqueid": "w61897809:a64179554", "current_trial": 44, "dateTime": 1664556106258, "trialdata": {"revealed_states": [], "num_clicks_accrued": [0, 0, 0, 0, 0, 0, 0, 0, 0, 0, 0, 0, 0], "stateRewards": ["", -2, 4, -48, 24, -4, 8, 48, 24, -2, 4, -48, -24], "withholdReward": true, "trial_id": "mdp_740882974347", "block": "test1", "trialIndex": 33, "score": 56.25, "costs": -0.75, "simulationMode": [null, null, null], "rewards": [-4, 8, 48], "path": ["0", "0", "5", "6", "7"], "rt": [3302, 90, 248], "actions": ["right", "right", "up"], "actionTimes": [4227, 4835, 5576], "queries": {"click": {"state": {"target": ["11", "12", "7"], "time": [1495, 2073, 2968]}, "edge": {"target": [], "time": []}}, "mouseover": {"state": {"target": ["9", "10", "11", "10", "12", "6", "7", "6"], "time": [1077, 1161, 1377, 1745, 1877, 2694, 2844, 3194]}, "edge": {"target": [], "time": []}}, "mouseout": {"state": {"target": ["7", "5", "0", "0", "9", "10", "11", "10", "12", "6", "7", "6"], "time": [244, 544, 577, 1027, 1127, 1227, 1695, 1829, 2428, 2745, 3127, 3294]}, "edge": {"target": [], "time": []}}}, "displayed_time": "9.93", "trialTime": 10768, "trial_type": "mouselab-mdp", "trial_index": 44, "time_elapsed": 736013, "internal_node_id": "0.0-4.0-1.0-29.0"}}, {"uniqueid": "w61897809:a64179554", "current_trial": 45, "dateTime": 1664556112462, "trialdata": {"rt": 6202, "stimulus": "<h1> End of block! </h1>\n\nYou have reached the end of the block 1/4. If you need a short break, feel free to take one now before moving on.\n\n<br><br>\nIn the next block, you will complete another 30 rounds of this game.\n\n<br><br>\n<div style='text-align: center;'>Press <code>space</code> to begin.</div>\n<br><br>\n<div style='text-align: center;'>(If the experiment doesn't continue, try clicking on the text and then pressing <code>space</code>.)</div>", "response": " ", "trial_id": "mdp_ready_2", "trial_type": "html-keyboard-response", "trial_index": 45, "time_elapsed": 742217, "internal_node_id": "0.0-4.0-2.0"}}, {"uniqueid": "w61897809:a64179554", "current_trial": 46, "dateTime": 1664556124645, "trialdata": {"revealed_states": [], "num_clicks_accrued": [0, 0, 0, 0, 0, 0, 0, 0, 0, 0, 0, 0, 0], "stateRewards": ["", -2, -4, -48, -48, -2, -8, 48, -48, 4, -8, -48, 24], "withholdReward": true, "trial_id": "mdp_468495641521", "block": "test2", "trialIndex": 34, "score": 24.5, "costs": -0.5, "simulationMode": [null, null, null], "rewards": [4, -8, 24], "path": ["0", "0", "9", "10", "12"], "rt": [3586, 462, 184], "actions": ["left", "left", "down"], "actionTimes": [6349, 7308, 7996], "queries": {"click": {"state": {"target": ["11", "12"], "time": [4358, 5029]}, "edge": {"target": [], "time": []}}, "mouseover": {"state": {"target": ["0", "9", "11", "10", "12"], "time": [3678, 3811, 4096, 4711, 4846]}, "edge": {"target": [], "time": []}}, "mouseout": {"state": {"target": ["3", "0", "0", "9", "11", "10", "12"], "time": [2411, 2861, 3712, 3929, 4662, 4778, 5462]}, "edge": {"target": [], "time": []}}}, "displayed_time": "11.76", "trialTime": 12139, "trial_type": "mouselab-mdp", "trial_index": 46, "time_elapsed": 754400, "internal_node_id": "0.0-4.0-3.0-0.0"}}, {"uniqueid": "w61897809:a64179554", "current_trial": 47, "dateTime": 1664556134458, "trialdata": {"revealed_states": [], "num_clicks_accrued": [0, 0, 0, 0, 0, 0, 0, 0, 0, 0, 0, 0, 0], "stateRewards": ["", 2, 4, 48, -24, 2, -8, -24, -24, 2, -8, -24, -48], "withholdReward": false, "trial_id": "mdp_274832552938", "block": "test2", "trialIndex": 35, "score": 57.75, "costs": -1.25, "simulationMode": [null, null, null], "rewards": [2, 4, 48], "path": ["0", "0", "1", "2", "3"], "rt": [5164, 174, 52], "actions": ["up", "up", "right"], "actionTimes": [5746, 6407, 6967], "queries": {"click": {"state": {"target": ["12", "11", "8", "7", "3"], "time": [1185, 1961, 2753, 3878, 4940]}, "edge": {"target": [], "time": []}}, "mouseover": {"state": {"target": ["12", "10", "11", "9", "0", "8", "6", "7", "3", "3"], "time": [1066, 1517, 1666, 2332, 2383, 2532, 2999, 3249, 4566, 4765]}, "edge": {"target": [], "time": []}}, "mouseout": {"state": {"target": ["0", "0", "12", "10", "11", "9", "0", "8", "6", "7", "3"], "time": [241, 916, 1449, 1582, 2249, 2366, 2432, 2932, 3166, 4549, 4599]}, "edge": {"target": [], "time": []}}}, "displayed_time": "8.58", "trialTime": 9773, "trial_type": "mouselab-mdp", "trial_index": 47, "time_elapsed": 764212, "internal_node_id": "0.0-4.0-3.0-1.0"}}, {"uniqueid": "w61897809:a64179554", "current_trial": 48, "dateTime": 1664556144068, "trialdata": {"revealed_states": [], "num_clicks_accrued": [0, 0, 0, 0, 0, 0, 0, 0, 0, 0, 0, 0, 0], "stateRewards": ["", -2, 4, -48, -48, -4, -8, 48, -48, 2, 4, 48, -48], "withholdReward": false, "trial_id": "mdp_258647270500", "block": "test2", "trialIndex": 36, "score": 58.5, "costs": -0.5, "simulationMode": [null, null, null], "rewards": [2, 4, 48], "path": ["0", "0", "9", "10", "11"], "rt": [2177, 74, 122], "actions": ["left", "left", "up"], "actionTimes": [2821, 3391, 4023], "queries": {"click": {"state": {"target": ["12", "11"], "time": [1383, 1938]}, "edge": {"target": [], "time": []}}, "mouseover": {"state": {"target": ["9", "12", "10", "11", "4"], "time": [1051, 1284, 1601, 1684, 2367]}, "edge": {"target": [], "time": []}}, "mouseout": {"state": {"target": ["3", "0", "9", "12", "10", "11", "4", "2", "1", "0"], "time": [50, 902, 1151, 1551, 1651, 2151, 4951, 5002, 5150, 7384]}, "edge": {"target": [], "time": []}}}, "displayed_time": "8.65", "trialTime": 9568, "trial_type": "mouselab-mdp", "trial_index": 48, "time_elapsed": 773822, "internal_node_id": "0.0-4.0-3.0-2.0"}}, {"uniqueid": "w61897809:a64179554", "current_trial": 49, "dateTime": 1664556154840, "trialdata": {"revealed_states": [], "num_clicks_accrued": [0, 0, 0, 0, 0, 0, 0, 0, 0, 0, 0, 0, 0], "stateRewards": ["", 4, -8, 48, -24, -4, 4, 24, 24, -2, -4, 24, 24], "withholdReward": false, "trial_id": "mdp_542168715839", "block": "test2", "trialIndex": 37, "score": 22.75, "costs": -0.25, "simulationMode": [null, null, null], "rewards": [-2, -4, 24], "path": ["0", "0", "9", "10", "11"], "rt": [2133, 227, 183], "actions": ["left", "left", "up"], "actionTimes": [2851, 3585, 4259], "queries": {"click": {"state": {"target": ["11"], "time": [1708]}, "edge": {"target": [], "time": []}}, "mouseover": {"state": {"target": ["11"], "time": [1592]}, "edge": {"target": [], "time": []}}, "mouseout": {"state": {"target": ["0", "11"], "time": [558, 2092]}, "edge": {"target": [], "time": []}}}, "displayed_time": "9.72", "trialTime": 10731, "trial_type": "mouselab-mdp", "trial_index": 49, "time_elapsed": 784594, "internal_node_id": "0.0-4.0-3.0-3.0"}}, {"uniqueid": "w61897809:a64179554", "current_trial": 50, "dateTime": 1664556164081, "trialdata": {"revealed_states": [], "num_clicks_accrued": [0, 0, 0, 0, 0, 0, 0, 0, 0, 0, 0, 0, 0], "stateRewards": ["", -4, -8, -48, 24, -4, -4, -24, -48, 2, -8, -24, -48], "withholdReward": true, "trial_id": "mdp_628181832088", "block": "test2", "trialIndex": 38, "score": 15.75, "costs": -1.25, "simulationMode": [null, null, null], "rewards": [-4, -8, 24], "path": ["0", "0", "1", "2", "4"], "rt": [4491, 56, 63], "actions": ["up", "up", "left"], "actionTimes": [5150, 5697, 6254], "queries": {"click": {"state": {"target": ["11", "12", "8", "7", "3"], "time": [1429, 2063, 2931, 3492, 4205]}, "edge": {"target": [], "time": []}}, "mouseover": {"state": {"target": ["11", "11", "10", "12", "8", "6", "7", "3"], "time": [1058, 1291, 1825, 1941, 2625, 3158, 3308, 3959]}, "edge": {"target": [], "time": []}}, "mouseout": {"state": {"target": ["0", "11", "11", "10", "12", "8", "6", "7", "7", "3", "7"], "time": [525, 1125, 1792, 1875, 2408, 3125, 3258, 3776, 3908, 7191, 7324]}, "edge": {"target": [], "time": []}}}, "displayed_time": "8.66", "trialTime": 9205, "trial_type": "mouselab-mdp", "trial_index": 50, "time_elapsed": 793836, "internal_node_id": "0.0-4.0-3.0-4.0"}}, {"uniqueid": "w61897809:a64179554", "current_trial": 51, "dateTime": 1664556175066, "trialdata": {"revealed_states": [], "num_clicks_accrued": [0, 0, 0, 0, 0, 0, 0, 0, 0, 0, 0, 0, 0], "stateRewards": ["", -2, 4, -24, -48, -4, 8, -24, 48, 4, 4, -48, 24], "withholdReward": true, "trial_id": "mdp_341117665701", "block": "test2", "trialIndex": 39, "score": 36.5, "costs": -0.5, "simulationMode": [null, null, null], "rewards": [4, 4, 24], "path": ["0", "0", "9", "10", "12"], "rt": [2255, 159, 105], "actions": ["left", "left", "down"], "actionTimes": [3048, 3705, 4318], "queries": {"click": {"state": {"target": ["11", "12"], "time": [1522, 2024]}, "edge": {"target": [], "time": []}}, "mouseover": {"state": {"target": ["9", "11", "10", "12"], "time": [1147, 1430, 1780, 1914]}, "edge": {"target": [], "time": []}}, "mouseout": {"state": {"target": ["0", "9", "11", "10", "12"], "time": [770, 1180, 1730, 1846, 2230]}, "edge": {"target": [], "time": []}}}, "displayed_time": "9.79", "trialTime": 10946, "trial_type": "mouselab-mdp", "trial_index": 51, "time_elapsed": 804821, "internal_node_id": "0.0-4.0-3.0-5.0"}}, {"uniqueid": "w61897809:a64179554", "current_trial": 52, "dateTime": 1664556184027, "trialdata": {"revealed_states": [], "num_clicks_accrued": [0, 0, 0, 0, 0, 0, 0, 0, 0, 0, 0, 0, 0], "stateRewards": ["", 2, 4, 48, -48, 2, 4, 24, -24, 2, -4, -24, -48], "withholdReward": true, "trial_id": "mdp_706591889062", "block": "test2", "trialIndex": 40, "score": 34.5, "costs": -0.5, "simulationMode": [null, null, null], "rewards": [2, 4, 24], "path": ["0", "0", "5", "6", "7"], "rt": [2213, 312, 113], "actions": ["right", "right", "up"], "actionTimes": [2749, 3565, 4166], "queries": {"click": {"state": {"target": ["8", "7"], "time": [1175, 1823]}, "edge": {"target": [], "time": []}}, "mouseover": {"state": {"target": ["0", "8", "6", "7"], "time": [836, 1083, 1586, 1719]}, "edge": {"target": [], "time": []}}, "mouseout": {"state": {"target": ["0", "0", "8", "6", "7", "5"], "time": [510, 870, 1403, 1603, 2019, 7554]}, "edge": {"target": [], "time": []}}}, "displayed_time": "8.54", "trialTime": 8930, "trial_type": "mouselab-mdp", "trial_index": 52, "time_elapsed": 813782, "internal_node_id": "0.0-4.0-3.0-6.0"}}, {"uniqueid": "w61897809:a64179554", "current_trial": 53, "dateTime": 1664556194457, "trialdata": {"revealed_states": [], "num_clicks_accrued": [0, 0, 0, 0, 0, 0, 0, 0, 0, 0, 0, 0, 0], "stateRewards": ["", -4, -8, -48, 48, -2, -8, -48, -24, 4, 8, 24, -48], "withholdReward": false, "trial_id": "mdp_509977295685", "block": "test2", "trialIndex": 41, "score": 40, "costs": -1, "simulationMode": [null, null, null], "rewards": [4, 8, 24], "path": ["0", "0", "9", "10", "11"], "rt": [4636, 90, 233], "actions": ["left", "left", "up"], "actionTimes": [5304, 5891, 6633], "queries": {"click": {"state": {"target": ["7", "8", "12", "11"], "time": [1472, 2019, 2773, 3292]}, "edge": {"target": [], "time": []}}, "mouseover": {"state": {"target": ["5", "6", "7", "6", "8", "12", "10", "11", "4"], "time": [1000, 1133, 1350, 1734, 1835, 2550, 2984, 3083, 3567]}, "edge": {"target": [], "time": []}}, "mouseout": {"state": {"target": ["0", "5", "6", "7", "6", "8", "12", "10", "11"], "time": [600, 1067, 1200, 1701, 1784, 2267, 2950, 3017, 3484]}, "edge": {"target": [], "time": []}}}, "displayed_time": "9.67", "trialTime": 10391, "trial_type": "mouselab-mdp", "trial_index": 53, "time_elapsed": 824212, "internal_node_id": "0.0-4.0-3.0-7.0"}}, {"uniqueid": "w61897809:a64179554", "current_trial": 54, "dateTime": 1664556203570, "trialdata": {"revealed_states": [], "num_clicks_accrued": [0, 0, 0, 0, 0, 0, 0, 0, 0, 0, 0, 0, 0], "stateRewards": ["", 2, 4, -48, 24, -4, -4, -24, 24, 2, -4, 24, -24], "withholdReward": true, "trial_id": "mdp_163600331068", "block": "test2", "trialIndex": 42, "score": 34.5, "costs": -0.5, "simulationMode": [null, null, null], "rewards": [2, 4, 24], "path": ["0", "0", "1", "2", "4"], "rt": [2922, 74, 58], "actions": ["up", "up", "left"], "actionTimes": [3561, 4130, 4697], "queries": {"click": {"state": {"target": ["3", "4"], "time": [1580, 2361]}, "edge": {"target": [], "time": []}}, "mouseover": {"state": {"target": ["1", "2", "3", "2", "4", "11"], "time": [1039, 1072, 1489, 1839, 2005, 2757]}, "edge": {"target": [], "time": []}}, "mouseout": {"state": {"target": ["4", "1", "0", "0", "1", "2", "3", "2", "4", "11", "4", "3"], "time": [238, 306, 372, 957, 1072, 1122, 1789, 1939, 2623, 8573, 8606, 8839]}, "edge": {"target": [], "time": []}}}, "displayed_time": "8.64", "trialTime": 9076, "trial_type": "mouselab-mdp", "trial_index": 54, "time_elapsed": 833325, "internal_node_id": "0.0-4.0-3.0-8.0"}}, {"uniqueid": "w61897809:a64179554", "current_trial": 55, "dateTime": 1664556213652, "trialdata": {"revealed_states": [], "num_clicks_accrued": [0, 0, 0, 0, 0, 0, 0, 0, 0, 0, 0, 0, 0], "stateRewards": ["", -4, 8, -24, -48, 2, 8, -48, -24, -2, -4, 48, -48], "withholdReward": true, "trial_id": "mdp_599927291428", "block": "test2", "trialIndex": 43, "score": 45.5, "costs": -1.5, "simulationMode": [null, null, null], "rewards": [-2, -4, 48], "path": ["0", "0", "9", "10", "11"], "rt": [5993, 36, 2], "actions": ["left", "left", "up"], "actionTimes": [6666, 7200, 7715], "queries": {"click": {"state": {"target": ["4", "3", "7", "8", "12", "11"], "time": [1729, 2317, 2875, 3483, 4242, 5834]}, "edge": {"target": [], "time": []}}, "mouseover": {"state": {"target": ["4", "2", "3", "7", "6", "8", "12", "10", "9", "11", "11"], "time": [1479, 2046, 2096, 2713, 3163, 3347, 4080, 4646, 5180, 5398, 5746]}, "edge": {"target": [], "time": []}}, "mouseout": {"state": {"target": ["8", "5", "0", "4", "2", "3", "7", "6", "8", "12", "10", "9", "11"], "time": [347, 430, 848, 2030, 2080, 2630, 3096, 3263, 3830, 4613, 5147, 5213, 5513]}, "edge": {"target": [], "time": []}}}, "displayed_time": "9.68", "trialTime": 10049, "trial_type": "mouselab-mdp", "trial_index": 55, "time_elapsed": 843407, "internal_node_id": "0.0-4.0-3.0-9.0"}}, {"uniqueid": "w61897809:a64179554", "current_trial": 56, "dateTime": 1664556223112, "trialdata": {"revealed_states": [], "num_clicks_accrued": [0, 0, 0, 0, 0, 0, 0, 0, 0, 0, 0, 0, 0], "stateRewards": ["", 2, -4, -24, 24, 2, 8, 48, 48, 2, -8, 48, -24], "withholdReward": true, "trial_id": "mdp_330392242530", "block": "test2", "trialIndex": 44, "score": 46.75, "costs": -0.25, "simulationMode": [null, null, null], "rewards": [2, -8, 48], "path": ["0", "0", "9", "10", "11"], "rt": [2064, 55, 109], "actions": ["left", "left", "up"], "actionTimes": [3009, 3559, 4163], "queries": {"click": {"state": {"target": ["11"], "time": [1931]}, "edge": {"target": [], "time": []}}, "mouseover": {"state": {"target": ["9", "11", "10", "12"], "time": [1353, 1805, 2154, 2287]}, "edge": {"target": [], "time": []}}, "mouseout": {"state": {"target": ["11", "5", "5", "9", "11", "10", "12"], "time": [387, 470, 737, 1403, 2120, 2237, 2455]}, "edge": {"target": [], "time": []}}}, "displayed_time": "8.95", "trialTime": 9415, "trial_type": "mouselab-mdp", "trial_index": 56, "time_elapsed": 852867, "internal_node_id": "0.0-4.0-3.0-10.0"}}, {"uniqueid": "w61897809:a64179554", "current_trial": 57, "dateTime": 1664556233572, "trialdata": {"revealed_states": [], "num_clicks_accrued": [0, 0, 0, 0, 0, 0, 0, 0, 0, 0, 0, 0, 0], "stateRewards": ["", 2, -8, 48, -24, 2, 8, 24, -24, 4, -4, -48, -48], "withholdReward": false, "trial_id": "mdp_130946197263", "block": "test2", "trialIndex": 45, "score": 38, "costs": -1, "simulationMode": [null, null, null], "rewards": [2, 8, 24], "path": ["0", "0", "5", "6", "7"], "rt": [3804, 30, 78], "actions": ["right", "right", "up"], "actionTimes": [4210, 4734, 5299], "queries": {"click": {"state": {"target": ["11", "12", "8", "7"], "time": [1153, 1705, 2415, 2954]}, "edge": {"target": [], "time": []}}, "mouseover": {"state": {"target": ["0", "9", "10", "11", "10", "12", "8", "8", "6", "7"], "time": [637, 703, 870, 987, 1388, 1537, 2070, 2338, 2637, 2887]}, "edge": {"target": [], "time": []}}, "mouseout": {"state": {"target": ["0", "0", "9", "10", "11", "10", "12", "8", "8", "6", "7", "7", "5", "0", "0"], "time": [270, 670, 754, 905, 1337, 1470, 1887, 2170, 2620, 2653, 6665, 6971, 7137, 8187, 9870]}, "edge": {"target": [], "time": []}}}, "displayed_time": "9.41", "trialTime": 10426, "trial_type": "mouselab-mdp", "trial_index": 57, "time_elapsed": 863327, "internal_node_id": "0.0-4.0-3.0-11.0"}}, {"uniqueid": "w61897809:a64179554", "current_trial": 58, "dateTime": 1664556244838, "trialdata": {"revealed_states": [], "num_clicks_accrued": [0, 0, 0, 0, 0, 0, 0, 0, 0, 0, 0, 0, 0], "stateRewards": ["", -2, -8, 24, -48, 4, 4, -24, -48, -2, -8, -48, 24], "withholdReward": false, "trial_id": "mdp_556006673466", "block": "test2", "trialIndex": 46, "score": 18.25, "costs": -0.75, "simulationMode": [null, null, null], "rewards": [-2, -8, 24], "path": ["0", "0", "9", "10", "12"], "rt": [5345, 45, 218], "actions": ["left", "left", "down"], "actionTimes": [5941, 6493, 7232], "queries": {"click": {"state": {"target": ["7", "8", "12"], "time": [2740, 3476, 4260]}, "edge": {"target": [], "time": []}}, "mouseover": {"state": {"target": ["5", "6", "7", "6", "8", "12", "10", "11"], "time": [981, 1031, 1181, 3131, 3214, 4014, 4599, 4664]}, "edge": {"target": [], "time": []}}, "mouseout": {"state": {"target": ["0", "5", "6", "7", "6", "8", "12", "10", "11", "1", "0"], "time": [964, 1014, 1114, 3114, 3181, 3764, 4548, 4648, 8398, 8681, 9281]}, "edge": {"target": [], "time": []}}}, "displayed_time": "9.60", "trialTime": 11236, "trial_type": "mouselab-mdp", "trial_index": 58, "time_elapsed": 874593, "internal_node_id": "0.0-4.0-3.0-12.0"}}, {"uniqueid": "w61897809:a64179554", "current_trial": 59, "dateTime": 1664556254243, "trialdata": {"revealed_states": [], "num_clicks_accrued": [0, 0, 0, 0, 0, 0, 0, 0, 0, 0, 0, 0, 0], "stateRewards": ["", -2, 8, -48, 48, -4, -8, 24, 24, -2, -4, 48, -48], "withholdReward": true, "trial_id": "mdp_867247318592", "block": "test2", "trialIndex": 47, "score": 46.75, "costs": -0.25, "simulationMode": [null, null, null], "rewards": [-2, -4, 48], "path": ["0", "0", "9", "10", "11"], "rt": [1649, 157, 244], "actions": ["left", "left", "up"], "actionTimes": [2180, 2826, 3579], "queries": {"click": {"state": {"target": ["11"], "time": [1189]}, "edge": {"target": [], "time": []}}, "mouseover": {"state": {"target": ["9", "11", "10", "10"], "time": [852, 1068, 1402, 1602]}, "edge": {"target": [], "time": []}}, "mouseout": {"state": {"target": ["0", "9", "11", "10", "10", "9", "0", "5", "0", "0"], "time": [802, 902, 1352, 1469, 4503, 4552, 4585, 4835, 4903, 5185]}, "edge": {"target": [], "time": []}}}, "displayed_time": "8.55", "trialTime": 9362, "trial_type": "mouselab-mdp", "trial_index": 59, "time_elapsed": 883998, "internal_node_id": "0.0-4.0-3.0-13.0"}}, {"uniqueid": "w61897809:a64179554", "current_trial": 60, "dateTime": 1664556264453, "trialdata": {"revealed_states": [], "num_clicks_accrued": [0, 0, 0, 0, 0, 0, 0, 0, 0, 0, 0, 0, 0], "stateRewards": ["", 2, 4, -48, -24, 2, 8, 24, 48, -2, 4, 48, -48], "withholdReward": true, "trial_id": "mdp_551894842204", "block": "test2", "trialIndex": 48, "score": 38.75, "costs": -0.25, "simulationMode": [null, null, null], "rewards": [2, 8, 24], "path": ["0", "0", "5", "6", "7"], "rt": [1698, 174, 843], "actions": ["right", "right", "up"], "actionTimes": [2346, 3013, 4349], "queries": {"click": {"state": {"target": ["7"], "time": [1241]}, "edge": {"target": [], "time": []}}, "mouseover": {"state": {"target": ["5", "7", "6"], "time": [923, 1106, 1556]}, "edge": {"target": [], "time": []}}, "mouseout": {"state": {"target": ["0", "5", "7", "6"], "time": [874, 956, 1506, 1623]}, "edge": {"target": [], "time": []}}}, "displayed_time": "9.65", "trialTime": 10176, "trial_type": "mouselab-mdp", "trial_index": 60, "time_elapsed": 894208, "internal_node_id": "0.0-4.0-3.0-14.0"}}, {"uniqueid": "w61897809:a64179554", "current_trial": 61, "dateTime": 1664556273772, "trialdata": {"revealed_states": [], "num_clicks_accrued": [0, 0, 0, 0, 0, 0, 0, 0, 0, 0, 0, 0, 0], "stateRewards": ["", 4, -4, 24, 48, 4, 8, -24, -24, -2, 4, 48, 48], "withholdReward": true, "trial_id": "mdp_624998450453", "block": "test2", "trialIndex": 49, "score": 54.25, "costs": -0.75, "simulationMode": [null, null, null], "rewards": [-2, 4, 48], "path": ["0", "0", "9", "10", "12"], "rt": [3090, 134, 186], "actions": ["left", "left", "down"], "actionTimes": [3586, 4213, 4915], "queries": {"click": {"state": {"target": ["7", "8", "12"], "time": [1126, 1736, 2304]}, "edge": {"target": [], "time": []}}, "mouseover": {"state": {"target": ["7", "6", "8", "12", "10", "11"], "time": [845, 1463, 1578, 2195, 2512, 2878]}, "edge": {"target": [], "time": []}}, "mouseout": {"state": {"target": ["0", "7", "6", "8", "12", "10", "11", "1"], "time": [369, 1428, 1528, 1962, 2478, 2528, 8229, 8445]}, "edge": {"target": [], "time": []}}}, "displayed_time": "8.50", "trialTime": 9284, "trial_type": "mouselab-mdp", "trial_index": 61, "time_elapsed": 903527, "internal_node_id": "0.0-4.0-3.0-15.0"}}, {"uniqueid": "w61897809:a64179554", "current_trial": 62, "dateTime": 1664556284304, "trialdata": {"revealed_states": [], "num_clicks_accrued": [0, 0, 0, 0, 0, 0, 0, 0, 0, 0, 0, 0, 0], "stateRewards": ["", -4, -8, 48, -24, 4, -8, 48, 48, -2, 4, -48, -24], "withholdReward": true, "trial_id": "mdp_925905402462", "block": "test2", "trialIndex": 50, "score": 48.25, "costs": -0.75, "simulationMode": [null, null, null], "rewards": [4, -8, 48], "path": ["0", "0", "5", "6", "7"], "rt": [2834, 182, 287], "actions": ["right", "right", "up"], "actionTimes": [3272, 3955, 4744], "queries": {"click": {"state": {"target": ["12", "11", "7"], "time": [953, 1457, 2085]}, "edge": {"target": [], "time": []}}, "mouseover": {"state": {"target": ["9", "12", "10", "11", "1", "7", "6", "8"], "time": [656, 841, 1189, 1273, 1739, 1973, 2356, 2506]}, "edge": {"target": [], "time": []}}, "mouseout": {"state": {"target": ["0", "9", "12", "10", "11", "1", "7", "6", "8", "8"], "time": [606, 740, 1157, 1239, 1640, 1773, 2306, 2423, 2590, 6040]}, "edge": {"target": [], "time": []}}}, "displayed_time": "9.44", "trialTime": 10494, "trial_type": "mouselab-mdp", "trial_index": 62, "time_elapsed": 914059, "internal_node_id": "0.0-4.0-3.0-16.0"}}, {"uniqueid": "w61897809:a64179554", "current_trial": 63, "dateTime": 1664556293208, "trialdata": {"revealed_states": [], "num_clicks_accrued": [0, 0, 0, 0, 0, 0, 0, 0, 0, 0, 0, 0, 0], "stateRewards": ["", -4, -4, -24, -48, -4, 8, -24, -48, 4, -8, 24, -24], "withholdReward": false, "trial_id": "mdp_924927483179", "block": "test2", "trialIndex": 51, "score": 24, "costs": -1, "simulationMode": [null, null, null], "rewards": [4, -8, 24], "path": ["0", "0", "9", "10", "11"], "rt": [3244, 78, 137], "actions": ["left", "left", "up"], "actionTimes": [3683, 4265, 4908], "queries": {"click": {"state": {"target": ["7", "8", "12", "11"], "time": [951, 1598, 2164, 2640]}, "edge": {"target": [], "time": []}}, "mouseover": {"state": {"target": ["7", "6", "8", "12", "10", "11"], "time": [770, 1253, 1337, 2037, 2370, 2437]}, "edge": {"target": [], "time": []}}, "mouseout": {"state": {"target": ["0", "7", "6", "8", "12", "10", "11", "6", "5"], "time": [637, 1204, 1304, 1754, 2337, 2404, 5420, 8720, 8853]}, "edge": {"target": [], "time": []}}}, "displayed_time": "8.44", "trialTime": 8861, "trial_type": "mouselab-mdp", "trial_index": 63, "time_elapsed": 922963, "internal_node_id": "0.0-4.0-3.0-17.0"}}, {"uniqueid": "w61897809:a64179554", "current_trial": 64, "dateTime": 1664556303661, "trialdata": {"revealed_states": [], "num_clicks_accrued": [0, 0, 0, 0, 0, 0, 0, 0, 0, 0, 0, 0, 0], "stateRewards": ["", -2, -8, 48, 24, 4, -8, 24, 48, 4, -4, 24, -48], "withholdReward": true, "trial_id": "mdp_871576155740", "block": "test2", "trialIndex": 52, "score": 28.75, "costs": -0.25, "simulationMode": [null, null, null], "rewards": [4, -4, 24], "path": ["0", "0", "9", "10", "11"], "rt": [1833, 199, 309], "actions": ["left", "left", "up"], "actionTimes": [2261, 2947, 3757], "queries": {"click": {"state": {"target": ["11"], "time": [935]}, "edge": {"target": [], "time": []}}, "mouseover": {"state": {"target": ["9", "11", "10"], "time": [664, 781, 1165]}, "edge": {"target": [], "time": []}}, "mouseout": {"state": {"target": ["0", "9", "11", "10", "9", "0", "5", "0"], "time": [631, 681, 1098, 1365, 4681, 4747, 5081, 9864]}, "edge": {"target": [], "time": []}}}, "displayed_time": "9.43", "trialTime": 10409, "trial_type": "mouselab-mdp", "trial_index": 64, "time_elapsed": 933416, "internal_node_id": "0.0-4.0-3.0-18.0"}}, {"uniqueid": "w61897809:a64179554", "current_trial": 65, "dateTime": 1664556313613, "trialdata": {"revealed_states": [], "num_clicks_accrued": [0, 0, 0, 0, 0, 0, 0, 0, 0, 0, 0, 0, 0], "stateRewards": ["", -2, -4, -48, 48, -2, -4, 24, 48, -4, -8, -24, 24], "withholdReward": true, "trial_id": "mdp_917590390609", "block": "test2", "trialIndex": 53, "score": 22.75, "costs": -0.25, "simulationMode": [null, null, null], "rewards": [-2, -4, 24], "path": ["0", "0", "5", "6", "7"], "rt": [1591, 165, 153], "actions": ["right", "right", "up"], "actionTimes": [2050, 2715, 3354], "queries": {"click": {"state": {"target": ["7"], "time": [1000]}, "edge": {"target": [], "time": []}}, "mouseover": {"state": {"target": ["7", "6"], "time": [800, 1350]}, "edge": {"target": [], "time": []}}, "mouseout": {"state": {"target": ["0", "7", "6", "5", "0"], "time": [683, 1267, 5000, 5066, 8016]}, "edge": {"target": [], "time": []}}}, "displayed_time": "9.46", "trialTime": 9913, "trial_type": "mouselab-mdp", "trial_index": 65, "time_elapsed": 943368, "internal_node_id": "0.0-4.0-3.0-19.0"}}, {"uniqueid": "w61897809:a64179554", "current_trial": 66, "dateTime": 1664556323153, "trialdata": {"revealed_states": [], "num_clicks_accrued": [0, 0, 0, 0, 0, 0, 0, 0, 0, 0, 0, 0, 0], "stateRewards": ["", -2, -4, -24, -48, 2, -8, -24, -24, 4, -8, 48, 48], "withholdReward": true, "trial_id": "mdp_950599994674", "block": "test2", "trialIndex": 54, "score": 48.25, "costs": -0.75, "simulationMode": [null, null, null], "rewards": [4, -8, 48], "path": ["0", "0", "9", "10", "11"], "rt": [2508, 190, 122], "actions": ["left", "left", "up"], "actionTimes": [3040, 3721, 4337], "queries": {"click": {"state": {"target": ["3", "4", "11"], "time": [1095, 1698, 2173]}, "edge": {"target": [], "time": []}}, "mouseover": {"state": {"target": ["3", "2", "4", "11", "10"], "time": [1014, 1414, 1514, 1981, 2431]}, "edge": {"target": [], "time": []}}, "mouseout": {"state": {"target": ["0", "3", "2", "4", "11", "10", "9"], "time": [462, 1381, 1464, 1881, 2349, 2548, 5331]}, "edge": {"target": [], "time": []}}}, "displayed_time": "8.53", "trialTime": 9501, "trial_type": "mouselab-mdp", "trial_index": 66, "time_elapsed": 952908, "internal_node_id": "0.0-4.0-3.0-20.0"}}, {"uniqueid": "w61897809:a64179554", "current_trial": 67, "dateTime": 1664556331921, "trialdata": {"revealed_states": [], "num_clicks_accrued": [0, 0, 0, 0, 0, 0, 0, 0, 0, 0, 0, 0, 0], "stateRewards": ["", 2, 4, 48, 48, -2, 4, 48, -24, -4, 8, -48, 48], "withholdReward": true, "trial_id": "mdp_407586865939", "block": "test2", "trialIndex": 55, "score": 56.5, "costs": -0.5, "simulationMode": [null, null, null], "rewards": [-4, 8, 48], "path": ["0", "0", "9", "10", "12"], "rt": [2338, 44, 27], "actions": ["left", "left", "down"], "actionTimes": [2731, 3285, 3818], "queries": {"click": {"state": {"target": ["11", "12"], "time": [980, 1467]}, "edge": {"target": [], "time": []}}, "mouseover": {"state": {"target": ["9", "11", "10", "12"], "time": [641, 791, 1241, 1374]}, "edge": {"target": [], "time": []}}, "mouseout": {"state": {"target": ["0", "9", "11", "10", "12", "6", "5"], "time": [362, 708, 1191, 1308, 1675, 4891, 4974]}, "edge": {"target": [], "time": []}}}, "displayed_time": "8.39", "trialTime": 8729, "trial_type": "mouselab-mdp", "trial_index": 67, "time_elapsed": 961676, "internal_node_id": "0.0-4.0-3.0-21.0"}}, {"uniqueid": "w61897809:a64179554", "current_trial": 68, "dateTime": 1664556340704, "trialdata": {"revealed_states": [], "num_clicks_accrued": [0, 0, 0, 0, 0, 0, 0, 0, 0, 0, 0, 0, 0], "stateRewards": ["", -4, 8, 24, 24, 2, 4, -48, 24, -2, -4, -24, -24], "withholdReward": true, "trial_id": "mdp_752328329546", "block": "test2", "trialIndex": 56, "score": 34.5, "costs": -0.5, "simulationMode": [null, null, null], "rewards": [2, 4, 24], "path": ["0", "0", "5", "6", "8"], "rt": [2303, 103, 97], "actions": ["right", "right", "down"], "actionTimes": [2735, 3327, 3920], "queries": {"click": {"state": {"target": ["12", "8"], "time": [1023, 1639]}, "edge": {"target": [], "time": []}}, "mouseover": {"state": {"target": ["12", "8", "6", "7"], "time": [839, 1506, 1840, 2058]}, "edge": {"target": [], "time": []}}, "mouseout": {"state": {"target": ["0", "12", "8", "6", "7"], "time": [657, 1206, 1806, 1923, 4956]}, "edge": {"target": [], "time": []}}}, "displayed_time": "8.44", "trialTime": 8744, "trial_type": "mouselab-mdp", "trial_index": 68, "time_elapsed": 970459, "internal_node_id": "0.0-4.0-3.0-22.0"}}, {"uniqueid": "w61897809:a64179554", "current_trial": 69, "dateTime": 1664556352838, "trialdata": {"revealed_states": [], "num_clicks_accrued": [0, 0, 0, 0, 0, 0, 0, 0, 0, 0, 0, 0, 0], "stateRewards": ["", 2, 4, -24, -48, 4, -4, 24, 48, -4, -4, -24, 48], "withholdReward": false, "trial_id": "mdp_181958792175", "block": "test2", "trialIndex": 57, "score": 52.75, "costs": -0.25, "simulationMode": [null, null, null], "rewards": [4, -4, 48], "path": ["0", "0", "5", "6", "8"], "rt": [1430, 29, 102], "actions": ["right", "right", "down"], "actionTimes": [1804, 2338, 2943], "queries": {"click": {"state": {"target": ["8"], "time": [878]}, "edge": {"target": [], "time": []}}, "mouseover": {"state": {"target": ["8", "6", "7"], "time": [674, 1124, 1208]}, "edge": {"target": [], "time": []}}, "mouseout": {"state": {"target": ["0", "8", "6", "7", "7", "0"], "time": [608, 1108, 1158, 5058, 5408, 11625]}, "edge": {"target": [], "time": []}}}, "displayed_time": "9.38", "trialTime": 12096, "trial_type": "mouselab-mdp", "trial_index": 69, "time_elapsed": 982593, "internal_node_id": "0.0-4.0-3.0-23.0"}}, {"uniqueid": "w61897809:a64179554", "current_trial": 70, "dateTime": 1664556362763, "trialdata": {"revealed_states": [], "num_clicks_accrued": [0, 0, 0, 0, 0, 0, 0, 0, 0, 0, 0, 0, 0], "stateRewards": ["", -4, -8, 24, -48, 2, 4, -48, -48, 2, -8, 24, 48], "withholdReward": true, "trial_id": "mdp_111262146724", "block": "test2", "trialIndex": 58, "score": 22.25, "costs": -0.75, "simulationMode": [null, null, null], "rewards": [2, -8, 24], "path": ["0", "0", "9", "10", "11"], "rt": [2841, 184, 143], "actions": ["left", "left", "up"], "actionTimes": [3325, 4017, 4676], "queries": {"click": {"state": {"target": ["8", "7", "11"], "time": [954, 1436, 2146]}, "edge": {"target": [], "time": []}}, "mouseover": {"state": {"target": ["8", "6", "7", "11", "10", "12"], "time": [799, 1199, 1282, 1866, 2333, 2449]}, "edge": {"target": [], "time": []}}, "mouseout": {"state": {"target": ["0", "8", "6", "7", "11", "10", "12", "9"], "time": [699, 1183, 1232, 1699, 2299, 2399, 2582, 8216]}, "edge": {"target": [], "time": []}}}, "displayed_time": "9.48", "trialTime": 9879, "trial_type": "mouselab-mdp", "trial_index": 70, "time_elapsed": 992518, "internal_node_id": "0.0-4.0-3.0-24.0"}}, {"uniqueid": "w61897809:a64179554", "current_trial": 71, "dateTime": 1664556371721, "trialdata": {"revealed_states": [], "num_clicks_accrued": [0, 0, 0, 0, 0, 0, 0, 0, 0, 0, 0, 0, 0], "stateRewards": ["", 2, -8, -24, 48, -4, -8, 24, -48, 4, -8, -24, -24], "withholdReward": true, "trial_id": "mdp_928911266656", "block": "test2", "trialIndex": 59, "score": 16, "costs": -1, "simulationMode": [null, null, null], "rewards": [-4, -8, 24], "path": ["0", "0", "5", "6", "7"], "rt": [3172, 131, 106], "actions": ["right", "right", "up"], "actionTimes": [3532, 4152, 4744], "queries": {"click": {"state": {"target": ["11", "12", "8", "7"], "time": [923, 1410, 1989, 2580]}, "edge": {"target": [], "time": []}}, "mouseover": {"state": {"target": ["9", "11", "10", "12", "8", "6", "7"], "time": [604, 804, 1104, 1205, 1855, 2204, 2403]}, "edge": {"target": [], "time": []}}, "mouseout": {"state": {"target": ["0", "9", "11", "10", "12", "8", "6", "7", "5", "5"], "time": [332, 670, 1054, 1170, 1571, 2158, 2272, 2920, 6554, 6920]}, "edge": {"target": [], "time": []}}}, "displayed_time": "8.36", "trialTime": 8925, "trial_type": "mouselab-mdp", "trial_index": 71, "time_elapsed": 1001476, "internal_node_id": "0.0-4.0-3.0-25.0"}}, {"uniqueid": "w61897809:a64179554", "current_trial": 72, "dateTime": 1664556381727, "trialdata": {"revealed_states": [], "num_clicks_accrued": [0, 0, 0, 0, 0, 0, 0, 0, 0, 0, 0, 0, 0], "stateRewards": ["", 2, 8, 24, -48, 4, 8, 24, 48, 2, -8, -24, 24], "withholdReward": true, "trial_id": "mdp_939899431582", "block": "test2", "trialIndex": 60, "score": 40.75, "costs": -0.25, "simulationMode": [null, null, null], "rewards": [4, 8, 24], "path": ["0", "0", "5", "6", "7"], "rt": [1708, 49, 10], "actions": ["right", "right", "up"], "actionTimes": [2172, 2712, 3224], "queries": {"click": {"state": {"target": ["7"], "time": [1100]}, "edge": {"target": [], "time": []}}, "mouseover": {"state": {"target": ["5", "7", "6"], "time": [730, 1013, 1314]}, "edge": {"target": [], "time": []}}, "mouseout": {"state": {"target": ["0", "5", "7", "6", "8"], "time": [697, 746, 1280, 1363, 4380]}, "edge": {"target": [], "time": []}}}, "displayed_time": "9.46", "trialTime": 9974, "trial_type": "mouselab-mdp", "trial_index": 72, "time_elapsed": 1011482, "internal_node_id": "0.0-4.0-3.0-26.0"}}, {"uniqueid": "w61897809:a64179554", "current_trial": 73, "dateTime": 1664556391135, "trialdata": {"revealed_states": [], "num_clicks_accrued": [0, 0, 0, 0, 0, 0, 0, 0, 0, 0, 0, 0, 0], "stateRewards": ["", -2, 4, -48, 24, -4, 8, 48, 24, -2, 4, -48, -24], "withholdReward": true, "trial_id": "mdp_740882974347", "block": "test2", "trialIndex": 61, "score": 56.75, "costs": -0.25, "simulationMode": [null, null, null], "rewards": [-4, 8, 48], "path": ["0", "0", "5", "6", "7"], "rt": [2090, 130, 100], "actions": ["right", "right", "up"], "actionTimes": [2645, 3287, 3873], "queries": {"click": {"state": {"target": ["7"], "time": [1179]}, "edge": {"target": [], "time": []}}, "mouseover": {"state": {"target": ["5", "7", "6"], "time": [873, 1006, 1673]}, "edge": {"target": [], "time": []}}, "mouseout": {"state": {"target": ["0", "5", "7", "6", "6", "5"], "time": [856, 890, 1573, 5140, 7006, 7073]}, "edge": {"target": [], "time": []}}}, "displayed_time": "8.56", "trialTime": 9375, "trial_type": "mouselab-mdp", "trial_index": 73, "time_elapsed": 1020890, "internal_node_id": "0.0-4.0-3.0-27.0"}}, {"uniqueid": "w61897809:a64179554", "current_trial": 74, "dateTime": 1664556401479, "trialdata": {"revealed_states": [], "num_clicks_accrued": [0, 0, 0, 0, 0, 0, 0, 0, 0, 0, 0, 0, 0], "stateRewards": ["", -2, 4, -24, -24, -2, 4, 48, 24, -4, -8, 24, -48], "withholdReward": true, "trial_id": "mdp_191839460481", "block": "test2", "trialIndex": 62, "score": 54.75, "costs": -0.25, "simulationMode": [null, null, null], "rewards": [-2, 4, 48], "path": ["0", "0", "5", "6", "7"], "rt": [1974, 32, 40], "actions": ["right", "right", "up"], "actionTimes": [2402, 2923, 3498], "queries": {"click": {"state": {"target": ["7"], "time": [1033]}, "edge": {"target": [], "time": []}}, "mouseover": {"state": {"target": ["7"], "time": [807]}, "edge": {"target": [], "time": []}}, "mouseout": {"state": {"target": ["0", "7", "0"], "time": [661, 5124, 5292]}, "edge": {"target": [], "time": []}}}, "displayed_time": "9.43", "trialTime": 10303, "trial_type": "mouselab-mdp", "trial_index": 74, "time_elapsed": 1031234, "internal_node_id": "0.0-4.0-3.0-28.0"}}, {"uniqueid": "w61897809:a64179554", "current_trial": 75, "dateTime": 1664556413267, "trialdata": {"revealed_states": [], "num_clicks_accrued": [0, 0, 0, 0, 0, 0, 0, 0, 0, 0, 0, 0, 0], "stateRewards": ["", 2, -8, 24, 24, 4, -4, -24, -48, 4, 8, 24, 24], "withholdReward": true, "trial_id": "mdp_249803813713", "block": "test2", "trialIndex": 63, "score": 40.25, "costs": -0.75, "simulationMode": [null, null, null], "rewards": [4, 8, 24], "path": ["0", "0", "9", "10", "12"], "rt": [3114, 162, 272], "actions": ["left", "left", "down"], "actionTimes": [4838, 5499, 6276], "queries": {"click": {"state": {"target": ["7", "8", "12"], "time": [2422, 3002, 3660]}, "edge": {"target": [], "time": []}}, "mouseover": {"state": {"target": ["5", "6", "7", "6", "8", "12", "10", "11"], "time": [2087, 2154, 2337, 2770, 2937, 3603, 3886, 3986]}, "edge": {"target": [], "time": []}}, "mouseout": {"state": {"target": ["0", "5", "6", "7", "6", "8", "12", "10", "11"], "time": [2054, 2104, 2203, 2720, 2836, 3236, 3836, 3936, 9580]}, "edge": {"target": [], "time": []}}}, "displayed_time": "10.72", "trialTime": 11754, "trial_type": "mouselab-mdp", "trial_index": 75, "time_elapsed": 1043022, "internal_node_id": "0.0-4.0-3.0-29.0"}}, {"uniqueid": "w61897809:a64179554", "current_trial": 76, "dateTime": 1664556414701, "trialdata": {"rt": 1431, "stimulus": "<h1> End of block! </h1>\n\nYou have reached the end of the block 2/4. If you need a short break, feel free to take one now before moving on.\n\n<br><br>\nIn the next block, you will complete another 30 rounds of this game.\n\n<br><br>\n<div style='text-align: center;'>Press <code>space</code> to begin.</div>\n<br><br>\n<div style='text-align: center;'>(If the experiment doesn't continue, try clicking on the text and then pressing <code>space</code>.)</div>", "response": " ", "trial_id": "mdp_ready_3", "trial_type": "html-keyboard-response", "trial_index": 76, "time_elapsed": 1044456, "internal_node_id": "0.0-4.0-4.0"}}, {"uniqueid": "w61897809:a64179554", "current_trial": 77, "dateTime": 1664556424595, "trialdata": {"revealed_states": [], "num_clicks_accrued": [0, 0, 0, 0, 0, 0, 0, 0, 0, 0, 0, 0, 0], "stateRewards": ["", -4, 8, -24, -24, 4, -8, 48, -24, -4, -8, -24, -48], "withholdReward": true, "trial_id": "mdp_391766721791", "block": "test3", "trialIndex": 64, "score": 48.25, "costs": -0.75, "simulationMode": [null, null, null], "rewards": [4, -8, 48], "path": ["0", "0", "5", "6", "7"], "rt": [3105, 128, 85], "actions": ["right", "right", "up"], "actionTimes": [3985, 4601, 5191], "queries": {"click": {"state": {"target": ["7", "5", "6"], "time": [1560, 2794, 3087]}, "edge": {"target": [], "time": []}}, "mouseover": {"state": {"target": ["5", "6", "7", "6", "6", "5", "6"], "time": [1174, 1255, 1473, 1789, 2106, 2689, 2989]}, "edge": {"target": [], "time": []}}, "mouseout": {"state": {"target": ["2", "1", "0", "5", "6", "7", "6", "6", "5", "6", "6"], "time": [240, 339, 722, 1222, 1289, 1739, 1872, 2289, 2922, 3273, 6924]}, "edge": {"target": [], "time": []}}}, "displayed_time": "8.88", "trialTime": 9851, "trial_type": "mouselab-mdp", "trial_index": 77, "time_elapsed": 1054350, "internal_node_id": "0.0-4.0-5.0-0.0"}}, {"uniqueid": "w61897809:a64179554", "current_trial": 78, "dateTime": 1664556435574, "trialdata": {"revealed_states": [], "num_clicks_accrued": [0, 0, 0, 0, 0, 0, 0, 0, 0, 0, 0, 0, 0], "stateRewards": ["", -2, 8, -24, 24, 2, -8, 48, -24, 2, 8, -24, -24], "withholdReward": false, "trial_id": "mdp_674708270444", "block": "test3", "trialIndex": 65, "score": 46.75, "costs": -0.25, "simulationMode": [null, null, null], "rewards": [2, -8, 48], "path": ["0", "0", "5", "6", "7"], "rt": [1682, 19, 19], "actions": ["right", "right", "up"], "actionTimes": [2801, 3314, 3848], "queries": {"click": {"state": {"target": ["7"], "time": [1808]}, "edge": {"target": [], "time": []}}, "mouseover": {"state": {"target": ["5", "7", "6"], "time": [1479, 1711, 2011]}, "edge": {"target": [], "time": []}}, "mouseout": {"state": {"target": ["0", "5", "7", "6", "5", "5"], "time": [1462, 1528, 1945, 2195, 6345, 6711]}, "edge": {"target": [], "time": []}}}, "displayed_time": "10.12", "trialTime": 10936, "trial_type": "mouselab-mdp", "trial_index": 78, "time_elapsed": 1065329, "internal_node_id": "0.0-4.0-5.0-1.0"}}, {"uniqueid": "w61897809:a64179554", "current_trial": 79, "dateTime": 1664556444680, "trialdata": {"revealed_states": [], "num_clicks_accrued": [0, 0, 0, 0, 0, 0, 0, 0, 0, 0, 0, 0, 0], "stateRewards": ["", -2, -4, -48, -48, 4, 8, 24, -48, 4, -8, 24, 24], "withholdReward": false, "trial_id": "mdp_749799219195", "block": "test3", "trialIndex": 66, "score": 40.75, "costs": -0.25, "simulationMode": [null, null, null], "rewards": [4, 8, 24], "path": ["0", "0", "5", "6", "7"], "rt": [1884, 60, 372], "actions": ["right", "right", "up"], "actionTimes": [2332, 2905, 3768], "queries": {"click": {"state": {"target": ["7"], "time": [1079]}, "edge": {"target": [], "time": []}}, "mouseover": {"state": {"target": ["5", "7", "6", "8", "6"], "time": [761, 928, 1327, 1478, 1627]}, "edge": {"target": [], "time": []}}, "mouseout": {"state": {"target": ["0", "5", "7", "6", "8", "6", "6", "5", "5", "5"], "time": [745, 778, 1277, 1411, 1561, 4778, 5144, 5245, 5711, 7946]}, "edge": {"target": [], "time": []}}}, "displayed_time": "8.45", "trialTime": 9058, "trial_type": "mouselab-mdp", "trial_index": 79, "time_elapsed": 1074435, "internal_node_id": "0.0-4.0-5.0-2.0"}}, {"uniqueid": "w61897809:a64179554", "current_trial": 80, "dateTime": 1664556453051, "trialdata": {"revealed_states": [], "num_clicks_accrued": [0, 0, 0, 0, 0, 0, 0, 0, 0, 0, 0, 0, 0], "stateRewards": ["", 2, -4, -24, -48, -2, 8, -24, 48, -2, 8, 24, -48], "withholdReward": false, "trial_id": "mdp_566582551557", "block": "test3", "trialIndex": 67, "score": 58.5, "costs": -0.5, "simulationMode": [null, null, null], "rewards": [-2, 8, 48], "path": ["0", "0", "5", "6", "8"], "rt": [2499, 312, 369], "actions": ["right", "right", "down"], "actionTimes": [2934, 3734, 4591], "queries": {"click": {"state": {"target": ["7", "8"], "time": [967, 1510]}, "edge": {"target": [], "time": []}}, "mouseover": {"state": {"target": ["7", "6", "8"], "time": [771, 1255, 1355]}, "edge": {"target": [], "time": []}}, "mouseout": {"state": {"target": ["0", "7", "6", "8"], "time": [304, 1187, 1305, 1787]}, "edge": {"target": [], "time": []}}}, "displayed_time": "7.43", "trialTime": 8339, "trial_type": "mouselab-mdp", "trial_index": 80, "time_elapsed": 1082806, "internal_node_id": "0.0-4.0-5.0-3.0"}}, {"uniqueid": "w61897809:a64179554", "current_trial": 81, "dateTime": 1664556461897, "trialdata": {"revealed_states": [], "num_clicks_accrued": [0, 0, 0, 0, 0, 0, 0, 0, 0, 0, 0, 0, 0], "stateRewards": ["", 4, 8, -24, 48, 4, -8, -48, 48, -4, 8, -24, -48], "withholdReward": true, "trial_id": "mdp_376126356841", "block": "test3", "trialIndex": 68, "score": 48.75, "costs": -0.25, "simulationMode": [null, null, null], "rewards": [4, -8, 48], "path": ["0", "0", "5", "6", "8"], "rt": [1679, 13, 360], "actions": ["right", "right", "down"], "actionTimes": [2050, 2548, 3412], "queries": {"click": {"state": {"target": ["8"], "time": [1161]}, "edge": {"target": [], "time": []}}, "mouseover": {"state": {"target": ["0", "5", "6", "8", "6", "7"], "time": [468, 602, 768, 1085, 1351, 1451]}, "edge": {"target": [], "time": []}}, "mouseout": {"state": {"target": ["0", "0", "5", "6", "8", "6", "7"], "time": [318, 535, 652, 1018, 1318, 1385, 4869]}, "edge": {"target": [], "time": []}}}, "displayed_time": "8.37", "trialTime": 8799, "trial_type": "mouselab-mdp", "trial_index": 81, "time_elapsed": 1091652, "internal_node_id": "0.0-4.0-5.0-4.0"}}, {"uniqueid": "w61897809:a64179554", "current_trial": 82, "dateTime": 1664556472041, "trialdata": {"revealed_states": [], "num_clicks_accrued": [0, 0, 0, 0, 0, 0, 0, 0, 0, 0, 0, 0, 0], "stateRewards": ["", -2, 8, 48, -24, 2, 4, -48, -24, -4, 8, -48, -48], "withholdReward": true, "trial_id": "mdp_539167561933", "block": "test3", "trialIndex": 69, "score": 57.75, "costs": -1.25, "simulationMode": [null, null, null], "rewards": [-2, 8, 48], "path": ["0", "0", "1", "2", "3"], "rt": [6097, 45, 491], "actions": ["up", "up", "right"], "actionTimes": [6840, 7375, 8354], "queries": {"click": {"state": {"target": ["12", "7", "11", "4", "3"], "time": [1297, 2301, 3079, 3873, 5939]}, "edge": {"target": [], "time": []}}, "mouseover": {"state": {"target": ["0", "12", "0", "5", "7", "1", "11", "4", "3"], "time": [746, 980, 1796, 1813, 2046, 2680, 2846, 3762, 4396]}, "edge": {"target": [], "time": []}}, "mouseout": {"state": {"target": ["0", "0", "12", "0", "5", "7", "1", "11", "4"], "time": [688, 912, 1730, 1812, 1846, 2613, 2696, 3479, 4096]}, "edge": {"target": [], "time": []}}}, "displayed_time": "9.74", "trialTime": 10104, "trial_type": "mouselab-mdp", "trial_index": 82, "time_elapsed": 1101796, "internal_node_id": "0.0-4.0-5.0-5.0"}}, {"uniqueid": "w61897809:a64179554", "current_trial": 83, "dateTime": 1664556482595, "trialdata": {"revealed_states": [], "num_clicks_accrued": [0, 0, 0, 0, 0, 0, 0, 0, 0, 0, 0, 0, 0], "stateRewards": ["", 2, 4, -48, -48, 2, 4, 48, -24, -2, 8, 48, -48], "withholdReward": true, "trial_id": "mdp_258528916140", "block": "test3", "trialIndex": 70, "score": 58.25, "costs": -0.75, "simulationMode": [null, null, null], "rewards": [2, 4, 48], "path": ["0", "0", "5", "6", "7"], "rt": [2733, 106, 92], "actions": ["right", "right", "up"], "actionTimes": [3895, 4493, 5079], "queries": {"click": {"state": {"target": ["4", "3", "7"], "time": [1709, 2306, 2796]}, "edge": {"target": [], "time": []}}, "mouseover": {"state": {"target": ["1", "4", "2", "3", "7", "6"], "time": [1369, 1603, 2070, 2153, 2603, 2936]}, "edge": {"target": [], "time": []}}, "mouseout": {"state": {"target": ["3", "2", "1", "1", "4", "2", "3", "7", "6"], "time": [769, 870, 969, 1386, 2020, 2103, 2504, 2936, 2953]}, "edge": {"target": [], "time": []}}}, "displayed_time": "10.16", "trialTime": 10515, "trial_type": "mouselab-mdp", "trial_index": 83, "time_elapsed": 1112350, "internal_node_id": "0.0-4.0-5.0-6.0"}}, {"uniqueid": "w61897809:a64179554", "current_trial": 84, "dateTime": 1664556493079, "trialdata": {"revealed_states": [], "num_clicks_accrued": [0, 0, 0, 0, 0, 0, 0, 0, 0, 0, 0, 0, 0], "stateRewards": ["", -2, -4, 48, 48, 2, 4, -48, 24, 4, -8, 24, -24], "withholdReward": true, "trial_id": "mdp_628613319495", "block": "test3", "trialIndex": 71, "score": 34.5, "costs": -0.5, "simulationMode": [null, null, null], "rewards": [2, 4, 24], "path": ["0", "0", "5", "6", "8"], "rt": [1913, 102, 101], "actions": ["right", "right", "down"], "actionTimes": [2920, 3533, 4155], "queries": {"click": {"state": {"target": ["7", "8"], "time": [1546, 2046]}, "edge": {"target": [], "time": []}}, "mouseover": {"state": {"target": ["7", "6", "8"], "time": [1448, 1797, 1913]}, "edge": {"target": [], "time": []}}, "mouseout": {"state": {"target": ["7", "6", "8"], "time": [1730, 1863, 2231]}, "edge": {"target": [], "time": []}}}, "displayed_time": "10.01", "trialTime": 10443, "trial_type": "mouselab-mdp", "trial_index": 84, "time_elapsed": 1122834, "internal_node_id": "0.0-4.0-5.0-7.0"}}, {"uniqueid": "w61897809:a64179554", "current_trial": 85, "dateTime": 1664556502553, "trialdata": {"revealed_states": [], "num_clicks_accrued": [0, 0, 0, 0, 0, 0, 0, 0, 0, 0, 0, 0, 0], "stateRewards": ["", -4, 8, 24, 24, 2, 4, -48, 24, -2, -4, -24, -24], "withholdReward": false, "trial_id": "mdp_752328329546", "block": "test3", "trialIndex": 72, "score": 34.75, "costs": -0.25, "simulationMode": [null, null, null], "rewards": [2, 4, 24], "path": ["0", "0", "5", "6", "8"], "rt": [1441, 180, 97], "actions": ["right", "right", "down"], "actionTimes": [1816, 2507, 3091], "queries": {"click": {"state": {"target": ["8"], "time": [935]}, "edge": {"target": [], "time": []}}, "mouseover": {"state": {"target": ["0", "5", "6", "8", "6"], "time": [510, 560, 643, 811, 1160]}, "edge": {"target": [], "time": []}}, "mouseout": {"state": {"target": ["0", "0", "5", "6", "8", "6", "7", "7", "5"], "time": [243, 527, 610, 695, 1127, 1177, 4177, 4343, 4510]}, "edge": {"target": [], "time": []}}}, "displayed_time": "8.38", "trialTime": 9430, "trial_type": "mouselab-mdp", "trial_index": 85, "time_elapsed": 1132308, "internal_node_id": "0.0-4.0-5.0-8.0"}}, {"uniqueid": "w61897809:a64179554", "current_trial": 86, "dateTime": 1664556515045, "trialdata": {"revealed_states": [], "num_clicks_accrued": [0, 0, 0, 0, 0, 0, 0, 0, 0, 0, 0, 0, 0], "stateRewards": ["", -4, 4, -24, 24, -2, -4, 48, 24, 2, 8, -48, 24], "withholdReward": true, "trial_id": "mdp_150340189492", "block": "test3", "trialIndex": 73, "score": 22.75, "costs": -0.25, "simulationMode": [null, null, null], "rewards": [-2, -4, 24], "path": ["0", "0", "5", "6", "8"], "rt": [1624, 322, 199], "actions": ["right", "right", "down"], "actionTimes": [5556, 6394, 7104], "queries": {"click": {"state": {"target": ["8"], "time": [4708]}, "edge": {"target": [], "time": []}}, "mouseover": {"state": {"target": ["5", "6", "8"], "time": [4239, 4388, 4621]}, "edge": {"target": [], "time": []}}, "mouseout": {"state": {"target": ["0", "9", "0", "5", "6", "8"], "time": [3123, 3555, 4189, 4338, 4523, 11155]}, "edge": {"target": [], "time": []}}}, "displayed_time": "11.93", "trialTime": 12450, "trial_type": "mouselab-mdp", "trial_index": 86, "time_elapsed": 1144800, "internal_node_id": "0.0-4.0-5.0-9.0"}}, {"uniqueid": "w61897809:a64179554", "current_trial": 87, "dateTime": 1664556523969, "trialdata": {"revealed_states": [], "num_clicks_accrued": [0, 0, 0, 0, 0, 0, 0, 0, 0, 0, 0, 0, 0], "stateRewards": ["", 4, 4, 48, -48, -2, 4, 48, -48, -4, 4, -24, -24], "withholdReward": true, "trial_id": "mdp_753324812898", "block": "test3", "trialIndex": 74, "score": 60, "costs": -1, "simulationMode": [null, null, null], "rewards": [4, 4, 48], "path": ["0", "0", "1", "2", "3"], "rt": [3476, 43, 335], "actions": ["up", "up", "right"], "actionTimes": [3978, 4519, 5361], "queries": {"click": {"state": {"target": ["12", "11", "4", "3"], "time": [1032, 1720, 2284, 2840]}, "edge": {"target": [], "time": []}}, "mouseover": {"state": {"target": ["12", "10", "11", "4", "2", "3"], "time": [859, 1309, 1526, 2160, 2609, 2709]}, "edge": {"target": [], "time": []}}, "mouseout": {"state": {"target": ["0", "0", "12", "10", "11", "4", "2", "3"], "time": [153, 709, 1275, 1409, 2076, 2575, 2659, 3127]}, "edge": {"target": [], "time": []}}}, "displayed_time": "8.50", "trialTime": 8878, "trial_type": "mouselab-mdp", "trial_index": 87, "time_elapsed": 1153724, "internal_node_id": "0.0-4.0-5.0-10.0"}}, {"uniqueid": "w61897809:a64179554", "current_trial": 88, "dateTime": 1664556534182, "trialdata": {"revealed_states": [], "num_clicks_accrued": [0, 0, 0, 0, 0, 0, 0, 0, 0, 0, 0, 0, 0], "stateRewards": ["", 4, -8, -48, -24, 2, -8, -48, 48, -4, 8, 48, -48], "withholdReward": true, "trial_id": "mdp_605757196263", "block": "test3", "trialIndex": 75, "score": 46, "costs": -1, "simulationMode": [null, null, null], "rewards": [2, -8, 48], "path": ["0", "0", "5", "6", "8"], "rt": [3541, 25, 160], "actions": ["right", "right", "down"], "actionTimes": [4111, 4641, 5293], "queries": {"click": {"state": {"target": ["4", "3", "7", "8"], "time": [1123, 1760, 2274, 3158]}, "edge": {"target": [], "time": []}}, "mouseover": {"state": {"target": ["1", "4", "2", "3", "7", "6", "8", "8"], "time": [765, 948, 1498, 1682, 2115, 2498, 2565, 2936]}, "edge": {"target": [], "time": []}}, "mouseout": {"state": {"target": ["0", "1", "1", "4", "2", "3", "7", "6", "8", "8"], "time": [99, 449, 798, 1432, 1565, 1999, 2466, 2532, 2666, 3365]}, "edge": {"target": [], "time": []}}}, "displayed_time": "9.58", "trialTime": 10164, "trial_type": "mouselab-mdp", "trial_index": 88, "time_elapsed": 1163937, "internal_node_id": "0.0-4.0-5.0-11.0"}}, {"uniqueid": "w61897809:a64179554", "current_trial": 89, "dateTime": 1664556543210, "trialdata": {"revealed_states": [], "num_clicks_accrued": [0, 0, 0, 0, 0, 0, 0, 0, 0, 0, 0, 0, 0], "stateRewards": ["", -4, -8, 48, -48, 2, -4, 48, -24, 2, -8, -48, -48], "withholdReward": true, "trial_id": "mdp_624553692913", "block": "test3", "trialIndex": 76, "score": 40.25, "costs": -0.75, "simulationMode": [null, null, null], "rewards": [-4, -8, 48], "path": ["0", "0", "1", "2", "3"], "rt": [3280, 44, 117], "actions": ["up", "up", "right"], "actionTimes": [3685, 4240, 4870], "queries": {"click": {"state": {"target": ["11", "4", "3"], "time": [1219, 1828, 2606]}, "edge": {"target": [], "time": []}}, "mouseover": {"state": {"target": ["9", "11", "4", "2", "3", "3"], "time": [670, 937, 1670, 2103, 2153, 2520]}, "edge": {"target": [], "time": []}}, "mouseout": {"state": {"target": ["0", "9", "11", "4", "2", "3", "3"], "time": [383, 703, 1587, 2070, 2120, 2253, 2970]}, "edge": {"target": [], "time": []}}}, "displayed_time": "8.41", "trialTime": 8980, "trial_type": "mouselab-mdp", "trial_index": 89, "time_elapsed": 1172965, "internal_node_id": "0.0-4.0-5.0-12.0"}}, {"uniqueid": "w61897809:a64179554", "current_trial": 90, "dateTime": 1664556553426, "trialdata": {"revealed_states": [], "num_clicks_accrued": [0, 0, 0, 0, 0, 0, 0, 0, 0, 0, 0, 0, 0], "stateRewards": ["", 4, 4, -24, -48, 2, 4, 24, -48, 2, 4, 24, 24], "withholdReward": true, "trial_id": "mdp_223558518218", "block": "test3", "trialIndex": 77, "score": 34.25, "costs": -0.75, "simulationMode": [null, null, null], "rewards": [2, 4, 24], "path": ["0", "0", "9", "10", "11"], "rt": [3507, 110, 56], "actions": ["left", "left", "up"], "actionTimes": [5101, 5701, 6248], "queries": {"click": {"state": {"target": ["3", "4", "11"], "time": [2311, 3025, 3815]}, "edge": {"target": [], "time": []}}, "mouseover": {"state": {"target": ["3", "2", "4", "11", "10", "12", "10"], "time": [1926, 2658, 2824, 3442, 4108, 4258, 4441]}, "edge": {"target": [], "time": []}}, "mouseout": {"state": {"target": ["4", "9", "3", "2", "4", "11", "10", "12"], "time": [924, 1175, 2625, 2724, 3325, 4075, 4175, 4391]}, "edge": {"target": [], "time": []}}}, "displayed_time": "9.60", "trialTime": 10184, "trial_type": "mouselab-mdp", "trial_index": 90, "time_elapsed": 1183181, "internal_node_id": "0.0-4.0-5.0-13.0"}}, {"uniqueid": "w61897809:a64179554", "current_trial": 91, "dateTime": 1664556565011, "trialdata": {"revealed_states": [], "num_clicks_accrued": [0, 0, 0, 0, 0, 0, 0, 0, 0, 0, 0, 0, 0], "stateRewards": ["", -2, -8, 24, -24, 4, -8, 48, 48, -4, -8, -24, -48], "withholdReward": false, "trial_id": "mdp_286767261523", "block": "test3", "trialIndex": 78, "score": 48.25, "costs": -0.75, "simulationMode": [null, null, null], "rewards": [4, -8, 48], "path": ["0", "0", "5", "6", "8"], "rt": [2769, 443, 162], "actions": ["right", "right", "down"], "actionTimes": [4853, 5790, 6459], "queries": {"click": {"state": {"target": ["11", "12", "8"], "time": [2583, 3131, 3885]}, "edge": {"target": [], "time": []}}, "mouseover": {"state": {"target": ["9", "11", "10", "12", "8", "8", "6"], "time": [2297, 2463, 2897, 2980, 3447, 3780, 4113]}, "edge": {"target": [], "time": []}}, "mouseout": {"state": {"target": ["10", "9", "5", "9", "11", "10", "12", "8", "8", "6", "0"], "time": [1663, 1713, 1930, 2347, 2847, 2930, 3330, 3463, 4080, 4232, 9547]}, "edge": {"target": [], "time": []}}}, "displayed_time": "11.09", "trialTime": 11541, "trial_type": "mouselab-mdp", "trial_index": 91, "time_elapsed": 1194766, "internal_node_id": "0.0-4.0-5.0-14.0"}}, {"uniqueid": "w61897809:a64179554", "current_trial": 92, "dateTime": 1664556574866, "trialdata": {"revealed_states": [], "num_clicks_accrued": [0, 0, 0, 0, 0, 0, 0, 0, 0, 0, 0, 0, 0], "stateRewards": ["", 2, 8, -48, -24, 4, 4, 24, 48, 4, -4, -48, 48], "withholdReward": false, "trial_id": "mdp_6650