{"condition": 1, "counterbalance": 0, "assignmentId": "a51871552", "workerId": "w82762592", "hitId": "h44483065", "currenttrial": 137, "bonus": 0, "data": [{"uniqueid": "w82762592:a51871552", "current_trial": 0, "dateTime": 1664873215678, "trialdata": {"success": true, "trial_type": "fullscreen", "trial_index": 0, "time_elapsed": 2871, "internal_node_id": "0.0-0.0"}}, {"uniqueid": "w82762592:a51871552", "current_trial": 1, "dateTime": 1664873224756, "trialdata": {"view_history": [{"page_index": 0, "viewing_time": 9057}], "rt": 9059, "trial_id": "exp_instructions_no_distractor", "trial_type": "instructions", "trial_index": 1, "time_elapsed": 11951, "internal_node_id": "0.0-1.0"}}, {"uniqueid": "w82762592:a51871552", "current_trial": 2, "dateTime": 1664873234774, "trialdata": {"success": true, "trial_type": "fullscreen", "trial_index": 2, "time_elapsed": 21968, "internal_node_id": "0.0-2.0-0.0"}}, {"uniqueid": "w82762592:a51871552", "current_trial": 3, "dateTime": 1664873336487, "trialdata": {"view_history": [{"page_index": 0, "viewing_time": 31477}, {"page_index": 1, "viewing_time": 19426}, {"page_index": 2, "viewing_time": 5302}, {"page_index": 3, "viewing_time": 5474}, {"page_index": 4, "viewing_time": 40028}], "rt": 101710, "trial_id": "mouselab_instructions_1", "trial_type": "instructions", "trial_index": 3, "time_elapsed": 123682, "internal_node_id": "0.0-2.0-1.0"}}, {"uniqueid": "w82762592:a51871552", "current_trial": 4, "dateTime": 1664873368203, "trialdata": {"revealed_states": [], "num_clicks_accrued": [0, 0, 0, 0, 0, 0, 0, 0, 0, 0, 0, 0, 0], "stateRewards": ["", -10, 10, 10, 10, -10, -10, -10, -10, -10, 10, -10, 10], "withholdReward": false, "trial_id": "practice_1", "block": "test", "trialIndex": 0, "score": -9.25, "costs": -1.25, "simulationMode": [null, null, null], "rewards": [-10, 10, -10], "path": ["0", "0", "9", "10", "11"], "rt": [17295, 431, 3844], "actions": ["left", "left", "up"], "actionTimes": [20088, 21034, 25397], "queries": {"click": {"state": {"target": ["1", "5", "9", "6", "10"], "time": [7683, 10741, 11813, 15330, 17111]}, "edge": {"target": [], "time": []}}, "mouseover": {"state": {"target": ["5", "1", "5", "9", "6", "10", "11", "11"], "time": [6244, 7193, 9214, 11383, 14838, 16120, 17557, 19038]}, "edge": {"target": [], "time": []}}, "mouseout": {"state": {"target": ["5", "5", "0", "5", "1", "5", "9", "1", "6", "10", "11", "11", "12"], "time": [367, 1894, 1947, 6928, 9057, 11130, 13413, 14269, 15712, 17508, 17580, 22518, 24367]}, "edge": {"target": [], "time": []}}}, "displayed_time": "25.94", "trialTime": 31379, "trial_type": "mouselab-mdp", "trial_index": 4, "time_elapsed": 155396, "internal_node_id": "0.0-2.0-2.0-0.0"}}, {"uniqueid": "w82762592:a51871552", "current_trial": 5, "dateTime": 1664873381630, "trialdata": {"revealed_states": [], "num_clicks_accrued": [0, 0, 0, 0, 0, 0, 0, 0, 0, 0, 0, 0, 0], "stateRewards": ["", -10, -10, -10, 10, -10, 10, -10, -10, 10, -10, -10, 10], "withholdReward": false, "trial_id": "practice_2", "block": "test", "trialIndex": 1, "score": 10.5, "costs": -1.5, "simulationMode": [null, null, null], "rewards": [10, -10, 10], "path": ["0", "0", "9", "10", "12"], "rt": [7425, 163, 52], "actions": ["left", "left", "down"], "actionTimes": [9892, 10572, 11144], "queries": {"click": {"state": {"target": ["1", "5", "9", "10", "12", "11"], "time": [3327, 4453, 5303, 6823, 7861, 9013]}, "edge": {"target": [], "time": []}}, "mouseover": {"state": {"target": ["1", "5", "9", "10", "12", "11"], "time": [3030, 4208, 4895, 6147, 7563, 8511]}, "edge": {"target": [], "time": []}}, "mouseout": {"state": {"target": ["0", "1", "5", "9", "10", "12", "10", "11", "10", "9"], "time": [2728, 3945, 4711, 5845, 7345, 8149, 8323, 9324, 9360, 12506]}, "edge": {"target": [], "time": []}}}, "displayed_time": "11.68", "trialTime": 13205, "trial_type": "mouselab-mdp", "trial_index": 5, "time_elapsed": 168825, "internal_node_id": "0.0-2.0-2.0-1.0"}}, {"uniqueid": "w82762592:a51871552", "current_trial": 6, "dateTime": 1664873426700, "trialdata": {"view_history": [{"page_index": 0, "viewing_time": 24877}, {"page_index": 1, "viewing_time": 11838}, {"page_index": 2, "viewing_time": 8338}], "rt": 45053, "trial_id": "mouselab_instructions_2_scarce", "trial_type": "instructions", "trial_index": 6, "time_elapsed": 213895, "internal_node_id": "0.0-2.0-3.0"}}, {"uniqueid": "w82762592:a51871552", "current_trial": 7, "dateTime": 1664873462656, "trialdata": {"rt": 35938, "response": {"Q0": "$-48 to $48", "Q1": "The cost is always $0.25.", "Q2": "The better I perform the higher my bonus will be.", "Q3": "No, the amount of cash at each node of the web may be different each time.", "Q4": "The values of the nodes walked through from start to finish.", "Q5": "No, the spider might forget to count the money on some rounds."}, "question_order": [0, 1, 2, 3, 4, 5], "correct": {"Q0": "$-48 to $48", "Q1": "The cost is always $0.25.", "Q2": "The better I perform the higher my bonus will be.", "Q3": "No, the amount of cash at each node of the web may be different each time.", "Q4": "The values of the nodes walked through from start to finish.", "Q5": "No, the spider might forget to count the money on some rounds."}, "trial_id": "mouselab_quiz_scarce", "trial_type": "survey-multi-choice", "trial_index": 7, "time_elapsed": 249851, "internal_node_id": "0.0-2.0-4.0"}}, {"uniqueid": "w82762592:a51871552", "current_trial": 8, "dateTime": 1664873488016, "trialdata": {"rt": 25340, "stimulus": "\n<h1> Get ready to start the game! </h1>\n\nThank you for reading the instructions. Get ready start with the first of 4 block(s) of this game.\n<br><br>\nIn this first block, you will complete 30 rounds of this game before moving on.\n<br><br>\nRemember, the more money the spider gets, the bigger your bonus will be!\n<br><br>\n<div style='text-align: center;'>Press <code>space</code> to begin.</div>\n\n<br><br>\n(If, at any point, the <code>space</code> key does not take you to the next page, click once on the text and try again.)", "response": " ", "trial_id": "mdp_ready_1", "trial_type": "html-keyboard-response", "trial_index": 8, "time_elapsed": 275211, "internal_node_id": "0.0-4.0-0.0"}}, {"uniqueid": "w82762592:a51871552", "current_trial": 9, "dateTime": 1664873504961, "trialdata": {"revealed_states": [], "num_clicks_accrued": [0, 0, 0, 0, 0, 0, 0, 0, 0, 0, 0, 0, 0], "stateRewards": ["", 4, 8, -48, 24, -2, 8, -48, -48, -4, 4, 48, -48], "withholdReward": false, "trial_id": "mdp_693807815190", "block": "test1", "trialIndex": 2, "score": 40, "costs": -1, "simulationMode": [null, null, null], "rewards": [4, 8, 24], "path": ["0", "0", "1", "2", "4"], "rt": [11479, 177, 24], "actions": ["up", "up", "left"], "actionTimes": [13664, 14357, 14903], "queries": {"click": {"state": {"target": ["1", "2", "3", "4"], "time": [3198, 6904, 8141, 12639]}, "edge": {"target": [], "time": []}}, "mouseover": {"state": {"target": ["1", "5", "2", "3", "4", "4", "5"], "time": [2832, 3615, 6401, 7804, 9877, 12279, 13092]}, "edge": {"target": [], "time": []}}, "mouseout": {"state": {"target": ["1", "5", "2", "3", "2", "4", "1", "1", "4", "1"], "time": [3581, 6180, 7644, 8529, 9447, 11061, 11127, 11977, 13013, 13042]}, "edge": {"target": [], "time": []}}}, "displayed_time": "15.43", "trialTime": 16829, "trial_type": "mouselab-mdp", "trial_index": 9, "time_elapsed": 292156, "internal_node_id": "0.0-4.0-1.0-0.0"}}, {"uniqueid": "w82762592:a51871552", "current_trial": 10, "dateTime": 1664873516861, "trialdata": {"revealed_states": [], "num_clicks_accrued": [0, 0, 0, 0, 0, 0, 0, 0, 0, 0, 0, 0, 0], "stateRewards": ["", 2, 8, -48, 24, -2, 4, 48, 48, -2, -8, 48, 24], "withholdReward": false, "trial_id": "mdp_157355418411", "block": "test1", "trialIndex": 3, "score": 37.5, "costs": -1.5, "simulationMode": [null, null, null], "rewards": [2, 8, 24], "path": ["0", "0", "1", "2", "4"], "rt": [7481, 127, 7], "actions": ["up", "up", "left"], "actionTimes": [9026, 9667, 10190], "queries": {"click": {"state": {"target": ["5", "1", "9", "2", "3", "4"], "time": [2573, 3730, 4626, 6175, 7233, 8190]}, "edge": {"target": [], "time": []}}, "mouseover": {"state": {"target": ["5", "1", "1", "9", "2", "3", "4"], "time": [2186, 2969, 3409, 4268, 5587, 6936, 7899]}, "edge": {"target": [], "time": []}}, "mouseout": {"state": {"target": ["5", "5", "1", "1", "9", "2", "3", "2", "4"], "time": [923, 2871, 3069, 4102, 5335, 6700, 7515, 7786, 8484]}, "edge": {"target": [], "time": []}}}, "displayed_time": "10.72", "trialTime": 11759, "trial_type": "mouselab-mdp", "trial_index": 10, "time_elapsed": 304056, "internal_node_id": "0.0-4.0-1.0-1.0"}}, {"uniqueid": "w82762592:a51871552", "current_trial": 11, "dateTime": 1664873529777, "trialdata": {"revealed_states": [], "num_clicks_accrued": [0, 0, 0, 0, 0, 0, 0, 0, 0, 0, 0, 0, 0], "stateRewards": ["", 2, 4, -48, 24, -4, -4, -24, 24, 2, -4, 24, -24], "withholdReward": true, "trial_id": "mdp_163600331068", "block": "test1", "trialIndex": 4, "score": 34.25, "costs": -0.75, "simulationMode": [null, null, null], "rewards": [2, 4, 24], "path": ["0", "0", "1", "2", "4"], "rt": [2665, 33, 60], "actions": ["up", "up", "left"], "actionTimes": [4006, 4558, 5130], "queries": {"click": {"state": {"target": ["1", "2", "4"], "time": [2055, 2938, 3584]}, "edge": {"target": [], "time": []}}, "mouseover": {"state": {"target": ["1", "2", "4"], "time": [1686, 2453, 3287]}, "edge": {"target": [], "time": []}}, "mouseout": {"state": {"target": ["1", "1", "1", "2"], "time": [625, 870, 2354, 3169]}, "edge": {"target": [], "time": []}}}, "displayed_time": "10.34", "trialTime": 12781, "trial_type": "mouselab-mdp", "trial_index": 11, "time_elapsed": 316972, "internal_node_id": "0.0-4.0-1.0-2.0"}}, {"uniqueid": "w82762592:a51871552", "current_trial": 12, "dateTime": 1664873541938, "trialdata": {"revealed_states": [], "num_clicks_accrued": [0, 0, 0, 0, 0, 0, 0, 0, 0, 0, 0, 0, 0], "stateRewards": ["", 4, 4, 24, 24, 4, -4, 48, 48, 4, 4, 24, -48], "withholdReward": true, "trial_id": "mdp_454251689008", "block": "test1", "trialIndex": 5, "score": 36.25, "costs": -0.75, "simulationMode": [null, null, null], "rewards": [4, 4, 24], "path": ["0", "0", "1", "2", "4"], "rt": [3704, 97, 8], "actions": ["up", "up", "left"], "actionTimes": [5377, 5980, 6507], "queries": {"click": {"state": {"target": ["1", "4", "2"], "time": [2693, 3706, 4734]}, "edge": {"target": [], "time": []}}, "mouseover": {"state": {"target": ["1", "4", "2"], "time": [2317, 3333, 4349]}, "edge": {"target": [], "time": []}}, "mouseout": {"state": {"target": ["4", "1", "0", "1", "4"], "time": [965, 1114, 2071, 3234, 4132]}, "edge": {"target": [], "time": []}}}, "displayed_time": "10.67", "trialTime": 12011, "trial_type": "mouselab-mdp", "trial_index": 12, "time_elapsed": 329133, "internal_node_id": "0.0-4.0-1.0-3.0"}}, {"uniqueid": "w82762592:a51871552", "current_trial": 13, "dateTime": 1664873554504, "trialdata": {"revealed_states": [], "num_clicks_accrued": [0, 0, 0, 0, 0, 0, 0, 0, 0, 0, 0, 0, 0], "stateRewards": ["", 2, -4, 24, 24, 4, -4, -24, 24, -4, -4, 48, 48], "withholdReward": true, "trial_id": "mdp_566306223773", "block": "test1", "trialIndex": 6, "score": 26.25, "costs": -0.75, "simulationMode": [null, null, null], "rewards": [2, -4, 24], "path": ["0", "0", "1", "2", "4"], "rt": [4601, 439, 88], "actions": ["up", "up", "left"], "actionTimes": [6834, 7781, 8379], "queries": {"click": {"state": {"target": ["1", "2", "4"], "time": [3145, 4100, 4946]}, "edge": {"target": [], "time": []}}, "mouseover": {"state": {"target": ["1", "2", "4", "3"], "time": [2773, 3490, 4622, 5508]}, "edge": {"target": [], "time": []}}, "mouseout": {"state": {"target": ["2", "1", "0", "0", "1", "2", "4", "2", "3", "7"], "time": [941, 1192, 1408, 2524, 3424, 4463, 5322, 5440, 10957, 11404]}, "edge": {"target": [], "time": []}}}, "displayed_time": "11.24", "trialTime": 12456, "trial_type": "mouselab-mdp", "trial_index": 13, "time_elapsed": 341698, "internal_node_id": "0.0-4.0-1.0-4.0"}}, {"uniqueid": "w82762592:a51871552", "current_trial": 14, "dateTime": 1664873566584, "trialdata": {"revealed_states": [], "num_clicks_accrued": [0, 0, 0, 0, 0, 0, 0, 0, 0, 0, 0, 0, 0], "stateRewards": ["", 4, -4, 48, -48, 4, -4, 24, -24, 4, 8, -24, -48], "withholdReward": false, "trial_id": "mdp_433630527224", "block": "test1", "trialIndex": 7, "score": 52.25, "costs": -0.75, "simulationMode": [null, null, null], "rewards": [4, -4, 48], "path": ["0", "0", "1", "2", "3"], "rt": [4063, 72, 47], "actions": ["up", "up", "right"], "actionTimes": [5599, 6181, 6739], "queries": {"click": {"state": {"target": ["1", "2", "3"], "time": [2615, 3630, 4596]}, "edge": {"target": [], "time": []}}, "mouseover": {"state": {"target": ["1", "2", "3"], "time": [2144, 3192, 4209]}, "edge": {"target": [], "time": []}}, "mouseout": {"state": {"target": ["7", "1", "2", "3", "6"], "time": [909, 3142, 4174, 5177, 9040]}, "edge": {"target": [], "time": []}}}, "displayed_time": "9.54", "trialTime": 11911, "trial_type": "mouselab-mdp", "trial_index": 14, "time_elapsed": 353779, "internal_node_id": "0.0-4.0-1.0-5.0"}}, {"uniqueid": "w82762592:a51871552", "current_trial": 15, "dateTime": 1664873578471, "trialdata": {"revealed_states": [], "num_clicks_accrued": [0, 0, 0, 0, 0, 0, 0, 0, 0, 0, 0, 0, 0], "stateRewards": ["", -2, 8, -48, 48, 4, -8, -48, 48, 4, -4, -24, 48], "withholdReward": true, "trial_id": "mdp_144739116828", "block": "test1", "trialIndex": 8, "score": 48, "costs": -1, "simulationMode": [null, null, null], "rewards": [4, -8, 48], "path": ["0", "0", "5", "6", "8"], "rt": [5652, 7, 72], "actions": ["right", "right", "down"], "actionTimes": [6998, 7524, 8122], "queries": {"click": {"state": {"target": ["5", "6", "7", "8"], "time": [2396, 3889, 4824, 5984]}, "edge": {"target": [], "time": []}}, "mouseover": {"state": {"target": ["5", "9", "6", "7", "8"], "time": [2033, 2850, 3508, 4415, 5430]}, "edge": {"target": [], "time": []}}, "mouseout": {"state": {"target": ["8", "0", "5", "9", "6", "7", "8"], "time": [718, 985, 2733, 3085, 4333, 5215, 6215]}, "edge": {"target": [], "time": []}}}, "displayed_time": "10.35", "trialTime": 11779, "trial_type": "mouselab-mdp", "trial_index": 15, "time_elapsed": 365666, "internal_node_id": "0.0-4.0-1.0-6.0"}}, {"uniqueid": "w82762592:a51871552", "current_trial": 16, "dateTime": 1664873594610, "trialdata": {"revealed_states": [], "num_clicks_accrued": [0, 0, 0, 0, 0, 0, 0, 0, 0, 0, 0, 0, 0], "stateRewards": ["", 2, 8, -24, -48, 2, 4, -24, 48, 2, -8, 48, -24], "withholdReward": true, "trial_id": "mdp_791659307216", "block": "test1", "trialIndex": 9, "score": 45, "costs": -2, "simulationMode": [null, null, null], "rewards": [2, -8, 48], "path": ["0", "0", "9", "10", "11"], "rt": [10534, 664, 38], "actions": ["left", "left", "up"], "actionTimes": [12000, 13179, 13739], "queries": {"click": {"state": {"target": ["1", "2", "3", "4", "9", "10", "12", "11"], "time": [2507, 3353, 4340, 5466, 7710, 9138, 10117, 11021]}, "edge": {"target": [], "time": []}}, "mouseover": {"state": {"target": ["1", "2", "3", "4", "9", "10", "12", "11"], "time": [2067, 3033, 3983, 4901, 6549, 8835, 9865, 10749]}, "edge": {"target": [], "time": []}}, "mouseout": {"state": {"target": ["0", "1", "2", "3", "2", "4", "9", "10", "12", "10", "11", "5"], "time": [1935, 2869, 3885, 4783, 4867, 5831, 8631, 9664, 10381, 10531, 11464, 15430]}, "edge": {"target": [], "time": []}}}, "displayed_time": "14.25", "trialTime": 16007, "trial_type": "mouselab-mdp", "trial_index": 16, "time_elapsed": 381805, "internal_node_id": "0.0-4.0-1.0-7.0"}}, {"uniqueid": "w82762592:a51871552", "current_trial": 17, "dateTime": 1664873606021, "trialdata": {"revealed_states": [], "num_clicks_accrued": [0, 0, 0, 0, 0, 0, 0, 0, 0, 0, 0, 0, 0], "stateRewards": ["", 4, 4, 24, -24, -4, -8, 48, -24, 4, 4, 48, 24], "withholdReward": true, "trial_id": "mdp_822446942217", "block": "test1", "trialIndex": 10, "score": 35.75, "costs": -1.25, "simulationMode": [null, null, null], "rewards": [4, 4, 24], "path": ["0", "0", "1", "2", "3"], "rt": [6319, 22, 57], "actions": ["up", "up", "right"], "actionTimes": [7900, 8445, 9029], "queries": {"click": {"state": {"target": ["5", "1", "2", "4", "3"], "time": [3118, 4607, 5342, 6212, 7213]}, "edge": {"target": [], "time": []}}, "mouseover": {"state": {"target": ["1", "5", "6", "1", "2", "4", "3"], "time": [2306, 2839, 3422, 4206, 4889, 5956, 6800]}, "edge": {"target": [], "time": []}}, "mouseout": {"state": {"target": ["5", "1", "5", "6", "1", "2", "4", "2"], "time": [1039, 2540, 3406, 4056, 4855, 5806, 6703, 6774]}, "edge": {"target": [], "time": []}}}, "displayed_time": "9.58", "trialTime": 11246, "trial_type": "mouselab-mdp", "trial_index": 17, "time_elapsed": 393216, "internal_node_id": "0.0-4.0-1.0-8.0"}}, {"uniqueid": "w82762592:a51871552", "current_trial": 18, "dateTime": 1664873678235, "trialdata": {"revealed_states": [], "num_clicks_accrued": [0, 0, 0, 0, 0, 0, 0, 0, 0, 0, 0, 0, 0], "stateRewards": ["", 4, 8, -48, -48, 2, 4, -24, -48, 2, 8, 48, -48], "withholdReward": true, "trial_id": "mdp_902172716465", "block": "test1", "trialIndex": 11, "score": 60, "costs": -3, "simulationMode": [null, null, null], "rewards": [2, 8, 48], "path": ["0", "0", "9", "10", "11"], "rt": [37086, 437, 53], "actions": ["left", "left", "up"], "actionTimes": [38417, 39366, 39930], "queries": {"click": {"state": {"target": ["1", "2", "4", "3", "5", "6", "8", "7", "9", "10", "12", "11"], "time": [2535, 25340, 26286, 27614, 29783, 30755, 31864, 32979, 34349, 35113, 36119, 37498]}, "edge": {"target": [], "time": []}}, "mouseover": {"state": {"target": ["1", "2", "4", "3", "5", "6", "8", "7", "9", "10", "12", "11"], "time": [2075, 24698, 25965, 27248, 29380, 30348, 31245, 32447, 33860, 34695, 35768, 37194]}, "edge": {"target": [], "time": []}}, "mouseout": {"state": {"target": ["3", "0", "1", "2", "4", "2", "3", "5", "6", "8", "6", "7", "9", "10", "12", "10", "11"], "time": [675, 1910, 24665, 25865, 26981, 27048, 29098, 30211, 31229, 32212, 32346, 33528, 34676, 35609, 36676, 36810, 37859]}, "edge": {"target": [], "time": []}}}, "displayed_time": "40.46", "trialTime": 72085, "trial_type": "mouselab-mdp", "trial_index": 18, "time_elapsed": 465430, "internal_node_id": "0.0-4.0-1.0-9.0"}}, {"uniqueid": "w82762592:a51871552", "current_trial": 19, "dateTime": 1664873691179, "trialdata": {"revealed_states": [], "num_clicks_accrued": [0, 0, 0, 0, 0, 0, 0, 0, 0, 0, 0, 0, 0], "stateRewards": ["", -4, 8, -24, 24, -2, -8, 24, -24, 4, -4, -48, 48], "withholdReward": false, "trial_id": "mdp_297684722007", "block": "test1", "trialIndex": 12, "score": 51.75, "costs": -1.25, "simulationMode": [null, null, null], "rewards": [4, -4, 48], "path": ["0", "0", "9", "10", "12"], "rt": [7750, 316, 8], "actions": ["left", "left", "down"], "actionTimes": [9305, 10142, 10669], "queries": {"click": {"state": {"target": ["1", "5", "9", "10", "12"], "time": [2460, 4751, 5878, 6995, 8203]}, "edge": {"target": [], "time": []}}, "mouseover": {"state": {"target": ["1", "5", "5", "9", "10", "10", "9", "10", "12"], "time": [2027, 3656, 4393, 5093, 5112, 5345, 5410, 6675, 7774]}, "edge": {"target": [], "time": []}}, "mouseout": {"state": {"target": ["1", "5", "5", "9", "10", "10", "9", "10", "12", "10"], "time": [3044, 3793, 5059, 5110, 5126, 5394, 6512, 7757, 8507, 8729]}, "edge": {"target": [], "time": []}}}, "displayed_time": "11.19", "trialTime": 12813, "trial_type": "mouselab-mdp", "trial_index": 19, "time_elapsed": 478374, "internal_node_id": "0.0-4.0-1.0-10.0"}}, {"uniqueid": "w82762592:a51871552", "current_trial": 20, "dateTime": 1664873704870, "trialdata": {"revealed_states": [], "num_clicks_accrued": [0, 0, 0, 0, 0, 0, 0, 0, 0, 0, 0, 0, 0], "stateRewards": ["", -4, 4, 48, 24, -4, 4, -24, 48, -2, -8, 24, -48], "withholdReward": true, "trial_id": "mdp_261501605436", "block": "test1", "trialIndex": 13, "score": 51, "costs": -2, "simulationMode": [null, null, null], "rewards": [-4, 4, 48], "path": ["0", "0", "1", "2", "3"], "rt": [8720, 82, 41], "actions": ["up", "up", "right"], "actionTimes": [10303, 10904, 11460], "queries": {"click": {"state": {"target": ["1", "2", "5", "9", "10", "11", "4", "3"], "time": [2381, 3206, 4112, 4988, 6589, 7503, 8620, 9525]}, "edge": {"target": [], "time": []}}, "mouseover": {"state": {"target": ["1", "2", "5", "0", "9", "10", "11", "4", "4", "3"], "time": [1920, 2739, 3571, 4469, 4669, 6272, 7068, 7855, 8337, 9308]}, "edge": {"target": [], "time": []}}, "mouseout": {"state": {"target": ["9", "0", "0", "1", "2", "5", "0", "9", "10", "11", "4", "2", "4", "2"], "time": [739, 787, 1829, 2655, 3554, 4435, 4520, 5455, 7022, 7819, 7877, 8202, 8903, 9026]}, "edge": {"target": [], "time": []}}}, "displayed_time": "11.98", "trialTime": 13404, "trial_type": "mouselab-mdp", "trial_index": 20, "time_elapsed": 492065, "internal_node_id": "0.0-4.0-1.0-11.0"}}, {"uniqueid": "w82762592:a51871552", "current_trial": 21, "dateTime": 1664873716520, "trialdata": {"revealed_states": [], "num_clicks_accrued": [0, 0, 0, 0, 0, 0, 0, 0, 0, 0, 0, 0, 0], "stateRewards": ["", -2, -4, -48, -48, 4, -4, 48, 24, 4, 4, 48, 48], "withholdReward": false, "trial_id": "mdp_950960813932", "block": "test1", "trialIndex": 14, "score": 52, "costs": -1, "simulationMode": [null, null, null], "rewards": [4, -4, 48], "path": ["0", "0", "5", "6", "7"], "rt": [6155, 15, 481], "actions": ["right", "right", "up"], "actionTimes": [7601, 8138, 9153], "queries": {"click": {"state": {"target": ["1", "5", "6", "7"], "time": [2353, 4293, 5703, 6537]}, "edge": {"target": [], "time": []}}, "mouseover": {"state": {"target": ["1", "5", "6", "6", "7"], "time": [1936, 3021, 4905, 5434, 6085]}, "edge": {"target": [], "time": []}}, "mouseout": {"state": {"target": ["3", "1", "5", "5", "6", "6", "7", "6"], "time": [792, 2970, 4618, 4903, 4919, 6054, 6884, 6919]}, "edge": {"target": [], "time": []}}}, "displayed_time": "10.45", "trialTime": 11542, "trial_type": "mouselab-mdp", "trial_index": 21, "time_elapsed": 503715, "internal_node_id": "0.0-4.0-1.0-12.0"}}, {"uniqueid": "w82762592:a51871552", "current_trial": 22, "dateTime": 1664873730905, "trialdata": {"revealed_states": [], "num_clicks_accrued": [0, 0, 0, 0, 0, 0, 0, 0, 0, 0, 0, 0, 0], "stateRewards": ["", -2, -4, -24, 48, -4, 8, 48, 48, 2, 8, -48, -24], "withholdReward": true, "trial_id": "mdp_136376573354", "block": "test1", "trialIndex": 15, "score": 45, "costs": -2, "simulationMode": [null, null, null], "rewards": [-2, -4, 48], "path": ["0", "0", "1", "2", "4"], "rt": [9638, 8, 89], "actions": ["up", "up", "left"], "actionTimes": [11575, 12098, 12714], "queries": {"click": {"state": {"target": ["9", "10", "11", "12", "5", "1", "2", "4"], "time": [2876, 4072, 5109, 6083, 7755, 8678, 9677, 10526]}, "edge": {"target": [], "time": []}}, "mouseover": {"state": {"target": ["9", "10", "11", "12", "7", "5", "1", "2", "4"], "time": [2427, 3641, 4641, 5708, 6958, 7357, 8307, 9023, 10206]}, "edge": {"target": [], "time": []}}, "mouseout": {"state": {"target": ["0", "9", "9", "10", "11", "10", "12", "7", "5", "1", "2"], "time": [2343, 3244, 3592, 4608, 5473, 5624, 6457, 7157, 8223, 8956, 10056]}, "edge": {"target": [], "time": []}}}, "displayed_time": "13.22", "trialTime": 14255, "trial_type": "mouselab-mdp", "trial_index": 22, "time_elapsed": 518099, "internal_node_id": "0.0-4.0-1.0-13.0"}}, {"uniqueid": "w82762592:a51871552", "current_trial": 23, "dateTime": 1664873748580, "trialdata": {"revealed_states": [], "num_clicks_accrued": [0, 0, 0, 0, 0, 0, 0, 0, 0, 0, 0, 0, 0], "stateRewards": ["", -2, 4, -24, 48, 4, -8, 48, -48, 2, -8, 48, 24], "withholdReward": true, "trial_id": "mdp_501111216502", "block": "test1", "trialIndex": 16, "score": 47.25, "costs": -1.75, "simulationMode": [null, null, null], "rewards": [4, -8, 48], "path": ["0", "0", "5", "6", "7"], "rt": [11499, 41, 41], "actions": ["right", "right", "up"], "actionTimes": [13151, 13698, 14247], "queries": {"click": {"state": {"target": ["5", "6", "7", "9", "1", "10", "11"], "time": [2535, 4116, 4919, 6962, 7918, 8913, 10124]}, "edge": {"target": [], "time": []}}, "mouseover": {"state": {"target": ["5", "0", "9", "6", "7", "9", "1", "10", "11"], "time": [2093, 2991, 3211, 3826, 4458, 6591, 7540, 8573, 9824]}, "edge": {"target": [], "time": []}}, "mouseout": {"state": {"target": ["4", "1", "5", "0", "9", "5", "6", "7", "9", "1", "10", "10", "11", "9"], "time": [794, 977, 2975, 3009, 3310, 3376, 4391, 5323, 7307, 8329, 9424, 9649, 15284, 15321]}, "edge": {"target": [], "time": []}}}, "displayed_time": "14.76", "trialTime": 17570, "trial_type": "mouselab-mdp", "trial_index": 23, "time_elapsed": 535774, "internal_node_id": "0.0-4.0-1.0-14.0"}}, {"uniqueid": "w82762592:a51871552", "current_trial": 24, "dateTime": 1664873760488, "trialdata": {"revealed_states": [], "num_clicks_accrued": [0, 0, 0, 0, 0, 0, 0, 0, 0, 0, 0, 0, 0], "stateRewards": ["", 4, 4, 48, -48, -2, -8, -48, -24, 2, 4, -24, -48], "withholdReward": true, "trial_id": "mdp_239929662917", "block": "test1", "trialIndex": 17, "score": 60.25, "costs": -0.75, "simulationMode": [null, null, null], "rewards": [4, 4, 48], "path": ["0", "0", "1", "2", "3"], "rt": [3995, 15, 28], "actions": ["up", "up", "right"], "actionTimes": [5575, 6107, 6668], "queries": {"click": {"state": {"target": ["1", "2", "3"], "time": [2428, 3363, 4300]}, "edge": {"target": [], "time": []}}, "mouseover": {"state": {"target": ["1", "2", "3"], "time": [2007, 3006, 3873]}, "edge": {"target": [], "time": []}}, "mouseout": {"state": {"target": ["0", "1", "2", "3", "2", "2", "3", "7"], "time": [1940, 2874, 3857, 4688, 4755, 9486, 9553, 9988]}, "edge": {"target": [], "time": []}}}, "displayed_time": "10.58", "trialTime": 11768, "trial_type": "mouselab-mdp", "trial_index": 24, "time_elapsed": 547683, "internal_node_id": "0.0-4.0-1.0-15.0"}}, {"uniqueid": "w82762592:a51871552", "current_trial": 25, "dateTime": 1664873772104, "trialdata": {"revealed_states": [], "num_clicks_accrued": [0, 0, 0, 0, 0, 0, 0, 0, 0, 0, 0, 0, 0], "stateRewards": ["", -4, 8, 24, 24, 2, 4, -48, 24, -2, -4, -24, -24], "withholdReward": true, "trial_id": "mdp_752328329546", "block": "test1", "trialIndex": 18, "score": 33.5, "costs": -1.5, "simulationMode": [null, null, null], "rewards": [2, 4, 24], "path": ["0", "0", "5", "6", "8"], "rt": [6446, 6, 68], "actions": ["right", "right", "down"], "actionTimes": [8153, 8679, 9274], "queries": {"click": {"state": {"target": ["1", "5", "9", "6", "7", "8"], "time": [2505, 3771, 4566, 5632, 6347, 7292]}, "edge": {"target": [], "time": []}}, "mouseover": {"state": {"target": ["1", "5", "9", "6", "7", "8"], "time": [2190, 3372, 4124, 5353, 5938, 6921]}, "edge": {"target": [], "time": []}}, "mouseout": {"state": {"target": ["6", "5", "1", "1", "5", "9", "5", "6", "7", "6", "8"], "time": [791, 841, 2821, 3238, 4006, 4853, 4938, 5887, 6688, 6821, 7587]}, "edge": {"target": [], "time": []}}}, "displayed_time": "10.71", "trialTime": 11470, "trial_type": "mouselab-mdp", "trial_index": 25, "time_elapsed": 559299, "internal_node_id": "0.0-4.0-1.0-16.0"}}, {"uniqueid": "w82762592:a51871552", "current_trial": 26, "dateTime": 1664873784580, "trialdata": {"revealed_states": [], "num_clicks_accrued": [0, 0, 0, 0, 0, 0, 0, 0, 0, 0, 0, 0, 0], "stateRewards": ["", 2, 4, -24, -24, 4, 8, -48, 48, 2, 4, -24, -48], "withholdReward": true, "trial_id": "mdp_565165082781", "block": "test1", "trialIndex": 19, "score": 63, "costs": -2, "simulationMode": [null, null, null], "rewards": [4, 8, 48], "path": ["0", "0", "5", "6", "8"], "rt": [8482, 40, 21], "actions": ["right", "right", "down"], "actionTimes": [9753, 10311, 10858], "queries": {"click": {"state": {"target": ["1", "2", "4", "3", "5", "6", "7", "8"], "time": [2037, 3006, 3860, 5139, 6436, 7440, 8255, 9172]}, "edge": {"target": [], "time": []}}, "mouseover": {"state": {"target": ["1", "2", "4", "3", "3", "5", "6", "7", "8"], "time": [1690, 2623, 3488, 4240, 4804, 5822, 7002, 7919, 8792]}, "edge": {"target": [], "time": []}}, "mouseout": {"state": {"target": ["6", "5", "0", "1", "2", "4", "2", "3", "3", "5", "5", "6", "7", "6", "8"], "time": [672, 806, 1514, 2573, 3471, 4189, 4222, 4440, 5739, 6718, 6986, 7754, 8603, 8719, 9501]}, "edge": {"target": [], "time": []}}}, "displayed_time": "11.39", "trialTime": 12301, "trial_type": "mouselab-mdp", "trial_index": 26, "time_elapsed": 571775, "internal_node_id": "0.0-4.0-1.0-17.0"}}, {"uniqueid": "w82762592:a51871552", "current_trial": 27, "dateTime": 1664873795991, "trialdata": {"revealed_states": [], "num_clicks_accrued": [0, 0, 0, 0, 0, 0, 0, 0, 0, 0, 0, 0, 0], "stateRewards": ["", 2, 8, 48, -24, -4, 4, 48, 24, -2, 8, 24, 24], "withholdReward": true, "trial_id": "mdp_123436106791", "block": "test1", "trialIndex": 20, "score": 62.25, "costs": -0.75, "simulationMode": [null, null, null], "rewards": [2, 8, 48], "path": ["0", "0", "1", "2", "3"], "rt": [4350, 9, 11], "actions": ["up", "up", "right"], "actionTimes": [7009, 7534, 8067], "queries": {"click": {"state": {"target": ["1", "2", "3"], "time": [3561, 4981, 5734]}, "edge": {"target": [], "time": []}}, "mouseover": {"state": {"target": ["1", "2", "3", "4"], "time": [3158, 4605, 5372, 6122]}, "edge": {"target": [], "time": []}}, "mouseout": {"state": {"target": ["6", "5", "0", "1", "2", "3", "2", "4", "2", "3", "3", "5"], "time": [1591, 1892, 2927, 4191, 5339, 5989, 6071, 6562, 6622, 9546, 9605, 9655]}, "edge": {"target": [], "time": []}}}, "displayed_time": "10.66", "trialTime": 11204, "trial_type": "mouselab-mdp", "trial_index": 27, "time_elapsed": 583186, "internal_node_id": "0.0-4.0-1.0-18.0"}}, {"uniqueid": "w82762592:a51871552", "current_trial": 28, "dateTime": 1664873806020, "trialdata": {"revealed_states": [], "num_clicks_accrued": [0, 0, 0, 0, 0, 0, 0, 0, 0, 0, 0, 0, 0], "stateRewards": ["", 4, -8, 48, -24, 4, -4, -48, -48, 4, -4, 24, 24], "withholdReward": true, "trial_id": "mdp_221562928904", "block": "test1", "trialIndex": 21, "score": 48, "costs": -1, "simulationMode": [null, null, null], "rewards": [4, -8, 48], "path": ["0", "0", "1", "2", "3"], "rt": [4380, 21, 14], "actions": ["up", "up", "right"], "actionTimes": [5734, 6269, 6810], "queries": {"click": {"state": {"target": ["1", "2", "4", "3"], "time": [2200, 2926, 3842, 4786]}, "edge": {"target": [], "time": []}}, "mouseover": {"state": {"target": ["1", "2", "4", "3"], "time": [1761, 2543, 3512, 4415]}, "edge": {"target": [], "time": []}}, "mouseout": {"state": {"target": ["0", "1", "2", "4", "2", "3"], "time": [1678, 2477, 3396, 4266, 4327, 5226]}, "edge": {"target": [], "time": []}}}, "displayed_time": "9.36", "trialTime": 9925, "trial_type": "mouselab-mdp", "trial_index": 28, "time_elapsed": 593215, "internal_node_id": "0.0-4.0-1.0-19.0"}}, {"uniqueid": "w82762592:a51871552", "current_trial": 29, "dateTime": 1664873818098, "trialdata": {"revealed_states": [], "num_clicks_accrued": [0, 0, 0, 0, 0, 0, 0, 0, 0, 0, 0, 0, 0], "stateRewards": ["", 4, 8, -24, 48, 4, -8, -48, 48, -4, 8, -24, -48], "withholdReward": true, "trial_id": "mdp_376126356841", "block": "test1", "trialIndex": 22, "score": 63.25, "costs": -1.75, "simulationMode": [null, null, null], "rewards": [4, 8, 48], "path": ["0", "0", "1", "2", "4"], "rt": [7477, 15, 12], "actions": ["up", "up", "left"], "actionTimes": [8778, 9302, 9855], "queries": {"click": {"state": {"target": ["5", "6", "9", "1", "2", "3", "4"], "time": [2239, 3364, 4693, 5428, 6162, 6907, 8123]}, "edge": {"target": [], "time": []}}, "mouseover": {"state": {"target": ["5", "6", "7", "9", "1", "2", "3", "4"], "time": [1888, 2953, 3720, 4305, 4986, 5837, 6519, 7803]}, "edge": {"target": [], "time": []}}, "mouseout": {"state": {"target": ["5", "6", "7", "9", "1", "2", "3", "2", "4"], "time": [2653, 3687, 3922, 4936, 5704, 6486, 7190, 7303, 10918]}, "edge": {"target": [], "time": []}}}, "displayed_time": "10.37", "trialTime": 11950, "trial_type": "mouselab-mdp", "trial_index": 29, "time_elapsed": 605293, "internal_node_id": "0.0-4.0-1.0-20.0"}}, {"uniqueid": "w82762592:a51871552", "current_trial": 30, "dateTime": 1664873830711, "trialdata": {"revealed_states": [], "num_clicks_accrued": [0, 0, 0, 0, 0, 0, 0, 0, 0, 0, 0, 0, 0], "stateRewards": ["", 4, 8, 48, -48, -4, 8, -24, -24, -4, 8, 48, 48], "withholdReward": false, "trial_id": "mdp_377640328420", "block": "test1", "trialIndex": 23, "score": 64.25, "costs": -0.75, "simulationMode": [null, null, null], "rewards": [4, 8, 48], "path": ["0", "0", "1", "2", "3"], "rt": [3785, 467, 77], "actions": ["up", "up", "right"], "actionTimes": [5898, 6875, 7470], "queries": {"click": {"state": {"target": ["1", "2", "3"], "time": [3068, 4076, 5057]}, "edge": {"target": [], "time": []}}, "mouseover": {"state": {"target": ["1", "2", "3"], "time": [2692, 3624, 4673]}, "edge": {"target": [], "time": []}}, "mouseout": {"state": {"target": ["0", "1", "2"], "time": [2358, 3606, 4641]}, "edge": {"target": [], "time": []}}}, "displayed_time": "11.11", "trialTime": 12489, "trial_type": "mouselab-mdp", "trial_index": 30, "time_elapsed": 617905, "internal_node_id": "0.0-4.0-1.0-21.0"}}, {"uniqueid": "w82762592:a51871552", "current_trial": 31, "dateTime": 1664873841800, "trialdata": {"revealed_states": [], "num_clicks_accrued": [0, 0, 0, 0, 0, 0, 0, 0, 0, 0, 0, 0, 0], "stateRewards": ["", 4, -8, -24, 48, -4, 8, -24, -48, -4, -4, 24, 48], "withholdReward": false, "trial_id": "mdp_282352776624", "block": "test1", "trialIndex": 24, "score": 47.75, "costs": -1.25, "simulationMode": [null, null, null], "rewards": [4, -8, 48], "path": ["0", "0", "1", "2", "4"], "rt": [6435, 11, 15], "actions": ["up", "up", "left"], "actionTimes": [8040, 8564, 9104], "queries": {"click": {"state": {"target": ["1", "2", "5", "9", "4"], "time": [2521, 3336, 4763, 5830, 7190]}, "edge": {"target": [], "time": []}}, "mouseover": {"state": {"target": ["1", "2", "3", "5", "0", "9", "10", "4"], "time": [2153, 2889, 3705, 4485, 5352, 5536, 6203, 6837]}, "edge": {"target": [], "time": []}}, "mouseout": {"state": {"target": ["3", "1", "1", "2", "3", "5", "0", "9", "10", "1", "2", "4", "2"], "time": [871, 1072, 2838, 3671, 4154, 5284, 5368, 6138, 6387, 6620, 6752, 7518, 7570]}, "edge": {"target": [], "time": []}}}, "displayed_time": "10.61", "trialTime": 10963, "trial_type": "mouselab-mdp", "trial_index": 31, "time_elapsed": 628995, "internal_node_id": "0.0-4.0-1.0-22.0"}}, {"uniqueid": "w82762592:a51871552", "current_trial": 32, "dateTime": 1664873853997, "trialdata": {"revealed_states": [], "num_clicks_accrued": [0, 0, 0, 0, 0, 0, 0, 0, 0, 0, 0, 0, 0], "stateRewards": ["", 2, -4, 48, -48, 2, 4, -24, 24, -4, -8, 24, -48], "withholdReward": true, "trial_id": "mdp_238810765895", "block": "test1", "trialIndex": 25, "score": 50, "costs": -1, "simulationMode": [null, null, null], "rewards": [2, -4, 48], "path": ["0", "0", "1", "2", "3"], "rt": [5059, 56, 10], "actions": ["up", "up", "right"], "actionTimes": [7587, 8149, 8687], "queries": {"click": {"state": {"target": ["1", "2", "4", "3"], "time": [3273, 4148, 5710, 6628]}, "edge": {"target": [], "time": []}}, "mouseover": {"state": {"target": ["1", "2", "3", "4", "3"], "time": [2926, 3728, 4543, 4977, 6409]}, "edge": {"target": [], "time": []}}, "mouseout": {"state": {"target": ["1", "2", "3", "2", "4", "2", "3"], "time": [3678, 4526, 4841, 4926, 5991, 6124, 7109]}, "edge": {"target": [], "time": []}}}, "displayed_time": "10.53", "trialTime": 12088, "trial_type": "mouselab-mdp", "trial_index": 32, "time_elapsed": 641192, "internal_node_id": "0.0-4.0-1.0-23.0"}}, {"uniqueid": "w82762592:a51871552", "current_trial": 33, "dateTime": 1664873865558, "trialdata": {"revealed_states": [], "num_clicks_accrued": [0, 0, 0, 0, 0, 0, 0, 0, 0, 0, 0, 0, 0], "stateRewards": ["", 2, 8, 24, 24, 2, -8, -24, -48, 2, 8, -48, 48], "withholdReward": true, "trial_id": "mdp_745175888812", "block": "test1", "trialIndex": 26, "score": 38, "costs": -1, "simulationMode": [null, null, null], "rewards": [2, 8, 24], "path": ["0", "0", "1", "2", "3"], "rt": [4560, 86, 19], "actions": ["up", "up", "right"], "actionTimes": [5923, 6523, 7059], "queries": {"click": {"state": {"target": ["1", "2", "3", "4"], "time": [2339, 3031, 3763, 4961]}, "edge": {"target": [], "time": []}}, "mouseover": {"state": {"target": ["1", "2", "3", "4", "4"], "time": [1921, 2621, 3386, 4202, 4655]}, "edge": {"target": [], "time": []}}, "mouseout": {"state": {"target": ["1", "1", "2", "3", "2", "4", "4"], "time": [820, 2588, 3354, 4069, 4136, 4318, 9000]}, "edge": {"target": [], "time": []}}}, "displayed_time": "10.37", "trialTime": 11432, "trial_type": "mouselab-mdp", "trial_index": 33, "time_elapsed": 652753, "internal_node_id": "0.0-4.0-1.0-24.0"}}, {"uniqueid": "w82762592:a51871552", "current_trial": 34, "dateTime": 1664873881555, "trialdata": {"revealed_states": [], "num_clicks_accrued": [0, 0, 0, 0, 0, 0, 0, 0, 0, 0, 0, 0, 0], "stateRewards": ["", -4, 8, -24, 48, 2, -8, 24, 48, 2, -8, -24, -48], "withholdReward": false, "trial_id": "mdp_493778446445", "block": "test1", "trialIndex": 27, "score": 44.75, "costs": -2.25, "simulationMode": [null, null, null], "rewards": [2, -8, 48], "path": ["0", "0", "5", "6", "8"], "rt": [10484, 864, 515], "actions": ["right", "right", "down"], "actionTimes": [11842, 13228, 14259], "queries": {"click": {"state": {"target": ["5", "6", "1", "9", "10", "12", "7", "11", "8"], "time": [2180, 3566, 4826, 5884, 7050, 8137, 9103, 9978, 11296]}, "edge": {"target": [], "time": []}}, "mouseover": {"state": {"target": ["5", "6", "6", "1", "9", "10", "12", "7", "11", "8"], "time": [1880, 2746, 3178, 4444, 5513, 6729, 7710, 8610, 9510, 10874]}, "edge": {"target": [], "time": []}}, "mouseout": {"state": {"target": ["0", "5", "5", "6", "6", "1", "1", "9", "10", "12", "7", "11", "5", "6", "8"], "time": [663, 2595, 2728, 2779, 4228, 5213, 5379, 6645, 7677, 8460, 9360, 10525, 10626, 10775, 12678]}, "edge": {"target": [], "time": []}}}, "displayed_time": "14.78", "trialTime": 15860, "trial_type": "mouselab-mdp", "trial_index": 34, "time_elapsed": 668750, "internal_node_id": "0.0-4.0-1.0-25.0"}}, {"uniqueid": "w82762592:a51871552", "current_trial": 35, "dateTime": 1664873892381, "trialdata": {"revealed_states": [], "num_clicks_accrued": [0, 0, 0, 0, 0, 0, 0, 0, 0, 0, 0, 0, 0], "stateRewards": ["", 2, -4, -48, 24, 4, 4, 48, -48, -2, -4, -24, -48], "withholdReward": true, "trial_id": "mdp_858916930936", "block": "test1", "trialIndex": 28, "score": 60.25, "costs": -0.75, "simulationMode": [null, null, null], "rewards": [4, 4, 48], "path": ["0", "0", "5", "6", "7"], "rt": [3159, 67, 91], "actions": ["right", "right", "up"], "actionTimes": [4787, 5374, 5982], "queries": {"click": {"state": {"target": ["5", "6", "7"], "time": [2411, 3239, 3901]}, "edge": {"target": [], "time": []}}, "mouseover": {"state": {"target": ["5", "6", "7", "8"], "time": [1992, 2773, 3573, 4326]}, "edge": {"target": [], "time": []}}, "mouseout": {"state": {"target": ["5", "5", "6", "7", "6", "8"], "time": [809, 2740, 3507, 4257, 4292, 8188]}, "edge": {"target": [], "time": []}}}, "displayed_time": "9.63", "trialTime": 10720, "trial_type": "mouselab-mdp", "trial_index": 35, "time_elapsed": 679575, "internal_node_id": "0.0-4.0-1.0-26.0"}}, {"uniqueid": "w82762592:a51871552", "current_trial": 36, "dateTime": 1664873904548, "trialdata": {"revealed_states": [], "num_clicks_accrued": [0, 0, 0, 0, 0, 0, 0, 0, 0, 0, 0, 0, 0], "stateRewards": ["", 4, 4, 48, -24, -4, -8, 24, -24, 2, -8, -24, 24], "withholdReward": true, "trial_id": "mdp_933201675789", "block": "test1", "trialIndex": 29, "score": 59.75, "costs": -1.25, "simulationMode": [null, null, null], "rewards": [4, 4, 48], "path": ["0", "0", "1", "2", "3"], "rt": [5994, 46, 81], "actions": ["up", "up", "right"], "actionTimes": [7457, 8012, 8627], "queries": {"click": {"state": {"target": ["5", "1", "2", "4", "3"], "time": [3022, 4062, 4795, 5530, 6438]}, "edge": {"target": [], "time": []}}, "mouseover": {"state": {"target": ["6", "6", "5", "1", "2", "4", "3"], "time": [2382, 2564, 2614, 3747, 4397, 5229, 6079]}, "edge": {"target": [], "time": []}}, "mouseout": {"state": {"target": ["0", "6", "6", "5", "5", "1", "2", "4", "2", "3"], "time": [1114, 2414, 2598, 3330, 3613, 4332, 5162, 5830, 5929, 10142]}, "edge": {"target": [], "time": []}}}, "displayed_time": "10.46", "trialTime": 12033, "trial_type": "mouselab-mdp", "trial_index": 36, "time_elapsed": 691742, "internal_node_id": "0.0-4.0-1.0-27.0"}}, {"uniqueid": "w82762592:a51871552", "current_trial": 37, "dateTime": 1664873916993, "trialdata": {"revealed_states": [], "num_clicks_accrued": [0, 0, 0, 0, 0, 0, 0, 0, 0, 0, 0, 0, 0], "stateRewards": ["", -4, 4, -24, 24, 2, 4, -24, 48, -4, 8, -48, 48], "withholdReward": true, "trial_id": "mdp_422109108860", "block": "test1", "trialIndex": 30, "score": 57.25, "costs": -1.75, "simulationMode": [null, null, null], "rewards": [2, 4, 48], "path": ["0", "0", "5", "6", "8"], "rt": [7913, 49, 15], "actions": ["right", "right", "down"], "actionTimes": [9235, 9796, 10342], "queries": {"click": {"state": {"target": ["1", "2", "3", "5", "9", "6", "8"], "time": [2176, 2870, 3879, 5451, 6255, 7368, 8364]}, "edge": {"target": [], "time": []}}, "mouseover": {"state": {"target": ["1", "2", "3", "5", "5", "5", "9", "6", "6", "8"], "time": [1814, 2646, 3477, 4344, 4644, 5094, 5793, 6644, 6997, 7985]}, "edge": {"target": [], "time": []}}, "mouseout": {"state": {"target": ["0", "1", "2", "3", "5", "5", "5", "9", "5", "6", "6", "8"], "time": [1694, 2429, 3459, 4325, 4360, 4661, 5660, 6608, 6643, 6678, 7960, 8776]}, "edge": {"target": [], "time": []}}}, "displayed_time": "10.86", "trialTime": 12296, "trial_type": "mouselab-mdp", "trial_index": 37, "time_elapsed": 704187, "internal_node_id": "0.0-4.0-1.0-28.0"}}, {"uniqueid": "w82762592:a51871552", "current_trial": 38, "dateTime": 1664873927492, "trialdata": {"revealed_states": [], "num_clicks_accrued": [0, 0, 0, 0, 0, 0, 0, 0, 0, 0, 0, 0, 0], "stateRewards": ["", 2, -4, 48, 24, 2, 8, 24, 24, -2, 4, 24, 24], "withholdReward": true, "trial_id": "mdp_813974524300", "block": "test1", "trialIndex": 31, "score": 38, "costs": -1, "simulationMode": [null, null, null], "rewards": [2, 8, 24], "path": ["0", "0", "5", "6", "7"], "rt": [5337, 26, 47], "actions": ["right", "right", "up"], "actionTimes": [6621, 7159, 7728], "queries": {"click": {"state": {"target": ["5", "6", "7", "8"], "time": [2197, 3183, 4432, 5749]}, "edge": {"target": [], "time": []}}, "mouseover": {"state": {"target": ["5", "6", "7", "8"], "time": [1831, 2749, 3949, 5446]}, "edge": {"target": [], "time": []}}, "mouseout": {"state": {"target": ["5", "0", "5", "6", "7", "6", "8"], "time": [736, 1798, 2713, 3635, 4929, 5300, 6045]}, "edge": {"target": [], "time": []}}}, "displayed_time": "9.29", "trialTime": 10323, "trial_type": "mouselab-mdp", "trial_index": 38, "time_elapsed": 714687, "internal_node_id": "0.0-4.0-1.0-29.0"}}, {"uniqueid": "w82762592:a51871552", "current_trial": 39, "dateTime": 1664873945525, "trialdata": {"rt": 18026, "stimulus": "<h1> End of block! </h1>\n\nYou have reached the end of the block 1/4. If you need a short break, feel free to take one now before moving on.\n\n<br><br>\nIn the next block, you will complete another 30 rounds of this game.\n\n<br><br>\n<div style='text-align: center;'>Press <code>space</code> to begin.</div>\n<br><br>\n<div style='text-align: center;'>(If the experiment doesn't continue, try clicking on the text and then pressing <code>space</code>.)</div>", "response": " ", "trial_id": "mdp_ready_2", "trial_type": "html-keyboard-response", "trial_index": 39, "time_elapsed": 732720, "internal_node_id": "0.0-4.0-2.0"}}, {"uniqueid": "w82762592:a51871552", "current_trial": 40, "dateTime": 1664873962980, "trialdata": {"revealed_states": [], "num_clicks_accrued": [0, 0, 0, 0, 0, 0, 0, 0, 0, 0, 0, 0, 0], "stateRewards": ["", -2, -8, 48, 24, -2, 8, -48, -24, -2, 4, -48, 48], "withholdReward": true, "trial_id": "mdp_295220852217", "block": "test2", "trialIndex": 32, "score": 52.5, "costs": -2.5, "simulationMode": [null, null, null], "rewards": [-2, 4, 48], "path": ["0", "0", "9", "10", "12"], "rt": [12260, 32, 37], "actions": ["left", "left", "down"], "actionTimes": [14222, 14771, 15323], "queries": {"click": {"state": {"target": ["1", "5", "9", "2", "6", "7", "8", "10", "11", "12"], "time": [2704, 3660, 4485, 5522, 7526, 8791, 9840, 11509, 12293, 13240]}, "edge": {"target": [], "time": []}}, "mouseover": {"state": {"target": ["1", "5", "9", "2", "6", "0", "7", "8", "10", "11", "12"], "time": [2276, 3207, 4189, 5274, 7140, 7824, 8273, 9538, 11236, 11937, 12671]}, "edge": {"target": [], "time": []}}, "mouseout": {"state": {"target": ["0", "1", "5", "9", "1", "2", "6", "5", "0", "9", "7", "6", "8", "5", "9", "10", "11", "10", "12"], "time": [2194, 3125, 3892, 4892, 4941, 6122, 7776, 7807, 7841, 8240, 9321, 9372, 10090, 10573, 11038, 11875, 12586, 12637, 13522]}, "edge": {"target": [], "time": []}}}, "displayed_time": "15.84", "trialTime": 17267, "trial_type": "mouselab-mdp", "trial_index": 40, "time_elapsed": 750175, "internal_node_id": "0.0-4.0-3.0-0.0"}}, {"uniqueid": "w82762592:a51871552", "current_trial": 41, "dateTime": 1664873978436, "trialdata": {"revealed_states": [], "num_clicks_accrued": [0, 0, 0, 0, 0, 0, 0, 0, 0, 0, 0, 0, 0], "stateRewards": ["", 2, -8, 48, -24, -4, -8, -24, 48, -2, 4, 24, -48], "withholdReward": true, "trial_id": "mdp_186932504904", "block": "test2", "trialIndex": 33, "score": 38.5, "costs": -2.5, "simulationMode": [null, null, null], "rewards": [-4, -8, 48], "path": ["0", "0", "5", "6", "8"], "rt": [11317, 19, 36], "actions": ["right", "right", "down"], "actionTimes": [12658, 13197, 13749], "queries": {"click": {"state": {"target": ["1", "2", "4", "9", "10", "11", "12", "5", "6", "8"], "time": [2018, 2734, 3890, 5199, 7081, 7799, 8793, 9757, 10654, 11650]}, "edge": {"target": [], "time": []}}, "mouseover": {"state": {"target": ["1", "2", "4", "3", "9", "5", "0", "10", "11", "12", "5", "6", "8"], "time": [1597, 2482, 3499, 4531, 4765, 5879, 6431, 6763, 7446, 8412, 9314, 10313, 11260]}, "edge": {"target": [], "time": []}}, "mouseout": {"state": {"target": ["0", "1", "2", "2", "4", "2", "3", "1", "9", "5", "0", "9", "10", "11", "10", "12", "5", "6", "8", "6"], "time": [1515, 2349, 3179, 3433, 4479, 4496, 4680, 4729, 5712, 6413, 6448, 6682, 7382, 8179, 8328, 9062, 10077, 11177, 11912, 11977]}, "edge": {"target": [], "time": []}}}, "displayed_time": "14.30", "trialTime": 15303, "trial_type": "mouselab-mdp", "trial_index": 41, "time_elapsed": 765631, "internal_node_id": "0.0-4.0-3.0-1.0"}}, {"uniqueid": "w82762592:a51871552", "current_trial": 42, "dateTime": 1664873990180, "trialdata": {"revealed_states": [], "num_clicks_accrued": [0, 0, 0, 0, 0, 0, 0, 0, 0, 0, 0, 0, 0], "stateRewards": ["", 2, 4, 48, 24, -2, -8, 24, 24, -2, 4, -48, 24], "withholdReward": true, "trial_id": "mdp_130849500124", "block": "test2", "trialIndex": 34, "score": 58.25, "costs": -0.75, "simulationMode": [null, null, null], "rewards": [2, 4, 48], "path": ["0", "0", "1", "2", "3"], "rt": [3730, 7, 23], "actions": ["up", "up", "right"], "actionTimes": [5572, 6091, 6637], "queries": {"click": {"state": {"target": ["1", "2", "3"], "time": [3092, 4107, 4864]}, "edge": {"target": [], "time": []}}, "mouseover": {"state": {"target": ["1", "2", "3"], "time": [2430, 3731, 4513]}, "edge": {"target": [], "time": []}}, "mouseout": {"state": {"target": ["1", "2", "3"], "time": [3680, 4462, 5348]}, "edge": {"target": [], "time": []}}}, "displayed_time": "10.84", "trialTime": 11620, "trial_type": "mouselab-mdp", "trial_index": 42, "time_elapsed": 777374, "internal_node_id": "0.0-4.0-3.0-2.0"}}, {"uniqueid": "w82762592:a51871552", "current_trial": 43, "dateTime": 1664874008381, "trialdata": {"revealed_states": [], "num_clicks_accrued": [0, 0, 0, 0, 0, 0, 0, 0, 0, 0, 0, 0, 0], "stateRewards": ["", 2, 4, -48, -48, 4, 4, -48, -48, -2, -8, 48, -24], "withholdReward": true, "trial_id": "mdp_175327338412", "block": "test2", "trialIndex": 35, "score": 40, "costs": -3, "simulationMode": [null, null, null], "rewards": [-2, -8, 48], "path": ["0", "0", "9", "10", "11"], "rt": [13378, 61, 13], "actions": ["left", "left", "up"], "actionTimes": [14737, 15313, 15852], "queries": {"click": {"state": {"target": ["1", "2", "3", "4", "9", "5", "6", "7", "8", "10", "12", "11"], "time": [2389, 3243, 4027, 5114, 6294, 7338, 8063, 8777, 10065, 11719, 12501, 13502]}, "edge": {"target": [], "time": []}}, "mouseover": {"state": {"target": ["1", "2", "3", "4", "9", "0", "5", "6", "7", "8", "10", "12", "11"], "time": [2057, 2825, 3589, 4704, 6006, 6705, 7020, 7697, 8387, 9735, 11419, 12184, 12984]}, "edge": {"target": [], "time": []}}, "mouseout": {"state": {"target": ["1", "2", "3", "2", "4", "1", "9", "0", "5", "6", "7", "6", "8", "10", "12", "10", "11", "1"], "time": [2773, 3559, 4539, 4655, 5503, 5721, 6688, 6787, 7653, 8369, 9136, 9286, 10652, 12050, 12735, 12850, 13850, 13922]}, "edge": {"target": [], "time": []}}}, "displayed_time": "16.37", "trialTime": 18036, "trial_type": "mouselab-mdp", "trial_index": 43, "time_elapsed": 795576, "internal_node_id": "0.0-4.0-3.0-3.0"}}, {"uniqueid": "w82762592:a51871552", "current_trial": 44, "dateTime": 1664874017701, "trialdata": {"revealed_states": [], "num_clicks_accrued": [0, 0, 0, 0, 0, 0, 0, 0, 0, 0, 0, 0, 0], "stateRewards": ["", 4, 8, -24, 48, 4, -8, -48, 48, -4, 8, -24, -48], "withholdReward": true, "trial_id": "mdp_376126356841", "block": "test2", "trialIndex": 36, "score": 48, "costs": -1, "simulationMode": [null, null, null], "rewards": [4, -8, 48], "path": ["0", "0", "5", "6", "8"], "rt": [4459, 124, 568], "actions": ["right", "right", "down"], "actionTimes": [5808, 6469, 7574], "queries": {"click": {"state": {"target": ["5", "6", "7", "8"], "time": [2165, 3060, 3796, 5012]}, "edge": {"target": [], "time": []}}, "mouseover": {"state": {"target": ["5", "6", "7", "8"], "time": [1865, 2564, 3395, 4645]}, "edge": {"target": [], "time": []}}, "mouseout": {"state": {"target": ["5", "6", "7", "6", "8"], "time": [2531, 3314, 4463, 4562, 5262]}, "edge": {"target": [], "time": []}}}, "displayed_time": "8.35", "trialTime": 9188, "trial_type": "mouselab-mdp", "trial_index": 44, "time_elapsed": 804896, "internal_node_id": "0.0-4.0-3.0-4.0"}}, {"uniqueid": "w82762592:a51871552", "current_trial": 45, "dateTime": 1664874036395, "trialdata": {"revealed_states": [], "num_clicks_accrued": [0, 0, 0, 0, 0, 0, 0, 0, 0, 0, 0, 0, 0], "stateRewards": ["", -4, 4, -48, -48, -4, 8, -24, 24, 2, -4, 48, 48], "withholdReward": true, "trial_id": "mdp_821566905048", "block": "test2", "trialIndex": 37, "score": 49, "costs": -2, "simulationMode": [null, null, null], "rewards": [2, -4, 48], "path": ["0", "0", "9", "10", "11"], "rt": [13079, 12, 75], "actions": ["left", "left", "up"], "actionTimes": [14523, 15075, 15666], "queries": {"click": {"state": {"target": ["5", "1", "6", "7", "8", "9", "10", "11"], "time": [5061, 6004, 7968, 8802, 9895, 11711, 12525, 13164]}, "edge": {"target": [], "time": []}}, "mouseover": {"state": {"target": ["5", "1", "4", "6", "7", "8", "0", "9", "10", "11", "12"], "time": [2512, 5592, 6743, 7556, 8474, 9578, 10757, 11373, 12207, 12824, 13538]}, "edge": {"target": [], "time": []}}, "mouseout": {"state": {"target": ["5", "0", "5", "1", "4", "5", "6", "7", "6", "8", "6", "5", "0", "9", "10", "11", "10", "12", "9"], "time": [864, 1894, 5513, 6492, 7208, 7474, 8374, 9225, 9408, 10157, 10594, 10708, 11240, 12072, 12772, 13488, 13522, 13955, 14007]}, "edge": {"target": [], "time": []}}}, "displayed_time": "16.19", "trialTime": 18516, "trial_type": "mouselab-mdp", "trial_index": 45, "time_elapsed": 823589, "internal_node_id": "0.0-4.0-3.0-5.0"}}, {"uniqueid": "w82762592:a51871552", "current_trial": 46, "dateTime": 1664874054835, "trialdata": {"revealed_states": [], "num_clicks_accrued": [0, 0, 0, 0, 0, 0, 0, 0, 0, 0, 0, 0, 0], "stateRewards": ["", -4, 8, 24, -24, 4, -8, -24, -24, -2, 8, -48, 24], "withholdReward": false, "trial_id": "mdp_240302100183", "block": "test2", "trialIndex": 38, "score": 33, "costs": -2, "simulationMode": [null, null, null], "rewards": [-2, 8, 24], "path": ["0", "0", "9", "10", "12"], "rt": [14126, 67, 55], "actions": ["left", "left", "down"], "actionTimes": [15442, 16022, 16593], "queries": {"click": {"state": {"target": ["9", "10", "11", "12", "7", "8", "3", "4"], "time": [2115, 2874, 3555, 4450, 7027, 8095, 9372, 10147]}, "edge": {"target": [], "time": []}}, "mouseover": {"state": {"target": ["9", "10", "11", "12", "7", "7", "6", "7", "6", "8", "2", "3", "2", "4"], "time": [1810, 2560, 3210, 3960, 5842, 6132, 6209, 6690, 7539, 7791, 8791, 9008, 9606, 9739]}, "edge": {"target": [], "time": []}}, "mouseout": {"state": {"target": ["0", "9", "10", "11", "12", "9", "7", "7", "6", "7", "6", "8", "2", "3", "2", "4"], "time": [1731, 2408, 3159, 3911, 5175, 5242, 6007, 6175, 6524, 7440, 7622, 8375, 8849, 9589, 9673, 10555]}, "edge": {"target": [], "time": []}}}, "displayed_time": "17.12", "trialTime": 18280, "trial_type": "mouselab-mdp", "trial_index": 46, "time_elapsed": 842030, "internal_node_id": "0.0-4.0-3.0-6.0"}}, {"uniqueid": "w82762592:a51871552", "current_trial": 47, "dateTime": 1664874064869, "trialdata": {"revealed_states": [], "num_clicks_accrued": [0, 0, 0, 0, 0, 0, 0, 0, 0, 0, 0, 0, 0], "stateRewards": ["", -4, 8, 24, -24, -2, 4, -24, 48, -2, 8, -48, -24], "withholdReward": true, "trial_id": "mdp_799359103169", "block": "test2", "trialIndex": 39, "score": 54, "costs": -1, "simulationMode": [null, null, null], "rewards": [-2, 4, 48], "path": ["0", "0", "5", "6", "8"], "rt": [5485, 71, 8], "actions": ["right", "right", "down"], "actionTimes": [6816, 7405, 7926], "queries": {"click": {"state": {"target": ["7", "8", "11", "12"], "time": [2304, 3383, 4890, 5805]}, "edge": {"target": [], "time": []}}, "mouseover": {"state": {"target": ["7", "6", "8", "0", "9", "11", "10", "12", "0", "5", "6"], "time": [1934, 2869, 2920, 3835, 3869, 4450, 5268, 5499, 6133, 6183, 6268]}, "edge": {"target": [], "time": []}}, "mouseout": {"state": {"target": ["7", "6", "8", "0", "9", "11", "10", "12", "0", "5", "6"], "time": [2818, 2902, 3752, 3852, 4383, 5232, 5316, 6083, 6149, 6233, 8999]}, "edge": {"target": [], "time": []}}}, "displayed_time": "9.33", "trialTime": 9914, "trial_type": "mouselab-mdp", "trial_index": 47, "time_elapsed": 852064, "internal_node_id": "0.0-4.0-3.0-7.0"}}, {"uniqueid": "w82762592:a51871552", "current_trial": 48, "dateTime": 1664874075398, "trialdata": {"revealed_states": [], "num_clicks_accrued": [0, 0, 0, 0, 0, 0, 0, 0, 0, 0, 0, 0, 0], "stateRewards": ["", 4, 4, 24, -24, -4, -8, 48, -24, 4, 4, 48, 24], "withholdReward": true, "trial_id": "mdp_822446942217", "block": "test2", "trialIndex": 40, "score": 39.75, "costs": -1.25, "simulationMode": [null, null, null], "rewards": [-4, -8, 48], "path": ["0", "0", "5", "6", "7"], "rt": [6071, 38, 32], "actions": ["right", "right", "up"], "actionTimes": [7528, 8083, 8628], "queries": {"click": {"state": {"target": ["3", "4", "7", "5", "6"], "time": [2449, 3406, 4351, 5529, 6232]}, "edge": {"target": [], "time": []}}, "mouseover": {"state": {"target": ["3", "2", "4", "7", "6", "5", "6"], "time": [2164, 2762, 3013, 3812, 4911, 5128, 5829]}, "edge": {"target": [], "time": []}}, "mouseout": {"state": {"target": ["8", "5", "3", "2", "4", "7", "6", "5", "6"], "time": [840, 996, 2745, 2816, 3694, 4763, 4960, 5811, 9659]}, "edge": {"target": [], "time": []}}}, "displayed_time": "9.46", "trialTime": 10393, "trial_type": "mouselab-mdp", "trial_index": 48, "time_elapsed": 862593, "internal_node_id": "0.0-4.0-3.0-8.0"}}, {"uniqueid": "w82762592:a51871552", "current_trial": 49, "dateTime": 1664874087054, "trialdata": {"revealed_states": [], "num_clicks_accrued": [0, 0, 0, 0, 0, 0, 0, 0, 0, 0, 0, 0, 0], "stateRewards": ["", 2, 4, -48, -24, 2, 8, 24, 48, -2, 4, 48, -48], "withholdReward": true, "trial_id": "mdp_551894842204", "block": "test2", "trialIndex": 41, "score": 54.75, "costs": -0.25, "simulationMode": [null, null, null], "rewards": [-2, 4, 48], "path": ["0", "0", "9", "10", "11"], "rt": [2374, 74, 363], "actions": ["left", "left", "up"], "actionTimes": [3982, 4563, 5435], "queries": {"click": {"state": {"target": ["11"], "time": [2570]}, "edge": {"target": [], "time": []}}, "mouseover": {"state": {"target": ["9", "11", "10"], "time": [1921, 2238, 2875]}, "edge": {"target": [], "time": []}}, "mouseout": {"state": {"target": ["0", "9", "11", "10"], "time": [1136, 1938, 2855, 2892]}, "edge": {"target": [], "time": []}}}, "displayed_time": "10.61", "trialTime": 11462, "trial_type": "mouselab-mdp", "trial_index": 49, "time_elapsed": 874249, "internal_node_id": "0.0-4.0-3.0-9.0"}}, {"uniqueid": "w82762592:a51871552", "current_trial": 50, "dateTime": 1664874098623, "trialdata": {"revealed_states": [], "num_clicks_accrued": [0, 0, 0, 0, 0, 0, 0, 0, 0, 0, 0, 0, 0], "stateRewards": ["", -2, -8, -24, -24, 4, -4, -48, 48, 2, 8, 48, -48], "withholdReward": true, "trial_id": "mdp_498095124548", "block": "test2", "trialIndex": 42, "score": 52, "costs": -1, "simulationMode": [null, null, null], "rewards": [4, -4, 48], "path": ["0", "0", "5", "6", "8"], "rt": [5744, 67, 31], "actions": ["right", "right", "down"], "actionTimes": [7360, 7940, 8486], "queries": {"click": {"state": {"target": ["7", "8", "6", "5"], "time": [3033, 4582, 5890, 6907]}, "edge": {"target": [], "time": []}}, "mouseover": {"state": {"target": ["5", "7", "1", "0", "8", "5", "6", "5"], "time": [2072, 2388, 3521, 3804, 4091, 5239, 5553, 6621]}, "edge": {"target": [], "time": []}}, "mouseout": {"state": {"target": ["0", "5", "7", "1", "0", "8", "5", "6", "5"], "time": [2057, 2123, 3471, 3539, 3821, 4903, 5288, 6436, 9618]}, "edge": {"target": [], "time": []}}}, "displayed_time": "10.62", "trialTime": 11471, "trial_type": "mouselab-mdp", "trial_index": 50, "time_elapsed": 885818, "internal_node_id": "0.0-4.0-3.0-10.0"}}, {"uniqueid": "w82762592:a51871552", "current_trial": 51, "dateTime": 1664874109401, "trialdata": {"revealed_states": [], "num_clicks_accrued": [0, 0, 0, 0, 0, 0, 0, 0, 0, 0, 0, 0, 0], "stateRewards": ["", -2, 8, 48, 24, 2, -8, -24, -48, -4, 8, -48, 24], "withholdReward": true, "trial_id": "mdp_224053025943", "block": "test2", "trialIndex": 43, "score": 58.25, "costs": -0.75, "simulationMode": [null, null, null], "rewards": [-2, 8, 48], "path": ["0", "0", "1", "2", "3"], "rt": [2893, 8, 402], "actions": ["up", "up", "right"], "actionTimes": [5068, 5593, 6521], "queries": {"click": {"state": {"target": ["3", "2", "1"], "time": [2941, 3968, 4683]}, "edge": {"target": [], "time": []}}, "mouseover": {"state": {"target": ["3", "2", "1"], "time": [2532, 3417, 4316]}, "edge": {"target": [], "time": []}}, "mouseout": {"state": {"target": ["0", "3", "2"], "time": [984, 3350, 4266]}, "edge": {"target": [], "time": []}}}, "displayed_time": "10.17", "trialTime": 10664, "trial_type": "mouselab-mdp", "trial_index": 51, "time_elapsed": 896595, "internal_node_id": "0.0-4.0-3.0-11.0"}}, {"uniqueid": "w82762592:a51871552", "current_trial": 52, "dateTime": 1664874128693, "trialdata": {"revealed_states": [], "num_clicks_accrued": [0, 0, 0, 0, 0, 0, 0, 0, 0, 0, 0, 0, 0], "stateRewards": ["", -2, -8, 24, -48, 4, 4, -24, -48, -2, -8, -48, 24], "withholdReward": true, "trial_id": "mdp_556006673466", "block": "test2", "trialIndex": 44, "score": 16.5, "costs": -2.5, "simulationMode": [null, null, null], "rewards": [-2, -8, 24], "path": ["0", "0", "1", "2", "3"], "rt": [15276, 49, 26], "actions": ["up", "up", "right"], "actionTimes": [16623, 17186, 17744], "queries": {"click": {"state": {"target": ["1", "5", "6", "7", "8", "9", "11", "12", "4", "3"], "time": [2124, 3219, 4366, 5071, 5958, 7616, 8562, 9498, 10958, 12245]}, "edge": {"target": [], "time": []}}, "mouseover": {"state": {"target": ["1", "5", "6", "7", "8", "9", "11", "10", "12", "2", "4", "3"], "time": [1761, 2925, 3977, 4674, 5607, 7289, 8223, 8908, 9237, 10555, 10721, 11955]}, "edge": {"target": [], "time": []}}, "mouseout": {"state": {"target": ["1", "1", "5", "5", "6", "7", "6", "8", "5", "9", "11", "10", "12", "9", "1", "2", "4", "3", "5"], "time": [808, 2394, 3556, 3890, 4639, 5413, 5457, 6190, 6290, 7955, 8875, 8956, 9904, 9988, 10154, 10571, 11355, 12652, 18867]}, "edge": {"target": [], "time": []}}}, "displayed_time": "18.27", "trialTime": 19154, "trial_type": "mouselab-mdp", "trial_index": 52, "time_elapsed": 915888, "internal_node_id": "0.0-4.0-3.0-12.0"}}, {"uniqueid": "w82762592:a51871552", "current_trial": 53, "dateTime": 1664874142639, "trialdata": {"revealed_states": [], "num_clicks_accrued": [0, 0, 0, 0, 0, 0, 0, 0, 0, 0, 0, 0, 0], "stateRewards": ["", -2, -8, -24, -48, -2, -4, 48, -48, 4, 4, -48, 48], "withholdReward": false, "trial_id": "mdp_156977432949", "block": "test2", "trialIndex": 45, "score": 59, "costs": -2, "simulationMode": [null, null, null], "rewards": [4, 4, 48], "path": ["0", "0", "9", "10", "12"], "rt": [9010, 105, 49], "actions": ["left", "left", "down"], "actionTimes": [10766, 11380, 11941], "queries": {"click": {"state": {"target": ["3", "7", "6", "5", "11", "12", "9", "10"], "time": [2981, 3817, 5405, 6031, 7440, 8666, 9784, 10338]}, "edge": {"target": [], "time": []}}, "mouseover": {"state": {"target": ["1", "2", "3", "7", "6", "8", "6", "5", "11", "12", "12", "9", "10"], "time": [2193, 2280, 2677, 3362, 4127, 4311, 4977, 5727, 7177, 7892, 8193, 9257, 10023]}, "edge": {"target": [], "time": []}}, "mouseout": {"state": {"target": ["0", "1", "2", "3", "7", "6", "8", "6", "5", "11", "12", "12", "9"], "time": [910, 2247, 2494, 3313, 4092, 4176, 4926, 5643, 6858, 7842, 7908, 9165, 9990]}, "edge": {"target": [], "time": []}}}, "displayed_time": "12.47", "trialTime": 13745, "trial_type": "mouselab-mdp", "trial_index": 53, "time_elapsed": 929834, "internal_node_id": "0.0-4.0-3.0-13.0"}}, {"uniqueid": "w82762592:a51871552", "current_trial": 54, "dateTime": 1664874158450, "trialdata": {"revealed_states": [], "num_clicks_accrued": [0, 0, 0, 0, 0, 0, 0, 0, 0, 0, 0, 0, 0], "stateRewards": ["", -4, -8, -48, 48, -2, -8, -48, -24, 4, 8, 24, -48], "withholdReward": true, "trial_id": "mdp_509977295685", "block": "test2", "trialIndex": 46, "score": 38.75, "costs": -2.25, "simulationMode": [null, null, null], "rewards": [-4, -8, 48], "path": ["0", "0", "1", "2", "4"], "rt": [10266, 375, 91], "actions": ["up", "up", "left"], "actionTimes": [11751, 12640, 13239], "queries": {"click": {"state": {"target": ["1", "5", "9", "11", "12", "7", "8", "3", "4"], "time": [2171, 3357, 4233, 5179, 6144, 7303, 8217, 9396, 10281]}, "edge": {"target": [], "time": []}}, "mouseover": {"state": {"target": ["1", "2", "5", "9", "10", "11", "10", "12", "7", "6", "8", "3", "3", "2", "4"], "time": [1801, 2517, 3082, 3948, 4749, 4850, 5566, 5733, 6881, 7666, 7815, 8531, 9063, 9663, 9779]}, "edge": {"target": [], "time": []}}, "mouseout": {"state": {"target": ["10", "9", "1", "2", "1", "5", "9", "10", "11", "10", "12", "5", "7", "6", "8", "3", "3", "2", "4", "1"], "time": [684, 700, 2417, 2699, 2749, 3617, 4556, 4800, 5532, 5650, 6432, 6580, 7633, 7716, 8483, 8547, 9630, 9697, 10597, 10716]}, "edge": {"target": [], "time": []}}}, "displayed_time": "13.75", "trialTime": 15684, "trial_type": "mouselab-mdp", "trial_index": 54, "time_elapsed": 945644, "internal_node_id": "0.0-4.0-3.0-14.0"}}, {"uniqueid": "w82762592:a51871552", "current_trial": 55, "dateTime": 1664874168942, "trialdata": {"revealed_states": [], "num_clicks_accrued": [0, 0, 0, 0, 0, 0, 0, 0, 0, 0, 0, 0, 0], "stateRewards": ["", 2, 4, 48, 48, -2, 4, 48, -24, -4, 8, -48, 48], "withholdReward": true, "trial_id": "mdp_407586865939", "block": "test2", "trialIndex": 47, "score": 58.25, "costs": -0.75, "simulationMode": [null, null, null], "rewards": [2, 4, 48], "path": ["0", "0", "1", "2", "3"], "rt": [4459, 95, 63], "actions": ["up", "up", "right"], "actionTimes": [6059, 6671, 7254], "queries": {"click": {"state": {"target": ["3", "2", "1"], "time": [3523, 4941, 5675]}, "edge": {"target": [], "time": []}}, "mouseover": {"state": {"target": ["1", "1", "2", "3", "3", "7", "2", "1"], "time": [2006, 2240, 2555, 2738, 3272, 4038, 4356, 5272]}, "edge": {"target": [], "time": []}}, "mouseout": {"state": {"target": ["0", "1", "1", "2", "3", "3", "7", "2"], "time": [1938, 2123, 2344, 2707, 2768, 3890, 4209, 5238]}, "edge": {"target": [], "time": []}}}, "displayed_time": "9.60", "trialTime": 10372, "trial_type": "mouselab-mdp", "trial_index": 55, "time_elapsed": 956137, "internal_node_id": "0.0-4.0-3.0-15.0"}}, {"uniqueid": "w82762592:a51871552", "current_trial": 56, "dateTime": 1664874185264, "trialdata": {"revealed_states": [], "num_clicks_accrued": [0, 0, 0, 0, 0, 0, 0, 0, 0, 0, 0, 0, 0], "stateRewards": ["", -4, 4, 24, 24, -2, 8, 24, -48, 4, -8, -24, -48], "withholdReward": false, "trial_id": "mdp_651542905861", "block": "test2", "trialIndex": 48, "score": 27, "costs": -2, "simulationMode": [null, null, null], "rewards": [-4, 4, 24], "path": ["0", "0", "1", "2", "3"], "rt": [11422, 19, 71], "actions": ["up", "up", "right"], "actionTimes": [13254, 13784, 14390], "queries": {"click": {"state": {"target": ["1", "7", "3", "8", "12", "11", "4", "2"], "time": [3072, 5549, 6303, 7231, 8096, 9493, 10571, 12513]}, "edge": {"target": [], "time": []}}, "mouseover": {"state": {"target": ["1", "1", "2", "5", "6", "7", "3", "6", "8", "12", "10", "11", "4", "2"], "time": [2382, 2701, 3400, 4382, 4498, 5183, 5866, 6697, 6781, 7647, 8331, 9051, 9848, 11096]}, "edge": {"target": [], "time": []}}, "mouseout": {"state": {"target": ["1", "0", "1", "1", "2", "1", "5", "6", "7", "3", "6", "8", "12", "10", "11", "4"], "time": [738, 2300, 2449, 3349, 3651, 3682, 4398, 4603, 5800, 6632, 6748, 7547, 8298, 8365, 9796, 11062]}, "edge": {"target": [], "time": []}}}, "displayed_time": "14.90", "trialTime": 16143, "trial_type": "mouselab-mdp", "trial_index": 56, "time_elapsed": 972459, "internal_node_id": "0.0-4.0-3.0-16.0"}}, {"uniqueid": "w82762592:a51871552", "current_trial": 57, "dateTime": 1664874201596, "trialdata": {"revealed_states": [], "num_clicks_accrued": [0, 0, 0, 0, 0, 0, 0, 0, 0, 0, 0, 0, 0], "stateRewards": ["", 2, -4, -24, -24, -2, -8, -48, 24, -4, -8, 24, 24], "withholdReward": true, "trial_id": "mdp_521351546461", "block": "test2", "trialIndex": 49, "score": 15, "costs": -2, "simulationMode": [null, null, null], "rewards": [-4, -8, 24], "path": ["0", "0", "9", "10", "11"], "rt": [9236, 71, 571], "actions": ["left", "left", "up"], "actionTimes": [10549, 11140, 12225], "queries": {"click": {"state": {"target": ["3", "7", "8", "12", "11", "4", "9", "10"], "time": [2289, 3043, 3869, 5045, 6001, 6838, 8659, 9342]}, "edge": {"target": [], "time": []}}, "mouseover": {"state": {"target": ["1", "3", "7", "6", "8", "5", "9", "12", "10", "11", "4", "9", "9", "10"], "time": [1636, 1904, 2653, 3353, 3402, 4151, 4419, 4618, 5302, 5637, 6517, 7984, 8301, 8983]}, "edge": {"target": [], "time": []}}, "mouseout": {"state": {"target": ["2", "1", "1", "3", "7", "6", "8", "5", "9", "12", "10", "11", "4", "9", "9", "10"], "time": [653, 719, 1719, 2570, 3335, 3368, 4101, 4287, 4484, 5286, 5401, 6268, 7916, 8016, 8916, 13298]}, "edge": {"target": [], "time": []}}}, "displayed_time": "12.73", "trialTime": 16153, "trial_type": "mouselab-mdp", "trial_index": 57, "time_elapsed": 988791, "internal_node_id": "0.0-4.0-3.0-17.0"}}, {"uniqueid": "w82762592:a51871552", "current_trial": 58, "dateTime": 1664874215411, "trialdata": {"revealed_states": [], "num_clicks_accrued": [0, 0, 0, 0, 0, 0, 0, 0, 0, 0, 0, 0, 0], "stateRewards": ["", 2, -8, -24, -48, -2, -4, 48, 48, 4, 8, 48, 48], "withholdReward": true, "trial_id": "mdp_347285045422", "block": "test2", "trialIndex": 50, "score": 63, "costs": -2, "simulationMode": [null, null, null], "rewards": [4, 8, 48], "path": ["0", "0", "9", "10", "11"], "rt": [8568, 9, 39], "actions": ["left", "left", "up"], "actionTimes": [10170, 10699, 11260], "queries": {"click": {"state": {"target": ["7", "6", "5", "3", "4", "11", "10", "9"], "time": [2943, 4302, 4905, 6083, 6899, 7674, 8992, 9737]}, "edge": {"target": [], "time": []}}, "mouseover": {"state": {"target": ["5", "7", "6", "8", "6", "5", "3", "2", "4", "11", "10", "12", "10", "9"], "time": [2225, 2674, 3372, 3490, 3940, 4623, 5755, 6356, 6539, 7321, 8005, 8039, 8520, 9438]}, "edge": {"target": [], "time": []}}, "mouseout": {"state": {"target": ["0", "5", "7", "6", "8", "6", "5", "3", "2", "4", "11", "10", "12", "10", "9"], "time": [2190, 2290, 3339, 3456, 3880, 4540, 5139, 6321, 6438, 7209, 7987, 8022, 8421, 9254, 12253]}, "edge": {"target": [], "time": []}}}, "displayed_time": "11.77", "trialTime": 13679, "trial_type": "mouselab-mdp", "trial_index": 58, "time_elapsed": 1002606, "internal_node_id": "0.0-4.0-3.0-18.0"}}, {"uniqueid": "w82762592:a51871552", "current_trial": 59, "dateTime": 1664874229456, "trialdata": {"revealed_states": [], "num_clicks_accrued": [0, 0, 0, 0, 0, 0, 0, 0, 0, 0, 0, 0, 0], "stateRewards": ["", 2, 4, 48, 48, 4, -8, 24, -48, -4, -8, -24, -48], "withholdReward": true, "trial_id": "mdp_343818007251", "block": "test2", "trialIndex": 51, "score": 57, "costs": -2, "simulationMode": [null, null, null], "rewards": [2, 4, 48], "path": ["0", "0", "1", "2", "3"], "rt": [8727, 31, 8], "actions": ["up", "up", "right"], "actionTimes": [10180, 10721, 11245], "queries": {"click": {"state": {"target": ["7", "8", "12", "11", "4", "3", "2", "1"], "time": [2523, 4244, 5379, 6246, 7338, 8147, 9040, 9707]}, "edge": {"target": [], "time": []}}, "mouseover": {"state": {"target": ["7", "6", "2", "5", "8", "12", "10", "11", "4", "4", "2", "3", "2", "1"], "time": [2222, 3071, 3354, 3572, 3920, 4991, 5670, 5703, 6619, 6970, 7620, 7803, 8535, 9368]}, "edge": {"target": [], "time": []}}, "mouseout": {"state": {"target": ["0", "7", "6", "2", "5", "8", "12", "10", "11", "4", "4", "2", "3", "2"], "time": [891, 3056, 3287, 3520, 3589, 4455, 5653, 5688, 6587, 6669, 7586, 7637, 8422, 9318]}, "edge": {"target": [], "time": []}}}, "displayed_time": "11.77", "trialTime": 13929, "trial_type": "mouselab-mdp", "trial_index": 59, "time_elapsed": 1016651, "internal_node_id": "0.0-4.0-3.0-19.0"}}, {"uniqueid": "w82762592:a51871552", "current_trial": 60, "dateTime": 1664874268884, "trialdata": {"revealed_states": [], "num_clicks_accrued": [0, 0, 0, 0, 0, 0, 0, 0, 0, 0, 0, 0, 0], "stateRewards": ["", -2, 8, -48, 48, -4, 8, -24, 24, 4, -4, 24, -48], "withholdReward": true, "trial_id": "mdp_904238083902", "block": "test2", "trialIndex": 52, "score": 58, "costs": -1, "simulationMode": [null, null, null], "rewards": [-2, 8, 48], "path": ["0", "0", "1", "2", "4"], "rt": [6044, 34, 33], "actions": ["up", "up", "left"], "actionTimes": [8022, 8574, 9122], "queries": {"click": {"state": {"target": ["3", "4", "1", "2"], "time": [3175, 4513, 6093, 6717]}, "edge": {"target": [], "time": []}}, "mouseover": {"state": {"target": ["3", "7", "2", "4", "11", "1", "2"], "time": [2807, 3508, 4022, 4073, 4924, 5822, 6340]}, "edge": {"target": [], "time": []}}, "mouseout": {"state": {"target": ["1", "3", "7", "2", "4", "11", "1", "2"], "time": [776, 3473, 3973, 4055, 4874, 5371, 6324, 7322]}, "edge": {"target": [], "time": []}}}, "displayed_time": "9.98", "trialTime": 39299, "trial_type": "mouselab-mdp", "trial_index": 60, "time_elapsed": 1056079, "internal_node_id": "0.0-4.0-3.0-20.0"}}, {"uniqueid": "w82762592:a51871552", "current_trial": 61, "dateTime": 1664874296425, "trialdata": {"revealed_states": [], "num_clicks_accrued": [0, 0, 0, 0, 0, 0, 0, 0, 0, 0, 0, 0, 0], "stateRewards": ["", -4, -4, 24, -48, 2, 4, -24, -48, -2, -8, -24, 24], "withholdReward": false, "trial_id": "mdp_565569130486", "block": "test2", "trialIndex": 53, "score": 18.5, "costs": -2.5, "simulationMode": [null, null, null], "rewards": [-4, -4, 24], "path": ["0", "0", "1", "2", "3"], "rt": [13006, 76, 15], "actions": ["up", "up", "right"], "actionTimes": [24473, 25058, 25583], "queries": {"click": {"state": {"target": ["3", "7", "8", "4", "11", "12", "2", "1", "10", "9"], "time": [12805, 13781, 14873, 15803, 16720, 17756, 20886, 21710, 22879, 23554]}, "edge": {"target": [], "time": []}}, "mouseover": {"state": {"target": ["1", "3", "7", "6", "8", "8", "5", "1", "4", "11", "12", "12", "9", "1", "2", "2", "1", "9", "10", "9"], "time": [12087, 12153, 13354, 14103, 14135, 14556, 15269, 15351, 15434, 16353, 17020, 17417, 18250, 18484, 19783, 20384, 21400, 22298, 22548, 23265]}, "edge": {"target": [], "time": []}}, "mouseout": {"state": {"target": ["1", "1", "3", "7", "6", "8", "8", "5", "1", "4", "11", "12", "12", "9", "1", "2", "2", "1", "9", "10", "9", "1"], "time": [10354, 12121, 13252, 14086, 14119, 14154, 15252, 15302, 15402, 16269, 16986, 17041, 18199, 18417, 19449, 19954, 21249, 22220, 22416, 23181, 23948, 24017]}, "edge": {"target": [], "time": []}}}, "displayed_time": "26.13", "trialTime": 27457, "trial_type": "mouselab-mdp", "trial_index": 61, "time_elapsed": 1083619, "internal_node_id": "0.0-4.0-3.0-21.0"}}, {"uniqueid": "w82762592:a51871552", "current_trial": 62, "dateTime": 1664874307725, "trialdata": {"revealed_states": [], "num_clicks_accrued": [0, 0, 0, 0, 0, 0, 0, 0, 0, 0, 0, 0, 0], "stateRewards": ["", -2, 4, -48, 24, -4, 8, 48, 24, -2, 4, -48, -24], "withholdReward": true, "trial_id": "mdp_740882974347", "block": "test2", "trialIndex": 54, "score": 56, "costs": -1, "simulationMode": [null, null, null], "rewards": [-4, 8, 48], "path": ["0", "0", "5", "6", "7"], "rt": [4770, 44, 140], "actions": ["right", "right", "up"], "actionTimes": [6898, 7468, 8134], "queries": {"click": {"state": {"target": ["3", "7", "5", "6"], "time": [2970, 3794, 5255, 5917]}, "edge": {"target": [], "time": []}}, "mouseover": {"state": {"target": ["3", "7", "2", "4", "5", "6"], "time": [2510, 3357, 4092, 4177, 4958, 5641]}, "edge": {"target": [], "time": []}}, "mouseout": {"state": {"target": ["1", "0", "3", "7", "2", "4", "5", "6"], "time": [1676, 2429, 3292, 4008, 4127, 4392, 5507, 6308]}, "edge": {"target": [], "time": []}}}, "displayed_time": "10.13", "trialTime": 11154, "trial_type": "mouselab-mdp", "trial_index": 62, "time_elapsed": 1094919, "internal_node_id": "0.0-4.0-3.0-22.0"}}, {"uniqueid": "w82762592:a51871552", "current_trial": 63, "dateTime": 1664874323430, "trialdata": {"revealed_states": [], "num_clicks_accrued": [0, 0, 0, 0, 0, 0, 0, 0, 0, 0, 0, 0, 0], "stateRewards": ["", 2, 8, -48, -24, 4, 4, 24, 48, 4, -4, -48, 48], "withholdReward": false, "trial_id": "mdp_665096999232", "block": "test2", "trialIndex": 55, "score": 58.5, "costs": -2.5, "simulationMode": [null, null, null], "rewards": [4, 4, 48], "path": ["0", "0", "5", "6", "8"], "rt": [11155, 39, 579], "actions": ["right", "right", "down"], "actionTimes": [12456, 13014, 14129], "queries": {"click": {"state": {"target": ["3", "7", "4", "11", "12", "8", "5", "9", "6", "10"], "time": [2312, 3158, 4004, 4880, 6168, 6981, 8360, 9085, 10212, 11446]}, "edge": {"target": [], "time": []}}, "mouseover": {"state": {"target": ["1", "2", "3", "7", "2", "4", "11", "10", "12", "8", "0", "9", "9", "5", "5", "9", "6", "10", "10"], "time": [1604, 1789, 2004, 2689, 3453, 3570, 4619, 5209, 5820, 6500, 7303, 7353, 7569, 7653, 8050, 8635, 9934, 10535, 11136]}, "edge": {"target": [], "time": []}}, "mouseout": {"state": {"target": ["5", "1", "2", "3", "7", "2", "4", "11", "10", "12", "8", "0", "9", "9", "5", "5", "9", "6", "5", "9", "10", "10"], "time": [887, 1709, 1839, 2619, 3370, 3504, 4370, 5188, 5302, 6434, 7253, 7319, 7388, 7589, 7751, 8568, 9500, 10416, 10450, 10500, 10666, 11946]}, "edge": {"target": [], "time": []}}}, "displayed_time": "14.65", "trialTime": 15559, "trial_type": "mouselab-mdp", "trial_index": 63, "time_elapsed": 1110625, "internal_node_id": "0.0-4.0-3.0-23.0"}}, {"uniqueid": "w82762592:a51871552", "current_trial": 64, "dateTime": 1664874335887, "trialdata": {"revealed_states": [], "num_clicks_accrued": [0, 0, 0, 0, 0, 0, 0, 0, 0, 0, 0, 0, 0], "stateRewards": ["", 4, 4, 48, -48, 4, 4, -48, 24, 2, 8, 24, -48], "withholdReward": true, "trial_id": "mdp_291674656283", "block": "test2", "trialIndex": 56, "score": 59, "costs": -2, "simulationMode": [null, null, null], "rewards": [4, 4, 48], "path": ["0", "0", "1", "2", "3"], "rt": [7169, 303, 26], "actions": ["up", "up", "right"], "actionTimes": [8780, 9589, 10128], "queries": {"click": {"state": {"target": ["12", "11", "7", "8", "3", "4", "2", "1"], "time": [2515, 3351, 4276, 5424, 6320, 7073, 7748, 8383]}, "edge": {"target": [], "time": []}}, "mouseover": {"state": {"target": ["12", "10", "11", "1", "7", "6", "8", "6", "3", "2", "4", "2", "1"], "time": [2204, 2804, 2888, 3753, 3836, 4738, 5087, 5687, 5902, 6586, 6702, 7468, 8035]}, "edge": {"target": [], "time": []}}, "mouseout": {"state": {"target": ["0", "12", "10", "11", "1", "7", "6", "8", "6", "3", "2", "4", "2"], "time": [1937, 2769, 2854, 3702, 3803, 4687, 4803, 5636, 5702, 6551, 6635, 7352, 8020]}, "edge": {"target": [], "time": []}}}, "displayed_time": "10.65", "trialTime": 12273, "trial_type": "mouselab-mdp", "trial_index": 64, "time_elapsed": 1123082, "internal_node_id": "0.0-4.0-3.0-24.0"}}, {"uniqueid": "w82762592:a51871552", "current_trial": 65, "dateTime": 1664874351854, "trialdata": {"revealed_states": [], "num_clicks_accrued": [0, 0, 0, 0, 0, 0, 0, 0, 0, 0, 0, 0, 0], "stateRewards": ["", -2, 8, -24, 24, 2, -8, 48, -24, 2, 8, -24, -24], "withholdReward": false, "trial_id": "mdp_674708270444", "block": "test2", "trialIndex": 57, "score": 44, "costs": -3, "simulationMode": [null, null, null], "rewards": [2, -8, 48], "path": ["0", "0", "5", "6", "7"], "rt": [11618, 9, 56], "actions": ["right", "right", "up"], "actionTimes": [13096, 13623, 14206], "queries": {"click": {"state": {"target": ["7", "6", "5", "3", "4", "11", "12", "8", "9", "10", "1", "2"], "time": [2359, 3437, 4051, 4917, 5620, 6367, 7110, 8157, 9416, 10069, 11142, 11900]}, "edge": {"target": [], "time": []}}, "mouseover": {"state": {"target": ["5", "7", "6", "6", "5", "3", "2", "4", "11", "10", "12", "8", "8", "0", "9", "10", "1", "2"], "time": [1801, 1952, 2670, 3135, 3751, 4283, 5151, 5300, 5999, 6637, 6699, 7418, 7766, 8532, 8921, 9832, 10747, 11542]}, "edge": {"target": [], "time": []}}, "mouseout": {"state": {"target": ["1", "5", "7", "6", "6", "5", "3", "2", "4", "11", "10", "12", "8", "8", "0", "9", "10", "1", "2", "3"], "time": [869, 1850, 2635, 2802, 3683, 4233, 5118, 5232, 5900, 6635, 6655, 7348, 7443, 8399, 8599, 9717, 10464, 11480, 12264, 12314]}, "edge": {"target": [], "time": []}}}, "displayed_time": "14.73", "trialTime": 15827, "trial_type": "mouselab-mdp", "trial_index": 65, "time_elapsed": 1139049, "internal_node_id": "0.0-4.0-3.0-25.0"}}, {"uniqueid": "w82762592:a51871552", "current_trial": 66, "dateTime": 1664874362603, "trialdata": {"revealed_states": [], "num_clicks_accrued": [0, 0, 0, 0, 0, 0, 0, 0, 0, 0, 0, 0, 0], "stateRewards": ["", 4, -8, 24, 48, 2, -4, 48, 48, 4, -8, 48, 48], "withholdReward": true, "trial_id": "mdp_962498334245", "block": "test2", "trialIndex": 58, "score": 50, "costs": -1, "simulationMode": [null, null, null], "rewards": [2, -4, 48], "path": ["0", "0", "5", "6", "7"], "rt": [4806, 50, 468], "actions": ["right", "right", "up"], "actionTimes": [6571, 7129, 8127], "queries": {"click": {"state": {"target": ["3", "7", "5", "6"], "time": [3027, 3756, 5357, 6013]}, "edge": {"target": [], "time": []}}, "mouseover": {"state": {"target": ["1", "3", "7", "2", "4", "4", "1", "5", "6"], "time": [2328, 2660, 3377, 4027, 4113, 4392, 4627, 5060, 5775]}, "edge": {"target": [], "time": []}}, "mouseout": {"state": {"target": ["5", "0", "1", "3", "7", "2", "4", "4", "1", "5"], "time": [745, 2210, 2378, 3310, 3977, 4077, 4226, 4576, 4662, 5643]}, "edge": {"target": [], "time": []}}}, "displayed_time": "9.77", "trialTime": 10643, "trial_type": "mouselab-mdp", "trial_index": 66, "time_elapsed": 1149798, "internal_node_id": "0.0-4.0-3.0-26.0"}}, {"uniqueid": "w82762592:a51871552", "current_trial": 67, "dateTime": 1664874377395, "trialdata": {"revealed_states": [], "num_clicks_accrued": [0, 0, 0, 0, 0, 0, 0, 0, 0, 0, 0, 0, 0], "stateRewards": ["", -2, -8, 48, 24, 4, -8, 24, 48, 4, -4, 24, -48], "withholdReward": true, "trial_id": "mdp_871576155740", "block": "test2", "trialIndex": 59, "score": 46.5, "costs": -2.5, "simulationMode": [null, null, null], "rewards": [4, -8, 48], "path": ["0", "0", "5", "6", "8"], "rt": [10843, 45, 9], "actions": ["right", "right", "down"], "actionTimes": [12216, 12773, 13287], "queries": {"click": {"state": {"target": ["7", "11", "4", "3", "2", "1", "8", "12", "6", "5"], "time": [2520, 3597, 4523, 5349, 6930, 7783, 8660, 9534, 10564, 11236]}, "edge": {"target": [], "time": []}}, "mouseover": {"state": {"target": ["5", "7", "11", "11", "4", "2", "3", "6", "2", "2", "1", "5", "8", "12", "5", "6", "6", "5"], "time": [1731, 2148, 2915, 3266, 4063, 4831, 4880, 5682, 6214, 6315, 7448, 8063, 8178, 9080, 9812, 9829, 10278, 10844]}, "edge": {"target": [], "time": []}}, "mouseout": {"state": {"target": ["6", "5", "5", "7", "11", "11", "4", "2", "3", "6", "2", "2", "1", "5", "8", "12", "5", "6", "6", "5", "1"], "time": [766, 882, 1750, 2814, 2982, 3864, 4797, 4864, 5635, 5715, 6247, 7245, 8045, 8079, 8845, 9779, 9827, 9877, 10795, 11562, 11849]}, "edge": {"target": [], "time": []}}}, "displayed_time": "13.81", "trialTime": 14661, "trial_type": "mouselab-mdp", "trial_index": 67, "time_elapsed": 1164590, "internal_node_id": "0.0-4.0-3.0-27.0"}}, {"uniqueid": "w82762592:a51871552", "current_trial": 68, "dateTime": 1664874392295, "trialdata": {"revealed_states": [], "num_clicks_accrued": [0, 0, 0, 0, 0, 0, 0, 0, 0, 0, 0, 0, 0], "stateRewards": ["", -4, -4, 24, -48, -2, 8, -24, -48, -4, 4, 24, -48], "withholdReward": false, "trial_id": "mdp_934626330092", "block": "test2", "trialIndex": 60, "score": 27, "costs": -2, "simulationMode": [null, null, null], "rewards": [-4, 4, 24], "path": ["0", "0", "9", "10", "11"], "rt": [9932, 13, 21], "actions": ["left", "left", "up"], "actionTimes": [12207, 12729, 13287], "queries": {"click": {"state": {"target": ["7", "8", "11", "12", "3", "4", "9", "10"], "time": [3295, 4353, 5198, 6033, 6909, 7723, 10692, 11296]}, "edge": {"target": [], "time": []}}, "mouseover": {"state": {"target": ["7", "6", "8", "0", "11", "10", "12", "2", "3", "2", "4", "9", "10", "10", "9", "10"], "time": [2817, 3584, 4066, 4584, 4699, 5532, 5699, 6384, 6416, 7170, 7265, 8915, 8964, 9715, 10398, 11005]}, "edge": {"target": [], "time": []}}, "mouseout": {"state": {"target": ["7", "6", "8", "0", "11", "10", "12", "2", "3", "2", "4", "9", "10", "10", "9", "10", "9"], "time": [3568, 3682, 4533, 4603, 5482, 5565, 6247, 6400, 7149, 7215, 8181, 8947, 9014, 9766, 10913, 11697, 11763]}, "edge": {"target": [], "time": []}}}, "displayed_time": "13.81", "trialTime": 14753, "trial_type": "mouselab-mdp", "trial_index": 68, "time_elapsed": 1179490, "internal_node_id": "0.0-4.0-3.0-28.0"}}, {"uniqueid": "w82762592:a51871552", "current_trial": 69, "dateTime": 1664874407937, "trialdata": {"revealed_states": [], "num_clicks_accrued": [0, 0, 0, 0, 0, 0, 0, 0, 0, 0, 0, 0, 0], "stateRewards": ["", -4, 4, -24, 24, -2, -4, 48, 24, 2, 8, -48, 24], "withholdReward": false, "trial_id": "mdp_150340189492", "block": "test2", "trialIndex": 61, "score": 44.75, "costs": -2.25, "simulationMode": [null, null, null], "rewards": [-2, -4, 48], "path": ["0", "0", "5", "6", "7"], "rt": [10477, 109, 466], "actions": ["right", "right", "up"], "actionTimes": [11850, 12474, 13450], "queries": {"click": {"state": {"target": ["3", "7", "5", "6", "11", "12", "9", "8", "4"], "time": [2337, 3286, 4833, 5504, 6638, 7611, 8417, 9333, 10651]}, "edge": {"target": [], "time": []}}, "mouseover": {"state": {"target": ["1", "3", "3", "7", "2", "5", "6", "11", "10", "12", "9", "8", "1", "2", "4", "1"], "time": [1652, 1669, 2068, 2885, 3700, 4533, 5149, 6335, 6950, 7349, 7865, 8899, 9782, 9882, 10365, 11165]}, "edge": {"target": [], "time": []}}, "mouseout": {"state": {"target": ["1", "1", "3", "3", "7", "2", "5", "6", "5", "11", "10", "12", "9", "8", "5", "1", "2", "4", "1"], "time": [837, 1668, 1686, 2767, 3551, 3887, 5083, 5750, 5818, 6933, 7150, 7815, 8666, 9631, 9748, 9831, 10280, 11130, 11266]}, "edge": {"target": [], "time": []}}}, "displayed_time": "13.96", "trialTime": 15536, "trial_type": "mouselab-mdp", "trial_index": 69, "time_elapsed": 1195132, "internal_node_id": "0.0-4.0-3.0-29.0"}}, {"uniqueid": "w82762592:a51871552", "current_trial": 70, "dateTime": 1664874410220, "trialdata": {"rt": 2277, "stimulus": "<h1> End of block! </h1>\n\nYou have reached the end of the block 2/4. If you need a short break, feel free to take one now before moving on.\n\n<br><br>\nIn the next block, you will complete another 30 rounds of this game.\n\n<br><br>\n<div style='text-align: center;'>Press <code>space</code> to begin.</div>\n<br><br>\n<div style='text-align: center;'>(If the experiment doesn't continue, try clicking on the text and then pressing <code>space</code>.)</div>", "response": " ", "trial_id": "mdp_ready_3", "trial_type": "html-keyboard-response", "trial_index": 70, "time_elapsed": 1197415, "internal_node_id": "0.0-4.0-4.0"}}, {"uniqueid": "w82762592:a51871552", "current_trial": 71, "dateTime": 1664874421790, "trialdata": {"revealed_states": [], "num_clicks_accrued": [0, 0, 0, 0, 0, 0, 0, 0, 0, 0, 0, 0, 0], "stateRewards": ["", 2, 8, -48, -24, 4, 4, 24, 48, 4, -4, -48, 48], "withholdReward": true, "trial_id": "mdp_665096999232", "block": "test3", "trialIndex": 62, "score": 59.5, "costs": -1.5, "simulationMode": [null, null, null], "rewards": [4, 4, 48], "path": ["0", "0", "5", "6", "8"], "rt": [6488, 65, 48], "actions": ["right", "right", "down"], "actionTimes": [8183, 8761, 9323], "queries": {"click": {"state": {"target": ["3", "7", "4", "8", "5", "6"], "time": [3001, 3746, 4571, 5567, 6848, 7848]}, "edge": {"target": [], "time": []}}, "mouseover": {"state": {"target": ["1", "3", "3", "7", "2", "4", "8", "11", "5", "5", "6"], "time": [2262, 2297, 2593, 3377, 4060, 4293, 5193, 5943, 6275, 6457, 7259]}, "edge": {"target": [], "time": []}}, "mouseout": {"state": {"target": ["0", "0", "1", "3", "3", "7", "2", "4", "8", "11", "5", "5"], "time": [811, 2127, 2278, 2312, 3314, 3959, 4109, 4944, 5793, 6143, 6344, 7091]}, "edge": {"target": [], "time": []}}}, "displayed_time": "9.86", "trialTime": 11456, "trial_type": "mouselab-mdp", "trial_index": 71, "time_elapsed": 1208985, "internal_node_id": "0.0-4.0-5.0-0.0"}}, {"uniqueid": "w82762592:a51871552", "current_trial": 72, "dateTime": 1664874435416, "trialdata": {"revealed_states": [], "num_clicks_accrued": [0, 0, 0, 0, 0, 0, 0, 0, 0, 0, 0, 0, 0], "stateRewards": ["", -2, 8, 24, -48, -2, -4, 24, 48, 2, 8, -48, -48], "withholdReward": false, "trial_id": "mdp_562228697607", "block": "test3", "trialIndex": 63, "score": 45, "costs": -2, "simulationMode": [null, null, null], "rewards": [-2, -4, 48], "path": ["0", "0", "5", "6", "8"], "rt": [9583, 19, 34], "actions": ["right", "right", "down"], "actionTimes": [10903, 11438, 12002], "queries": {"click": {"state": {"target": ["3", "7", "11", "12", "8", "5", "6", "4"], "time": [2410, 3247, 4242, 5077, 6086, 7704, 8468, 9811]}, "edge": {"target": [], "time": []}}, "mouseover": {"state": {"target": ["3", "7", "1", "11", "10", "12", "8", "5", "4", "1", "5", "6", "1", "4"], "time": [2102, 2769, 3720, 3870, 4551, 4621, 5751, 6352, 6919, 6984, 7216, 8132, 8883, 9486]}, "edge": {"target": [], "time": []}}, "mouseout": {"state": {"target": ["6", "5", "3", "7", "1", "11", "10", "12", "8", "5", "4", "1", "5", "6", "1", "4", "7"], "time": [636, 836, 2702, 3672, 3737, 4535, 4585, 5440, 6318, 6370, 6951, 7018, 7986, 8732, 8901, 10431, 10515]}, "edge": {"target": [], "time": []}}}, "displayed_time": "12.52", "trialTime": 13479, "trial_type": "mouselab-mdp", "trial_index": 72, "time_elapsed": 1222611, "internal_node_id": "0.0-4.0-5.0-1.0"}}, {"uniqueid": "w82762592:a51871552", "current_trial": 73, "dateTime": 1664874449844, "trialdata": {"revealed_states": [], "num_clicks_accrued": [0, 0, 0, 0, 0, 0, 0, 0, 0, 0, 0, 0, 0], "stateRewards": ["", -2, -8, 48, -24, 2, -4, -48, -24, -2, -4, -48, 48], "withholdReward": true, "trial_id": "mdp_143798438087", "block": "test3", "trialIndex": 64, "score": 44.5, "costs": -2.5, "simulationMode": [null, null, null], "rewards": [-2, -4, 48], "path": ["0", "0", "9", "10", "12"], "rt": [10872, 89, 7], "actions": ["left", "left", "down"], "actionTimes": [12231, 12842, 13360], "queries": {"click": {"state": {"target": ["8", "7", "11", "12", "9", "10", "3", "4", "2", "1"], "time": [2311, 3710, 4606, 5461, 6770, 8017, 9105, 9951, 10895, 11610]}, "edge": {"target": [], "time": []}}, "mouseover": {"state": {"target": ["5", "8", "6", "7", "7", "7", "1", "11", "10", "12", "4", "9", "10", "10", "2", "3", "2", "4", "2", "1"], "time": [1789, 1904, 2537, 2555, 2871, 3329, 3954, 4086, 4953, 5089, 6105, 6406, 7053, 7719, 8502, 8819, 9336, 9375, 10245, 11269]}, "edge": {"target": [], "time": []}}, "mouseout": {"state": {"target": ["0", "5", "8", "6", "7", "7", "7", "1", "11", "10", "12", "4", "9", "10", "10", "2", "3", "2", "4", "2"], "time": [1754, 1823, 2520, 2554, 2571, 2939, 3922, 3971, 4901, 5002, 5654, 6168, 7021, 7120, 8468, 8534, 9301, 9355, 10217, 11149]}, "edge": {"target": [], "time": []}}}, "displayed_time": "13.88", "trialTime": 14298, "trial_type": "mouselab-mdp", "trial_index": 73, "time_elapsed": 1237039, "internal_node_id": "0.0-4.0-5.0-2.0"}}, {"uniqueid": "w82762592:a51871552", "current_trial": 74, "dateTime": 1664874460451, "trialdata": {"revealed_states": [], "num_clicks_accrued": [0, 0, 0, 0, 0, 0, 0, 0, 0, 0, 0, 0, 0], "stateRewards": ["", -4, -4, -24, -24, -2, 4, 48, -24, -2, -4, -24, 48], "withholdReward": true, "trial_id": "mdp_855903341564", "block": "test3", "trialIndex": 65, "score": 54, "costs": -1, "simulationMode": [null, null, null], "rewards": [-2, 4, 48], "path": ["0", "0", "5", "6", "7"], "rt": [5198, 22, 56], "actions": ["right", "right", "up"], "actionTimes": [6890, 7431, 8014], "queries": {"click": {"state": {"target": ["3", "7", "6", "5"], "time": [2709, 4348, 5677, 6352]}, "edge": {"target": [], "time": []}}, "mouseover": {"state": {"target": ["3", "7", "6", "6", "5"], "time": [2108, 3305, 4689, 5356, 6071]}, "edge": {"target": [], "time": []}}, "mouseout": {"state": {"target": ["1", "3", "7", "6", "6"], "time": [740, 3223, 4655, 4739, 5971]}, "edge": {"target": [], "time": []}}}, "displayed_time": "9.69", "trialTime": 10498, "trial_type": "mouselab-mdp", "trial_index": 74, "time_elapsed": 1247646, "internal_node_id": "0.0-4.0-5.0-3.0"}}, {"uniqueid": "w82762592:a51871552", "current_trial": 75, "dateTime": 1664874476309, "trialdata": {"revealed_states": [], "num_clicks_accrued": [0, 0, 0, 0, 0, 0, 0, 0, 0, 0, 0, 0, 0], "stateRewards": ["", -4, -4, -48, 48, -4, -8, -24, -48, -2, 8, 48, 24], "withholdReward": false, "trial_id": "mdp_365393526663", "block": "test3", "trialIndex": 66, "score": 56.5, "costs": -2.5, "simulationMode": [null, null, null], "rewards": [-2, 8, 48], "path": ["0", "0", "9", "10", "11"], "rt": [9924, 30, 70], "actions": ["left", "left", "up"], "actionTimes": [11662, 12204, 12794], "queries": {"click": {"state": {"target": ["3", "4", "2", "1", "7", "8", "12", "11", "10", "9"], "time": [2700, 3614, 4774, 5516, 6393, 7448, 8585, 9472, 10497, 11193]}, "edge": {"target": [], "time": []}}, "mouseover": {"state": {"target": ["3", "2", "4", "2", "1", "7", "6", "8", "12", "10", "11", "10", "9"], "time": [2210, 3013, 3312, 4393, 5094, 5992, 6726, 7126, 8241, 8824, 8842, 10173, 10790]}, "edge": {"target": [], "time": []}}, "mouseout": {"state": {"target": ["5", "3", "2", "4", "2", "1", "7", "6", "8", "12", "10", "11", "10"], "time": [711, 2994, 3077, 4275, 5060, 5861, 6709, 6940, 7675, 8790, 8840, 9875, 10772]}, "edge": {"target": [], "time": []}}}, "displayed_time": "13.31", "trialTime": 15697, "trial_type": "mouselab-mdp", "trial_index": 75, "time_elapsed": 1263503, "internal_node_id": "0.0-4.0-5.0-4.0"}}, {"uniqueid": "w82762592:a51871552", "current_trial": 76, "dateTime": 1664874486929, "trialdata": {"revealed_states": [], "num_clicks_accrued": [0, 0, 0, 0, 0, 0, 0, 0, 0, 0, 0, 0, 0], "stateRewards": ["", 4, 8, -24, 48, 4, -8, -48, 48, -4, 8, -24, -48], "withholdReward": true, "trial_id": "mdp_376126356841", "block": "test3", "trialIndex": 67, "score": 47.75, "costs": -1.25, "simulationMode": [null, null, null], "rewards": [4, -8, 48], "path": ["0", "0", "5", "6", "8"], "rt": [6065, 75, 66], "actions": ["right", "right", "down"], "actionTimes": [7700, 8296, 8869], "queries": {"click": {"state": {"target": ["3", "7", "8", "5", "6"], "time": [2569, 3434, 4340, 5687, 6405]}, "edge": {"target": [], "time": []}}, "mouseover": {"state": {"target": ["3", "7", "6", "8", "0", "9", "9", "0", "5", "6"], "time": [2069, 2986, 3754, 4103, 4667, 4702, 5034, 5135, 5267, 6119]}, "edge": {"target": [], "time": []}}, "mouseout": {"state": {"target": ["9", "0", "3", "7", "6", "8", "0", "9", "9", "0", "5"], "time": [656, 2004, 2919, 3719, 3870, 4584, 4685, 4752, 5102, 5201, 5952]}, "edge": {"target": [], "time": []}}}, "displayed_time": "9.63", "trialTime": 10434, "trial_type": "mouselab-mdp", "trial_index": 76, "time_elapsed": 1274124, "internal_node_id": "0.0-4.0-5.0-5.0"}}, {"uniqueid": "w82762592:a51871552", "current_trial": 77, "dateTime": 1664874503422, "trialdata": {"revealed_states": [], "num_clicks_accrued": [0, 0, 0, 0, 0, 0, 0, 0, 0, 0, 0, 0, 0], "stateRewards": ["", -2, -4, -48, 48, -4, 4, -48, 24, -4, -8, 24, 48], "withholdReward": true, "trial_id": "mdp_264482284450", "block": "test3", "trialIndex": 68, "score": 44.5, "costs": -2.5, "simulationMode": [null, null, null], "rewards": [-2, -4, 48], "path": ["0", "0", "1", "2", "4"], "rt": [12280, 27, 48], "actions": ["up", "up", "left"], "actionTimes": [13712, 14258, 14826], "queries": {"click": {"state": {"target": ["3", "4", "2", "1", "11", "7", "8", "12", "9", "10"], "time": [2648, 3581, 4648, 5330, 6659, 7796, 8714, 9667, 10563, 11288]}, "edge": {"target": [], "time": []}}, "mouseover": {"state": {"target": ["3", "2", "4", "2", "1", "11", "7", "6", "8", "12", "12", "9", "10", "5", "6"], "time": [1900, 2965, 3248, 4281, 4932, 6364, 7096, 8129, 8412, 8980, 9379, 10045, 11028, 11996, 12018]}, "edge": {"target": [], "time": []}}, "mouseout": {"state": {"target": ["6", "5", "0", "3", "2", "4", "2", "1", "11", "1", "7", "6", "8", "12", "12", "9", "10", "5", "6"], "time": [750, 847, 1831, 2948, 3067, 4097, 4916, 6192, 6963, 7012, 8097, 8262, 8914, 9046, 10012, 10894, 11945, 12016, 12032]}, "edge": {"target": [], "time": []}}}, "displayed_time": "15.36", "trialTime": 16393, "trial_type": "mouselab-mdp", "trial_index": 77, "time_elapsed": 1290617, "internal_node_id": "0.0-4.0-5.0-6.0"}}, {"uniqueid": "w82762592:a51871552", "current_trial": 78, "dateTime": 1664874514452, "trialdata": {"revealed_states": [], "num_clicks_accrued": [0, 0, 0, 0, 0, 0, 0, 0, 0, 0, 0, 0, 0], "stateRewards": ["", 2, -8, -48, 24, 4, 8, 48, -48, 2, -4, 24, 24], "withholdReward": true, "trial_id": "mdp_130475327289", "block": "test3", "trialIndex": 69, "score": 64, "costs": -1, "simulationMode": [null, null, null], "rewards": [4, 8, 48], "path": ["0", "0", "5", "6", "7"], "rt": [4653, 46, 25], "actions": ["right", "right", "up"], "actionTimes": [6074, 6643, 7189], "queries": {"click": {"state": {"target": ["8", "7", "5", "6"], "time": [2453, 3354, 4833, 5513]}, "edge": {"target": [], "time": []}}, "mouseover": {"state": {"target": ["8", "6", "7", "1", "1", "6", "5", "6"], "time": [2140, 2732, 3063, 3678, 4030, 4261, 4533, 5261]}, "edge": {"target": [], "time": []}}, "mouseout": {"state": {"target": ["0", "8", "6", "7", "1", "1", "6", "5"], "time": [1846, 2697, 2759, 3628, 3700, 4049, 4378, 5111]}, "edge": {"target": [], "time": []}}}, "displayed_time": "10.42", "trialTime": 10929, "trial_type": "mouselab-mdp", "trial_index": 78, "time_elapsed": 1301646, "internal_node_id": "0.0-4.0-5.0-7.0"}}, {"uniqueid": "w82762592:a51871552", "current_trial": 79, "dateTime": 1664874534737, "trialdata": {"revealed_states": [], "num_clicks_accrued": [0, 0, 0, 0, 0, 0, 0, 0, 0, 0, 0, 0, 0], "stateRewards": ["", 2, 4, -48, -24, -4, 4, -24, 24, -2, -8, -24, 24], "withholdReward": true, "trial_id": "mdp_640720803523", "block": "test3", "trialIndex": 70, "score": 26.5, "costs": -2.5, "simulationMode": [null, null, null], "rewards": [-4, 4, 24], "path": ["0", "0", "5", "6", "8"], "rt": [14132, 357, 123], "actions": ["right", "right", "down"], "actionTimes": [16053, 16944, 17581], "queries": {"click": {"state": {"target": ["7", "12", "8", "11", "4", "3", "5", "6", "9", "10"], "time": [2880, 5245, 6130, 7590, 8756, 9794, 12811, 13608, 14523, 15207]}, "edge": {"target": [], "time": []}}, "mouseover": {"state": {"target": ["5", "7", "3", "2", "2", "2", "6", "8", "12", "8", "11", "4", "4", "2", "3", "0", "0", "5", "6", "9", "10"], "time": [2309, 2359, 3659, 3725, 3936, 4260, 4310, 4477, 4710, 5728, 7241, 7914, 8409, 9123, 9474, 12088, 12307, 12341, 13256, 14030, 14875]}, "edge": {"target": [], "time": []}}, "mouseout": {"state": {"target": ["6", "5", "0", "5", "7", "7", "3", "2", "2", "2", "6", "8", "12", "8", "11", "4", "4", "2", "3", "0", "0", "5", "6", "5", "9"], "time": [1244, 1393, 2277, 2326, 3475, 3610, 3693, 3760, 4077, 4278, 4360, 4542, 5528, 6526, 7892, 7947, 9024, 9391, 10374, 12272, 12323, 13088, 13822, 13878, 14773]}, "edge": {"target": [], "time": []}}}, "displayed_time": "18.09", "trialTime": 20167, "trial_type": "mouselab-mdp", "trial_index": 79, "time_elapsed": 1321932, "internal_node_id": "0.0-4.0-5.0-8.0"}}, {"uniqueid": "w82762592:a51871552", "current_trial": 80, "dateTime": 1664874549147, "trialdata": {"revealed_states": [], "num_clicks_accrued": [0, 0, 0, 0, 0, 0, 0, 0, 0, 0, 0, 0, 0], "stateRewards": ["", -2, -4, 48, -24, 2, -4, -24, -48, 2, 8, -48, -24], "withholdReward": true, "trial_id": "mdp_238243948191", "block": "test3", "trialIndex": 71, "score": 45, "costs": -2, "simulationMode": [null, null, null], "rewards": [-2, -4, 48], "path": ["0", "0", "1", "2", "3"], "rt": [10446, 30, 25], "actions": ["up", "up", "right"], "actionTimes": [12010, 12555, 13098], "queries": {"click": {"state": {"target": ["4", "3", "2", "1", "7", "8", "12", "11"], "time": [2427, 3352, 4620, 5364, 6281, 7479, 9068, 10156]}, "edge": {"target": [], "time": []}}, "mouseover": {"state": {"target": ["4", "2", "3", "2", "1", "7", "6", "8", "12", "12", "12", "10", "11"], "time": [2058, 2758, 3025, 4209, 4958, 6007, 6877, 7008, 7806, 8053, 8746, 9340, 9422]}, "edge": {"target": [], "time": []}}, "mouseout": {"state": {"target": ["10", "9", "0", "4", "2", "3", "3", "2", "1", "7", "6", "8", "12", "12", "12", "10", "11", "2"], "time": [859, 942, 1753, 2725, 2859, 3709, 4173, 4907, 5623, 6840, 6958, 7725, 7841, 8154, 9321, 9372, 10620, 10721]}, "edge": {"target": [], "time": []}}}, "displayed_time": "13.61", "trialTime": 14301, "trial_type": "mouselab-mdp", "trial_index": 80, "time_elapsed": 1336342, "internal_node_id": "0.0-4.0-5.0-9.0"}}, {"uniqueid": "w82762592:a51871552", "current_trial": 81, "dateTime": 1664874563422, "trialdata": {"revealed_states": [], "num_clicks_accrued": [0, 0, 0, 0, 0, 0, 0, 0, 0, 0, 0, 0, 0], "stateRewards": ["", 4, 4, -48, -24, -2, -4, 48, 24, -4, 4, 24, -48], "withholdReward": false, "trial_id": "mdp_617383046444", "block": "test3", "trialIndex": 72, "score": 45, "costs": -2, "simulationMode": [null, null, null], "rewards": [-2, -4, 48], "path": ["0", "0", "5", "6", "7"], "rt": [10104, 22, 25], "actions": ["right", "right", "up"], "actionTimes": [11646, 12182, 12725], "queries": {"click": {"state": {"target": ["3", "7", "6", "5", "9", "10", "11", "12"], "time": [2526, 3644, 5252, 6401, 7495, 8486, 9106, 10475]}, "edge": {"target": [], "time": []}}, "mouseover": {"state": {"target": ["3", "7", "2", "6", "6", "5", "9", "10", "11", "12", "12"], "time": [2255, 3304, 3953, 4503, 4787, 5703, 7203, 8052, 8870, 9701, 10168]}, "edge": {"target": [], "time": []}}, "mou