{"condition": 1, "counterbalance": 0, "assignmentId": "a58866069", "workerId": "w32853883", "hitId": "h12874723", "currenttrial": 137, "bonus": 0, "data": [{"uniqueid": "w32853883:a58866069", "current_trial": 0, "dateTime": 1664873088854, "trialdata": {"success": true, "trial_type": "fullscreen", "trial_index": 0, "time_elapsed": 3110, "internal_node_id": "0.0-0.0"}}, {"uniqueid": "w32853883:a58866069", "current_trial": 1, "dateTime": 1664873204515, "trialdata": {"view_history": [{"page_index": 0, "viewing_time": 115656}], "rt": 115657, "trial_id": "exp_instructions_no_distractor", "trial_type": "instructions", "trial_index": 1, "time_elapsed": 118772, "internal_node_id": "0.0-1.0"}}, {"uniqueid": "w32853883:a58866069", "current_trial": 2, "dateTime": 1664873213090, "trialdata": {"success": true, "trial_type": "fullscreen", "trial_index": 2, "time_elapsed": 127347, "internal_node_id": "0.0-2.0-0.0"}}, {"uniqueid": "w32853883:a58866069", "current_trial": 3, "dateTime": 1664873302411, "trialdata": {"view_history": [{"page_index": 0, "viewing_time": 38761}, {"page_index": 1, "viewing_time": 17626}, {"page_index": 2, "viewing_time": 6199}, {"page_index": 3, "viewing_time": 12781}, {"page_index": 4, "viewing_time": 13953}], "rt": 89320, "trial_id": "mouselab_instructions_1", "trial_type": "instructions", "trial_index": 3, "time_elapsed": 216668, "internal_node_id": "0.0-2.0-1.0"}}, {"uniqueid": "w32853883:a58866069", "current_trial": 4, "dateTime": 1664873321076, "trialdata": {"revealed_states": [], "num_clicks_accrued": [0, 0, 0, 0, 0, 0, 0, 0, 0, 0, 0, 0, 0], "stateRewards": ["", 10, 10, -10, 10, -10, 10, -10, 10, 10, 10, -10, 10], "withholdReward": false, "trial_id": "practice_1", "block": "test", "trialIndex": 0, "score": 30.25, "costs": -1.75, "simulationMode": [null, null, null], "rewards": [10, 10, 10], "path": ["0", "0", "1", "2", "4"], "rt": [11569, 237, 219], "actions": ["up", "up", "left"], "actionTimes": [13587, 14322, 15042], "queries": {"click": {"state": {"target": ["5", "1", "9", "10", "2", "3", "4"], "time": [3793, 4842, 5984, 6959, 7462, 8408, 11416]}, "edge": {"target": [], "time": []}}, "mouseover": {"state": {"target": ["5", "0", "1", "0", "9", "10", "2", "0", "3", "0", "4"], "time": [3497, 4165, 4349, 4972, 5684, 6890, 7321, 7940, 8322, 8802, 11353]}, "edge": {"target": [], "time": []}}, "mouseout": {"state": {"target": ["5", "0", "5", "0", "1", "0", "9", "10", "9", "1", "2", "1", "0", "1", "2", "3", "0", "9", "9", "4", "9"], "time": [627, 2095, 3916, 4193, 4951, 4986, 6226, 7100, 7182, 7272, 7551, 7579, 7960, 8134, 8267, 8516, 8816, 9795, 11038, 11520, 11596]}, "edge": {"target": [], "time": []}}}, "displayed_time": "15.55", "trialTime": 18514, "trial_type": "mouselab-mdp", "trial_index": 4, "time_elapsed": 235333, "internal_node_id": "0.0-2.0-2.0-0.0"}}, {"uniqueid": "w32853883:a58866069", "current_trial": 5, "dateTime": 1664873331603, "trialdata": {"revealed_states": [], "num_clicks_accrued": [0, 0, 0, 0, 0, 0, 0, 0, 0, 0, 0, 0, 0], "stateRewards": ["", -10, 10, 10, -10, 10, 10, 10, 10, 10, -10, -10, 10], "withholdReward": false, "trial_id": "practice_2", "block": "test", "trialIndex": 1, "score": 30.25, "costs": -1.75, "simulationMode": [null, null, null], "rewards": [10, 10, 10], "path": ["0", "0", "5", "6", "7"], "rt": [6302, 185, 90], "actions": ["right", "right", "up"], "actionTimes": [7509, 8197, 8789], "queries": {"click": {"state": {"target": ["1", "9", "5", "6", "10", "7", "8"], "time": [2169, 2481, 3149, 4007, 4599, 5726, 6313]}, "edge": {"target": [], "time": []}}, "mouseover": {"state": {"target": ["1", "9", "5", "5", "6", "8", "10", "10", "7", "8"], "time": [2122, 2408, 2791, 3074, 3631, 4159, 4347, 4555, 5674, 6112]}, "edge": {"target": [], "time": []}}, "mouseout": {"state": {"target": ["12", "9", "1", "9", "5", "5", "6", "8", "10", "10", "9", "9", "5", "7", "6", "8"], "time": [745, 808, 2332, 2699, 2825, 3248, 4117, 4173, 4353, 4791, 5007, 5354, 5396, 5891, 6009, 6390]}, "edge": {"target": [], "time": []}}}, "displayed_time": "9.29", "trialTime": 10469, "trial_type": "mouselab-mdp", "trial_index": 5, "time_elapsed": 245860, "internal_node_id": "0.0-2.0-2.0-1.0"}}, {"uniqueid": "w32853883:a58866069", "current_trial": 6, "dateTime": 1664873394456, "trialdata": {"view_history": [{"page_index": 0, "viewing_time": 46943}, {"page_index": 1, "viewing_time": 10503}, {"page_index": 2, "viewing_time": 5404}], "rt": 62851, "trial_id": "mouselab_instructions_2_scarce", "trial_type": "instructions", "trial_index": 6, "time_elapsed": 308713, "internal_node_id": "0.0-2.0-3.0"}}, {"uniqueid": "w32853883:a58866069", "current_trial": 7, "dateTime": 1664873419802, "trialdata": {"rt": 25341, "response": {"Q0": "$-48 to $48", "Q1": "The cost is always $0.25.", "Q2": "The better I perform the higher my bonus will be.", "Q3": "No, the amount of cash at each node of the web may be different each time.", "Q4": "The values of the nodes walked through from start to finish.", "Q5": "No, the spider might forget to count the money on some rounds."}, "question_order": [0, 1, 2, 3, 4, 5], "correct": {"Q0": "$-48 to $48", "Q1": "The cost is always $0.25.", "Q2": "The better I perform the higher my bonus will be.", "Q3": "No, the amount of cash at each node of the web may be different each time.", "Q4": "The values of the nodes walked through from start to finish.", "Q5": "No, the spider might forget to count the money on some rounds."}, "trial_id": "mouselab_quiz_scarce", "trial_type": "survey-multi-choice", "trial_index": 7, "time_elapsed": 334059, "internal_node_id": "0.0-2.0-4.0"}}, {"uniqueid": "w32853883:a58866069", "current_trial": 8, "dateTime": 1664873428164, "trialdata": {"rt": 8354, "stimulus": "\n<h1> Get ready to start the game! </h1>\n\nThank you for reading the instructions. Get ready start with the first of 4 block(s) of this game.\n<br><br>\nIn this first block, you will complete 30 rounds of this game before moving on.\n<br><br>\nRemember, the more money the spider gets, the bigger your bonus will be!\n<br><br>\n<div style='text-align: center;'>Press <code>space</code> to begin.</div>\n\n<br><br>\n(If, at any point, the <code>space</code> key does not take you to the next page, click once on the text and try again.)", "response": " ", "trial_id": "mdp_ready_1", "trial_type": "html-keyboard-response", "trial_index": 8, "time_elapsed": 342421, "internal_node_id": "0.0-4.0-0.0"}}, {"uniqueid": "w32853883:a58866069", "current_trial": 9, "dateTime": 1664873444323, "trialdata": {"revealed_states": [], "num_clicks_accrued": [0, 0, 0, 0, 0, 0, 0, 0, 0, 0, 0, 0, 0], "stateRewards": ["", 2, 4, 48, 48, -2, 4, 48, -24, -4, 8, -48, 48], "withholdReward": false, "trial_id": "mdp_407586865939", "block": "test1", "trialIndex": 2, "score": 57.75, "costs": -1.25, "simulationMode": [null, null, null], "rewards": [2, 4, 48], "path": ["0", "0", "1", "2", "3"], "rt": [9905, 183, 447], "actions": ["up", "up", "right"], "actionTimes": [12035, 12723, 13667], "queries": {"click": {"state": {"target": ["5", "1", "9", "2", "3"], "time": [3095, 4209, 4761, 7642, 10578]}, "edge": {"target": [], "time": []}}, "mouseover": {"state": {"target": ["5", "0", "1", "9", "0", "2", "2", "3"], "time": [2618, 3515, 4056, 4682, 5252, 5350, 7082, 8882]}, "edge": {"target": [], "time": []}}, "mouseout": {"state": {"target": ["0", "5", "0", "1", "9", "0", "1", "2", "2", "3", "2"], "time": [2222, 3230, 3556, 4412, 4968, 5274, 5328, 5767, 7874, 10751, 10987]}, "edge": {"target": [], "time": []}}}, "displayed_time": "14.17", "trialTime": 16099, "trial_type": "mouselab-mdp", "trial_index": 9, "time_elapsed": 358580, "internal_node_id": "0.0-4.0-1.0-0.0"}}, {"uniqueid": "w32853883:a58866069", "current_trial": 10, "dateTime": 1664873471012, "trialdata": {"revealed_states": [], "num_clicks_accrued": [0, 0, 0, 0, 0, 0, 0, 0, 0, 0, 0, 0, 0], "stateRewards": ["", -4, -8, 48, 24, 4, -8, 24, -48, -2, -8, 24, -48], "withholdReward": true, "trial_id": "mdp_952038635544", "block": "test1", "trialIndex": 3, "score": 38.5, "costs": -2.5, "simulationMode": [null, null, null], "rewards": [-4, -8, 48], "path": ["0", "0", "1", "2", "3"], "rt": [19402, 159, 298], "actions": ["up", "up", "right"], "actionTimes": [23082, 23738, 24538], "queries": {"click": {"state": {"target": ["1", "9", "5", "6", "7", "8", "2", "10", "11", "3"], "time": [4955, 5228, 5575, 6506, 7167, 8045, 10429, 11458, 11910, 16596]}, "edge": {"target": [], "time": []}}, "mouseover": {"state": {"target": ["5", "5", "1", "9", "0", "5", "6", "7", "8", "4", "2", "2", "10", "10", "11", "12", "0", "3"], "time": [3892, 4149, 4914, 5199, 5449, 5492, 6367, 7104, 7646, 9847, 9995, 10301, 11018, 11191, 11872, 12397, 13735, 15988]}, "edge": {"target": [], "time": []}}, "mouseout": {"state": {"target": ["0", "0", "5", "5", "1", "9", "0", "5", "6", "7", "6", "8", "4", "2", "2", "9", "10", "10", "11", "10", "12", "9", "0", "1", "2", "3", "1"], "time": [3393, 3781, 3941, 4191, 5087, 5365, 5457, 5685, 6916, 7271, 7382, 8139, 9968, 10072, 10553, 10996, 11052, 11593, 12011, 12143, 12949, 13699, 13791, 15791, 15925, 16693, 26024]}, "edge": {"target": [], "time": []}}}, "displayed_time": "25.04", "trialTime": 26634, "trial_type": "mouselab-mdp", "trial_index": 10, "time_elapsed": 385269, "internal_node_id": "0.0-4.0-1.0-1.0"}}, {"uniqueid": "w32853883:a58866069", "current_trial": 11, "dateTime": 1664873486996, "trialdata": {"revealed_states": [], "num_clicks_accrued": [0, 0, 0, 0, 0, 0, 0, 0, 0, 0, 0, 0, 0], "stateRewards": ["", 2, 8, -48, 24, -2, 4, 48, 48, -2, -8, 48, 24], "withholdReward": false, "trial_id": "mdp_157355418411", "block": "test1", "trialIndex": 4, "score": 53, "costs": -2, "simulationMode": [null, null, null], "rewards": [-2, 4, 48], "path": ["0", "0", "5", "6", "7"], "rt": [11710, 77, 44], "actions": ["right", "right", "up"], "actionTimes": [12871, 13447, 13991], "queries": {"click": {"state": {"target": ["5", "1", "9", "2", "10", "7", "4", "6"], "time": [2128, 2988, 3443, 4712, 6665, 7894, 9369, 11683]}, "edge": {"target": [], "time": []}}, "mouseover": {"state": {"target": ["0", "5", "1", "1", "9", "0", "2", "2", "0", "10", "11", "10", "7", "6", "0", "4", "6"], "time": [1232, 1976, 2379, 2671, 3310, 3915, 4165, 4611, 4855, 5576, 5820, 6334, 7578, 8224, 8683, 9180, 11556]}, "edge": {"target": [], "time": []}}, "mouseout": {"state": {"target": ["1", "0", "5", "1", "1", "9", "0", "1", "2", "1", "2", "1", "0", "9", "10", "11", "10", "9", "7", "6", "5", "0", "1", "4", "1", "7", "6"], "time": [842, 1260, 2254, 2546, 3150, 3582, 3929, 4047, 4477, 4584, 4799, 4833, 4868, 5332, 5722, 6167, 6813, 7161, 8065, 8301, 8530, 8704, 8788, 9462, 10031, 10976, 11756]}, "edge": {"target": [], "time": []}}}, "displayed_time": "14.49", "trialTime": 15927, "trial_type": "mouselab-mdp", "trial_index": 11, "time_elapsed": 401253, "internal_node_id": "0.0-4.0-1.0-2.0"}}, {"uniqueid": "w32853883:a58866069", "current_trial": 12, "dateTime": 1664873503076, "trialdata": {"revealed_states": [], "num_clicks_accrued": [0, 0, 0, 0, 0, 0, 0, 0, 0, 0, 0, 0, 0], "stateRewards": ["", -4, 8, 24, -24, 4, -8, -24, -24, -2, 8, -48, 24], "withholdReward": true, "trial_id": "mdp_240302100183", "block": "test1", "trialIndex": 5, "score": 32.5, "costs": -2.5, "simulationMode": [null, null, null], "rewards": [-2, 8, 24], "path": ["0", "0", "9", "10", "12"], "rt": [12175, 9, 38], "actions": ["left", "left", "down"], "actionTimes": [13188, 13700, 14243], "queries": {"click": {"state": {"target": ["7", "3", "4", "11", "12", "8", "10", "2", "9", "1"], "time": [1981, 3082, 3652, 4592, 5146, 5648, 8381, 9315, 10979, 11669]}, "edge": {"target": [], "time": []}}, "mouseover": {"state": {"target": ["0", "5", "6", "7", "6", "8", "3", "1", "4", "10", "11", "10", "12", "8", "9", "10", "9", "1", "2", "1", "0", "9", "0", "1"], "time": [1163, 1233, 1337, 1698, 2096, 2293, 3012, 3347, 3520, 4027, 4312, 4743, 4979, 5556, 7689, 7933, 8538, 8879, 9233, 9442, 9831, 10089, 11284, 11576]}, "edge": {"target": [], "time": []}}, "mouseout": {"state": {"target": ["8", "0", "0", "0", "5", "6", "7", "6", "8", "3", "1", "4", "10", "11", "10", "12", "8", "8", "9", "10", "9", "1", "2", "1", "0", "9", "0", "1"], "time": [655, 801, 927, 1177, 1246, 1406, 2061, 2137, 2638, 3243, 3401, 3728, 4097, 4708, 4875, 5278, 5737, 7154, 7822, 8503, 8601, 9052, 9421, 9484, 9936, 11153, 11340, 11840]}, "edge": {"target": [], "time": []}}}, "displayed_time": "14.75", "trialTime": 16020, "trial_type": "mouselab-mdp", "trial_index": 12, "time_elapsed": 417333, "internal_node_id": "0.0-4.0-1.0-3.0"}}, {"uniqueid": "w32853883:a58866069", "current_trial": 13, "dateTime": 1664873516532, "trialdata": {"revealed_states": [], "num_clicks_accrued": [0, 0, 0, 0, 0, 0, 0, 0, 0, 0, 0, 0, 0], "stateRewards": ["", -4, 8, -24, 24, -2, -8, 24, -24, 4, -4, -48, 48], "withholdReward": false, "trial_id": "mdp_297684722007", "block": "test1", "trialIndex": 6, "score": 51, "costs": -2, "simulationMode": [null, null, null], "rewards": [4, -4, 48], "path": ["0", "0", "9", "10", "12"], "rt": [8254, 56, 764], "actions": ["left", "left", "down"], "actionTimes": [9880, 10440, 11704], "queries": {"click": {"state": {"target": ["7", "4", "11", "3", "8", "12", "10", "9"], "time": [2802, 3880, 4453, 5871, 6642, 7172, 8684, 9010]}, "edge": {"target": [], "time": []}}, "mouseover": {"state": {"target": ["1", "2", "7", "6", "8", "5", "1", "4", "4", "4", "10", "11", "1", "3", "0", "1", "3", "3", "6", "8", "12", "0", "9", "10", "9"], "time": [2256, 2298, 2606, 2903, 3236, 3279, 3306, 3327, 3556, 3835, 4202, 4370, 4648, 5094, 5259, 5448, 5489, 5711, 6115, 6512, 7038, 8040, 8096, 8597, 8995]}, "edge": {"target": [], "time": []}}, "mouseout": {"state": {"target": ["0", "1", "2", "7", "6", "8", "5", "1", "4", "4", "4", "10", "11", "1", "3", "0", "1", "3", "3", "6", "8", "12", "0", "9", "10", "9"], "time": [1841, 2277, 2514, 2896, 2924, 3264, 3292, 3315, 3341, 3682, 3973, 4279, 4558, 4697, 5162, 5274, 5461, 5510, 5941, 6213, 6741, 7442, 8047, 8527, 8868, 9125]}, "edge": {"target": [], "time": []}}}, "displayed_time": "12.21", "trialTime": 13400, "trial_type": "mouselab-mdp", "trial_index": 13, "time_elapsed": 430789, "internal_node_id": "0.0-4.0-1.0-4.0"}}, {"uniqueid": "w32853883:a58866069", "current_trial": 14, "dateTime": 1664873530836, "trialdata": {"revealed_states": [], "num_clicks_accrued": [0, 0, 0, 0, 0, 0, 0, 0, 0, 0, 0, 0, 0], "stateRewards": ["", 4, 4, -24, -48, 2, 4, 24, -48, 2, 4, 24, 24], "withholdReward": true, "trial_id": "mdp_223558518218", "block": "test1", "trialIndex": 7, "score": 32.25, "costs": -2.75, "simulationMode": [null, null, null], "rewards": [2, 4, 24], "path": ["0", "0", "9", "10", "12"], "rt": [9236, 6, 404], "actions": ["left", "left", "down"], "actionTimes": [11208, 11719, 12632], "queries": {"click": {"state": {"target": ["7", "8", "3", "4", "11", "12", "5", "1", "9", "10", "6"], "time": [2778, 3231, 3887, 4296, 4704, 4991, 6145, 6721, 7415, 8003, 8531]}, "edge": {"target": [], "time": []}}, "mouseover": {"state": {"target": ["5", "6", "5", "6", "7", "6", "8", "6", "3", "3", "1", "4", "11", "10", "12", "0", "5", "1", "9", "9", "10", "0", "10", "0", "6"], "time": [2099, 2147, 2362, 2543, 2724, 2919, 3065, 3530, 3580, 3787, 4142, 4219, 4622, 4831, 4984, 5901, 6040, 6679, 6923, 7180, 7542, 7785, 7917, 8189, 8286]}, "edge": {"target": [], "time": []}}, "mouseout": {"state": {"target": ["0", "9", "9", "0", "5", "6", "5", "6", "7", "6", "8", "6", "3", "3", "1", "4", "11", "10", "12", "0", "5", "1", "9", "9", "10", "9", "0", "9", "10", "9", "0", "5", "6"], "time": [1339, 1362, 1556, 2086, 2127, 2328, 2461, 2682, 2884, 2988, 3309, 3544, 3586, 3990, 4191, 4428, 4810, 4887, 5262, 5944, 6235, 6791, 7007, 7514, 7694, 7723, 7792, 7889, 8111, 8167, 8209, 8265, 8633]}, "edge": {"target": [], "time": []}}}, "displayed_time": "13.13", "trialTime": 14248, "trial_type": "mouselab-mdp", "trial_index": 14, "time_elapsed": 445093, "internal_node_id": "0.0-4.0-1.0-5.0"}}, {"uniqueid": "w32853883:a58866069", "current_trial": 15, "dateTime": 1664873543187, "trialdata": {"revealed_states": [], "num_clicks_accrued": [0, 0, 0, 0, 0, 0, 0, 0, 0, 0, 0, 0, 0], "stateRewards": ["", 2, -8, 48, -24, 2, 8, 24, -24, 4, -4, -48, -48], "withholdReward": true, "trial_id": "mdp_130946197263", "block": "test1", "trialIndex": 8, "score": 45.25, "costs": -1.75, "simulationMode": [null, null, null], "rewards": [2, -8, 48], "path": ["0", "0", "1", "2", "3"], "rt": [6613, 105, 157], "actions": ["up", "up", "right"], "actionTimes": [8122, 8730, 9386], "queries": {"click": {"state": {"target": ["11", "3", "7", "1", "2", "8", "12"], "time": [2145, 3019, 3732, 4317, 4689, 5794, 7064]}, "edge": {"target": [], "time": []}}, "mouseover": {"state": {"target": ["1", "2", "4", "11", "4", "2", "3", "7", "7", "5", "1", "5", "2", "6", "8", "12", "12", "12"], "time": [1692, 1735, 1846, 2097, 2352, 2769, 2903, 3118, 3583, 4125, 4237, 4452, 4640, 5618, 5717, 6156, 6461, 6961]}, "edge": {"target": [], "time": []}}, "mouseout": {"state": {"target": ["5", "0", "9", "1", "2", "4", "11", "4", "2", "3", "7", "7", "5", "1", "5", "2", "6", "8", "8", "12", "12", "12"], "time": [926, 933, 1031, 1720, 1825, 1886, 2284, 2394, 2832, 3097, 3152, 3812, 4146, 4403, 4528, 4765, 5655, 5802, 5968, 6184, 6607, 7177]}, "edge": {"target": [], "time": []}}}, "displayed_time": "10.51", "trialTime": 12298, "trial_type": "mouselab-mdp", "trial_index": 15, "time_elapsed": 457444, "internal_node_id": "0.0-4.0-1.0-6.0"}}, {"uniqueid": "w32853883:a58866069", "current_trial": 16, "dateTime": 1664873554755, "trialdata": {"revealed_states": [], "num_clicks_accrued": [0, 0, 0, 0, 0, 0, 0, 0, 0, 0, 0, 0, 0], "stateRewards": ["", -4, 8, -24, -24, 2, 4, 48, 48, -2, 4, 24, -48], "withholdReward": true, "trial_id": "mdp_397308196941", "block": "test1", "trialIndex": 9, "score": 58, "costs": -1, "simulationMode": [null, null, null], "rewards": [2, 4, 48], "path": ["0", "0", "5", "6", "7"], "rt": [3381, 40, 72], "actions": ["right", "right", "up"], "actionTimes": [4829, 5373, 5949], "queries": {"click": {"state": {"target": ["7", "8", "5", "6"], "time": [2343, 2650, 3675, 3886]}, "edge": {"target": [], "time": []}}, "mouseover": {"state": {"target": ["5", "7", "6", "8", "6", "5", "6"], "time": [1870, 2321, 2543, 2641, 2849, 3649, 3843]}, "edge": {"target": [], "time": []}}, "mouseout": {"state": {"target": ["8", "0", "5", "7", "6", "8", "6", "7", "5", "6"], "time": [659, 1828, 2141, 2481, 2586, 2814, 2891, 2976, 3801, 4004]}, "edge": {"target": [], "time": []}}}, "displayed_time": "10.45", "trialTime": 11516, "trial_type": "mouselab-mdp", "trial_index": 16, "time_elapsed": 469011, "internal_node_id": "0.0-4.0-1.0-7.0"}}, {"uniqueid": "w32853883:a58866069", "current_trial": 17, "dateTime": 1664873567812, "trialdata": {"revealed_states": [], "num_clicks_accrued": [0, 0, 0, 0, 0, 0, 0, 0, 0, 0, 0, 0, 0], "stateRewards": ["", -2, 8, 48, 48, 4, -8, -48, 48, 2, -4, -48, 48], "withholdReward": true, "trial_id": "mdp_132958048709", "block": "test1", "trialIndex": 10, "score": 56.25, "costs": -2.75, "simulationMode": [null, null, null], "rewards": [-2, 8, 48], "path": ["0", "0", "1", "2", "3"], "rt": [8872, 360, 267], "actions": ["up", "up", "right"], "actionTimes": [9809, 10673, 11441], "queries": {"click": {"state": {"target": ["7", "8", "5", "6", "3", "2", "1", "11", "12", "10", "9"], "time": [1634, 2019, 2611, 2918, 3781, 4601, 4792, 6910, 7402, 8263, 8468]}, "edge": {"target": [], "time": []}}, "mouseover": {"state": {"target": ["0", "5", "6", "7", "6", "8", "0", "5", "6", "3", "3", "1", "2", "2", "1", "9", "11", "10", "12", "10", "9", "9", "10", "9"], "time": [986, 1290, 1311, 1582, 1748, 1796, 2366, 2575, 2881, 3472, 3771, 4077, 4140, 4466, 4717, 5412, 6766, 7031, 7315, 7906, 7997, 8115, 8206, 8456]}, "edge": {"target": [], "time": []}}, "mouseout": {"state": {"target": ["6", "5", "0", "5", "6", "7", "6", "8", "0", "5", "6", "8", "5", "3", "3", "1", "2", "2", "1", "9", "11", "10", "12", "10", "9", "9", "10", "9"], "time": [642, 852, 1165, 1296, 1338, 1713, 1776, 2109, 2390, 2784, 3021, 3200, 3388, 3604, 3883, 4091, 4153, 4675, 4953, 5433, 7003, 7066, 7483, 7969, 8032, 8179, 8401, 8595]}, "edge": {"target": [], "time": []}}}, "displayed_time": "11.94", "trialTime": 13009, "trial_type": "mouselab-mdp", "trial_index": 17, "time_elapsed": 482068, "internal_node_id": "0.0-4.0-1.0-8.0"}}, {"uniqueid": "w32853883:a58866069", "current_trial": 18, "dateTime": 1664873579683, "trialdata": {"revealed_states": [], "num_clicks_accrued": [0, 0, 0, 0, 0, 0, 0, 0, 0, 0, 0, 0, 0], "stateRewards": ["", -4, -4, -24, -48, -4, 8, -24, -48, 4, -8, 24, -24], "withholdReward": true, "trial_id": "mdp_924927483179", "block": "test1", "trialIndex": 11, "score": 22.75, "costs": -2.25, "simulationMode": [null, null, null], "rewards": [4, -8, 24], "path": ["0", "0", "9", "10", "11"], "rt": [6420, 24, 55], "actions": ["left", "left", "up"], "actionTimes": [8255, 8782, 9342], "queries": {"click": {"state": {"target": ["7", "8", "3", "4", "11", "12", "2", "10", "9"], "time": [2941, 3411, 4025, 4553, 4867, 5275, 6466, 7175, 7462]}, "edge": {"target": [], "time": []}}, "mouseover": {"state": {"target": ["5", "7", "6", "8", "3", "3", "4", "11", "10", "12", "9", "2", "1", "9", "10", "9"], "time": [2348, 2877, 3099, 3357, 3745, 3982, 4433, 4844, 5039, 5241, 5712, 6373, 6624, 6825, 7076, 7437]}, "edge": {"target": [], "time": []}}, "mouseout": {"state": {"target": ["0", "5", "7", "6", "8", "8", "3", "3", "4", "11", "10", "12", "9", "2", "1", "9", "10", "9"], "time": [2092, 2391, 3071, 3127, 3496, 3704, 3752, 4156, 4732, 4997, 5122, 5393, 5915, 6568, 6637, 6908, 7395, 7597]}, "edge": {"target": [], "time": []}}}, "displayed_time": "10.84", "trialTime": 11822, "trial_type": "mouselab-mdp", "trial_index": 18, "time_elapsed": 493940, "internal_node_id": "0.0-4.0-1.0-9.0"}}, {"uniqueid": "w32853883:a58866069", "current_trial": 19, "dateTime": 1664873592308, "trialdata": {"revealed_states": [], "num_clicks_accrued": [0, 0, 0, 0, 0, 0, 0, 0, 0, 0, 0, 0, 0], "stateRewards": ["", 4, -8, 24, 48, 2, -4, 48, 48, 4, -8, 48, 48], "withholdReward": false, "trial_id": "mdp_962498334245", "block": "test1", "trialIndex": 12, "score": 48, "costs": -3, "simulationMode": [null, null, null], "rewards": [2, -4, 48], "path": ["0", "0", "5", "6", "7"], "rt": [8442, 316, 270], "actions": ["right", "right", "up"], "actionTimes": [9410, 10227, 10994], "queries": {"click": {"state": {"target": ["11", "4", "10", "2", "7", "8", "6", "5", "3", "1", "12", "9"], "time": [1492, 1881, 2371, 3121, 4290, 4566, 5174, 5478, 6265, 6681, 7311, 7951]}, "edge": {"target": [], "time": []}}, "mouseover": {"state": {"target": ["0", "9", "11", "4", "10", "1", "2", "2", "1", "0", "7", "6", "8", "6", "5", "3", "1", "0", "12", "9"], "time": [1269, 1290, 1394, 1748, 2236, 2735, 2784, 2847, 3264, 3341, 4243, 4398, 4516, 5099, 5432, 6045, 6448, 6879, 7296, 7866]}, "edge": {"target": [], "time": []}}, "mouseout": {"state": {"target": ["0", "0", "9", "11", "4", "10", "1", "2", "2", "1", "0", "7", "6", "8", "8", "6", "5", "3", "1", "0", "12", "9"], "time": [1248, 1276, 1311, 1603, 1998, 2465, 2764, 2812, 3236, 3292, 3430, 4362, 4445, 4745, 5057, 5279, 5593, 6336, 6775, 6893, 7580, 8006]}, "edge": {"target": [], "time": []}}}, "displayed_time": "11.50", "trialTime": 12579, "trial_type": "mouselab-mdp", "trial_index": 19, "time_elapsed": 506564, "internal_node_id": "0.0-4.0-1.0-10.0"}}, {"uniqueid": "w32853883:a58866069", "current_trial": 20, "dateTime": 1664873605523, "trialdata": {"revealed_states": [], "num_clicks_accrued": [0, 0, 0, 0, 0, 0, 0, 0, 0, 0, 0, 0, 0], "stateRewards": ["", -2, -8, 24, -48, -4, 8, -48, -24, 4, 8, -24, 24], "withholdReward": true, "trial_id": "mdp_940444641142", "block": "test1", "trialIndex": 13, "score": 39, "costs": -2, "simulationMode": [null, null, null], "rewards": [4, 8, 24], "path": ["0", "0", "9", "10", "12"], "rt": [8218, 42, 381], "actions": ["left", "left", "down"], "actionTimes": [10188, 10732, 11613], "queries": {"click": {"state": {"target": ["11", "7", "3", "4", "8", "12", "2", "10"], "time": [2478, 3287, 3766, 4211, 4697, 5211, 7279, 8169]}, "edge": {"target": [], "time": []}}, "mouseover": {"state": {"target": ["0", "9", "11", "9", "5", "6", "7", "3", "1", "4", "1", "5", "6", "8", "12", "2", "9", "10", "9", "1", "9"], "time": [2187, 2271, 2396, 2646, 2791, 2848, 3278, 3591, 4023, 4203, 4384, 4446, 4522, 4593, 5169, 6829, 7608, 7768, 8721, 8937, 9215]}, "edge": {"target": [], "time": []}}, "mouseout": {"state": {"target": ["0", "0", "9", "11", "9", "5", "6", "7", "7", "3", "1", "4", "1", "5", "6", "8", "12", "2", "9", "10", "9", "1", "9"], "time": [2034, 2215, 2319, 2605, 2660, 2826, 2875, 3397, 3570, 3876, 4057, 4342, 4412, 4489, 4544, 4780, 5323, 7353, 7623, 8262, 8743, 9180, 9541]}, "edge": {"target": [], "time": []}}}, "displayed_time": "12.11", "trialTime": 13164, "trial_type": "mouselab-mdp", "trial_index": 20, "time_elapsed": 519779, "internal_node_id": "0.0-4.0-1.0-11.0"}}, {"uniqueid": "w32853883:a58866069", "current_trial": 21, "dateTime": 1664873617299, "trialdata": {"revealed_states": [], "num_clicks_accrued": [0, 0, 0, 0, 0, 0, 0, 0, 0, 0, 0, 0, 0], "stateRewards": ["", 2, 4, -48, 48, -4, 8, -48, -24, -4, -4, 48, 48], "withholdReward": false, "trial_id": "mdp_613582696541", "block": "test1", "trialIndex": 14, "score": 57.5, "costs": -1.5, "simulationMode": [null, null, null], "rewards": [2, 4, 48], "path": ["0", "0", "1", "2", "4"], "rt": [5280, 140, 156], "actions": ["up", "up", "left"], "actionTimes": [6209, 6850, 7506], "queries": {"click": {"state": {"target": ["4", "11", "2", "10", "1", "9"], "time": [2293, 2772, 3740, 4207, 4915, 5202]}, "edge": {"target": [], "time": []}}, "mouseover": {"state": {"target": ["0", "9", "4", "11", "9", "2", "1", "9", "10", "9", "1", "9", "0", "5", "7"], "time": [1912, 1947, 2246, 2726, 3372, 3587, 3859, 4060, 4165, 4547, 4845, 5131, 5520, 5562, 5610]}, "edge": {"target": [], "time": []}}, "mouseout": {"state": {"target": ["0", "9", "0", "0", "9", "4", "11", "9", "2", "1", "9", "10", "9", "1", "9", "0", "5"], "time": [660, 835, 1044, 1934, 1989, 2364, 2858, 3462, 3824, 3908, 4130, 4345, 4762, 5061, 5339, 5533, 5583]}, "edge": {"target": [], "time": []}}}, "displayed_time": "9.93", "trialTime": 11730, "trial_type": "mouselab-mdp", "trial_index": 21, "time_elapsed": 531556, "internal_node_id": "0.0-4.0-1.0-12.0"}}, {"uniqueid": "w32853883:a58866069", "current_trial": 22, "dateTime": 1664873628787, "trialdata": {"revealed_states": [], "num_clicks_accrued": [0, 0, 0, 0, 0, 0, 0, 0, 0, 0, 0, 0, 0], "stateRewards": ["", 2, -8, 24, 24, 2, 4, -48, -48, 4, 4, -24, 48], "withholdReward": true, "trial_id": "mdp_985707010949", "block": "test1", "trialIndex": 15, "score": 59, "costs": -2, "simulationMode": [null, null, null], "rewards": [4, 4, 48], "path": ["0", "0", "9", "10", "12"], "rt": [5639, 27, 60], "actions": ["left", "left", "down"], "actionTimes": [7378, 7906, 8466], "queries": {"click": {"state": {"target": ["4", "11", "3", "7", "8", "12", "9", "10"], "time": [3332, 3777, 4212, 4687, 5015, 5772, 6363, 6605]}, "edge": {"target": [], "time": []}}, "mouseover": {"state": {"target": ["0", "2", "4", "2", "2", "4", "11", "1", "3", "7", "7", "6", "8", "12", "12", "9", "10"], "time": [1796, 2433, 2723, 2927, 3066, 3302, 3747, 3963, 4164, 4360, 4637, 4811, 4999, 5436, 5591, 6326, 6528]}, "edge": {"target": [], "time": []}}, "mouseout": {"state": {"target": ["7", "1", "0", "0", "2", "4", "2", "2", "4", "11", "1", "3", "7", "7", "6", "8", "12", "12", "9", "10"], "time": [1335, 1370, 1704, 1961, 2577, 2829, 2942, 3108, 3496, 3852, 4018, 4297, 4394, 4785, 4887, 5145, 5472, 5847, 6486, 6717]}, "edge": {"target": [], "time": []}}}, "displayed_time": "10.74", "trialTime": 11442, "trial_type": "mouselab-mdp", "trial_index": 22, "time_elapsed": 543044, "internal_node_id": "0.0-4.0-1.0-13.0"}}, {"uniqueid": "w32853883:a58866069", "current_trial": 23, "dateTime": 1664873640371, "trialdata": {"revealed_states": [], "num_clicks_accrued": [0, 0, 0, 0, 0, 0, 0, 0, 0, 0, 0, 0, 0], "stateRewards": ["", 2, -8, -24, -48, -2, -4, 48, 48, 4, 8, 48, 48], "withholdReward": true, "trial_id": "mdp_347285045422", "block": "test1", "trialIndex": 16, "score": 64.25, "costs": -0.75, "simulationMode": [null, null, null], "rewards": [4, 8, 48], "path": ["0", "0", "9", "10", "11"], "rt": [3061, 538, 174], "actions": ["left", "left", "up"], "actionTimes": [5522, 6562, 7234], "queries": {"click": {"state": {"target": ["11", "10", "9"], "time": [2963, 3658, 4734]}, "edge": {"target": [], "time": []}}, "mouseover": {"state": {"target": ["9", "11", "10", "9", "9", "9"], "time": [2785, 2889, 3604, 3855, 4378, 4675]}, "edge": {"target": [], "time": []}}, "mouseout": {"state": {"target": ["5", "0", "9", "10", "9", "0", "9", "11", "10", "9", "9", "9"], "time": [1476, 1707, 1755, 1900, 1970, 2742, 2812, 3153, 3785, 4104, 4487, 4877]}, "edge": {"target": [], "time": []}}}, "displayed_time": "10.46", "trialTime": 11538, "trial_type": "mouselab-mdp", "trial_index": 23, "time_elapsed": 554628, "internal_node_id": "0.0-4.0-1.0-14.0"}}, {"uniqueid": "w32853883:a58866069", "current_trial": 24, "dateTime": 1664873650403, "trialdata": {"revealed_states": [], "num_clicks_accrued": [0, 0, 0, 0, 0, 0, 0, 0, 0, 0, 0, 0, 0], "stateRewards": ["", 2, 4, -48, -48, 2, 4, 48, -24, -2, 8, 48, -48], "withholdReward": false, "trial_id": "mdp_258528916140", "block": "test1", "trialIndex": 17, "score": 58.25, "costs": -0.75, "simulationMode": [null, null, null], "rewards": [2, 4, 48], "path": ["0", "0", "5", "6", "7"], "rt": [2404, 27, 44], "actions": ["right", "right", "up"], "actionTimes": [3394, 3922, 4466], "queries": {"click": {"state": {"target": ["7", "5", "6"], "time": [1545, 2182, 2505]}, "edge": {"target": [], "time": []}}, "mouseover": {"state": {"target": ["7", "6", "8", "5", "6", "8"], "time": [1495, 1669, 1932, 2121, 2476, 2671]}, "edge": {"target": [], "time": []}}, "mouseout": {"state": {"target": ["0", "7", "6", "8", "5", "6", "8"], "time": [1182, 1656, 1697, 2037, 2399, 2608, 5741]}, "edge": {"target": [], "time": []}}}, "displayed_time": "8.99", "trialTime": 9986, "trial_type": "mouselab-mdp", "trial_index": 24, "time_elapsed": 564660, "internal_node_id": "0.0-4.0-1.0-15.0"}}, {"uniqueid": "w32853883:a58866069", "current_trial": 25, "dateTime": 1664873661379, "trialdata": {"revealed_states": [], "num_clicks_accrued": [0, 0, 0, 0, 0, 0, 0, 0, 0, 0, 0, 0, 0], "stateRewards": ["", 4, 4, 48, -48, -2, -8, -48, -24, 2, 4, -24, -48], "withholdReward": true, "trial_id": "mdp_239929662917", "block": "test1", "trialIndex": 18, "score": 60.25, "costs": -0.75, "simulationMode": [null, null, null], "rewards": [4, 4, 48], "path": ["0", "0", "1", "2", "3"], "rt": [3266, 93, 94], "actions": ["up", "up", "right"], "actionTimes": [5251, 5843, 6435], "queries": {"click": {"state": {"target": ["3", "2", "1"], "time": [3018, 4030, 4444]}, "edge": {"target": [], "time": []}}, "mouseover": {"state": {"target": ["3", "2", "2", "1", "2", "1", "1"], "time": [2565, 3504, 3678, 3809, 3984, 4185, 4380]}, "edge": {"target": [], "time": []}}, "mouseout": {"state": {"target": ["5", "3", "2", "2", "1", "2", "1", "1"], "time": [897, 3169, 3581, 3733, 3948, 4130, 4248, 4540]}, "edge": {"target": [], "time": []}}}, "displayed_time": "9.99", "trialTime": 10931, "trial_type": "mouselab-mdp", "trial_index": 25, "time_elapsed": 575636, "internal_node_id": "0.0-4.0-1.0-16.0"}}, {"uniqueid": "w32853883:a58866069", "current_trial": 26, "dateTime": 1664873673028, "trialdata": {"revealed_states": [], "num_clicks_accrued": [0, 0, 0, 0, 0, 0, 0, 0, 0, 0, 0, 0, 0], "stateRewards": ["", 4, -8, -24, 24, 2, -4, 24, 24, 2, -4, 48, 48], "withholdReward": true, "trial_id": "mdp_457607480918", "block": "test1", "trialIndex": 19, "score": 49, "costs": -2, "simulationMode": [null, null, null], "rewards": [2, -4, 48], "path": ["0", "0", "9", "10", "12"], "rt": [6423, 109, 505], "actions": ["left", "left", "down"], "actionTimes": [7955, 8563, 9571], "queries": {"click": {"state": {"target": ["3", "7", "8", "12", "10", "9", "4", "11"], "time": [2462, 2957, 3461, 4033, 4966, 5342, 6001, 6908]}, "edge": {"target": [], "time": []}}, "mouseover": {"state": {"target": ["6", "7", "3", "6", "7", "6", "8", "12", "10", "9", "10", "9", "4", "4", "11"], "time": [2059, 2142, 2406, 2732, 2905, 3084, 3405, 3956, 4339, 4659, 4901, 5262, 5756, 5947, 6861]}, "edge": {"target": [], "time": []}}, "mouseout": {"state": {"target": ["0", "0", "6", "7", "3", "6", "7", "6", "8", "12", "10", "9", "10", "9", "9", "4", "4", "9", "10", "11", "9"], "time": [711, 1690, 2100, 2198, 2546, 2878, 3060, 3100, 3532, 4304, 4394, 4838, 5109, 5422, 5603, 5770, 6153, 6590, 6715, 6962, 7063]}, "edge": {"target": [], "time": []}}}, "displayed_time": "10.07", "trialTime": 11603, "trial_type": "mouselab-mdp", "trial_index": 26, "time_elapsed": 587284, "internal_node_id": "0.0-4.0-1.0-17.0"}}, {"uniqueid": "w32853883:a58866069", "current_trial": 27, "dateTime": 1664873684741, "trialdata": {"revealed_states": [], "num_clicks_accrued": [0, 0, 0, 0, 0, 0, 0, 0, 0, 0, 0, 0, 0], "stateRewards": ["", -4, 4, -24, -24, -4, -8, 24, 48, 4, -4, 24, 48], "withholdReward": false, "trial_id": "mdp_175395325183", "block": "test1", "trialIndex": 20, "score": 50.75, "costs": -2.25, "simulationMode": [null, null, null], "rewards": [4, -4, 48], "path": ["0", "0", "9", "10", "12"], "rt": [7332, 26, 73], "actions": ["left", "left", "down"], "actionTimes": [8690, 9218, 9794], "queries": {"click": {"state": {"target": ["3", "4", "11", "12", "10", "8", "6", "9", "5"], "time": [1893, 2286, 2976, 3434, 4608, 5845, 6661, 7351, 7786]}, "edge": {"target": [], "time": []}}, "mouseover": {"state": {"target": ["1", "3", "1", "4", "11", "11", "10", "12", "6", "5", "0", "10", "9", "9", "8", "6", "6", "5", "0", "9", "0", "5"], "time": [1733, 1810, 2122, 2254, 2741, 2950, 3206, 3359, 3936, 4242, 4278, 4534, 5041, 5292, 5737, 6160, 6557, 6981, 7204, 7273, 7676, 7745]}, "edge": {"target": [], "time": []}}, "mouseout": {"state": {"target": ["0", "1", "3", "1", "4", "11", "11", "10", "12", "6", "5", "0", "10", "9", "9", "8", "6", "6", "5", "0", "9", "0", "5"], "time": [1692, 1740, 2004, 2206, 2393, 2845, 3137, 3297, 3506, 4020, 4264, 4298, 4709, 5049, 5430, 5959, 6210, 6745, 7176, 7238, 7599, 7718, 7948]}, "edge": {"target": [], "time": []}}}, "displayed_time": "10.29", "trialTime": 11666, "trial_type": "mouselab-mdp", "trial_index": 27, "time_elapsed": 598997, "internal_node_id": "0.0-4.0-1.0-18.0"}}, {"uniqueid": "w32853883:a58866069", "current_trial": 28, "dateTime": 1664873694260, "trialdata": {"revealed_states": [], "num_clicks_accrued": [0, 0, 0, 0, 0, 0, 0, 0, 0, 0, 0, 0, 0], "stateRewards": ["", 4, 4, 24, -48, 2, -8, -24, -48, 4, 8, 48, 48], "withholdReward": true, "trial_id": "mdp_592471239511", "block": "test1", "trialIndex": 21, "score": 63.5, "costs": -1.5, "simulationMode": [null, null, null], "rewards": [4, 8, 48], "path": ["0", "0", "9", "10", "11"], "rt": [4064, 30, 140], "actions": ["left", "left", "up"], "actionTimes": [5069, 5597, 6237], "queries": {"click": {"state": {"target": ["3", "4", "11", "12", "9", "10"], "time": [1657, 2091, 2864, 3325, 3915, 4231]}, "edge": {"target": [], "time": []}}, "mouseover": {"state": {"target": ["9", "0", "3", "1", "4", "11", "10", "11", "10", "12", "9", "10"], "time": [1256, 1374, 1583, 1812, 2027, 2598, 2688, 2818, 3002, 3084, 3863, 4182]}, "edge": {"target": [], "time": []}}, "mouseout": {"state": {"target": ["0", "9", "0", "3", "1", "4", "11", "10", "11", "10", "12", "9", "10", "9"], "time": [1228, 1333, 1388, 1791, 1833, 2208, 2633, 2792, 2980, 3049, 3398, 4016, 4301, 7345]}, "edge": {"target": [], "time": []}}}, "displayed_time": "9.01", "trialTime": 9469, "trial_type": "mouselab-mdp", "trial_index": 28, "time_elapsed": 608516, "internal_node_id": "0.0-4.0-1.0-19.0"}}, {"uniqueid": "w32853883:a58866069", "current_trial": 29, "dateTime": 1664873706052, "trialdata": {"revealed_states": [], "num_clicks_accrued": [0, 0, 0, 0, 0, 0, 0, 0, 0, 0, 0, 0, 0], "stateRewards": ["", 2, 4, 24, 48, -2, 8, 24, -24, -4, -4, 48, 48], "withholdReward": true, "trial_id": "mdp_753439303214", "block": "test1", "trialIndex": 22, "score": 56.5, "costs": -2.5, "simulationMode": [null, null, null], "rewards": [2, 4, 48], "path": ["0", "0", "1", "2", "4"], "rt": [7691, 315, 128], "actions": ["up", "up", "left"], "actionTimes": [8785, 9601, 10241], "queries": {"click": {"state": {"target": ["7", "3", "4", "2", "1", "8", "12", "11", "10", "9"], "time": [2046, 2559, 3976, 4780, 5073, 6080, 6711, 7200, 7549, 7833]}, "edge": {"target": [], "time": []}}, "mouseover": {"state": {"target": ["7", "3", "2", "4", "4", "11", "2", "1", "5", "8", "8", "12", "10", "11", "10", "9"], "time": [2007, 2459, 2730, 3029, 3933, 4156, 4760, 4941, 5233, 5518, 6018, 6602, 6951, 6999, 7450, 7707]}, "edge": {"target": [], "time": []}}, "mouseout": {"state": {"target": ["0", "7", "3", "2", "4", "4", "11", "2", "1", "5", "8", "8", "12", "10", "11", "10", "9"], "time": [1368, 2327, 2675, 2834, 3505, 4078, 4460, 4878, 5157, 5254, 5872, 6110, 6901, 6978, 7354, 7632, 8007]}, "edge": {"target": [], "time": []}}}, "displayed_time": "10.74", "trialTime": 11745, "trial_type": "mouselab-mdp", "trial_index": 29, "time_elapsed": 620309, "internal_node_id": "0.0-4.0-1.0-20.0"}}, {"uniqueid": "w32853883:a58866069", "current_trial": 30, "dateTime": 1664873717508, "trialdata": {"revealed_states": [], "num_clicks_accrued": [0, 0, 0, 0, 0, 0, 0, 0, 0, 0, 0, 0, 0], "stateRewards": ["", 2, 8, -24, -48, -4, 8, -48, -48, -2, -8, -24, -24], "withholdReward": true, "trial_id": "mdp_978177451072", "block": "test1", "trialIndex": 23, "score": -11.5, "costs": -2.5, "simulationMode": [null, null, null], "rewards": [2, 8, -24], "path": ["0", "0", "1", "2", "3"], "rt": [7237, 10, 22], "actions": ["up", "up", "right"], "actionTimes": [8178, 8690, 9217], "queries": {"click": {"state": {"target": ["7", "3", "4", "11", "12", "8", "9", "10", "2", "1"], "time": [1634, 2003, 2312, 2716, 3606, 4233, 5758, 6059, 6737, 7227]}, "edge": {"target": [], "time": []}}, "mouseover": {"state": {"target": ["7", "7", "3", "2", "4", "11", "10", "12", "12", "8", "9", "10", "1", "2", "1", "5", "6", "6"], "time": [1443, 1582, 1901, 2172, 2263, 2709, 3132, 3202, 3588, 4188, 5703, 5982, 6421, 6621, 6878, 7310, 7338, 7456]}, "edge": {"target": [], "time": []}}, "mouseout": {"state": {"target": ["0", "7", "7", "3", "2", "4", "11", "11", "10", "12", "12", "8", "9", "10", "9", "1", "2", "1", "5", "6", "6"], "time": [844, 1470, 1763, 2131, 2228, 2444, 2777, 3097, 3173, 3389, 3702, 4355, 5933, 6177, 6385, 6448, 6837, 7290, 7323, 7359, 7498]}, "edge": {"target": [], "time": []}}}, "displayed_time": "9.71", "trialTime": 11411, "trial_type": "mouselab-mdp", "trial_index": 30, "time_elapsed": 631765, "internal_node_id": "0.0-4.0-1.0-21.0"}}, {"uniqueid": "w32853883:a58866069", "current_trial": 31, "dateTime": 1664873730053, "trialdata": {"revealed_states": [], "num_clicks_accrued": [0, 0, 0, 0, 0, 0, 0, 0, 0, 0, 0, 0, 0], "stateRewards": ["", 2, -4, 24, -24, 2, -8, 48, 48, 4, -4, 24, 48], "withholdReward": false, "trial_id": "mdp_947836623875", "block": "test1", "trialIndex": 24, "score": 50.75, "costs": -2.25, "simulationMode": [null, null, null], "rewards": [4, -4, 48], "path": ["0", "0", "9", "10", "12"], "rt": [7016, 28, 684], "actions": ["left", "left", "down"], "actionTimes": [9249, 9777, 10961], "queries": {"click": {"state": {"target": ["3", "4", "11", "12", "8", "6", "10", "5", "9"], "time": [3126, 3539, 4658, 5357, 5880, 6702, 7285, 8078, 8349]}, "edge": {"target": [], "time": []}}, "mouseover": {"state": {"target": ["1", "2", "3", "4", "10", "10", "11", "11", "10", "11", "9", "12", "12", "12", "8", "8", "5", "6", "6", "0", "9", "10", "0", "5", "5", "5", "0", "9"], "time": [2589, 2693, 3089, 3458, 3979, 4131, 4194, 4347, 4403, 4597, 4779, 4979, 5035, 5290, 5606, 5773, 6350, 6391, 6600, 7058, 7114, 7176, 7677, 7705, 7886, 8010, 8219, 8281]}, "edge": {"target": [], "time": []}}, "mouseout": {"state": {"target": ["6", "0", "0", "1", "2", "3", "4", "10", "10", "11", "11", "10", "11", "9", "12", "12", "12", "8", "8", "5", "6", "6", "0", "9", "10", "0", "5", "5", "5", "0", "9"], "time": [1412, 1873, 2081, 2630, 2735, 3277, 3617, 4055, 4174, 4222, 4362, 4577, 4743, 4800, 4986, 5243, 5467, 5661, 6022, 6356, 6398, 6808, 7079, 7149, 7420, 7684, 7767, 7920, 8177, 8226, 8505]}, "edge": {"target": [], "time": []}}}, "displayed_time": "11.46", "trialTime": 12497, "trial_type": "mouselab-mdp", "trial_index": 31, "time_elapsed": 644309, "internal_node_id": "0.0-4.0-1.0-22.0"}}, {"uniqueid": "w32853883:a58866069", "current_trial": 32, "dateTime": 1664873741603, "trialdata": {"revealed_states": [], "num_clicks_accrued": [0, 0, 0, 0, 0, 0, 0, 0, 0, 0, 0, 0, 0], "stateRewards": ["", 2, 8, -24, -48, 2, 4, -24, 48, 2, -8, 48, -24], "withholdReward": true, "trial_id": "mdp_791659307216", "block": "test1", "trialIndex": 25, "score": 56.75, "costs": -2.25, "simulationMode": [null, null, null], "rewards": [2, 4, 48], "path": ["0", "0", "5", "6", "8"], "rt": [7115, 26, 25], "actions": ["right", "right", "down"], "actionTimes": [8990, 9517, 10045], "queries": {"click": {"state": {"target": ["3", "4", "11", "10", "7", "8", "6", "12", "5"], "time": [2743, 3523, 3764, 4546, 5515, 5854, 6475, 7629, 8162]}, "edge": {"target": [], "time": []}}, "mouseover": {"state": {"target": ["0", "1", "3", "4", "11", "10", "12", "10", "9", "0", "5", "7", "6", "8", "6", "12", "12", "12", "5"], "time": [2311, 2359, 2699, 3477, 3699, 3901, 4136, 4491, 4840, 4917, 5035, 5479, 5682, 5827, 6390, 6807, 7036, 7224, 8114]}, "edge": {"target": [], "time": []}}, "mouseout": {"state": {"target": ["0", "0", "1", "3", "4", "11", "10", "12", "10", "9", "0", "5", "7", "6", "8", "6", "12", "12", "12", "5"], "time": [788, 2325, 2595, 2825, 3659, 3873, 4019, 4194, 4818, 4881, 5007, 5111, 5639, 5758, 5973, 6563, 6891, 7051, 7746, 8378]}, "edge": {"target": [], "time": []}}}, "displayed_time": "10.55", "trialTime": 11501, "trial_type": "mouselab-mdp", "trial_index": 32, "time_elapsed": 655860, "internal_node_id": "0.0-4.0-1.0-23.0"}}, {"uniqueid": "w32853883:a58866069", "current_trial": 33, "dateTime": 1664873752451, "trialdata": {"revealed_states": [], "num_clicks_accrued": [0, 0, 0, 0, 0, 0, 0, 0, 0, 0, 0, 0, 0], "stateRewards": ["", 2, 8, -48, 24, -4, 8, 48, -24, 2, 8, 24, 24], "withholdReward": true, "trial_id": "mdp_175372499314", "block": "test1", "trialIndex": 26, "score": 55.25, "costs": -1.75, "simulationMode": [null, null, null], "rewards": [-4, 8, 48], "path": ["0", "0", "5", "6", "7"], "rt": [5594, 108, 89], "actions": ["right", "right", "up"], "actionTimes": [6898, 7505, 8097], "queries": {"click": {"state": {"target": ["3", "7", "8", "5", "11", "12", "4"], "time": [2382, 2770, 3167, 3558, 4349, 4785, 5483]}, "edge": {"target": [], "time": []}}, "mouseover": {"state": {"target": ["0", "2", "3", "1", "3", "7", "6", "8", "5", "6", "0", "9", "10", "11", "10", "12", "9", "4", "1", "6"], "time": [1598, 1869, 1950, 2128, 2349, 2745, 2872, 2955, 3497, 3858, 4080, 4109, 4157, 4296, 4483, 4775, 5234, 5429, 5603, 6242]}, "edge": {"target": [], "time": []}}, "mouseout": {"state": {"target": ["6", "5", "0", "0", "2", "3", "1", "3", "7", "6", "8", "5", "6", "5", "0", "9", "10", "11", "10", "12", "9", "4", "1", "6"], "time": [784, 875, 1383, 1613, 1884, 2036, 2293, 2467, 2839, 2920, 3267, 3746, 4024, 4066, 4102, 4129, 4268, 4443, 4525, 4811, 5290, 5554, 5631, 6318]}, "edge": {"target": [], "time": []}}}, "displayed_time": "10.30", "trialTime": 10801, "trial_type": "mouselab-mdp", "trial_index": 33, "time_elapsed": 666708, "internal_node_id": "0.0-4.0-1.0-24.0"}}, {"uniqueid": "w32853883:a58866069", "current_trial": 34, "dateTime": 1664873764548, "trialdata": {"revealed_states": [], "num_clicks_accrued": [0, 0, 0, 0, 0, 0, 0, 0, 0, 0, 0, 0, 0], "stateRewards": ["", -4, -4, -24, 48, -4, -8, -24, 48, 2, 4, 48, 48], "withholdReward": true, "trial_id": "mdp_810954007398", "block": "test1", "trialIndex": 27, "score": 57, "costs": -2, "simulationMode": [null, null, null], "rewards": [2, 4, 48], "path": ["0", "0", "9", "10", "11"], "rt": [7879, 26, 138], "actions": ["left", "left", "up"], "actionTimes": [9347, 9875, 10515], "queries": {"click": {"state": {"target": ["3", "7", "8", "6", "4", "2", "11", "10"], "time": [2159, 2740, 3078, 4992, 5731, 6399, 7510, 8137]}, "edge": {"target": [], "time": []}}, "mouseover": {"state": {"target": ["5", "6", "7", "3", "5", "7", "8", "8", "0", "11", "1", "5", "6", "5", "1", "4", "11", "9", "1", "2", "1", "11", "10", "10", "12", "10", "9"], "time": [1778, 1827, 1889, 2132, 2542, 2612, 2862, 3049, 3612, 4051, 4454, 4503, 4941, 5441, 5545, 5671, 6053, 6179, 6275, 6352, 6497, 7436, 7762, 7818, 7916, 8068, 8562]}, "edge": {"target": [], "time": []}}, "mouseout": {"state": {"target": ["6", "5", "0", "0", "5", "6", "7", "3", "5", "7", "8", "8", "0", "11", "1", "5", "6", "5", "1", "4", "11", "9", "1", "2", "1", "11", "10", "10", "12", "10", "9"], "time": [762, 819, 1165, 1645, 1799, 1861, 1959, 2250, 2570, 2785, 2924, 3169, 3890, 4329, 4461, 4537, 5080, 5496, 5566, 5850, 6150, 6219, 6324, 6477, 6518, 7701, 7776, 7853, 8040, 8222, 8695]}, "edge": {"target": [], "time": []}}}, "displayed_time": "11.02", "trialTime": 12052, "trial_type": "mouselab-mdp", "trial_index": 34, "time_elapsed": 678804, "internal_node_id": "0.0-4.0-1.0-25.0"}}, {"uniqueid": "w32853883:a58866069", "current_trial": 35, "dateTime": 1664873777427, "trialdata": {"revealed_states": [], "num_clicks_accrued": [0, 0, 0, 0, 0, 0, 0, 0, 0, 0, 0, 0, 0], "stateRewards": ["", -2, -4, -24, -48, -4, -8, -48, 24, -4, -8, -24, -48], "withholdReward": true, "trial_id": "mdp_475782454549", "block": "test1", "trialIndex": 28, "score": 14.5, "costs": -2.5, "simulationMode": [null, null, null], "rewards": [-4, -8, 24], "path": ["0", "0", "5", "6", "8"], "rt": [8596, 412, 59], "actions": ["right", "right", "down"], "actionTimes": [9661, 10573, 11133], "queries": {"click": {"state": {"target": ["7", "3", "8", "4", "11", "12", "6", "5", "2", "1"], "time": [2096, 2503, 3022, 3950, 4359, 4703, 5936, 7297, 8553, 8836]}, "edge": {"target": [], "time": []}}, "mouseover": {"state": {"target": ["5", "6", "6", "7", "3", "1", "5", "8", "1", "4", "11", "12", "6", "5", "2", "1", "1"], "time": [1403, 1444, 1972, 2056, 2438, 2827, 2918, 3015, 3480, 3758, 4301, 4621, 5884, 7200, 8464, 8666, 8777]}, "edge": {"target": [], "time": []}}, "mouseout": {"state": {"target": ["9", "0", "5", "6", "6", "7", "7", "3", "1", "5", "8", "1", "4", "11", "12", "6", "5", "2", "1", "1", "5", "6"], "time": [792, 1367, 1430, 1451, 2014, 2271, 2404, 2681, 2878, 2967, 3348, 3501, 4239, 4427, 4823, 6094, 7437, 8632, 8681, 8938, 9035, 9062]}, "edge": {"target": [], "time": []}}}, "displayed_time": "11.64", "trialTime": 12829, "trial_type": "mouselab-mdp", "trial_index": 35, "time_elapsed": 691684, "internal_node_id": "0.0-4.0-1.0-26.0"}}, {"uniqueid": "w32853883:a58866069", "current_trial": 36, "dateTime": 1664873788403, "trialdata": {"revealed_states": [], "num_clicks_accrued": [0, 0, 0, 0, 0, 0, 0, 0, 0, 0, 0, 0, 0], "stateRewards": ["", 2, 4, -48, -24, -4, 4, -24, 24, -2, -8, -24, 24], "withholdReward": true, "trial_id": "mdp_640720803523", "block": "test1", "trialIndex": 29, "score": 26.5, "costs": -2.5, "simulationMode": [null, null, null], "rewards": [-4, 4, 24], "path": ["0", "0", "5", "6", "8"], "rt": [6952, 77, 189], "actions": ["right", "right", "down"], "actionTimes": [7938, 8513, 9201], "queries": {"click": {"state": {"target": ["7", "8", "4", "11", "3", "12", "9", "5", "6", "10"], "time": [1424, 1805, 2695, 2897, 3322, 4399, 5793, 6094, 6462, 7048]}, "edge": {"target": [], "time": []}}, "mouseover": {"state": {"target": ["7", "6", "8", "1", "2", "4", "11", "1", "3", "1", "9", "12", "12", "9", "0", "5", "6", "10"], "time": [1386, 1602, 1762, 2144, 2234, 2417, 2860, 3173, 3270, 3541, 3617, 3672, 4347, 5759, 5989, 6065, 6412, 6996]}, "edge": {"target": [], "time": []}}, "mouseout": {"state": {"target": ["6", "5", "7", "6", "8", "1", "2", "4", "11", "1", "3", "1", "9", "12", "12", "8", "9", "0", "5", "6", "8", "8", "9", "10"], "time": [718, 824, 1560, 1658, 1880, 2180, 2270, 2784, 3048, 3180, 3465, 3583, 3624, 3868, 4528, 5584, 5953, 6023, 6183, 6544, 6607, 6739, 6801, 7191]}, "edge": {"target": [], "time": []}}}, "displayed_time": "9.99", "trialTime": 10929, "trial_type": "mouselab-mdp", "trial_index": 36, "time_elapsed": 702660, "internal_node_id": "0.0-4.0-1.0-27.0"}}, {"uniqueid": "w32853883:a58866069", "current_trial": 37, "dateTime": 1664873797619, "trialdata": {"revealed_states": [], "num_clicks_accrued": [0, 0, 0, 0, 0, 0, 0, 0, 0, 0, 0, 0, 0], "stateRewards": ["", -2, 4, 48, -24, 2, 8, 24, 48, 2, 4, -24, -48], "withholdReward": true, "trial_id": "mdp_892412058587", "block": "test1", "trialIndex": 30, "score": 54, "costs": -1, "simulationMode": [null, null, null], "rewards": [-2, 4, 48], "path": ["0", "0", "1", "2", "3"], "rt": [5029, 201, 170], "actions": ["up", "up", "right"], "actionTimes": [5778, 6482, 7154], "queries": {"click": {"state": {"target": ["7", "3", "2", "1"], "time": [1334, 1898, 3192, 3959]}, "edge": {"target": [], "time": []}}, "mouseover": {"state": {"target": ["5", "6", "7", "8", "5", "2", "3", "1", "4", "2", "1", "2", "1", "1", "1", "5", "11"], "time": [1012, 1047, 1324, 1581, 1672, 1741, 1873, 2241, 2339, 2807, 2910, 3138, 3361, 3513, 3777, 4119, 4654]}, "edge": {"target": [], "time": []}}, "mouseout": {"state": {"target": ["5", "0", "5", "6", "7", "8", "5", "2", "3", "1", "4", "2", "1", "2", "1", "1", "1", "5", "11"], "time": [635, 990, 1032, 1074, 1407, 1616, 1679, 1832, 1951, 2283, 2589, 2875, 3118, 3333, 3396, 3674, 4024, 4361, 5015]}, "edge": {"target": [], "time": []}}}, "displayed_time": "8.75", "trialTime": 9170, "trial_type": "mouselab-mdp", "trial_index": 37, "time_elapsed": 711876, "internal_node_id": "0.0-4.0-1.0-28.0"}}, {"uniqueid": "w32853883:a58866069", "current_trial": 38, "dateTime": 1664873808339, "trialdata": {"revealed_states": [], "num_clicks_accrued": [0, 0, 0, 0, 0, 0, 0, 0, 0, 0, 0, 0, 0], "stateRewards": ["", 2, 8, 48, -48, -2, -4, -24, 24, 4, -4, 48, -48], "withholdReward": true, "trial_id": "mdp_105734044587", "block": "test1", "trialIndex": 31, "score": 52.25, "costs": -0.75, "simulationMode": [null, null, null], "rewards": [4, -4, 48], "path": ["0", "0", "9", "10", "11"], "rt": [1910, 330, 87], "actions": ["left", "left", "up"], "actionTimes": [3156, 3988, 4580], "queries": {"click": {"state": {"target": ["11", "9", "10"], "time": [1635, 2234, 2511]}, "edge": {"target": [], "time": []}}, "mouseover": {"state": {"target": ["0", "11", "10", "9", "10"], "time": [1255, 1599, 1781, 2177, 2447]}, "edge": {"target": [], "time": []}}, "mouseout": {"state": {"target": ["1", "0", "11", "10", "9", "10"], "time": [680, 1509, 1746, 1822, 2329, 2600]}, "edge": {"target": [], "time": []}}}, "displayed_time": "10.25", "trialTime": 10676, "trial_type": "mouselab-mdp", "trial_index": 38, "time_elapsed": 722596, "internal_node_id": "0.0-4.0-1.0-29.0"}}, {"uniqueid": "w32853883:a58866069", "current_trial": 39, "dateTime": 1664873811812, "trialdata": {"rt": 3470, "stimulus": "<h1> End of block! </h1>\n\nYou have reached the end of the block 1/4. If you need a short break, feel free to take one now before moving on.\n\n<br><br>\nIn the next block, you will complete another 30 rounds of this game.\n\n<br><br>\n<div style='text-align: center;'>Press <code>space</code> to begin.</div>\n<br><br>\n<div style='text-align: center;'>(If the experiment doesn't continue, try clicking on the text and then pressing <code>space</code>.)</div>", "response": " ", "trial_id": "mdp_ready_2", "trial_type": "html-keyboard-response", "trial_index": 39, "time_elapsed": 726069, "internal_node_id": "0.0-4.0-2.0"}}, {"uniqueid": "w32853883:a58866069", "current_trial": 40, "dateTime": 1664873823555, "trialdata": {"revealed_states": [], "num_clicks_accrued": [0, 0, 0, 0, 0, 0, 0, 0, 0, 0, 0, 0, 0], "stateRewards": ["", 2, 8, 48, 24, -4, 4, -48, 24, 2, 8, 48, 48], "withholdReward": true, "trial_id": "mdp_367344599162", "block": "test2", "trialIndex": 32, "score": 61.5, "costs": -1.5, "simulationMode": [null, null, null], "rewards": [2, 8, 48], "path": ["0", "0", "1", "2", "3"], "rt": [4638, 457, 169], "actions": ["up", "up", "right"], "actionTimes": [5972, 6932, 7604], "queries": {"click": {"state": {"target": ["7", "8", "3", "4", "2", "1"], "time": [2883, 3456, 4078, 4561, 4909, 5296]}, "edge": {"target": [], "time": []}}, "mouseover": {"state": {"target": ["7", "7", "6", "6", "7", "7", "6", "8", "5", "3", "1", "4", "2", "1"], "time": [1650, 1817, 1991, 2340, 2492, 2693, 3069, 3402, 3875, 4006, 4258, 4444, 4849, 5099]}, "edge": {"target": [], "time": []}}, "mouseout": {"state": {"target": ["2", "2", "2", "1", "7", "7", "6", "6", "7", "7", "6", "8", "5", "3", "1", "4", "2", "1", "7", "1", "1", "6"], "time": [690, 809, 934, 1072, 1692, 1887, 2089, 2437, 2624, 3047, 3090, 3534, 3889, 4182, 4327, 4660, 5008, 5356, 8782, 8832, 9144, 10276]}, "edge": {"target": [], "time": []}}}, "displayed_time": "10.33", "trialTime": 11700, "trial_type": "mouselab-mdp", "trial_index": 40, "time_elapsed": 737812, "internal_node_id": "0.0-4.0-3.0-0.0"}}, {"uniqueid": "w32853883:a58866069", "current_trial": 41, "dateTime": 1664873833123, "trialdata": {"revealed_states": [], "num_clicks_accrued": [0, 0, 0, 0, 0, 0, 0, 0, 0, 0, 0, 0, 0], "stateRewards": ["", -4, -8, -24, 24, 2, 8, 24, 48, 2, 4, 24, -48], "withholdReward": true, "trial_id": "mdp_122352383932", "block": "test2", "trialIndex": 33, "score": 61.75, "costs": -1.25, "simulationMode": [null, null, null], "rewards": [2, 8, 48], "path": ["0", "0", "5", "6", "8"], "rt": [3162, 392, 104], "actions": ["right", "right", "down"], "actionTimes": [4139, 5035, 5643], "queries": {"click": {"state": {"target": ["3", "7", "8", "5", "6"], "time": [1695, 2131, 2509, 3143, 3396]}, "edge": {"target": [], "time": []}}, "mouseover": {"state": {"target": ["3", "7", "6", "8", "5", "6"], "time": [1646, 2090, 2223, 2300, 3098, 3306]}, "edge": {"target": [], "time": []}}, "mouseout": {"state": {"target": ["0", "3", "7", "6", "8", "5", "6", "8", "8"], "time": [935, 2014, 2177, 2257, 2591, 3210, 3502, 6970, 7151]}, "edge": {"target": [], "time": []}}}, "displayed_time": "8.98", "trialTime": 9515, "trial_type": "mouselab-mdp", "trial_index": 41, "time_elapsed": 747380, "internal_node_id": "0.0-4.0-3.0-1.0"}}, {"uniqueid": "w32853883:a58866069", "current_trial": 42, "dateTime": 1664873845283, "trialdata": {"revealed_states": [], "num_clicks_accrued": [0, 0, 0, 0, 0, 0, 0, 0, 0, 0, 0, 0, 0], "stateRewards": ["", 2, -8, 48, -24, -4, -8, -24, 48, -2, 4, 24, -48], "withholdReward": true, "trial_id": "mdp_186932504904", "block": "test2", "trialIndex": 34, "score": 44.5, "costs": -2.5, "simulationMode": [null, null, null], "rewards": [2, -8, 48], "path": ["0", "0", "1", "2", "3"], "rt": [8080, 378, 63], "actions": ["up", "up", "right"], "actionTimes": [9163, 10043, 10603], "queries": {"click": {"state": {"target": ["4", "11", "12", "8", "7", "6", "3", "1", "2", "5"], "time": [1860, 2316, 2733, 3214, 3508, 5214, 5974, 6456, 6837, 8196]}, "edge": {"target": [], "time": []}}, "mouseover": {"state": {"target": ["1", "4", "11", "10", "12", "8", "6", "7", "6", "5", "6", "5", "3", "5", "1", "2", "5"], "time": [1323, 1802, 2282, 2388, 2538, 3137, 3374, 3429, 4582, 4938, 5180, 5514, 5946, 6279, 6426, 6752, 8141]}, "edge": {"target": [], "time": []}}, "mouseout": {"state": {"target": ["6", "5", "0", "1", "4", "11", "10", "12", "8", "6", "7", "6", "5", "6", "6", "5", "3", "5", "1", "1", "2", "5", "8"], "time": [724, 947, 1274, 1453, 1969, 2346, 2477, 2749, 3347, 3409, 3666, 4784, 5133, 5262, 5459, 5688, 6070, 6356, 6564, 6710, 6918, 8365, 8489]}, "edge": {"target": [], "time": []}}}, "displayed_time": "11.10", "trialTime": 12107, "trial_type": "mouselab-mdp", "trial_index": 42, "time_elapsed": 759540, "internal_node_id": "0.0-4.0-3.0-2.0"}}, {"uniqueid": "w32853883:a58866069", "current_trial": 43, "dateTime": 1664873855923, "trialdata": {"revealed_states": [], "num_clicks_accrued": [0, 0, 0, 0, 0, 0, 0, 0, 0, 0, 0, 0, 0], "stateRewards": ["", -2, 4, -48, -48, -4, -8, 48, -48, 2, 4, 48, -48], "withholdReward": true, "trial_id": "mdp_258647270500", "block": "test2", "trialIndex": 35, "score": 57, "costs": -2, "simulationMode": [null, null, null], "rewards": [2, 4, 48], "path": ["0", "0", "9", "10", "11"], "rt": [5180, 90, 94], "actions": ["left", "left", "up"], "actionTimes": [6829, 7421, 8013], "queries": {"click": {"state": {"target": ["3", "7", "8", "5", "6", "11", "10", "9"], "time": [2443, 3162, 3635, 3993, 4374, 5090, 5675, 6032]}, "edge": {"target": [], "time": []}}, "mouseover": {"state": {"target": ["1", "2", "3", "3", "7", "7", "6", "8", "5", "6", "0", "9", "11", "12", "10", "9"], "time": [1934, 1976, 2128, 2413, 2839, 3110, 3303, 3442, 3944, 4214, 4798, 4869, 5048, 5312, 5619, 5848]}, "edge": {"target": [], "time": []}}, "mouseout": {"state": {"target": ["8", "5", "0", "1", "2", "3", "3", "7", "7", "6", "8", "5", "6", "8", "0", "9", "11", "12", "10", "9"], "time": [1454, 1551, 1666, 1941, 1997, 2333, 2622, 2863, 3295, 3366, 3720, 4151, 4485, 4659, 4832, 4965, 5181, 5598, 5778, 6099]}, "edge": {"target": [], "time": []}}}, "displayed_time": "9.65", "trialTime": 10589, "trial_type": "mouselab-mdp", "trial_index": 43, "time_elapsed": 770180, "internal_node_id": "0.0-4.0-3.0-3.0"}}, {"uniqueid": "w32853883:a58866069", "current_trial": 44, "dateTime": 1664873866691, "trialdata": {"revealed_states": [], "num_clicks_accrued": [0, 0, 0, 0, 0, 0, 0, 0, 0, 0, 0, 0, 0], "stateRewards": ["", -4, 8, -48, -48, -4, 4, -24, -48, 2, -4, -24, 24], "withholdReward": true, "trial_id": "mdp_183773275291", "block": "test2", "trialIndex": 36, "score": 25, "costs": -2, "simulationMode": [null, null, null], "rewards": [2, -4, 24], "path": ["0", "0", "9", "10", "12"], "rt": [4654, 62, 90], "actions": ["left", "left", "down"], "actionTimes": [5697, 6257, 6849], "queries": {"click": {"state": {"target": ["4", "11", "12", "3", "7", "8", "9", "10"], "time": [1668, 2041, 2540, 3444, 3799, 4194, 4954, 5142]}, "edge": {"target": [], "time": []}}, "mouseover": {"state": {"target": ["0", "1", "2", "4", "11", "10", "12", "1", "3", "7", "6", "8", "9", "10"], "time": [1051, 1349, 1405, 1566, 2017, 2164, 2371, 2831, 3091, 3692, 4068, 4190, 4867, 5070]}, "edge": {"target": [], "time": []}}, "mouseout": {"state": {"target": ["5", "0", "1", "2", "4", "11", "10", "12", "1", "3", "7", "6", "8", "9"], "time": [891, 1072, 1371, 1530, 1822, 2135, 2247, 2712, 2915, 3594, 3909, 4095, 4283, 5041]}, "edge": {"target": [], "time": []}}}, "displayed_time": "10.04", "trialTime": 10721, "trial_type": "mouselab-mdp", "trial_index": 44, "time_elapsed": 780948, "internal_node_id": "0.0-4.0-3.0-4.0"}}, {"uniqueid": "w32853883:a58866069", "current_trial": 45, "dateTime": 1664873876467, "trialdata": {"revealed_states": [], "num_clicks_accrued": [0, 0, 0, 0, 0, 0, 0, 0, 0, 0, 0, 0, 0], "stateRewards": ["", 4, 4, 48, -24, 2, -4, 48, 24, -4, -4, -48, 24], "withholdReward": false, "trial_id": "mdp_496003763005", "block": "test2", "trialIndex": 37, "score": 60.25, "costs": -0.75, "simulationMode": [null, null, null], "rewards": [4, 4, 48], "path": ["0", "0", "1", "2", "3"], "rt": [3748, 27, 315], "actions": ["up", "up", "right"], "actionTimes": [4883, 5411, 6227], "queries": {"click": {"state": {"target": ["3", "2", "1"], "time": [2325, 3467, 3773]}, "edge": {"target": [], "time": []}}, "mouseover": {"state": {"target": ["5", "6", "7", "3", "2", "1", "7"], "time": [1830, 1859, 1957, 2172, 3443, 3708, 4111]}, "edge": {"target": [], "time": []}}, "mouseout": {"state": {"target": ["10", "9", "0", "5", "6", "7", "3", "2", "1", "7", "7"], "time": [808, 906, 1816, 1852, 1873, 1991, 2637, 3618, 3832, 7101, 7239]}, "edge": {"target": [], "time": []}}}, "displayed_time": "9.14", "trialTime": 9731, "trial_type": "mouselab-mdp", "trial_index": 45, "time_elapsed": 790724, "internal_node_id": "0.0-4.0-3.0-5.0"}}, {"uniqueid": "w32853883:a58866069", "current_trial": 46, "dateTime": 1664873887635, "trialdata": {"revealed_states": [], "num_clicks_accrued": [0, 0, 0, 0, 0, 0, 0, 0, 0, 0, 0, 0, 0], "stateRewards": ["", 2, 4, 48, 24, -4, 8, 48, 48, 2, -4, -48, -24], "withholdReward": true, "trial_id": "mdp_822099887466", "block": "test2", "trialIndex": 38, "score": 58.25, "costs": -0.75, "simulationMode": [null, null, null], "rewards": [2, 4, 48], "path": ["0", "0", "1", "2", "3"], "rt": [2800, 105, 157], "actions": ["up", "up", "right"], "actionTimes": [4161, 4769, 5425], "queries": {"click": {"state": {"target": ["3", "2", "1"], "time": [2193, 2829, 3234]}, "edge": {"target": [], "time": []}}, "mouseover": {"state": {"target": ["3", "7", "2", "1", "1"], "time": [2083, 2446, 2696, 3022, 3217]}, "edge": {"target": [], "time": []}}, "mouseout": {"state": {"target": ["3", "7", "2", "1", "1", "5"], "time": [2362, 2550, 2994, 3036, 3286, 9369]}, "edge": {"target": [], "time": []}}}, "displayed_time": "9.36", "trialTime": 11121, "trial_type": "mouselab-mdp", "trial_index": 46, "time_elapsed": 801892, "internal_node_id": "0.0-4.0-3.0-6.0"}}, {"uniqueid": "w32853883:a58866069", "current_trial": 47, "dateTime": 1664873899364, "trialdata": {"revealed_states": [], "num_clicks_accrued": [0, 0, 0, 0, 0, 0, 0, 0, 0, 0, 0, 0, 0], "stateRewards": ["", -2, -4, -48, 48, -4, 4, -48, 24, -4, -8, 24, 48], "withholdReward": false, "trial_id": "mdp_264482284450", "block": "test2", "trialIndex": 39, "score": 44, "costs": -3, "simulationMode": [null, null, null], "rewards": [-2, -4, 48], "path": ["0", "0", "1", "2", "4"], "rt": [7534, 41, 106], "actions": ["up", "up", "left"], "actionTimes": [8579, 9123, 9731], "queries": {"click": {"state": {"target": ["3", "11", "4", "1", "2", "7", "6", "8", "5", "12", "10", "9"], "time": [1910, 2961, 3611, 4058, 4384, 4811, 5211, 5540, 5924, 6676, 7073, 7348]}, "edge": {"target": [], "time": []}}, "mouseover": {"state": {"target": ["1", "3", "1", "11", "11", "4", "1", "2", "5", "6", "7", "6", "8", "8", "5", "12", "10", "9"], "time": [1420, 1859, 2075, 2615, 2917, 3577, 4006, 4341, 4591, 4709, 4757, 5181, 5287, 5487, 5869, 6485, 7065, 7254]}, "edge": {"target": [], "time": []}}, "mouseout": {"state": {"target": ["5", "0", "1", "3", "1", "11", "11", "4", "1", "2", "1", "5", "6", "7", "6", "8", "8", "5", "12", "10", "9"], "time": [830, 1358, 1476, 2020, 2090, 2694, 3117, 3716, 4314, 4472, 4528, 4681, 4717, 4884, 5260, 5320, 5668, 6002, 6801, 7131, 7442]}, "edge": {"target": [], "time": []}}}, "displayed_time": "10.23", "trialTime": 11683, "trial_type": "mouselab-mdp", "trial_index": 47, "time_elapsed": 813621, "internal_node_id": "0.0-4.0-3.0-7.0"}}, {"uniqueid": "w32853883:a58866069", "current_trial": 48, "dateTime": 1664873909603, "trialdata": {"revealed_states": [], "num_clicks_accrued": [0, 0, 0, 0, 0, 0, 0, 0, 0, 0, 0, 0, 0], "stateRewards": ["", 4, -4, 48, -48, 4, -4, 24, -24, 4, 8, -24, -48], "withholdReward": true, "trial_id": "mdp_433630527224", "block": "test2", "trialIndex": 40, "score": 51, "costs": -2, "simulationMode": [null, null, null], "rewards": [4, -4, 48], "path": ["0", "0", "1", "2", "3"], "rt": [5454, 507, 59], "actions": ["up", "up", "right"], "actionTimes": [7311, 8319, 8879], "queries": {"click": {"state": {"target": ["7", "8", "3", "2", "1", "4", "11", "12"], "time": [2348, 3373, 3914, 4546, 4901, 5437, 5828, 6337]}, "edge": {"target": [], "time": []}}, "mouseover": {"state": {"target": ["7", "6", "8", "8", "6", "3", "2", "4", "2", "1", "4", "11", "10", "12", "9"], "time": [2320, 2744, 2835, 3127, 3663, 3732, 4225, 4259, 4531, 4753, 5240, 5726, 5921, 6291, 6713]}, "edge": {"target": [], "time": []}}, "mouseout": {"state": {"target": ["0", "5", "6", "6", "5", "9", "0", "7", "6", "8", "8", "6", "3", "2", "4", "2", "1", "4", "11", "10", "12", "12", "9", "1"], "time": [1033, 1053, 1075, 1256, 1284, 1581, 2042, 2458, 2799, 2877, 3648, 3671, 4030, 4233, 4399, 4670, 4951, 5503, 5875, 6261, 6349, 6637, 6734, 6783]}, "edge": {"target": [], "time": []}}}, "displayed_time": "9.38", "trialTime": 10191, "trial_type": "mouselab-mdp", "trial_index": 48, "time_elapsed": 823860, "internal_node_id": "0.0-4.0-3.0-8.0"}}, {"uniqueid": "w32853883:a58866069", "current_trial": 49, "dateTime": 1664873920179, "trialdata": {"revealed_states": [], "num_clicks_accrued": [0, 0, 0, 0, 0, 0, 0, 0, 0, 0, 0, 0, 0], "stateRewards": ["", 2, 4, -48, 48, -4, 8, -48, -24, -4, -4, 48, 48], "withholdReward": true, "trial_id": "mdp_613582696541", "block": "test2", "trialIndex": 41, "score": 57.5, "costs": -1.5, "simulationMode": [null, null, null], "rewards": [2, 4, 48], "path": ["0", "0", "1", "2", "4"], "rt": [3809, 45, 78], "actions": ["up", "up", "left"], "actionTimes": [5042, 5586, 6162], "queries": {"click": {"state": {"target": ["11", "9", "10", "4", "2", "1"], "time": [1669, 2558, 2734, 3465, 4002, 4242]}, "edge": {"target": [], "time": []}}, "mouseover": {"state": {"target": ["0", "0", "11", "9", "10", "2", "4", "1", "2", "1", "5"], "time": [1286, 1440, 1592, 2538, 2684, 3357, 3407, 3650, 3955, 4130, 4463]}, "edge": {"target": [], "time": []}}, "mouseout": {"state": {"target": ["1", "0", "0", "11", "9", "10", "9", "2", "4", "1", "2", "1", "5", "1", "1"], "time": [867, 1329, 1509, 1849, 2656, 2864, 3094, 3371, 3568, 3692, 4102, 4345, 4574, 7223, 7619]}, "edge": {"target": [], "time": []}}}, "displayed_time": "10.23", "trialTime": 10530, "trial_type": "mouselab-mdp", "trial_index": 49, "time_elapsed": 834436, "internal_node_id": "0.0-4.0-3.0-9.0"}}, {"uniqueid": "w32853883:a58866069", "current_trial": 50, "dateTime": 1664873930052, "trialdata": {"revealed_states": [], "num_clicks_accrued": [0, 0, 0, 0, 0, 0, 0, 0, 0, 0, 0, 0, 0], "stateRewards": ["", -2, -8, 48, 24, 2, 4, 24, -24, -2, -4, 48, -48], "withholdReward": true, "trial_id": "mdp_411152402386", "block": "test2", "trialIndex": 42, "score": 44.5, "costs": -2.5, "simulationMode": [null, null, null], "rewards": [-2, -4, 48], "path": ["0", "0", "9", "10", "11"], "rt": [6002, 60, 57], "actions": ["left", "left", "up"], "actionTimes": [7137, 7697, 8257], "queries": {"click": {"state": {"target": ["7", "3", "2", "1", "11", "10", "9", "12", "4", "8"], "time": [1522, 2437, 2998, 3193, 3753, 4297, 4505, 5000, 5447, 5922]}, "edge": {"target": [], "time": []}}, "mouseover": {"state": {"target": ["7", "8", "8", "5", "3", "2", "2", "1", "4", "11", "10", "12", "10", "9", "12", "4", "5", "8", "5"], "time": [1471, 1860, 1946, 2263, 2380, 2770, 2986, 3104, 3542, 3694, 3882, 4077, 4265, 4467, 4953, 5391, 5696, 5871, 6497]}, "edge": {"target": [], "time": []}}, "mouseout": {"state": {"target": ["0", "7", "8", "8", "5", "3", "2", "2", "1", "4", "11", "10", "12", "10", "9", "12", "9", "4", "1", "5", "8", "8", "5", "1"], "time": [1289, 1615, 1881, 2020, 2284, 2749, 2791, 3057, 3312, 3612, 3813, 3980, 4237, 4438, 4612, 5087, 5329, 5592, 5656, 5738, 6003, 6363, 6510, 6552]}, "edge": {"target": [], "time": []}}}, "displayed_time": "9.14", "trialTime": 9825, "trial_type": "mouselab-mdp", "trial_index": 50, "time_elapsed": 844308, "internal_node_id": "0.0-4.0-3.0-10.0"}}, {"uniqueid": "w32853883:a58866069", "current_trial": 51, "dateTime": 1664873941796, "trialdata": {"revealed_states": [], "num_clicks_accrued": [0, 0, 0, 0, 0, 0, 0, 0, 0, 0, 0, 0, 0], "stateRewards": ["", 2, 4, -24, -24, 4, 8, -48, 48, 2, 4, -24, -48], "withholdReward": true, "trial_id": "mdp_565165082781", "block": "test2", "trialIndex": 43, "score": 63.5, "costs": -1.5, "simulationMode": [null, null, null], "rewards": [4, 8, 48], "path": ["0", "0", "5", "6", "8"], "rt": [4686, 494, 492], "actions": ["right", "right", "down"], "actionTimes": [5872, 6864, 7856], "queries": {"click": {"state": {"target": ["7", "3", "4", "11", "12", "8"], "time": [1666, 2238, 2606, 3292, 3584, 3979]}, "edge": {"target": [], "time": []}}, "mouseover": {"state": {"target": ["5", "7", "6", "8", "6", "3", "1", "4", "11", "10", "11", "10", "12", "8", "6", "6"], "time": [1308, 1621, 1725, 1823, 2087, 2163, 2503, 2581, 2823, 3102, 3271, 3442, 3580, 3964, 5186, 5402]}, "edge": {"target": [], "time": []}}, "mouseout": {"state": {"target": ["1", "5", "7", "6", "8", "6", "3", "1", "4", "11", "10", "11", "10", "12", "8", "6", "6"], "time": [779, 1316, 1687, 1781, 2058, 2095, 2315, 2532, 2706, 2838, 3233, 3394, 3519, 3713, 4001, 5215, 5444]}, "edge": {"target": [], "time": []}}}, "displayed_time": "11.19", "trialTime": 11696, "trial_type": "mouselab-mdp", "trial_index": 51, "time_elapsed": 856052, "internal_node_id": "0.0-4.0-3.0-11.0"}}, {"uniqueid": "w32853883:a58866069", "current_trial": 52, "dateTime": 1664873952596, "trialdata": {"revealed_states": [], "num_clicks_accrued": [0, 0, 0, 0, 0, 0, 0, 0, 0, 0, 0, 0, 0], "stateRewards": ["", -2, 8, 48, 48, 2, 4, -48, 24, -4, -8, 48, 24], "withholdReward": true, "trial_id": "mdp_572910394648", "block": "test2", "trialIndex": 44, "score": 57, "costs": -2, "simulationMode": [null, null, null], "rewards": [-2, 8, 48], "path": ["0", "0", "1", "2", "3"], "rt": [4991, 26, 10], "actions": ["up", "up", "right"], "actionTimes": [6450, 6978, 7490], "queries": {"click": {"state": {"target": ["11", "10", "9", "7", "8", "3", "2", "1"], "time": [1829, 2756, 2950, 3522, 4222, 4830, 5385, 5840]}, "edge": {"target": [], "time": []}}, "mouseover": {"state": {"target": ["9", "11", "10", "10", "9", "6", "7", "8", "8", "0", "1", "3", "2", "2", "1", "1"], "time": [1572, 1780, 2321, 2669, 2899, 3371, 3490, 3909, 4198, 4663, 4699, 4783, 5095, 5325, 5575, 5770]}, "edge": {"target": [], "time": []}}, "mouseout": {"state": {"target": ["6", "5", "0", "9", "11", "11", "10", "10", "9", "6", "7", "8", "8", "0", "1", "3", "2", "2", "1", "1"], "time": [972, 1028, 1492, 1580, 1850, 2252, 2371, 2829, 3100, 3448, 3635, 3941, 4289, 4671, 4721, 5046, 5240, 5522, 5603, 5909]}, "edge": {"target": [], "time": []}}}, "displayed_time": "10.46", "trialTime": 10754, "trial_type": "mouselab-mdp", "trial_index": 52, "time_elapsed": 866852, "internal_node_id": "0.0-4.0-3.0-12.0"}}, {"uniqueid": "w32853883:a58866069", "current_trial": 53, "dateTime": 1664873962708, "trialdata": {"revealed_states": [], "num_clicks_accrued": [0, 0, 0, 0, 0, 0, 0, 0, 0, 0, 0, 0, 0], "stateRewards": ["", 2, -4, -24, 24, 2, 8, 48, 48, 2, -8, 48, -24], "withholdReward": false, "trial_id": "mdp_330392242530", "block": "test2", "trialIndex": 45, "score": 26, "costs": -1, "simulationMode": [null, null, null], "rewards": [2, -4, 24], "path": ["0", "0", "1", "2", "4"], "rt": [3228, 1515, 1596], "actions": ["up", "up", "left"], "actionTimes": [4144, 6160, 8256], "queries": {"click": {"state": {"target": ["3", "7", "5", "6"], "time": [1791, 2149, 3103, 3326]}, "edge": {"target": [], "time": []}}, "mouseover": {"state": {"target": ["1", "3", "7", "6", "6", "5", "6"], "time": [1293, 1717, 2134, 2322, 2649, 2843, 3261]}, "edge": {"target": [], "time": []}}, "mouseout": {"state": {"target": ["6", "5", "1", "3", "7", "6", "6", "5", "6", "5", "0", "4", "1"], "time": [757, 793, 1307, 2079, 2267, 2523, 2670, 3139, 3463, 6868, 6896, 7293, 9336]}, "edge": {"target": [], "time": []}}}, "displayed_time": "8.76", "trialTime": 10064, "trial_type": "mouselab-mdp", "trial_index": 53, "time_elapsed": 876965, "internal_node_id": "0.0-4.0-3.0-13.0"}}, {"uniqueid": "w32853883:a58866069", "current_trial": 54, "dateTime": 1664873973875, "trialdata": {"revealed_states": [], "num_clicks_accrued": [0, 0, 0, 0, 0, 0, 0, 0, 0, 0, 0, 0, 0], "stateRewards": ["", 2, 8, 48, 24, 2, 8, 48, 48, -2, -4, -24, -48], "withholdReward": true, "trial_id": "mdp_717636349175", "block": "test2", "trialIndex": 46, "score": 62.25, "costs": -0.75, "simulationMode": [null, null, null], "rewards": [2, 8, 48], "path": ["0", "0", "5", "6", "7"], "rt": [2976, 121, 111], "actions": ["right", "right", "up"], "actionTimes": [3824, 4448, 5056], "queries": {"click": {"state": {"target": ["7", "6", "5"], "time": [1631, 2343, 3065]}, "edge": {"target": [], "time": []}}, "mouseover": {"state": {"target": ["0", "5", "6", "7", "6", "6", "5", "5"], "time": [857, 1156, 1219, 1539, 1782, 2275, 2512, 3013]}, "edge": {"target": [], "time": []}}, "mouseout": {"state": {"target": ["0", "5", "6", "7", "6", "6", "5", "5"], "time": [1101, 1192, 1275, 1747, 1817, 2443, 2867, 3173]}, "edge": {"target": [], "time": []}}}, "displayed_time": "9.85", "trialTime": 11120, "trial_type": "mouselab-mdp", "trial_index": 54, "time_elapsed": 888132, "internal_node_id": "0.0-4.0-3.0-14.0"}}, {"uniqueid": "w32853883:a58866069", "current_trial": 55, "dateTime": 1664873984580, "trialdata": {"revealed_states": [], "num_clicks_accrued": [0, 0, 0, 0, 0, 0, 0, 0, 0, 0, 0, 0, 0], "stateRewards": ["", -2, -4, -48, -48, -2, -8, 48, -48, 4, -8, -48, 24], "withholdReward": true, "trial_id": "mdp_468495641521", "block": "test2", "trialIndex": 47, "score": 41.25, "costs": -1.75, "simulationMode": [null, null, null], "rewards": [-2, -8, 48], "path": ["0", "0", "5", "6", "7"], "rt": [5995, 75, 90], "actions": ["right", "right", "up"], "actionTimes": [7409, 7985, 8577], "queries": {"click": {"state": {"target": ["11", "4", "3", "7", "6", "5", "12"], "time": [1786, 2217, 2629, 2990, 3854, 4034, 5390]}, "edge": {"target": [], "time": []}}, "mouseover": {"state": {"target": ["11", "4", "2", "3", "7", "6", "8", "6", "5", "0", "9", "12", "12", "8"], "time": [1689, 2175, 2482, 2600, 2968, 3232, 3517, 3788, 3962, 4920, 5011, 5088, 5351, 6019]}, "edge": {"target": [], "time": []}}, "mouseout": {"state": {"target": ["9", "11", "4", "2", "3", "7", "6", "8", "6", "5", "0", "9", "12", "12", "8"], "time": [756, 2126, 2433, 2558, 2794, 3162, 3377, 3753, 3919, 4906, 4976, 5039, 5123, 5484, 6033]}, "edge": {"target": [], "time": []}}}, "displayed_time": "10.41", "trialTime": 10657, "trial_type": "mouselab-mdp", "trial_index": 55, "time_elapsed": 898836, "internal_node_id": "0.0-4.0-3.0-15.0"}}, {"uniqueid": "w32853883:a58866069", "current_trial": 56, "dateTime": 1664873995172, "trialdata": {"revealed_states": [], "num_clicks_accrued": [0, 0, 0, 0, 0, 0, 0, 0, 0, 0, 0, 0, 0], "stateRewards": ["", -4, -8, -48, -48, 4, -8, 48, 48, 2, 8, 48, 24], "withholdReward": true, "trial_id": "mdp_880437222492", "block": "test2", "trialIndex": 48, "score": 62.25, "costs": -0.75, "simulationMode": [null, null, null], "rewards": [2, 8, 48], "path": ["0", "0", "9", "10", "11"], "rt": [2329, 94, 95], "actions": ["left", "left", "up"], "actionTimes": [3523, 4115, 4707], "queries": {"click": {"state": {"target": ["11", "10", "9"], "time": [1960, 2440, 2656]}, "edge": {"target": [], "time": []}}, "mouseover": {"state": {"target": ["11", "4", "10", "9", "0", "5", "5"], "time": [1664, 2304, 2428, 2602, 2838, 2902, 3006]}, "edge": {"target": [], "time": []}}, "mouseout": {"state": {"target": ["8", "0", "0", "11", "4", "11", "10", "9", "0", "5", "5", "6"], "time": [760, 809, 1420, 2150, 2312, 2393, 2512, 2811, 2871, 2964, 6293, 6321]}, "edge": {"target": [], "time": []}}}, "displayed_time": "10.20", "trialTime": 10547, "trial_type": "mouselab-mdp", "trial_index": 56, "time_elapsed": 909428, "internal_node_id": "0.0-4.0-3.0-16.0"}}, {"uniqueid": "w32853883:a58866069", "current_trial": 57, "dateTime": 1664874004819, "trialdata": {"revealed_states": [], "num_clicks_accrued": [0, 0, 0, 0, 0, 0, 0, 0, 0, 0, 0, 0, 0], "stateRewards": ["", -4, -4, 48, 24, -4, -4, -24, -48, -4, 4, 48, -24], "withholdReward": false, "trial_id": "mdp_896503755738", "block": "test2", "trialIndex": 49, "score": 50.75, "costs": -2.25, "simulationMode": [null, null, null], "rewards": [-4, 4, 48], "path": ["0", "0", "9", "10", "11"], "rt": [4450, 58, 127], "actions": ["left", "left", "up"], "actionTimes": [5793, 6353, 6977], "queries": {"click": {"state": {"target": ["7", "8", "3", "2", "1", "11", "12", "10", "9"], "time": [1694, 2078, 2536, 3137, 3347, 4141, 4558, 4878, 5100]}, "edge": {"target": [], "time": []}}, "mouseover": {"state": {"target": ["7", "6", "8", "5", "3", "2", "2", "1", "4", "11", "11", "10", "12", "10", "9"], "time": [1663, 1879, 2045, 2394, 2463, 2755, 3108, 3290, 3686, 3861, 4096, 4319, 4527, 4833, 5013]}, "edge": {"target": [], "time": []}}, "mouseout": {"state": {"target": ["7", "5", "0", "7", "6", "8", "5", "3", "2", "2", "1", "1", "4", "11", "11", "10", "12", "10"], "time": [689, 835, 1441, 1824, 1887, 2248, 2407, 2713, 2818, 3228, 3499, 3631, 3797, 3978, 4270, 4471, 4771, 4979]}, "edge": {"target": [], "time": []}}}, "displayed_time": "9.35", "trialTime": 9601, "trial_type": "mouselab-mdp", "trial_index": 57, "time_elapsed": 919076, "internal_node_id": "0.0-4.0-3.0-17.0"}}, {"uniqueid": "w32853883:a58866069", "current_trial": 58, "dateTime": 1664874015828, "trialdata": {"revealed_states": [], "num_clicks_accrued": [0, 0, 0, 0, 0, 0, 0, 0, 0, 0, 0, 0, 0], "stateRewards": ["", -2, 4, 48, -24, 2, 8, 24, 48, 2, 4, -24, -48], "withholdReward": true, "trial_id": "mdp_892412058587", "block": "test2", "trialIndex": 50, "score": 61, "costs": -2, "simulationMode": [null, null, null], "rewards": [2, 8, 48], "path": ["0", "0", "5", "6", "8"], "rt": [7038, 74, 46], "actions": ["right", "right", "down"], "actionTimes": [7986, 8578, 9122], "queries": {"click": {"state": {"target": ["7", "3", "2", "1", "11", "12", "8", "6"], "time": [1983, 2732, 3330, 3677, 4828, 5331, 5738, 6813]}, "edge": {"target": [], "time": []}}, "mouseover": {"state": {"target": ["0", "5", "6", "7", "7", "5", "3", "3", "2", "1", "4", "11", "11", "10", "12", "8", "6", "5", "5"], "time": [997, 1206, 1234, 1561, 1943, 2312, 2402, 2644, 3242, 3577, 4133, 4501, 4786, 4980, 5279, 5703, 6738, 6948, 7150]}, "edge": {"target": [], "time": []}}, "mouseout": {"state": {"target": ["9", "0", "0", "5", "6", "7", "7", "5", "3", "3", "2", "1", "4", "11", "11", "10", "12", "8", "6", "5", "5", "5"], "time": [781, 817, 1186, 1221, 1255, 1631, 2103, 2320, 2429, 2826, 3479, 3750, 4307, 4653, 4925, 5113, 5468, 5864, 6927, 6983, 7337, 10257]}, "edge": {"target": [], "time": []}}}, "displayed_time": "9.63", "trialTime": 10962, "trial_type": "mouselab-mdp", "trial_index": 58, "time_elapsed": 930084, "internal_node_id": "0.0-4.0-3.0-18.0"}}, {"uniqueid": "w32853883:a58866069", "current_trial": 59, "dateTime": 1664874025924, "trialdata": {"revealed_states": [], "num_clicks_accrued": [0, 0, 0, 0, 0, 0, 0, 0, 0, 0, 0, 0, 0], "stateRewards": ["", 2, -8, 48, -24, 2, -4, 24, 48, 4, -4, 48, -24], "withholdReward": true, "trial_id": "mdp_656500928756", "block": "test2", "trialIndex": 51, "score": 50.5, "costs": -2.5, "simulationMode": [null, null, null], "rewards": [4, -4, 48], "path": ["0", "0", "9", "10", "11"], "rt": [6263, 10, 40], "actions": ["left", "left", "up"], "actionTimes": [7458, 7970, 8514], "queries": {"click": {"state": {"target": ["11", "10", "7", "8", "6", "5", "9", "2", "4", "3"], "time": [1722, 2298, 2968, 3349, 3838, 4212, 4865, 5694, 6037, 6387]}, "edge": {"target": [], "time": []}}, "mouseover": {"state": {"target": ["9", "11", "10", "5", "7", "6", "8", "6", "5", "9", "2", "1", "4", "3", "1"], "time": [1556, 1612, 2224, 2801, 2927, 3155, 3302, 3833, 4136, 4809, 5415, 5839, 6005, 6354, 6673]}, "edge": {"target": [], "time": []}}, "mouseout": {"state": {"target": ["0", "9", "11", "10", "5", "7", "6", "8", "6", "5", "9", "9", "2", "1", "4", "2", "3"], "time": [1157, 1564, 1884, 2524, 2857, 3121, 3232, 3801, 4018, 4317, 4949, 5200, 5790, 5930, 6105, 6297, 6465]}, "edge": {"target": [], "time": []}}}, "displayed_time": "9.20", "trialTime": 10050, "trial_type": "mouselab-mdp", "trial_index": 59, "time_elapsed": 940180, "internal_node_id": "0.0-4.0-3.0-19.0"}}, {"uniqueid": "w32853883:a58866069", "current_trial": 60, "dateTime": 1664874036563, "trialdata": {"revealed_states": [], "num_clicks_accrued": [0, 0, 0, 0, 0, 0, 0, 0, 0, 0, 0, 0, 0], "stateRewards": ["", 4, 8, -24, 48, -2, -4, 24, -24, -2, 4, 24, 24], "withholdReward": false, "trial_id": "mdp_948713805479", "block": "test2", "trialIndex": 52, "score": 63.5, "costs": -1.5, "simulationMode": [null, null, null], "rewards": [4, 8, 48], "path": ["0", "0", "1", "2", "4"], "rt": [5444, 27, 347], "actions": ["up", "up", "left"], "actionTimes": [6434, 6962, 7810], "queries": {"click": {"state": {"target": ["7", "8", "3", "12", "4", "2"], "time": [1376, 1901, 2785, 3481, 4184, 4804]}, "edge": {"target": [], "time": []}}, "mouseover": {"state": {"target": ["7", "6", "8", "0", "1", "3", "1", "9", "12", "10", "11", "4", "11", "2", "1", "11", "11", "1"], "time": [1227, 1513, 1832, 2257, 2621, 2763, 3007, 3131, 3361, 3813, 3875, 3973, 4537, 4765, 5273, 5371, 5496, 5864]}, "edge": {"target": [], "time": []}}, "mouseout": {"state": {"target": ["1", "0", "7", "6", "8", "0", "1", "3", "1", "9", "12", "10", "11", "4", "11", "4", "2", "1", "11", "11"], "time": [524, 1110, 1491, 1561, 1999, 2265, 2701, 2944, 3062, 3153, 3785, 3848, 3917, 4390, 4682, 4744, 4974, 5302, 5412, 5530]}, "edge": {"target": [], "time": []}}}, "displayed_time": "9.99", "trialTime": 10594, "trial_type": "mouselab-mdp", "trial_index": 60, "time_elapsed": 950820, "internal_node_id": "0.0-4.0-3.0-20.0"}}, {"uniqueid": "w32853883:a58866069", "current_trial": 61, "dateTime": 1664874048003, "trialdata": {"revealed_states": [], "num_clicks_accrued": [0, 0, 0, 0, 0, 0, 0, 0, 0, 0, 0, 0, 0], "stateRewards": ["", 2, -4, -48, -48, -2, -4, -24, -48, -2, 8, 24, 24], "withholdReward": false, "trial_id": "mdp_656069446729", "block": "test2", "trialIndex": 53, "score": 33.5, "costs": -1.5, "simulationMode": [null, null, null], "rewards": [-2, 8, 24], "path": ["0", "0", "9", "10", "11"], "rt": [6845, 6, 52], "actions": ["left", "left", "up"], "actionTimes": [8065, 8577, 9137], "queries": {"click": {"state": {"target": ["7", "3", "11", "12", "8", "4"], "time": [1772, 2249, 3233, 3616, 4347, 4851]}, "edge": {"target": [], "time": []}}, "mouseover": {"state": {"target": ["5", "7", "6", "3", "4", "11", "10", "12", "8", "8", "5", "1", "4", "10"], "time": [1417, 1736, 2056, 2196, 2564, 3015, 3384, 3495, 3967, 4232, 4587, 4648, 4760, 5622]}, "edge": {"target": [], "time": []}}, "mouseout": {"state": {"target": ["1", "0", "0", "5", "7", "6", "3", "4", "11", "10", "12", "8", "8", "5", "1", "4", "10", "9"], "time": [798, 901, 1375, 1425, 1965, 2064, 2479, 2612, 3335, 3446, 3725, 4016, 4530, 4615, 4676, 5058, 9979, 10362]}, "edge": {"target": [], "time": []}}}, "displayed_time": "10.22", "trialTime": 11393, "trial_type": "mouselab-mdp", "trial_index": 61, "time_elapsed": 962260, "internal_node_id": "0.0-4.0-3.0-21.0"}}, {"uniqueid": "w32853883:a58866069", "current_trial": 62, "dateTime": 1664874057459, "trialdata": {"revealed_states": [], "num_clicks_accrued": [0, 0, 0, 0, 0, 0, 0, 0, 0, 0, 0, 0, 0], "stateRewards": ["", 2, 8, -48, -24, 2, -4, -48, 24, 2, -4, -24, -24], "withholdReward": true, "trial_id": "mdp_954659099093", "block": "test2", "trialIndex": 54, "score": 25, "costs": -2, "simulationMode": [null, null, null], "rewards": [2, -4, 24], "path": ["0", "0", "5", "6", "8"], "rt": [4971, 27, 25], "actions": ["right", "right", "down"], "actionTimes": [5778, 6306, 6834], "queries": {"click": {"state": {"target": ["7", "3", "4", "11", "12", "8", "6", "5"], "time": [1427, 1832, 2592, 2786, 3593, 4135, 4835, 5017]}, "edge": {"target": [], "time": []}}, "mouseover": {"state": {"target": ["5", "6", "7", "5", "1", "2", "3", "1", "4", "4", "11", "10", "12", "12", "8", "8", "6", "5"], "time": [1036, 1072, 1370, 1594, 1718, 1761, 1816, 2080, 2150, 2560, 2774, 2961, 3172, 3568, 3904, 4056, 4770, 4972]}, "edge": {"target": [], "time": []}}, "mouseout": {"state": {"target": ["0", "5", "6", "7", "5", "1", "2", "3", "1", "4", "4", "11", "10", "12", "12", "8", "8", "8", "6", "5"], "time": [1010, 1058, 1085, 1544, 1628, 1746, 1781, 1933, 2094, 2191, 2690, 2894, 3094, 3387, 3720, 3918, 4220, 4554, 4943, 5130]}, "edge": {"target": [], "time": []}}}, "displayed_time": "8.81", "trialTime": 9410, "trial_type": "mouselab-mdp", "trial_index": 62, "time_elapsed": 971716, "internal_node_id": "0.0-4.0-3.0-22.0"}}, {"uniqueid": "w32853883:a58866069", "current_trial": 63, "dateTime": 1664874067763, "trialdata": {"revealed_states": [], "num_clicks_accrued": [0, 0, 0, 0, 0, 0, 0, 0, 0, 0, 0, 0, 0], "stateRewards": ["", 2, 4, -48, -48, 4, 4, -48, -48, -2, -8, 48, -24], "withholdReward": false, "trial_id": "mdp_175327338412", "block": "test2", "trialIndex": 55, "score": 41.75, "costs": -1.25, "simulationMode": [null, null, null], "rewards": [-2, -8, 48], "path": ["0", "0", "9", "10", "11"], "rt": [4713, 10, 24], "actions": ["left", "left", "up"], "actionTimes": [5649, 6161, 6689], "queries": {"click": {"state": {"target": ["7", "3", "4", "11", "8"], "time": [1427, 1815, 2539, 2860, 4457]}, "edge": {"target": [], "time": []}}, "mouseover": {"state": {"target": ["5", "6", "7", "3", "1", "4", "11", "10", "12", "10", "9", "0", "8", "8", "12"], "time": [1187, 1242, 1394, 1784, 1979, 2507, 2758, 3132, 3259, 3557, 3954, 4004, 4211, 4440, 4837]}, "edge": {"target": [], "time": []}}, "mouseout": {"state": {"target": ["0", "5", "6", "7", "3", "1", "4", "11", "10", "12", "10", "9", "0", "8", "8", "12"], "time": [1173, 1221, 1262, 1534, 1937, 2029, 2639, 2986, 3208, 3530, 3773, 3996, 4013, 4225, 4572, 4864]}, "edge": {"target": [], "time": []}}}, "displayed_time": "9.94", "trialTime": 10257, "trial_type": "mouselab-mdp", "trial_index": 63, "time_elapsed": 982020, "internal_node_id": "0.0-4.0-3.0-23.0"}}, {"uniqueid": "w32853883:a58866069", "current_trial": 64, "dateTime": 1664874079795, "trialdata": {"revealed_states": [], "num_clicks_accrued": [0, 0, 0, 0, 0, 0, 0, 0, 0, 0, 0, 0, 0], "stateRewards": ["", -2, -4, -24, 24, -2, 4, -24, -24, -4, 4, 24, -24], "withholdReward": true, "trial_id": "mdp_999419261719", "block": "test2", "trialIndex": 56, "score": 26.5, "costs": -2.5, "simulationMode": [null, null, null], "rewards": [-4, 4, 24], "path": ["0", "0", "9", "10", "11"], "rt": [8034, 523, 91], "actions": ["left", "left", "up"], "actionTimes": [8976, 10000, 10592], "queries": {"click": {"state": {"target": ["7", "3", "4", "11", "12", "8", "10", "2", "9", "1"], "time": [1445, 1883, 2679, 2934, 3450, 3816, 5460, 5877, 6550, 7925]}, "edge": {"target": [], "time": []}}, "mouseover": {"state": {"target": ["0", "7", "3", "4", "4", "11", "10", "12", "8", "6", "5", "9", "10", "9", "1", "2", "9", "0", "1"], "time": [989, 1391, 1837, 2295, 2616, 2859, 3094, 3221, 3742, 5159, 5177, 5222, 5271, 5618, 5688, 5772, 6050, 7543, 7822]}, "edge": {"target": [], "time": []}}, "mouseout": {"state": {"target": ["9", "0", "0", "0", "7", "3", "4", "4", "11", "10", "12", "8", "6", "5", "9", "10", "9", "1", "2", "9", "0", "1"], "time": [702, 725, 891, 1142, 1781, 2003, 2539, 2796, 3066, 3143, 3548, 3936, 5167, 5191, 5244, 5577, 5627, 5702, 5974, 6614, 7551, 8031]}, "edge": {"target": [], "time": []}}}, "displayed_time": "11.09", "trialTime": 11984, "trial_type": "mouselab-mdp", "trial_index": 64, "time_elapsed": 994052, "internal_node_id": "0.0-4.0-3.0-24.0"}}, {"uniqueid": "w32853883:a58866069", "current_trial": 65, "dateTime": 1664874091892, "trialdata": {"revealed_states": [], "num_clicks_accrued": [0, 0, 0, 0, 0, 0, 0, 0, 0, 0, 0, 0, 0], "stateRewards": ["", -2, -8, 48, -24, 2, -4, -48, -24, -2, -4, -48, 48], "withholdReward": true, "trial_id": "mdp_143798438087", "block": "test2", "trialIndex": 57, "score": 44.5, "costs": -2.5, "simulationMode": [null, null, null], "rewards": [-2, -4, 48], "path": ["0", "0", "9", "10", "12"], "rt": [8472, 8, 21], "actions": ["left", "left", "down"], "actionTimes": [9603, 10115, 10643], "queries": {"click": {"state": {"target": ["7", "3", "4", "2", "1", "11", "12", "9", "10", "8"], "time": [1462, 2148, 2443, 3527, 3889, 4428, 5136, 5619, 6460, 8760]}, "edge": {"target": [], "time": []}}, "mouseover": {"state": {"target": ["5", "7", "3", "2", "3", "2", "4", "11", "2", "2", "1", "9", "11", "10", "12", "12", "9", "10", "10", "10", "8"], "time": [1305, 1396, 1802, 1923, 2098, 2362, 2425, 2716, 3307, 3494, 3822, 4128, 4349, 4572, 4759, 5066, 5560, 5719, 5886, 6393, 8644]}, "edge": {"target": [], "time": []}}, "mouseout": {"state": {"target": ["0", "5", "7", "3", "2", "3", "2", "4", "11", "4", "2", "2", "2", "1", "9", "11", "10", "12", "12", "9", "10", "10", "10", "8"], "time": [1264, 1333, 1687, 1889, 2056, 2307, 2390, 2597, 2765, 2848, 3391, 3620, 3774, 3968, 4219, 4524, 4663, 4919, 5247, 5686, 5782, 5991, 6568, 8788]}, "edge": {"target": [], "time": []}}}, "displayed_time": "11.14", "trialTime": 12051, "trial_type": "mouselab-mdp", "trial_index": 65, "time_elapsed": 1006149, "internal_node_id": "0.0-4.0-3.0-25.0"}}, {"uniqueid": "w32853883:a58866069", "current_trial": 66, "dateTime": 1664874101811, "trialdata": {"revealed_states": [], "num_clicks_accrued": [0, 0, 0, 0, 0, 0, 0, 0, 0, 0, 0, 0, 0], "stateRewards": ["", -2, 4, -24, 24, -4, -8, 24, -48, -4, -4, -48, -24], "withholdReward": true, "trial_id": "mdp_753137520419", "block": "test2", "trialIndex": 58, "score": 29, "costs": -2, "simulationMode": [null, null, null], "rewards": [-2, 4, 24], "path": ["0", "0", "1", "2", "4"], "rt": [7107, 14, 11], "actions": ["up", "up", "left"], "actionTimes": [7937, 8448, 8960], "queries": {"click": {"state": {"target": ["4", "11", "12", "8", "3", "7", "2", "6"], "time": [1209, 1879, 3279, 3931, 5000, 5323, 6158, 6479]}, "edge": {"target": [], "time": []}}, "mouseover": {"state": {"target": ["4", "11", "10", "11", "10", "12", "12", "9", "12", "12", "8", "8", "7", "7", "3", "3", "7", "2", "6", "1"], "time": [1177, 1496, 1726, 1823, 1997, 2498, 2727, 2985, 3019, 3207, 3749, 3926, 4290, 4589, 4702, 4930, 5194, 6125, 6453, 7341]}, "edge": {"target": [], "time": []}}, "mouseout": {"state": {"target": ["9", "4", "11", "10", "11", "10", "12", "12", "9", "12", "12", "8", "8", "7", "7", "3", "3", "7", "2", "6", "6"], "time": [648, 1310, 1670, 1789, 1962, 2025, 2512, 2779, 2994, 3036, 3381, 3804, 4035, 4375, 4653, 4729, 5111, 5403, 6244, 6505, 6794]}, "edge": {"target": [], "time": []}}}, "displayed_time": "9.46", "trialTime": 9872, "trial_type": "mouselab-mdp", "trial_index": 66, "time_elapsed": 1016067, "internal_node_id": "0.0-4.0-3.0-26.0"}}, {"uniqueid": "w32853883:a58866069", "current_trial": 67, "dateTime": 1664874110930, "trialdata": {"revealed_states": [], "num_clicks_accrued": [0, 0, 0, 0, 0, 0, 0, 0, 0, 0, 0, 0, 0], "stateRewards": ["", -4, -8, 48, 24, 4, -8, 24, -48, -2, -8, 24, -48], "withholdReward": true, "trial_id": "mdp_952038635544", "block": "test2", "trialIndex": 59, "score": 39, "costs": -2, "simulationMode": [null, null, null], "rewards": [-4, -8, 48], "path": ["0", "0", "1", "2", "3"], "rt": [5035, 125, 75], "actions": ["up", "up", "right"], "actionTimes": [6083, 6707, 7283], "queries": {"click": {"state": {"target": ["4", "3", "7", "1", "2", "8", "12", "11"], "time": [1453, 2466, 2656, 3200, 3497, 4145, 4742, 5241]}, "edge": {"target": [], "time": []}}, "mouseover": {"state": {"target": ["4", "2", "3", "3", "7", "6", "5", "1", "2", "6", "8", "12", "10", "11"], "time": [1373, 1764, 1941, 2409, 2632, 2897, 3098, 3160, 3400, 3898, 3988, 4718, 4975, 5043]}, "edge": {"target": [], "time": []}}, "mouseout": {"state": {"target": ["1", "1", "4", "2", "3", "3", "7", "6", "5", "1", "2", "7", "6", "8", "12", "10", "11"], "time": [657, 735, 1583, 1792, 2203, 2577, 2806, 3057, 3107, 3348, 3578, 3856, 3946, 4418, 4940, 5017, 5344]}, "edge": {"target": [], "time": []}}}, "displayed_time": "9.05", "trialTime": 9075, "trial_type": "mouselab-mdp", "trial_index": 67, "time_elapsed": 1025187, "internal_node_id": "0.0-4.0-3.0-27.0"}}, {"uniqueid": "w32853883:a58866069", "current_trial": 68, "dateTime": 1664874122147, "trialdata": {"revealed_states": [], "num_clicks_accrued": [0, 0, 0, 0, 0, 0, 0, 0, 0, 0, 0, 0, 0], "stateRewards": ["", -2, -4, -48, -48, 4, 8, 24, -48, 4, -8, 24, 24], "withholdReward": false, "trial_id": "mdp_749799219195", "block": "test2", "trialIndex": 60, "score": 38.75, "costs": -2.25, "simulationMode": [null, null, null], "rewards": [4, 8, 24], "path": ["0", "0", "5", "6", "7"], "rt": [6928, 91, 236], "actions": ["right", "right", "up"], "actionTimes": [7858, 8450, 9186], "queries": {"click": {"state": {"target": ["7", "3", "4", "11", "8", "12", "10", "6", "5"], "time": [1236, 2078, 2688, 3241, 3651, 4277, 5386, 5960, 6493]}, "edge": {"target": [], "time": []}}, "mouseover": {"state": {"target": ["7", "3", "3", "4", "11", "11", "10", "9", "8", "12", "10", "9", "0", "5", "6", "5"], "time": [1206, 1686, 1950, 2659, 3011, 3181, 3389, 3437, 3625, 4113, 5112, 5676, 5795, 5836, 5933, 6247]}, "edge": {"target": [], "time": []}}, "mouseout": {"state": {"target": ["1", "7", "3", "3", "4", "11", "11", "10", "9", "8", "8", "12", "10", "9", "0", "5", "6", "5"], "time": [823, 1498, 1756, 2187, 2783, 3077, 3362, 3403, 3458, 3674, 3917, 4363, 5468, 5767, 5816, 5871, 6149, 6573]}, "edge": {"target": [], "time": []}}}, "displayed_time": "9.93", "trialTime": 11170, "trial_type": "mouselab-mdp", "trial_index": 68, "time_elapsed": 1036404, "internal_node_id": "0.0-4.0-3.0-28.0"}}, {"uniqueid": "w32853883:a58866069", "current_trial": 69, "dateTime": 1664874132371, "trialdata": {"revealed_states": [], "num_clicks_accrued": [0, 0, 0, 0, 0, 0, 0, 0, 0, 0, 0, 0, 0], "stateRewards": ["", -4, -8, -48, 48, -2, 8, 48, 48, -2, -4, -48, -48], "withholdReward": true, "trial_id": "mdp_752833580638", "block": "test2", "trialIndex": 61, "score": 57, "costs": -2, "simulationMode": [null, null, null], "rewards": [-2, 8, 48], "path": ["0", "0", "5", "6", "8"], "rt": [6085, 404, 332], "actions": ["right", "right", "down"], "actionTimes": [7090, 8002, 8834], "queries": {"click": {"state": {"target": ["4", "2", "1", "11", "12", "8", "6", "5"], "time": [1524, 2189, 3476, 3878, 4264, 4752, 5423, 6389]}, "edge": {"target": [], "time": []}}, "mouseover": {"state": {"target": ["4", "1", "2", "1", "7", "7", "1", "10", "10", "11", "10", "12", "8", "6", "5", "5", "0", "5"], "time": [1425, 1828, 2134, 2445, 2816, 3051, 3316, 3685, 3768, 3844, 3970, 4098, 4685, 5366, 5519, 6005, 6082, 6263]}, "edge": {"target": [], "time": []}}, "mouseout": {"state": {"target": ["0", "0", "4", "1", "2", "1", "7", "7", "1", "10", "10", "11", "10", "12", "8", "6", "5", "5", "0"], "time": [604, 1119, 1647, 1863, 2300, 2524, 2864, 3100, 3559, 3719, 3802, 3942, 4006, 4280, 4929, 5493, 5673, 6047, 6200]}, "edge": {"target": [], "time": []}}}, "displayed_time": "10.01", "trialTime": 10178, "trial_type": "mouselab-mdp", "trial_index": 69, "time_elapsed": 1046628, "internal_node_id": "0.0-4.0-3.0-29.0"}}, {"uniqueid": "w32853883:a58866069", "current_trial": 70, "dateTime": 1664874133731, "trialdata": {"rt": 1357, "stimulus": "<h1> End of block! </h1>\n\nYou have reached the end of the block 2/4. If you need a short break, feel free to take one now before moving on.\n\n<br><br>\nIn the next block, you will complete another 30 rounds of this game.\n\n<br><br>\n<div style='text-align: center;'>Press <code>space</code> to begin.</div>\n<br><br>\n<div style='text-align: center;'>(If the experiment doesn't continue, try clicking on the text and then pressing <code>space</code>.)</div>", "response": " ", "trial_id": "mdp_ready_3", "trial_type": "html-keyboard-response", "trial_index": 70, "time_elapsed": 1047988, "internal_node_id": "0.0-4.0-4.0"}}, {"uniqueid": "w32853883:a58866069", "current_trial": 71, "dateTime": 1664874143778, "trialdata": {"revealed_states": [], "num_clicks_accrued": [0, 0, 0, 0, 0, 0, 0, 0, 0, 0, 0, 0, 0], "stateRewards": ["", -2, -4, 48, -24, -4, -4, -24, -24, -2, 4, -48, -24], "withholdReward": true, "trial_id": "mdp_410467837196", "block": "test3", "trialIndex": 62, "score": 45, "costs": -2, "simulationMode": [null, null, null], "rewards": [-2, -4, 48], "path": ["0", "0", "1", "2", "3"], "rt": [4029, 348, 27], "actions": ["up", "up", "right"], "actionTimes": [5586, 6434, 6962], "queries": {"click": {"state": {"target": ["7", "8", "3", "4", "2", "1", "11", "12"], "time": [1931, 2313, 2712, 3085, 3475, 3879, 4289, 4603]}, "edge": {"target": [], "time": []}}, "mouseover": {"state": {"target": ["5", "7", "6", "8", "5", "3", "2", "4", "2", "1", "11", "10", "12", "0"], "time": [1749, 1866, 2104, 2290, 2596, 2680, 2972, 3070, 3466, 3771, 4195, 4411, 4550, 4960]}, "edge": {"target": [], "time": []}}, "mouseout": {"state": {"target": ["0", "5", "7", "6", "8", "5", "3", "2", "4", "2", "1", "11", "10", "12", "0"], "time": [1727, 1763, 2069, 2138, 2506, 2605, 2945, 3014, 3431, 3632, 3994, 4369, 4495, 4690, 4974]}, "edge": {"target": [], "time": []}}}, "displayed_time": "9.56", "trialTime": 10002, "trial_type": "mouselab-mdp", "trial_index": 71, "time_elapsed": 1058035, "internal_node_id": "0.0-4.0-5.0-0.0"}}, {"uniqueid": "w32853883:a58866069", "current_trial": 72, "dateTime": 1664874154116, "trialdata": {"revealed_states": [], "num_clicks_accrued": [0, 0, 0, 0, 0, 0, 0, 0, 0, 0, 0, 0, 0], "stateRewards": ["", -2, 4, -24, 24, -4, -8, 24, -48, -4, -4, -48, -24], "withholdReward": true, "trial_id": "mdp_753137520419", "block": "test3", "trialIndex": 63, "score": 29, "costs": -2, "simulationMode": [null, null, null], "rewards": [-2, 4, 24], "path": ["0", "0", "1", "2", "4"], "rt": [5705, 392, 41], "actions": ["up", "up", "left"], "actionTimes": [6659, 7555, 8099], "queries": {"click": {"state": {"target": ["7", "8", "3", "4", "11", "12", "2", "6"], "time": [1447, 1814, 2242, 2619, 3528, 3843, 5134, 5398]}, "edge": {"target": [], "time": []}}, "mouseover": {"state": {"target": ["0", "5", "6", "7", "6", "8", "5", "3", "2", "4", "11", "11", "10", "12", "6", "2", "6", "5"], "time": [964, 1184, 1266, 1377, 1608, 1733, 2108, 2205, 2518, 2577, 3157, 3471, 3700, 3798, 4859, 5103, 5369, 5737]}, "edge": {"target": [], "time": []}}, "mouseout": {"state": {"target": ["0", "5", "6", "7", "6", "8", "5", "3", "2", "4", "11", "11", "10", "12", "6", "2", "6", "5"], "time": [1120, 1239, 1329, 1558, 1683, 1885, 2117, 2428, 2560, 2748, 3303, 3664, 3748, 3908, 4881, 5230, 5413, 5772]}, "edge": {"target": [], "time": []}}}, "displayed_time": "9.96", "trialTime": 10292, "trial_type": "mouselab-mdp", "trial_index": 72, "time_elapsed": 1068372, "internal_node_id": "0.0-4.0-5.0-1.0"}}, {"uniqueid": "w32853883:a58866069", "current_trial": 73, "dateTime": 1664874164227, "trialdata": {"revealed_states": [], "num_clicks_accrued": [0, 0, 0, 0, 0, 0, 0, 0, 0, 0, 0, 0, 0], "stateRewards": ["", 4, 4, -48, -24, -2, -4, 48, 24, -4, 4, 24, -48], "withholdReward": true, "trial_id": "mdp_617383046444", "block": "test3", "trialIndex": 64, "score": 45.25, "costs": -1.75, "simulationMode": [null, null, null], "rewards": [-2, -4, 48], "path": ["0", "0", "5", "6", "7"], "rt": [4799, 74, 9], "actions": ["right", "right", "up"], "actionTimes": [5555, 6131, 6643], "queries": {"click": {"state": {"target": ["7", "6", "5", "3", "4", "11", "12"], "time": [1444, 2109, 2386, 2954, 3773, 4108, 4572]}, "edge": {"target": [], "time": []}}, "mouseover": {"state": {"target": ["5", "6", "7", "6", "6", "5", "3", "1", "4", "11", "11", "10", "12"], "time": [976, 1351, 1412, 1838, 2081, 2282, 2831, 3137, 3256, 3909, 4003, 4249, 4409]}, "edge": {"target": [], "time": []}}, "mouseout": {"state": {"target": ["0", "5", "6", "7", "6", "6", "5", "5", "3", "1", "4", "11", "11", "10", "12"], "time": [947, 1004, 1379, 1559, 1977, 2254, 2505, 2734, 3041, 3193, 3860, 3971, 4176, 4298, 4628]}, "edge": {"target": [], "time": []}}}, "displayed_time": "9.76", "trialTime": 10067, "trial_type": "mouselab-mdp", "trial_index": 73, "time_elapsed": 1078484, "internal_node_id": "0.0-4.0-5.0-2.0"}}, {"uniqueid": "w32853883:a58866069", "current_trial": 74, "dateTime": 1664874173507, "trialdata": {"revealed_states": [], "num_clicks_accrued": [0, 0, 0, 0, 0, 0, 0, 0, 0, 0, 0, 0, 0], "stateRewards": ["", 4, -8, 48, -24, 4, -4, -48, -48, 4, -4, 24, 24],