{"condition": 0, "counterbalance": 0, "assignmentId": "a27170816", "workerId": "w33120880", "hitId": "h11944030", "currenttrial": 959, "bonus": 0, "data": [{"uniqueid": "w33120880:a27170816", "current_trial": 0, "dateTime": 1664555195547, "trialdata": {"success": true, "trial_type": "fullscreen", "trial_index": 0, "time_elapsed": 10637, "internal_node_id": "0.0-0.0"}}, {"uniqueid": "w33120880:a27170816", "current_trial": 1, "dateTime": 1664555261258, "trialdata": {"view_history": [{"page_index": 0, "viewing_time": 65565}], "rt": 65568, "trial_id": "exp_instructions_distractor", "trial_type": "instructions", "trial_index": 1, "time_elapsed": 76350, "internal_node_id": "0.0-1.0"}}, {"uniqueid": "w33120880:a27170816", "current_trial": 2, "dateTime": 1664555358246, "trialdata": {"view_history": [{"page_index": 0, "viewing_time": 96948}], "rt": 96982, "trial_id": "color_game_instructions", "trial_type": "instructions", "trial_index": 2, "time_elapsed": 173338, "internal_node_id": "0.0-2.0"}}, {"uniqueid": "w33120880:a27170816", "current_trial": 3, "dateTime": 1664555496701, "trialdata": {"rt": 138447, "stimulus": "<h1> Get ready to start the game! </h1>\n\nThank you for reading the instructions. Get ready start with the first of 5 block(s) of this game.\n<br><br>\nIn this first block, you will complete 90 rounds of this game before moving on.\n<br><br>\nRemember, the better you perform, the bigger your bonus will be!\n<br><br>\n<div style='text-align: center;'>Press <code>space</code> to begin.</div>", "response": " ", "trial_id": "stroop_1_ready_1", "trial_type": "html-keyboard-response", "trial_index": 3, "time_elapsed": 311793, "internal_node_id": "0.0-3.0"}}, {"uniqueid": "w33120880:a27170816", "current_trial": 4, "dateTime": 1664555506026, "trialdata": {"rt": 9256, "stimulus": "<p id='stroop-text' class='stroop-yellow'>BOTTLE</p>", "response": "y", "stimulus-type": "unrelated", "word": "BOTTLE", "color": "yellow", "correct_response": "y", "trial_id": "stroop-trial-1-unrelated-29", "trial_type": "html-keyboard-response", "trial_index": 4, "time_elapsed": 321116, "internal_node_id": "0.0-4.0-0.0"}}, {"uniqueid": "w33120880:a27170816", "current_trial": 5, "dateTime": 1664555509931, "trialdata": {"rt": 3398, "stimulus": "<p id='stroop-text' class='stroop-blue'>RED</p>", "response": "b", "stimulus-type": "incongruent", "word": "red", "color": "blue", "correct_response": "b", "trial_id": "stroop-trial-1-incongruent-12", "trial_type": "html-keyboard-response", "trial_index": 5, "time_elapsed": 325022, "internal_node_id": "0.0-4.0-1.0"}}, {"uniqueid": "w33120880:a27170816", "current_trial": 6, "dateTime": 1664555512513, "trialdata": {"rt": 2071, "stimulus": "<p id='stroop-text' class='stroop-yellow'>GREEN</p>", "response": "y", "stimulus-type": "incongruent", "word": "green", "color": "yellow", "correct_response": "y", "trial_id": "stroop-trial-1-incongruent-17", "trial_type": "html-keyboard-response", "trial_index": 6, "time_elapsed": 327604, "internal_node_id": "0.0-4.0-2.0"}}, {"uniqueid": "w33120880:a27170816", "current_trial": 7, "dateTime": 1664555514272, "trialdata": {"rt": 1253, "stimulus": "<p id='stroop-text' class='stroop-yellow'>BOAT</p>", "response": "y", "stimulus-type": "unrelated", "word": "BOAT", "color": "yellow", "correct_response": "y", "trial_id": "stroop-trial-1-unrelated-11", "trial_type": "html-keyboard-response", "trial_index": 7, "time_elapsed": 329363, "internal_node_id": "0.0-4.0-3.0"}}, {"uniqueid": "w33120880:a27170816", "current_trial": 8, "dateTime": 1664555516303, "trialdata": {"rt": 1522, "stimulus": "<p id='stroop-text' class='stroop-green'>SHIP</p>", "response": "g", "stimulus-type": "unrelated", "word": "SHIP", "color": "green", "correct_response": "g", "trial_id": "stroop-trial-1-unrelated-21", "trial_type": "html-keyboard-response", "trial_index": 8, "time_elapsed": 331394, "internal_node_id": "0.0-4.0-4.0"}}, {"uniqueid": "w33120880:a27170816", "current_trial": 9, "dateTime": 1664555518547, "trialdata": {"rt": 1735, "stimulus": "<p id='stroop-text' class='stroop-red'>BLUE</p>", "response": "r", "stimulus-type": "incongruent", "word": "blue", "color": "red", "correct_response": "r", "trial_id": "stroop-trial-1-incongruent-7", "trial_type": "html-keyboard-response", "trial_index": 9, "time_elapsed": 333638, "internal_node_id": "0.0-4.0-5.0"}}, {"uniqueid": "w33120880:a27170816", "current_trial": 10, "dateTime": 1664555520979, "trialdata": {"rt": 1927, "stimulus": "<p id='stroop-text' class='stroop-green'>GREEN</p>", "response": "g", "stimulus-type": "congruent", "word": "green", "color": "green", "correct_response": "g", "trial_id": "stroop-trial-1-congruent-29", "trial_type": "html-keyboard-response", "trial_index": 10, "time_elapsed": 336071, "internal_node_id": "0.0-4.0-6.0"}}, {"uniqueid": "w33120880:a27170816", "current_trial": 11, "dateTime": 1664555522233, "trialdata": {"rt": 746, "stimulus": "<p id='stroop-text' class='stroop-green'>GREEN</p>", "response": "g", "stimulus-type": "congruent", "word": "green", "color": "green", "correct_response": "g", "trial_id": "stroop-trial-1-congruent-26", "trial_type": "html-keyboard-response", "trial_index": 11, "time_elapsed": 337325, "internal_node_id": "0.0-4.0-7.0"}}, {"uniqueid": "w33120880:a27170816", "current_trial": 12, "dateTime": 1664555523583, "trialdata": {"rt": 843, "stimulus": "<p id='stroop-text' class='stroop-green'>YELLOW</p>", "response": "g", "stimulus-type": "incongruent", "word": "yellow", "color": "green", "correct_response": "g", "trial_id": "stroop-trial-1-incongruent-8", "trial_type": "html-keyboard-response", "trial_index": 12, "time_elapsed": 338674, "internal_node_id": "0.0-4.0-8.0"}}, {"uniqueid": "w33120880:a27170816", "current_trial": 13, "dateTime": 1664555525999, "trialdata": {"rt": 1909, "stimulus": "<p id='stroop-text' class='stroop-red'>BLUE</p>", "response": "r", "stimulus-type": "incongruent", "word": "blue", "color": "red", "correct_response": "r", "trial_id": "stroop-trial-1-incongruent-10", "trial_type": "html-keyboard-response", "trial_index": 13, "time_elapsed": 341091, "internal_node_id": "0.0-4.0-9.0"}}, {"uniqueid": "w33120880:a27170816", "current_trial": 14, "dateTime": 1664555528009, "trialdata": {"rt": 1504, "stimulus": "<p id='stroop-text' class='stroop-blue'>BOAT</p>", "response": "b", "stimulus-type": "unrelated", "word": "BOAT", "color": "blue", "correct_response": "b", "trial_id": "stroop-trial-1-unrelated-12", "trial_type": "html-keyboard-response", "trial_index": 14, "time_elapsed": 343101, "internal_node_id": "0.0-4.0-10.0"}}, {"uniqueid": "w33120880:a27170816", "current_trial": 15, "dateTime": 1664555529705, "trialdata": {"rt": 1188, "stimulus": "<p id='stroop-text' class='stroop-green'>GREEN</p>", "response": "g", "stimulus-type": "congruent", "word": "green", "color": "green", "correct_response": "g", "trial_id": "stroop-trial-1-congruent-19", "trial_type": "html-keyboard-response", "trial_index": 15, "time_elapsed": 344797, "internal_node_id": "0.0-4.0-11.0"}}, {"uniqueid": "w33120880:a27170816", "current_trial": 16, "dateTime": 1664555532307, "trialdata": {"rt": 2095, "stimulus": "<p id='stroop-text' class='stroop-red'>RED</p>", "response": "r", "stimulus-type": "congruent", "word": "red", "color": "red", "correct_response": "r", "trial_id": "stroop-trial-1-congruent-5", "trial_type": "html-keyboard-response", "trial_index": 16, "time_elapsed": 347398, "internal_node_id": "0.0-4.0-12.0"}}, {"uniqueid": "w33120880:a27170816", "current_trial": 17, "dateTime": 1664555535240, "trialdata": {"rt": 2426, "stimulus": "<p id='stroop-text' class='stroop-green'>BLUE</p>", "response": "g", "stimulus-type": "incongruent", "word": "blue", "color": "green", "correct_response": "g", "trial_id": "stroop-trial-1-incongruent-15", "trial_type": "html-keyboard-response", "trial_index": 17, "time_elapsed": 350332, "internal_node_id": "0.0-4.0-13.0"}}, {"uniqueid": "w33120880:a27170816", "current_trial": 18, "dateTime": 1664555537872, "trialdata": {"rt": 2123, "stimulus": "<p id='stroop-text' class='stroop-blue'>MONKEY</p>", "response": "b", "stimulus-type": "unrelated", "word": "MONKEY", "color": "blue", "correct_response": "b", "trial_id": "stroop-trial-1-unrelated-14", "trial_type": "html-keyboard-response", "trial_index": 18, "time_elapsed": 352964, "internal_node_id": "0.0-4.0-14.0"}}, {"uniqueid": "w33120880:a27170816", "current_trial": 19, "dateTime": 1664555539304, "trialdata": {"rt": 922, "stimulus": "<p id='stroop-text' class='stroop-blue'>BLUE</p>", "response": "b", "stimulus-type": "congruent", "word": "blue", "color": "blue", "correct_response": "b", "trial_id": "stroop-trial-1-congruent-4", "trial_type": "html-keyboard-response", "trial_index": 19, "time_elapsed": 354395, "internal_node_id": "0.0-4.0-15.0"}}, {"uniqueid": "w33120880:a27170816", "current_trial": 20, "dateTime": 1664555541665, "trialdata": {"rt": 1853, "stimulus": "<p id='stroop-text' class='stroop-green'>YELLOW</p>", "response": "g", "stimulus-type": "incongruent", "word": "yellow", "color": "green", "correct_response": "g", "trial_id": "stroop-trial-1-incongruent-18", "trial_type": "html-keyboard-response", "trial_index": 20, "time_elapsed": 356756, "internal_node_id": "0.0-4.0-16.0"}}, {"uniqueid": "w33120880:a27170816", "current_trial": 21, "dateTime": 1664555543363, "trialdata": {"rt": 1189, "stimulus": "<p id='stroop-text' class='stroop-blue'>BLUE</p>", "response": "b", "stimulus-type": "congruent", "word": "blue", "color": "blue", "correct_response": "b", "trial_id": "stroop-trial-1-congruent-2", "trial_type": "html-keyboard-response", "trial_index": 21, "time_elapsed": 358454, "internal_node_id": "0.0-4.0-17.0"}}, {"uniqueid": "w33120880:a27170816", "current_trial": 22, "dateTime": 1664555545641, "trialdata": {"rt": 1770, "stimulus": "<p id='stroop-text' class='stroop-blue'>GREEN</p>", "response": "b", "stimulus-type": "incongruent", "word": "green", "color": "blue", "correct_response": "b", "trial_id": "stroop-trial-1-incongruent-6", "trial_type": "html-keyboard-response", "trial_index": 22, "time_elapsed": 360732, "internal_node_id": "0.0-4.0-18.0"}}, {"uniqueid": "w33120880:a27170816", "current_trial": 23, "dateTime": 1664555547536, "trialdata": {"rt": 1387, "stimulus": "<p id='stroop-text' class='stroop-yellow'>YELLOW</p>", "response": "y", "stimulus-type": "congruent", "word": "yellow", "color": "yellow", "correct_response": "y", "trial_id": "stroop-trial-1-congruent-24", "trial_type": "html-keyboard-response", "trial_index": 23, "time_elapsed": 362628, "internal_node_id": "0.0-4.0-19.0"}}, {"uniqueid": "w33120880:a27170816", "current_trial": 24, "dateTime": 1664555549369, "trialdata": {"rt": 1327, "stimulus": "<p id='stroop-text' class='stroop-green'>RED</p>", "response": "g", "stimulus-type": "incongruent", "word": "red", "color": "green", "correct_response": "g", "trial_id": "stroop-trial-1-incongruent-16", "trial_type": "html-keyboard-response", "trial_index": 24, "time_elapsed": 364460, "internal_node_id": "0.0-4.0-20.0"}}, {"uniqueid": "w33120880:a27170816", "current_trial": 25, "dateTime": 1664555551560, "trialdata": {"rt": 1686, "stimulus": "<p id='stroop-text' class='stroop-blue'>BRAIN</p>", "response": "b", "stimulus-type": "unrelated", "word": "BRAIN", "color": "blue", "correct_response": "b", "trial_id": "stroop-trial-1-unrelated-1", "trial_type": "html-keyboard-response", "trial_index": 25, "time_elapsed": 366652, "internal_node_id": "0.0-4.0-21.0"}}, {"uniqueid": "w33120880:a27170816", "current_trial": 26, "dateTime": 1664555552865, "trialdata": {"rt": 798, "stimulus": "<p id='stroop-text' class='stroop-blue'>BOAT</p>", "response": "b", "stimulus-type": "unrelated", "word": "BOAT", "color": "blue", "correct_response": "b", "trial_id": "stroop-trial-1-unrelated-17", "trial_type": "html-keyboard-response", "trial_index": 26, "time_elapsed": 367956, "internal_node_id": "0.0-4.0-22.0"}}, {"uniqueid": "w33120880:a27170816", "current_trial": 27, "dateTime": 1664555554930, "trialdata": {"rt": 1557, "stimulus": "<p id='stroop-text' class='stroop-green'>BLUE</p>", "response": "g", "stimulus-type": "incongruent", "word": "blue", "color": "green", "correct_response": "g", "trial_id": "stroop-trial-1-incongruent-28", "trial_type": "html-keyboard-response", "trial_index": 27, "time_elapsed": 370022, "internal_node_id": "0.0-4.0-23.0"}}, {"uniqueid": "w33120880:a27170816", "current_trial": 28, "dateTime": 1664555557517, "trialdata": {"rt": 2077, "stimulus": "<p id='stroop-text' class='stroop-blue'>BLUE</p>", "response": "b", "stimulus-type": "congruent", "word": "blue", "color": "blue", "correct_response": "b", "trial_id": "stroop-trial-1-congruent-21", "trial_type": "html-keyboard-response", "trial_index": 28, "time_elapsed": 372608, "internal_node_id": "0.0-4.0-24.0"}}, {"uniqueid": "w33120880:a27170816", "current_trial": 29, "dateTime": 1664555559434, "trialdata": {"rt": 1408, "stimulus": "<p id='stroop-text' class='stroop-red'>RED</p>", "response": "r", "stimulus-type": "congruent", "word": "red", "color": "red", "correct_response": "r", "trial_id": "stroop-trial-1-congruent-6", "trial_type": "html-keyboard-response", "trial_index": 29, "time_elapsed": 374525, "internal_node_id": "0.0-4.0-25.0"}}, {"uniqueid": "w33120880:a27170816", "current_trial": 30, "dateTime": 1664555560737, "trialdata": {"rt": 797, "stimulus": "<p id='stroop-text' class='stroop-red'>FORK</p>", "response": "r", "stimulus-type": "unrelated", "word": "FORK", "color": "red", "correct_response": "r", "trial_id": "stroop-trial-1-unrelated-27", "trial_type": "html-keyboard-response", "trial_index": 30, "time_elapsed": 375828, "internal_node_id": "0.0-4.0-26.0"}}, {"uniqueid": "w33120880:a27170816", "current_trial": 31, "dateTime": 1664555562976, "trialdata": {"rt": 1730, "stimulus": "<p id='stroop-text' class='stroop-blue'>BLUE</p>", "response": "b", "stimulus-type": "congruent", "word": "blue", "color": "blue", "correct_response": "b", "trial_id": "stroop-trial-1-congruent-15", "trial_type": "html-keyboard-response", "trial_index": 31, "time_elapsed": 378067, "internal_node_id": "0.0-4.0-27.0"}}, {"uniqueid": "w33120880:a27170816", "current_trial": 32, "dateTime": 1664555564652, "trialdata": {"rt": 1167, "stimulus": "<p id='stroop-text' class='stroop-red'>RED</p>", "response": "r", "stimulus-type": "congruent", "word": "red", "color": "red", "correct_response": "r", "trial_id": "stroop-trial-1-congruent-28", "trial_type": "html-keyboard-response", "trial_index": 32, "time_elapsed": 379743, "internal_node_id": "0.0-4.0-28.0"}}, {"uniqueid": "w33120880:a27170816", "current_trial": 33, "dateTime": 1664555566532, "trialdata": {"rt": 1374, "stimulus": "<p id='stroop-text' class='stroop-green'>WINDOW</p>", "response": "g", "stimulus-type": "unrelated", "word": "WINDOW", "color": "green", "correct_response": "g", "trial_id": "stroop-trial-1-unrelated-19", "trial_type": "html-keyboard-response", "trial_index": 33, "time_elapsed": 381624, "internal_node_id": "0.0-4.0-29.0"}}, {"uniqueid": "w33120880:a27170816", "current_trial": 34, "dateTime": 1664555568386, "trialdata": {"rt": 1347, "stimulus": "<p id='stroop-text' class='stroop-blue'>BLUE</p>", "response": "b", "stimulus-type": "congruent", "word": "blue", "color": "blue", "correct_response": "b", "trial_id": "stroop-trial-1-congruent-30", "trial_type": "html-keyboard-response", "trial_index": 34, "time_elapsed": 383478, "internal_node_id": "0.0-4.0-30.0"}}, {"uniqueid": "w33120880:a27170816", "current_trial": 35, "dateTime": 1664555570425, "trialdata": {"rt": 1531, "stimulus": "<p id='stroop-text' class='stroop-yellow'>BRAIN</p>", "response": "y", "stimulus-type": "unrelated", "word": "BRAIN", "color": "yellow", "correct_response": "y", "trial_id": "stroop-trial-1-unrelated-20", "trial_type": "html-keyboard-response", "trial_index": 35, "time_elapsed": 385516, "internal_node_id": "0.0-4.0-31.0"}}, {"uniqueid": "w33120880:a27170816", "current_trial": 36, "dateTime": 1664555572600, "trialdata": {"rt": 1664, "stimulus": "<p id='stroop-text' class='stroop-blue'>YELLOW</p>", "response": "b", "stimulus-type": "incongruent", "word": "yellow", "color": "blue", "correct_response": "b", "trial_id": "stroop-trial-1-incongruent-20", "trial_type": "html-keyboard-response", "trial_index": 36, "time_elapsed": 387691, "internal_node_id": "0.0-4.0-32.0"}}, {"uniqueid": "w33120880:a27170816", "current_trial": 37, "dateTime": 1664555574255, "trialdata": {"rt": 1147, "stimulus": "<p id='stroop-text' class='stroop-blue'>YELLOW</p>", "response": "b", "stimulus-type": "incongruent", "word": "yellow", "color": "blue", "correct_response": "b", "trial_id": "stroop-trial-1-incongruent-5", "trial_type": "html-keyboard-response", "trial_index": 37, "time_elapsed": 389346, "internal_node_id": "0.0-4.0-33.0"}}, {"uniqueid": "w33120880:a27170816", "current_trial": 38, "dateTime": 1664555576788, "trialdata": {"rt": 2024, "stimulus": "<p id='stroop-text' class='stroop-yellow'>RED</p>", "response": "y", "stimulus-type": "incongruent", "word": "red", "color": "yellow", "correct_response": "y", "trial_id": "stroop-trial-1-incongruent-25", "trial_type": "html-keyboard-response", "trial_index": 38, "time_elapsed": 391879, "internal_node_id": "0.0-4.0-34.0"}}, {"uniqueid": "w33120880:a27170816", "current_trial": 39, "dateTime": 1664555578785, "trialdata": {"rt": 1489, "stimulus": "<p id='stroop-text' class='stroop-red'>YELLOW</p>", "response": "r", "stimulus-type": "incongruent", "word": "yellow", "color": "red", "correct_response": "r", "trial_id": "stroop-trial-1-incongruent-23", "trial_type": "html-keyboard-response", "trial_index": 39, "time_elapsed": 393876, "internal_node_id": "0.0-4.0-35.0"}}, {"uniqueid": "w33120880:a27170816", "current_trial": 40, "dateTime": 1664555580073, "trialdata": {"rt": 782, "stimulus": "<p id='stroop-text' class='stroop-red'>YELLOW</p>", "response": "r", "stimulus-type": "incongruent", "word": "yellow", "color": "red", "correct_response": "r", "trial_id": "stroop-trial-1-incongruent-27", "trial_type": "html-keyboard-response", "trial_index": 40, "time_elapsed": 395164, "internal_node_id": "0.0-4.0-36.0"}}, {"uniqueid": "w33120880:a27170816", "current_trial": 41, "dateTime": 1664555581930, "trialdata": {"rt": 1347, "stimulus": "<p id='stroop-text' class='stroop-yellow'>SHIP</p>", "response": "y", "stimulus-type": "unrelated", "word": "SHIP", "color": "yellow", "correct_response": "y", "trial_id": "stroop-trial-1-unrelated-18", "trial_type": "html-keyboard-response", "trial_index": 41, "time_elapsed": 397020, "internal_node_id": "0.0-4.0-37.0"}}, {"uniqueid": "w33120880:a27170816", "current_trial": 42, "dateTime": 1664555583489, "trialdata": {"rt": 1046, "stimulus": "<p id='stroop-text' class='stroop-green'>GREEN</p>", "response": "g", "stimulus-type": "congruent", "word": "green", "color": "green", "correct_response": "g", "trial_id": "stroop-trial-1-congruent-12", "trial_type": "html-keyboard-response", "trial_index": 42, "time_elapsed": 398580, "internal_node_id": "0.0-4.0-38.0"}}, {"uniqueid": "w33120880:a27170816", "current_trial": 43, "dateTime": 1664555585352, "trialdata": {"rt": 1355, "stimulus": "<p id='stroop-text' class='stroop-blue'>BRIDGE</p>", "response": "b", "stimulus-type": "unrelated", "word": "BRIDGE", "color": "blue", "correct_response": "b", "trial_id": "stroop-trial-1-unrelated-9", "trial_type": "html-keyboard-response", "trial_index": 43, "time_elapsed": 400443, "internal_node_id": "0.0-4.0-39.0"}}, {"uniqueid": "w33120880:a27170816", "current_trial": 44, "dateTime": 1664555587035, "trialdata": {"rt": 1175, "stimulus": "<p id='stroop-text' class='stroop-green'>FORK</p>", "response": "g", "stimulus-type": "unrelated", "word": "FORK", "color": "green", "correct_response": "g", "trial_id": "stroop-trial-1-unrelated-28", "trial_type": "html-keyboard-response", "trial_index": 44, "time_elapsed": 402126, "internal_node_id": "0.0-4.0-40.0"}}, {"uniqueid": "w33120880:a27170816", "current_trial": 45, "dateTime": 1664555588313, "trialdata": {"rt": 770, "stimulus": "<p id='stroop-text' class='stroop-green'>GREEN</p>", "response": "g", "stimulus-type": "congruent", "word": "green", "color": "green", "correct_response": "g", "trial_id": "stroop-trial-1-congruent-14", "trial_type": "html-keyboard-response", "trial_index": 45, "time_elapsed": 403404, "internal_node_id": "0.0-4.0-41.0"}}, {"uniqueid": "w33120880:a27170816", "current_trial": 46, "dateTime": 1664555590072, "trialdata": {"rt": 1252, "stimulus": "<p id='stroop-text' class='stroop-blue'>GREEN</p>", "response": "b", "stimulus-type": "incongruent", "word": "green", "color": "blue", "correct_response": "b", "trial_id": "stroop-trial-1-incongruent-21", "trial_type": "html-keyboard-response", "trial_index": 46, "time_elapsed": 405164, "internal_node_id": "0.0-4.0-42.0"}}, {"uniqueid": "w33120880:a27170816", "current_trial": 47, "dateTime": 1664555591720, "trialdata": {"rt": 1137, "stimulus": "<p id='stroop-text' class='stroop-yellow'>RED</p>", "response": "y", "stimulus-type": "incongruent", "word": "red", "color": "yellow", "correct_response": "y", "trial_id": "stroop-trial-1-incongruent-9", "trial_type": "html-keyboard-response", "trial_index": 47, "time_elapsed": 406811, "internal_node_id": "0.0-4.0-43.0"}}, {"uniqueid": "w33120880:a27170816", "current_trial": 48, "dateTime": 1664555593608, "trialdata": {"rt": 1381, "stimulus": "<p id='stroop-text' class='stroop-green'>GREEN</p>", "response": "g", "stimulus-type": "congruent", "word": "green", "color": "green", "correct_response": "g", "trial_id": "stroop-trial-1-congruent-17", "trial_type": "html-keyboard-response", "trial_index": 48, "time_elapsed": 408699, "internal_node_id": "0.0-4.0-44.0"}}, {"uniqueid": "w33120880:a27170816", "current_trial": 49, "dateTime": 1664555595776, "trialdata": {"rt": 1661, "stimulus": "<p id='stroop-text' class='stroop-blue'>CHAIR</p>", "response": "b", "stimulus-type": "unrelated", "word": "CHAIR", "color": "blue", "correct_response": "b", "trial_id": "stroop-trial-1-unrelated-5", "trial_type": "html-keyboard-response", "trial_index": 49, "time_elapsed": 410867, "internal_node_id": "0.0-4.0-45.0"}}, {"uniqueid": "w33120880:a27170816", "current_trial": 50, "dateTime": 1664555598067, "trialdata": {"rt": 1782, "stimulus": "<p id='stroop-text' class='stroop-yellow'>DOG</p>", "response": "y", "stimulus-type": "unrelated", "word": "DOG", "color": "yellow", "correct_response": "y", "trial_id": "stroop-trial-1-unrelated-16", "trial_type": "html-keyboard-response", "trial_index": 50, "time_elapsed": 413158, "internal_node_id": "0.0-4.0-46.0"}}, {"uniqueid": "w33120880:a27170816", "current_trial": 51, "dateTime": 1664555599320, "trialdata": {"rt": 746, "stimulus": "<p id='stroop-text' class='stroop-yellow'>YELLOW</p>", "response": "y", "stimulus-type": "congruent", "word": "yellow", "color": "yellow", "correct_response": "y", "trial_id": "stroop-trial-1-congruent-16", "trial_type": "html-keyboard-response", "trial_index": 51, "time_elapsed": 414411, "internal_node_id": "0.0-4.0-47.0"}}, {"uniqueid": "w33120880:a27170816", "current_trial": 52, "dateTime": 1664555600401, "trialdata": {"rt": 573, "stimulus": "<p id='stroop-text' class='stroop-yellow'>GREEN</p>", "response": "y", "stimulus-type": "incongruent", "word": "green", "color": "yellow", "correct_response": "y", "trial_id": "stroop-trial-1-incongruent-13", "trial_type": "html-keyboard-response", "trial_index": 52, "time_elapsed": 415492, "internal_node_id": "0.0-4.0-48.0"}}, {"uniqueid": "w33120880:a27170816", "current_trial": 53, "dateTime": 1664555602170, "trialdata": {"rt": 1260, "stimulus": "<p id='stroop-text' class='stroop-blue'>BLUE</p>", "response": "b", "stimulus-type": "congruent", "word": "blue", "color": "blue", "correct_response": "b", "trial_id": "stroop-trial-1-congruent-11", "trial_type": "html-keyboard-response", "trial_index": 53, "time_elapsed": 417261, "internal_node_id": "0.0-4.0-49.0"}}, {"uniqueid": "w33120880:a27170816", "current_trial": 54, "dateTime": 1664555604071, "trialdata": {"rt": 1394, "stimulus": "<p id='stroop-text' class='stroop-red'>GREEN</p>", "response": "r", "stimulus-type": "incongruent", "word": "green", "color": "red", "correct_response": "r", "trial_id": "stroop-trial-1-incongruent-4", "trial_type": "html-keyboard-response", "trial_index": 54, "time_elapsed": 419163, "internal_node_id": "0.0-4.0-50.0"}}, {"uniqueid": "w33120880:a27170816", "current_trial": 55, "dateTime": 1664555605111, "trialdata": {"rt": 534, "stimulus": "<p id='stroop-text' class='stroop-red'>RED</p>", "response": "r", "stimulus-type": "congruent", "word": "red", "color": "red", "correct_response": "r", "trial_id": "stroop-trial-1-congruent-25", "trial_type": "html-keyboard-response", "trial_index": 55, "time_elapsed": 420202, "internal_node_id": "0.0-4.0-51.0"}}, {"uniqueid": "w33120880:a27170816", "current_trial": 56, "dateTime": 1664555607042, "trialdata": {"rt": 1422, "stimulus": "<p id='stroop-text' class='stroop-green'>BLUE</p>", "response": "g", "stimulus-type": "incongruent", "word": "blue", "color": "green", "correct_response": "g", "trial_id": "stroop-trial-1-incongruent-24", "trial_type": "html-keyboard-response", "trial_index": 56, "time_elapsed": 422133, "internal_node_id": "0.0-4.0-52.0"}}, {"uniqueid": "w33120880:a27170816", "current_trial": 57, "dateTime": 1664555609569, "trialdata": {"rt": 2019, "stimulus": "<p id='stroop-text' class='stroop-red'>BLUE</p>", "response": "r", "stimulus-type": "incongruent", "word": "blue", "color": "red", "correct_response": "r", "trial_id": "stroop-trial-1-incongruent-29", "trial_type": "html-keyboard-response", "trial_index": 57, "time_elapsed": 424660, "internal_node_id": "0.0-4.0-53.0"}}, {"uniqueid": "w33120880:a27170816", "current_trial": 58, "dateTime": 1664555611328, "trialdata": {"rt": 1251, "stimulus": "<p id='stroop-text' class='stroop-yellow'>YELLOW</p>", "response": "y", "stimulus-type": "congruent", "word": "yellow", "color": "yellow", "correct_response": "y", "trial_id": "stroop-trial-1-congruent-1", "trial_type": "html-keyboard-response", "trial_index": 58, "time_elapsed": 426420, "internal_node_id": "0.0-4.0-54.0"}}, {"uniqueid": "w33120880:a27170816", "current_trial": 59, "dateTime": 1664555612591, "trialdata": {"rt": 756, "stimulus": "<p id='stroop-text' class='stroop-yellow'>GREEN</p>", "response": "y", "stimulus-type": "incongruent", "word": "green", "color": "yellow", "correct_response": "y", "trial_id": "stroop-trial-1-incongruent-11", "trial_type": "html-keyboard-response", "trial_index": 59, "time_elapsed": 427683, "internal_node_id": "0.0-4.0-55.0"}}, {"uniqueid": "w33120880:a27170816", "current_trial": 60, "dateTime": 1664555614200, "trialdata": {"rt": 1101, "stimulus": "<p id='stroop-text' class='stroop-blue'>BOAT</p>", "response": "b", "stimulus-type": "unrelated", "word": "BOAT", "color": "blue", "correct_response": "b", "trial_id": "stroop-trial-1-unrelated-30", "trial_type": "html-keyboard-response", "trial_index": 60, "time_elapsed": 429292, "internal_node_id": "0.0-4.0-56.0"}}, {"uniqueid": "w33120880:a27170816", "current_trial": 61, "dateTime": 1664555615609, "trialdata": {"rt": 902, "stimulus": "<p id='stroop-text' class='stroop-yellow'>YELLOW</p>", "response": "y", "stimulus-type": "congruent", "word": "yellow", "color": "yellow", "correct_response": "y", "trial_id": "stroop-trial-1-congruent-23", "trial_type": "html-keyboard-response", "trial_index": 61, "time_elapsed": 430701, "internal_node_id": "0.0-4.0-57.0"}}, {"uniqueid": "w33120880:a27170816", "current_trial": 62, "dateTime": 1664555617144, "trialdata": {"rt": 1023, "stimulus": "<p id='stroop-text' class='stroop-green'>FORK</p>", "response": "g", "stimulus-type": "unrelated", "word": "FORK", "color": "green", "correct_response": "g", "trial_id": "stroop-trial-1-unrelated-3", "trial_type": "html-keyboard-response", "trial_index": 62, "time_elapsed": 432236, "internal_node_id": "0.0-4.0-58.0"}}, {"uniqueid": "w33120880:a27170816", "current_trial": 63, "dateTime": 1664555618199, "trialdata": {"rt": 547, "stimulus": "<p id='stroop-text' class='stroop-green'>GREEN</p>", "response": "g", "stimulus-type": "congruent", "word": "green", "color": "green", "correct_response": "g", "trial_id": "stroop-trial-1-congruent-20", "trial_type": "html-keyboard-response", "trial_index": 63, "time_elapsed": 433291, "internal_node_id": "0.0-4.0-59.0"}}, {"uniqueid": "w33120880:a27170816", "current_trial": 64, "dateTime": 1664555619136, "trialdata": {"rt": 427, "stimulus": "<p id='stroop-text' class='stroop-green'>GREEN</p>", "response": "g", "stimulus-type": "congruent", "word": "green", "color": "green", "correct_response": "g", "trial_id": "stroop-trial-1-congruent-8", "trial_type": "html-keyboard-response", "trial_index": 64, "time_elapsed": 434228, "internal_node_id": "0.0-4.0-60.0"}}, {"uniqueid": "w33120880:a27170816", "current_trial": 65, "dateTime": 1664555620940, "trialdata": {"rt": 1296, "stimulus": "<p id='stroop-text' class='stroop-yellow'>BLUE</p>", "response": "y", "stimulus-type": "incongruent", "word": "blue", "color": "yellow", "correct_response": "y", "trial_id": "stroop-trial-1-incongruent-3", "trial_type": "html-keyboard-response", "trial_index": 65, "time_elapsed": 436031, "internal_node_id": "0.0-4.0-61.0"}}, {"uniqueid": "w33120880:a27170816", "current_trial": 66, "dateTime": 1664555622760, "trialdata": {"rt": 1311, "stimulus": "<p id='stroop-text' class='stroop-red'>YELLOW</p>", "response": "r", "stimulus-type": "incongruent", "word": "yellow", "color": "red", "correct_response": "r", "trial_id": "stroop-trial-1-incongruent-30", "trial_type": "html-keyboard-response", "trial_index": 66, "time_elapsed": 437852, "internal_node_id": "0.0-4.0-62.0"}}, {"uniqueid": "w33120880:a27170816", "current_trial": 67, "dateTime": 1664555624753, "trialdata": {"rt": 1483, "stimulus": "<p id='stroop-text' class='stroop-yellow'>BRIDGE</p>", "response": "y", "stimulus-type": "unrelated", "word": "BRIDGE", "color": "yellow", "correct_response": "y", "trial_id": "stroop-trial-1-unrelated-6", "trial_type": "html-keyboard-response", "trial_index": 67, "time_elapsed": 439845, "internal_node_id": "0.0-4.0-63.0"}}, {"uniqueid": "w33120880:a27170816", "current_trial": 68, "dateTime": 1664555626689, "trialdata": {"rt": 1429, "stimulus": "<p id='stroop-text' class='stroop-red'>RED</p>", "response": "r", "stimulus-type": "congruent", "word": "red", "color": "red", "correct_response": "r", "trial_id": "stroop-trial-1-congruent-9", "trial_type": "html-keyboard-response", "trial_index": 68, "time_elapsed": 441781, "internal_node_id": "0.0-4.0-64.0"}}, {"uniqueid": "w33120880:a27170816", "current_trial": 69, "dateTime": 1664555627899, "trialdata": {"rt": 703, "stimulus": "<p id='stroop-text' class='stroop-red'>BOTTLE</p>", "response": "r", "stimulus-type": "unrelated", "word": "BOTTLE", "color": "red", "correct_response": "r", "trial_id": "stroop-trial-1-unrelated-7", "trial_type": "html-keyboard-response", "trial_index": 69, "time_elapsed": 442991, "internal_node_id": "0.0-4.0-65.0"}}, {"uniqueid": "w33120880:a27170816", "current_trial": 70, "dateTime": 1664555631700, "trialdata": {"rt": 3289, "stimulus": "<p id='stroop-text' class='stroop-yellow'>GREEN</p>", "response": "y", "stimulus-type": "incongruent", "word": "green", "color": "yellow", "correct_response": "y", "trial_id": "stroop-trial-1-incongruent-1", "trial_type": "html-keyboard-response", "trial_index": 70, "time_elapsed": 446792, "internal_node_id": "0.0-4.0-66.0"}}, {"uniqueid": "w33120880:a27170816", "current_trial": 71, "dateTime": 1664555633706, "trialdata": {"rt": 1495, "stimulus": "<p id='stroop-text' class='stroop-red'>MONKEY</p>", "response": "r", "stimulus-type": "unrelated", "word": "MONKEY", "color": "red", "correct_response": "r", "trial_id": "stroop-trial-1-unrelated-2", "trial_type": "html-keyboard-response", "trial_index": 71, "time_elapsed": 448797, "internal_node_id": "0.0-4.0-67.0"}}, {"uniqueid": "w33120880:a27170816", "current_trial": 72, "dateTime": 1664555636043, "trialdata": {"rt": 1829, "stimulus": "<p id='stroop-text' class='stroop-blue'>CHAIR</p>", "response": "b", "stimulus-type": "unrelated", "word": "CHAIR", "color": "blue", "correct_response": "b", "trial_id": "stroop-trial-1-unrelated-8", "trial_type": "html-keyboard-response", "trial_index": 72, "time_elapsed": 451134, "internal_node_id": "0.0-4.0-68.0"}}, {"uniqueid": "w33120880:a27170816", "current_trial": 73, "dateTime": 1664555637883, "trialdata": {"rt": 1331, "stimulus": "<p id='stroop-text' class='stroop-red'>YELLOW</p>", "response": "r", "stimulus-type": "incongruent", "word": "yellow", "color": "red", "correct_response": "r", "trial_id": "stroop-trial-1-incongruent-26", "trial_type": "html-keyboard-response", "trial_index": 73, "time_elapsed": 452974, "internal_node_id": "0.0-4.0-69.0"}}, {"uniqueid": "w33120880:a27170816", "current_trial": 74, "dateTime": 1664555639168, "trialdata": {"rt": 777, "stimulus": "<p id='stroop-text' class='stroop-red'>SHIP</p>", "response": "r", "stimulus-type": "unrelated", "word": "SHIP", "color": "red", "correct_response": "r", "trial_id": "stroop-trial-1-unrelated-25", "trial_type": "html-keyboard-response", "trial_index": 74, "time_elapsed": 454260, "internal_node_id": "0.0-4.0-70.0"}}, {"uniqueid": "w33120880:a27170816", "current_trial": 75, "dateTime": 1664555640151, "trialdata": {"rt": 478, "stimulus": "<p id='stroop-text' class='stroop-red'>BRIDGE</p>", "response": "r", "stimulus-type": "unrelated", "word": "BRIDGE", "color": "red", "correct_response": "r", "trial_id": "stroop-trial-1-unrelated-13", "trial_type": "html-keyboard-response", "trial_index": 75, "time_elapsed": 455243, "internal_node_id": "0.0-4.0-71.0"}}, {"uniqueid": "w33120880:a27170816", "current_trial": 76, "dateTime": 1664555641841, "trialdata": {"rt": 1179, "stimulus": "<p id='stroop-text' class='stroop-blue'>BOTTLE</p>", "response": "b", "stimulus-type": "unrelated", "word": "BOTTLE", "color": "blue", "correct_response": "b", "trial_id": "stroop-trial-1-unrelated-4", "trial_type": "html-keyboard-response", "trial_index": 76, "time_elapsed": 456933, "internal_node_id": "0.0-4.0-72.0"}}, {"uniqueid": "w33120880:a27170816", "current_trial": 77, "dateTime": 1664555643391, "trialdata": {"rt": 1041, "stimulus": "<p id='stroop-text' class='stroop-green'>RED</p>", "response": "g", "stimulus-type": "incongruent", "word": "red", "color": "green", "correct_response": "g", "trial_id": "stroop-trial-1-incongruent-22", "trial_type": "html-keyboard-response", "trial_index": 77, "time_elapsed": 458483, "internal_node_id": "0.0-4.0-73.0"}}, {"uniqueid": "w33120880:a27170816", "current_trial": 78, "dateTime": 1664555644375, "trialdata": {"rt": 476, "stimulus": "<p id='stroop-text' class='stroop-green'>BRIDGE</p>", "response": "g", "stimulus-type": "unrelated", "word": "BRIDGE", "color": "green", "correct_response": "g", "trial_id": "stroop-trial-1-unrelated-22", "trial_type": "html-keyboard-response", "trial_index": 78, "time_elapsed": 459467, "internal_node_id": "0.0-4.0-74.0"}}, {"uniqueid": "w33120880:a27170816", "current_trial": 79, "dateTime": 1664555645943, "trialdata": {"rt": 1060, "stimulus": "<p id='stroop-text' class='stroop-red'>RED</p>", "response": "r", "stimulus-type": "congruent", "word": "red", "color": "red", "correct_response": "r", "trial_id": "stroop-trial-1-congruent-22", "trial_type": "html-keyboard-response", "trial_index": 79, "time_elapsed": 461034, "internal_node_id": "0.0-4.0-75.0"}}, {"uniqueid": "w33120880:a27170816", "current_trial": 80, "dateTime": 1664555647721, "trialdata": {"rt": 1269, "stimulus": "<p id='stroop-text' class='stroop-green'>GREEN</p>", "response": "g", "stimulus-type": "congruent", "word": "green", "color": "green", "correct_response": "g", "trial_id": "stroop-trial-1-congruent-10", "trial_type": "html-keyboard-response", "trial_index": 80, "time_elapsed": 462812, "internal_node_id": "0.0-4.0-76.0"}}, {"uniqueid": "w33120880:a27170816", "current_trial": 81, "dateTime": 1664555649631, "trialdata": {"rt": 1401, "stimulus": "<p id='stroop-text' class='stroop-yellow'>YELLOW</p>", "response": "y", "stimulus-type": "congruent", "word": "yellow", "color": "yellow", "correct_response": "y", "trial_id": "stroop-trial-1-congruent-3", "trial_type": "html-keyboard-response", "trial_index": 81, "time_elapsed": 464723, "internal_node_id": "0.0-4.0-77.0"}}, {"uniqueid": "w33120880:a27170816", "current_trial": 82, "dateTime": 1664555651866, "trialdata": {"rt": 1727, "stimulus": "<p id='stroop-text' class='stroop-green'>GREEN</p>", "response": "g", "stimulus-type": "congruent", "word": "green", "color": "green", "correct_response": "g", "trial_id": "stroop-trial-1-congruent-27", "trial_type": "html-keyboard-response", "trial_index": 82, "time_elapsed": 466958, "internal_node_id": "0.0-4.0-78.0"}}, {"uniqueid": "w33120880:a27170816", "current_trial": 83, "dateTime": 1664555653733, "trialdata": {"rt": 1359, "stimulus": "<p id='stroop-text' class='stroop-blue'>YELLOW</p>", "response": "b", "stimulus-type": "incongruent", "word": "yellow", "color": "blue", "correct_response": "b", "trial_id": "stroop-trial-1-incongruent-2", "trial_type": "html-keyboard-response", "trial_index": 83, "time_elapsed": 468824, "internal_node_id": "0.0-4.0-79.0"}}, {"uniqueid": "w33120880:a27170816", "current_trial": 84, "dateTime": 1664555655250, "trialdata": {"rt": 1003, "stimulus": "<p id='stroop-text' class='stroop-red'>RED</p>", "response": "r", "stimulus-type": "congruent", "word": "red", "color": "red", "correct_response": "r", "trial_id": "stroop-trial-1-congruent-7", "trial_type": "html-keyboard-response", "trial_index": 84, "time_elapsed": 470340, "internal_node_id": "0.0-4.0-80.0"}}, {"uniqueid": "w33120880:a27170816", "current_trial": 85, "dateTime": 1664555657218, "trialdata": {"rt": 1457, "stimulus": "<p id='stroop-text' class='stroop-yellow'>BLUE</p>", "response": "y", "stimulus-type": "incongruent", "word": "blue", "color": "yellow", "correct_response": "y", "trial_id": "stroop-trial-1-incongruent-14", "trial_type": "html-keyboard-response", "trial_index": 85, "time_elapsed": 472309, "internal_node_id": "0.0-4.0-81.0"}}, {"uniqueid": "w33120880:a27170816", "current_trial": 86, "dateTime": 1664555658986, "trialdata": {"rt": 1255, "stimulus": "<p id='stroop-text' class='stroop-red'>BRIDGE</p>", "response": "r", "stimulus-type": "unrelated", "word": "BRIDGE", "color": "red", "correct_response": "r", "trial_id": "stroop-trial-1-unrelated-15", "trial_type": "html-keyboard-response", "trial_index": 86, "time_elapsed": 474077, "internal_node_id": "0.0-4.0-82.0"}}, {"uniqueid": "w33120880:a27170816", "current_trial": 87, "dateTime": 1664555661007, "trialdata": {"rt": 1513, "stimulus": "<p id='stroop-text' class='stroop-green'>MONKEY</p>", "response": "g", "stimulus-type": "unrelated", "word": "MONKEY", "color": "green", "correct_response": "g", "trial_id": "stroop-trial-1-unrelated-24", "trial_type": "html-keyboard-response", "trial_index": 87, "time_elapsed": 476098, "internal_node_id": "0.0-4.0-83.0"}}, {"uniqueid": "w33120880:a27170816", "current_trial": 88, "dateTime": 1664555664668, "trialdata": {"rt": 3132, "stimulus": "<p id='stroop-text' class='stroop-red'>WINDOW</p>", "response": "r", "stimulus-type": "unrelated", "word": "WINDOW", "color": "red", "correct_response": "r", "trial_id": "stroop-trial-1-unrelated-26", "trial_type": "html-keyboard-response", "trial_index": 88, "time_elapsed": 479759, "internal_node_id": "0.0-4.0-84.0"}}, {"uniqueid": "w33120880:a27170816", "current_trial": 89, "dateTime": 1664555666576, "trialdata": {"rt": 1400, "stimulus": "<p id='stroop-text' class='stroop-blue'>RED</p>", "response": "b", "stimulus-type": "incongruent", "word": "red", "color": "blue", "correct_response": "b", "trial_id": "stroop-trial-1-incongruent-19", "trial_type": "html-keyboard-response", "trial_index": 89, "time_elapsed": 481668, "internal_node_id": "0.0-4.0-85.0"}}, {"uniqueid": "w33120880:a27170816", "current_trial": 90, "dateTime": 1664555668121, "trialdata": {"rt": 1030, "stimulus": "<p id='stroop-text' class='stroop-red'>RED</p>", "response": "r", "stimulus-type": "congruent", "word": "red", "color": "red", "correct_response": "r", "trial_id": "stroop-trial-1-congruent-13", "trial_type": "html-keyboard-response", "trial_index": 90, "time_elapsed": 483212, "internal_node_id": "0.0-4.0-86.0"}}, {"uniqueid": "w33120880:a27170816", "current_trial": 91, "dateTime": 1664555669588, "trialdata": {"rt": 960, "stimulus": "<p id='stroop-text' class='stroop-green'>FORK</p>", "response": "g", "stimulus-type": "unrelated", "word": "FORK", "color": "green", "correct_response": "g", "trial_id": "stroop-trial-1-unrelated-10", "trial_type": "html-keyboard-response", "trial_index": 91, "time_elapsed": 484679, "internal_node_id": "0.0-4.0-87.0"}}, {"uniqueid": "w33120880:a27170816", "current_trial": 92, "dateTime": 1664555671208, "trialdata": {"rt": 1110, "stimulus": "<p id='stroop-text' class='stroop-blue'>BOAT</p>", "response": "b", "stimulus-type": "unrelated", "word": "BOAT", "color": "blue", "correct_response": "b", "trial_id": "stroop-trial-1-unrelated-23", "trial_type": "html-keyboard-response", "trial_index": 92, "time_elapsed": 486299, "internal_node_id": "0.0-4.0-88.0"}}, {"uniqueid": "w33120880:a27170816", "current_trial": 93, "dateTime": 1664555672680, "trialdata": {"rt": 964, "stimulus": "<p id='stroop-text' class='stroop-red'>RED</p>", "response": "r", "stimulus-type": "congruent", "word": "red", "color": "red", "correct_response": "r", "trial_id": "stroop-trial-1-congruent-18", "trial_type": "html-keyboard-response", "trial_index": 93, "time_elapsed": 487771, "internal_node_id": "0.0-4.0-89.0"}}, {"uniqueid": "w33120880:a27170816", "current_trial": 94, "dateTime": 1664555697780, "trialdata": {"rt": 24587, "stimulus": "  <h1> End of block! </h1>\n\n  You have reached the end of the block 1/5. If you need a short break, feel free to take one now before moving on.\n\n  <br><br>\n  In the next block, you will complete another 90 rounds of this game.\n\n  <br><br>\n  <div style='text-align: center;'>Press <code>space</code> to begin.</div>\n  <br><br>\n<div style='text-align: center;'>(If the experiment doesn't continue, try clicking on the text and then pressing <code>space</code>.)</div>", "response": " ", "trial_id": "stroop_1_ready_2", "trial_type": "html-keyboard-response", "trial_index": 94, "time_elapsed": 512871, "internal_node_id": "0.0-5.0"}}, {"uniqueid": "w33120880:a27170816", "current_trial": 95, "dateTime": 1664555700617, "trialdata": {"rt": 2823, "stimulus": "<p id='stroop-text' class='stroop-green'>BLUE</p>", "response": "g", "stimulus-type": "incongruent", "word": "blue", "color": "green", "correct_response": "g", "trial_id": "stroop-trial-1-incongruent-26", "trial_type": "html-keyboard-response", "trial_index": 95, "time_elapsed": 515707, "internal_node_id": "0.0-6.0-0.0"}}, {"uniqueid": "w33120880:a27170816", "current_trial": 96, "dateTime": 1664555702120, "trialdata": {"rt": 992, "stimulus": "<p id='stroop-text' class='stroop-yellow'>YELLOW</p>", "response": "y", "stimulus-type": "congruent", "word": "yellow", "color": "yellow", "correct_response": "y", "trial_id": "stroop-trial-1-congruent-25", "trial_type": "html-keyboard-response", "trial_index": 96, "time_elapsed": 517211, "internal_node_id": "0.0-6.0-1.0"}}, {"uniqueid": "w33120880:a27170816", "current_trial": 97, "dateTime": 1664555703626, "trialdata": {"rt": 996, "stimulus": "<p id='stroop-text' class='stroop-blue'>BLUE</p>", "response": "b", "stimulus-type": "congruent", "word": "blue", "color": "blue", "correct_response": "b", "trial_id": "stroop-trial-1-congruent-22", "trial_type": "html-keyboard-response", "trial_index": 97, "time_elapsed": 518717, "internal_node_id": "0.0-6.0-2.0"}}, {"uniqueid": "w33120880:a27170816", "current_trial": 98, "dateTime": 1664555705172, "trialdata": {"rt": 1029, "stimulus": "<p id='stroop-text' class='stroop-yellow'>SHIP</p>", "response": "y", "stimulus-type": "unrelated", "word": "SHIP", "color": "yellow", "correct_response": "y", "trial_id": "stroop-trial-1-unrelated-30", "trial_type": "html-keyboard-response", "trial_index": 98, "time_elapsed": 520263, "internal_node_id": "0.0-6.0-3.0"}}, {"uniqueid": "w33120880:a27170816", "current_trial": 99, "dateTime": 1664555706840, "trialdata": {"rt": 1160, "stimulus": "<p id='stroop-text' class='stroop-green'>BLUE</p>", "response": "g", "stimulus-type": "incongruent", "word": "blue", "color": "green", "correct_response": "g", "trial_id": "stroop-trial-1-incongruent-11", "trial_type": "html-keyboard-response", "trial_index": 99, "time_elapsed": 521931, "internal_node_id": "0.0-6.0-4.0"}}, {"uniqueid": "w33120880:a27170816", "current_trial": 100, "dateTime": 1664555708318, "trialdata": {"rt": 969, "stimulus": "<p id='stroop-text' class='stroop-yellow'>SHIP</p>", "response": "y", "stimulus-type": "unrelated", "word": "SHIP", "color": "yellow", "correct_response": "y", "trial_id": "stroop-trial-1-unrelated-22", "trial_type": "html-keyboard-response", "trial_index": 100, "time_elapsed": 523410, "internal_node_id": "0.0-6.0-5.0"}}, {"uniqueid": "w33120880:a27170816", "current_trial": 101, "dateTime": 1664555709423, "trialdata": {"rt": 597, "stimulus": "<p id='stroop-text' class='stroop-yellow'>YELLOW</p>", "response": "y", "stimulus-type": "congruent", "word": "yellow", "color": "yellow", "correct_response": "y", "trial_id": "stroop-trial-1-congruent-26", "trial_type": "html-keyboard-response", "trial_index": 101, "time_elapsed": 524515, "internal_node_id": "0.0-6.0-6.0"}}, {"uniqueid": "w33120880:a27170816", "current_trial": 102, "dateTime": 1664555710987, "trialdata": {"rt": 1055, "stimulus": "<p id='stroop-text' class='stroop-green'>GREEN</p>", "response": "g", "stimulus-type": "congruent", "word": "green", "color": "green", "correct_response": "g", "trial_id": "stroop-trial-1-congruent-18", "trial_type": "html-keyboard-response", "trial_index": 102, "time_elapsed": 526078, "internal_node_id": "0.0-6.0-7.0"}}, {"uniqueid": "w33120880:a27170816", "current_trial": 103, "dateTime": 1664555712375, "trialdata": {"rt": 878, "stimulus": "<p id='stroop-text' class='stroop-green'>BLUE</p>", "response": "g", "stimulus-type": "incongruent", "word": "blue", "color": "green", "correct_response": "g", "trial_id": "stroop-trial-1-incongruent-22", "trial_type": "html-keyboard-response", "trial_index": 103, "time_elapsed": 527466, "internal_node_id": "0.0-6.0-8.0"}}, {"uniqueid": "w33120880:a27170816", "current_trial": 104, "dateTime": 1664555713879, "trialdata": {"rt": 995, "stimulus": "<p id='stroop-text' class='stroop-yellow'>RED</p>", "response": "y", "stimulus-type": "incongruent", "word": "red", "color": "yellow", "correct_response": "y", "trial_id": "stroop-trial-1-incongruent-30", "trial_type": "html-keyboard-response", "trial_index": 104, "time_elapsed": 528971, "internal_node_id": "0.0-6.0-9.0"}}, {"uniqueid": "w33120880:a27170816", "current_trial": 105, "dateTime": 1664555715312, "trialdata": {"rt": 923, "stimulus": "<p id='stroop-text' class='stroop-green'>SHIP</p>", "response": "g", "stimulus-type": "unrelated", "word": "SHIP", "color": "green", "correct_response": "g", "trial_id": "stroop-trial-1-unrelated-20", "trial_type": "html-keyboard-response", "trial_index": 105, "time_elapsed": 530404, "internal_node_id": "0.0-6.0-10.0"}}, {"uniqueid": "w33120880:a27170816", "current_trial": 106, "dateTime": 1664555716749, "trialdata": {"rt": 928, "stimulus": "<p id='stroop-text' class='stroop-yellow'>GREEN</p>", "response": "y", "stimulus-type": "incongruent", "word": "green", "color": "yellow", "correct_response": "y", "trial_id": "stroop-trial-1-incongruent-19", "trial_type": "html-keyboard-response", "trial_index": 106, "time_elapsed": 531841, "internal_node_id": "0.0-6.0-11.0"}}, {"uniqueid": "w33120880:a27170816", "current_trial": 107, "dateTime": 1664555718576, "trialdata": {"rt": 1314, "stimulus": "<p id='stroop-text' class='stroop-blue'>SHIP</p>", "response": "b", "stimulus-type": "unrelated", "word": "SHIP", "color": "blue", "correct_response": "b", "trial_id": "stroop-trial-1-unrelated-17", "trial_type": "html-keyboard-response", "trial_index": 107, "time_elapsed": 533668, "internal_node_id": "0.0-6.0-12.0"}}, {"uniqueid": "w33120880:a27170816", "current_trial": 108, "dateTime": 1664555720144, "trialdata": {"rt": 1059, "stimulus": "<p id='stroop-text' class='stroop-red'>RED</p>", "response": "r", "stimulus-type": "congruent", "word": "red", "color": "red", "correct_response": "r", "trial_id": "stroop-trial-1-congruent-28", "trial_type": "html-keyboard-response", "trial_index": 108, "time_elapsed": 535235, "internal_node_id": "0.0-6.0-13.0"}}, {"uniqueid": "w33120880:a27170816", "current_trial": 109, "dateTime": 1664555721287, "trialdata": {"rt": 631, "stimulus": "<p id='stroop-text' class='stroop-red'>RED</p>", "response": "r", "stimulus-type": "congruent", "word": "red", "color": "red", "correct_response": "r", "trial_id": "stroop-trial-1-congruent-6", "trial_type": "html-keyboard-response", "trial_index": 109, "time_elapsed": 536379, "internal_node_id": "0.0-6.0-14.0"}}, {"uniqueid": "w33120880:a27170816", "current_trial": 110, "dateTime": 1664555722439, "trialdata": {"rt": 640, "stimulus": "<p id='stroop-text' class='stroop-red'>DOG</p>", "response": "r", "stimulus-type": "unrelated", "word": "DOG", "color": "red", "correct_response": "r", "trial_id": "stroop-trial-1-unrelated-29", "trial_type": "html-keyboard-response", "trial_index": 110, "time_elapsed": 537531, "internal_node_id": "0.0-6.0-15.0"}}, {"uniqueid": "w33120880:a27170816", "current_trial": 111, "dateTime": 1664555724321, "trialdata": {"rt": 1372, "stimulus": "<p id='stroop-text' class='stroop-green'>DOG</p>", "response": "g", "stimulus-type": "unrelated", "word": "DOG", "color": "green", "correct_response": "g", "trial_id": "stroop-trial-1-unrelated-15", "trial_type": "html-keyboard-response", "trial_index": 111, "time_elapsed": 539413, "internal_node_id": "0.0-6.0-16.0"}}, {"uniqueid": "w33120880:a27170816", "current_trial": 112, "dateTime": 1664555725399, "trialdata": {"rt": 567, "stimulus": "<p id='stroop-text' class='stroop-green'>GREEN</p>", "response": "g", "stimulus-type": "congruent", "word": "green", "color": "green", "correct_response": "g", "trial_id": "stroop-trial-1-congruent-5", "trial_type": "html-keyboard-response", "trial_index": 112, "time_elapsed": 540490, "internal_node_id": "0.0-6.0-17.0"}}, {"uniqueid": "w33120880:a27170816", "current_trial": 113, "dateTime": 1664555726575, "trialdata": {"rt": 666, "stimulus": "<p id='stroop-text' class='stroop-green'>YELLOW</p>", "response": "g", "stimulus-type": "incongruent", "word": "yellow", "color": "green", "correct_response": "g", "trial_id": "stroop-trial-1-incongruent-20", "trial_type": "html-keyboard-response", "trial_index": 113, "time_elapsed": 541667, "internal_node_id": "0.0-6.0-18.0"}}, {"uniqueid": "w33120880:a27170816", "current_trial": 114, "dateTime": 1664555728186, "trialdata": {"rt": 1101, "stimulus": "<p id='stroop-text' class='stroop-yellow'>BLUE</p>", "response": "y", "stimulus-type": "incongruent", "word": "blue", "color": "yellow", "correct_response": "y", "trial_id": "stroop-trial-1-incongruent-6", "trial_type": "html-keyboard-response", "trial_index": 114, "time_elapsed": 543277, "internal_node_id": "0.0-6.0-19.0"}}, {"uniqueid": "w33120880:a27170816", "current_trial": 115, "dateTime": 1664555729819, "trialdata": {"rt": 1125, "stimulus": "<p id='stroop-text' class='stroop-blue'>BRIDGE</p>", "response": "b", "stimulus-type": "unrelated", "word": "BRIDGE", "color": "blue", "correct_response": "b", "trial_id": "stroop-trial-1-unrelated-12", "trial_type": "html-keyboard-response", "trial_index": 115, "time_elapsed": 544910, "internal_node_id": "0.0-6.0-20.0"}}, {"uniqueid": "w33120880:a27170816", "current_trial": 116, "dateTime": 1664555731096, "trialdata": {"rt": 767, "stimulus": "<p id='stroop-text' class='stroop-blue'>STONE</p>", "response": "b", "stimulus-type": "unrelated", "word": "STONE", "color": "blue", "correct_response": "b", "trial_id": "stroop-trial-1-unrelated-8", "trial_type": "html-keyboard-response", "trial_index": 116, "time_elapsed": 546188, "internal_node_id": "0.0-6.0-21.0"}}, {"uniqueid": "w33120880:a27170816", "current_trial": 117, "dateTime": 1664555732648, "trialdata": {"rt": 1040, "stimulus": "<p id='stroop-text' class='stroop-green'>YELLOW</p>", "response": "g", "stimulus-type": "incongruent", "word": "yellow", "color": "green", "correct_response": "g", "trial_id": "stroop-trial-1-incongruent-8", "trial_type": "html-keyboard-response", "trial_index": 117, "time_elapsed": 547739, "internal_node_id": "0.0-6.0-22.0"}}, {"uniqueid": "w33120880:a27170816", "current_trial": 118, "dateTime": 1664555733591, "trialdata": {"rt": 431, "stimulus": "<p id='stroop-text' class='stroop-green'>GREEN</p>", "response": "g", "stimulus-type": "congruent", "word": "green", "color": "green", "correct_response": "g", "trial_id": "stroop-trial-1-congruent-13", "trial_type": "html-keyboard-response", "trial_index": 118, "time_elapsed": 548683, "internal_node_id": "0.0-6.0-23.0"}}, {"uniqueid": "w33120880:a27170816", "current_trial": 119, "dateTime": 1664555735921, "trialdata": {"rt": 1821, "stimulus": "<p id='stroop-text' class='stroop-blue'>RED</p>", "response": "b", "stimulus-type": "incongruent", "word": "red", "color": "blue", "correct_response": "b", "trial_id": "stroop-trial-1-incongruent-14", "trial_type": "html-keyboard-response", "trial_index": 119, "time_elapsed": 551013, "internal_node_id": "0.0-6.0-24.0"}}, {"uniqueid": "w33120880:a27170816", "current_trial": 120, "dateTime": 1664555737601, "trialdata": {"rt": 1168, "stimulus": "<p id='stroop-text' class='stroop-red'>BLUE</p>", "response": "r", "stimulus-type": "incongruent", "word": "blue", "color": "red", "correct_response": "r", "trial_id": "stroop-trial-1-incongruent-3", "trial_type": "html-keyboard-response", "trial_index": 120, "time_elapsed": 552692, "internal_node_id": "0.0-6.0-25.0"}}, {"uniqueid": "w33120880:a27170816", "current_trial": 121, "dateTime": 1664555740082, "trialdata": {"rt": 1971, "stimulus": "<p id='stroop-text' class='stroop-green'>BLUE</p>", "response": "g", "stimulus-type": "incongruent", "word": "blue", "color": "green", "correct_response": "g", "trial_id": "stroop-trial-1-incongruent-2", "trial_type": "html-keyboard-response", "trial_index": 121, "time_elapsed": 555173, "internal_node_id": "0.0-6.0-26.0"}}, {"uniqueid": "w33120880:a27170816", "current_trial": 122, "dateTime": 1664555741279, "trialdata": {"rt": 688, "stimulus": "<p id='stroop-text' class='stroop-green'>BOAT</p>", "response": "g", "stimulus-type": "unrelated", "word": "BOAT", "color": "green", "correct_response": "g", "trial_id": "stroop-trial-1-unrelated-19", "trial_type": "html-keyboard-response", "trial_index": 122, "time_elapsed": 556371, "internal_node_id": "0.0-6.0-27.0"}}, {"uniqueid": "w33120880:a27170816", "current_trial": 123, "dateTime": 1664555743642, "trialdata": {"rt": 1845, "stimulus": "<p id='stroop-text' class='stroop-red'>BLUE</p>", "response": "r", "stimulus-type": "incongruent", "word": "blue", "color": "red", "correct_response": "r", "trial_id": "stroop-trial-1-incongruent-25", "trial_type": "html-keyboard-response", "trial_index": 123, "time_elapsed": 558733, "internal_node_id": "0.0-6.0-28.0"}}, {"uniqueid": "w33120880:a27170816", "current_trial": 124, "dateTime": 1664555744632, "trialdata": {"rt": 482, "stimulus": "<p id='stroop-text' class='stroop-red'>RED</p>", "response": "r", "stimulus-type": "congruent", "word": "red", "color": "red", "correct_response": "r", "trial_id": "stroop-trial-1-congruent-15", "trial_type": "html-keyboard-response", "trial_index": 124, "time_elapsed": 559723, "internal_node_id": "0.0-6.0-29.0"}}, {"uniqueid": "w33120880:a27170816", "current_trial": 125, "dateTime": 1664555745592, "trialdata": {"rt": 447, "stimulus": "<p id='stroop-text' class='stroop-red'>YELLOW</p>", "response": "r", "stimulus-type": "incongruent", "word": "yellow", "color": "red", "correct_response": "r", "trial_id": "stroop-trial-1-incongruent-4", "trial_type": "html-keyboard-response", "trial_index": 125, "time_elapsed": 560683, "internal_node_id": "0.0-6.0-30.0"}}, {"uniqueid": "w33120880:a27170816", "current_trial": 126, "dateTime": 1664555747243, "trialdata": {"rt": 1141, "stimulus": "<p id='stroop-text' class='stroop-green'>BOTTLE</p>", "response": "g", "stimulus-type": "unrelated", "word": "BOTTLE", "color": "green", "correct_response": "g", "trial_id": "stroop-trial-1-unrelated-23", "trial_type": "html-keyboard-response", "trial_index": 126, "time_elapsed": 562334, "internal_node_id": "0.0-6.0-31.0"}}, {"uniqueid": "w33120880:a27170816", "current_trial": 127, "dateTime": 1664555749248, "trialdata": {"rt": 1496, "stimulus": "<p id='stroop-text' class='stroop-red'>BLUE</p>", "response": "r", "stimulus-type": "incongruent", "word": "blue", "color": "red", "correct_response": "r", "trial_id": "stroop-trial-1-incongruent-10", "trial_type": "html-keyboard-response", "trial_index": 127, "time_elapsed": 564339, "internal_node_id": "0.0-6.0-32.0"}}, {"uniqueid": "w33120880:a27170816", "current_trial": 128, "dateTime": 1664555750706, "trialdata": {"rt": 947, "stimulus": "<p id='stroop-text' class='stroop-green'>GREEN</p>", "response": "g", "stimulus-type": "congruent", "word": "green", "color": "green", "correct_response": "g", "trial_id": "stroop-trial-1-congruent-9", "trial_type": "html-keyboard-response", "trial_index": 128, "time_elapsed": 565797, "internal_node_id": "0.0-6.0-33.0"}}, {"uniqueid": "w33120880:a27170816", "current_trial": 129, "dateTime": 1664555752793, "trialdata": {"rt": 1578, "stimulus": "<p id='stroop-text' class='stroop-red'>GREEN</p>", "response": "r", "stimulus-type": "incongruent", "word": "green", "color": "red", "correct_response": "r", "trial_id": "stroop-trial-1-incongruent-27", "trial_type": "html-keyboard-response", "trial_index": 129, "time_elapsed": 567885, "internal_node_id": "0.0-6.0-34.0"}}, {"uniqueid": "w33120880:a27170816", "current_trial": 130, "dateTime": 1664555754322, "trialdata": {"rt": 1016, "stimulus": "<p id='stroop-text' class='stroop-yellow'>RED</p>", "response": "y", "stimulus-type": "incongruent", "word": "red", "color": "yellow", "correct_response": "y", "trial_id": "stroop-trial-1-incongruent-7", "trial_type": "html-keyboard-response", "trial_index": 130, "time_elapsed": 569413, "internal_node_id": "0.0-6.0-35.0"}}, {"uniqueid": "w33120880:a27170816", "current_trial": 131, "dateTime": 1664555756431, "trialdata": {"rt": 1600, "stimulus": "<p id='stroop-text' class='stroop-blue'>YELLOW</p>", "response": "b", "stimulus-type": "incongruent", "word": "yellow", "color": "blue", "correct_response": "b", "trial_id": "stroop-trial-1-incongruent-9", "trial_type": "html-keyboard-response", "trial_index": 131, "time_elapsed": 571522, "internal_node_id": "0.0-6.0-36.0"}}, {"uniqueid": "w33120880:a27170816", "current_trial": 132, "dateTime": 1664555758540, "trialdata": {"rt": 1599, "stimulus": "<p id='stroop-text' class='stroop-yellow'>BOTTLE</p>", "response": "y", "stimulus-type": "unrelated", "word": "BOTTLE", "color": "yellow", "correct_response": "y", "trial_id": "stroop-trial-1-unrelated-14", "trial_type": "html-keyboard-response", "trial_index": 132, "time_elapsed": 573631, "internal_node_id": "0.0-6.0-37.0"}}, {"uniqueid": "w33120880:a27170816", "current_trial": 133, "dateTime": 1664555759712, "trialdata": {"rt": 658, "stimulus": "<p id='stroop-text' class='stroop-yellow'>YELLOW</p>", "response": "y", "stimulus-type": "congruent", "word": "yellow", "color": "yellow", "correct_response": "y", "trial_id": "stroop-trial-1-congruent-24", "trial_type": "html-keyboard-response", "trial_index": 133, "time_elapsed": 574803, "internal_node_id": "0.0-6.0-38.0"}}, {"uniqueid": "w33120880:a27170816", "current_trial": 134, "dateTime": 1664555760600, "trialdata": {"rt": 377, "stimulus": "<p id='stroop-text' class='stroop-yellow'>YELLOW</p>", "response": "y", "stimulus-type": "congruent", "word": "yellow", "color": "yellow", "correct_response": "y", "trial_id": "stroop-trial-1-congruent-20", "trial_type": "html-keyboard-response", "trial_index": 134, "time_elapsed": 575691, "internal_node_id": "0.0-6.0-39.0"}}, {"uniqueid": "w33120880:a27170816", "current_trial": 135, "dateTime": 1664555762846, "trialdata": {"rt": 1737, "stimulus": "<p id='stroop-text' class='stroop-red'>RED</p>", "response": "r", "stimulus-type": "congruent", "word": "red", "color": "red", "correct_response": "r", "trial_id": "stroop-trial-1-congruent-3", "trial_type": "html-keyboard-response", "trial_index": 135, "time_elapsed": 577937, "internal_node_id": "0.0-6.0-40.0"}}, {"uniqueid": "w33120880:a27170816", "current_trial": 136, "dateTime": 1664555764344, "trialdata": {"rt": 984, "stimulus": "<p id='stroop-text' class='stroop-green'>GREEN</p>", "response": "g", "stimulus-type": "congruent", "word": "green", "color": "green", "correct_response": "g", "trial_id": "stroop-trial-1-congruent-10", "trial_type": "html-keyboard-response", "trial_index": 136, "time_elapsed": 579435, "internal_node_id": "0.0-6.0-41.0"}}, {"uniqueid": "w33120880:a27170816", "current_trial": 137, "dateTime": 1664555766063, "trialdata": {"rt": 1210, "stimulus": "<p id='stroop-text' class='stroop-green'>BOTTLE</p>", "response": "g", "stimulus-type": "unrelated", "word": "BOTTLE", "color": "green", "correct_response": "g", "trial_id": "stroop-trial-1-unrelated-1", "trial_type": "html-keyboard-response", "trial_index": 137, "time_elapsed": 581155, "internal_node_id": "0.0-6.0-42.0"}}, {"uniqueid": "w33120880:a27170816", "current_trial": 138, "dateTime": 1664555767110, "trialdata": {"rt": 538, "stimulus": "<p id='stroop-text' class='stroop-green'>GREEN</p>", "response": "g", "stimulus-type": "congruent", "word": "green", "color": "green", "correct_response": "g", "trial_id": "stroop-trial-1-congruent-23", "trial_type": "html-keyboard-response", "trial_index": 138, "time_elapsed": 582201, "internal_node_id": "0.0-6.0-43.0"}}, {"uniqueid": "w33120880:a27170816", "current_trial": 139, "dateTime": 1664555767999, "trialdata": {"rt": 379, "stimulus": "<p id='stroop-text' class='stroop-green'>GREEN</p>", "response": "g", "stimulus-type": "congruent", "word": "green", "color": "green", "correct_response": "g", "trial_id": "stroop-trial-1-congruent-16", "trial_type": "html-keyboard-response", "trial_index": 139, "time_elapsed": 583091, "internal_node_id": "0.0-6.0-44.0"}}, {"uniqueid": "w33120880:a27170816", "current_trial": 140, "dateTime": 1664555770073, "trialdata": {"rt": 1563, "stimulus": "<p id='stroop-text' class='stroop-red'>RED</p>", "response": "r", "stimulus-type": "congruent", "word": "red", "color": "red", "correct_response": "r", "trial_id": "stroop-trial-1-congruent-29", "trial_type": "html-keyboard-response", "trial_index": 140, "time_elapsed": 585165, "internal_node_id": "0.0-6.0-45.0"}}, {"uniqueid": "w33120880:a27170816", "current_trial": 141, "dateTime": 1664555771457, "trialdata": {"rt": 876, "stimulus": "<p id='stroop-text' class='stroop-red'>STONE</p>", "response": "r", "stimulus-type": "unrelated", "word": "STONE", "color": "red", "correct_response": "r", "trial_id": "stroop-trial-1-unrelated-21", "trial_type": "html-keyboard-response", "trial_index": 141, "time_elapsed": 586549, "internal_node_id": "0.0-6.0-46.0"}}, {"uniqueid": "w33120880:a27170816", "current_trial": 142, "dateTime": 1664555772923, "trialdata": {"rt": 954, "stimulus": "<p id='stroop-text' class='stroop-yellow'>CHAIR</p>", "response": "y", "stimulus-type": "unrelated", "word": "CHAIR", "color": "yellow", "correct_response": "y", "trial_id": "stroop-trial-1-unrelated-18", "trial_type": "html-keyboard-response", "trial_index": 142, "time_elapsed": 588014, "internal_node_id": "0.0-6.0-47.0"}}, {"uniqueid": "w33120880:a27170816", "current_trial": 143, "dateTime": 1664555774744, "trialdata": {"rt": 1312, "stimulus": "<p id='stroop-text' class='stroop-green'>YELLOW</p>", "response": "g", "stimulus-type": "incongruent", "word": "yellow", "color": "green", "correct_response": "g", "trial_id": "stroop-trial-1-incongruent-13", "trial_type": "html-keyboard-response", "trial_index": 143, "time_elapsed": 589835, "internal_node_id": "0.0-6.0-48.0"}}, {"uniqueid": "w33120880:a27170816", "current_trial": 144, "dateTime": 1664555776305, "trialdata": {"rt": 1050, "stimulus": "<p id='stroop-text' class='stroop-blue'>BLUE</p>", "response": "b", "stimulus-type": "congruent", "word": "blue", "color": "blue", "correct_response": "b", "trial_id": "stroop-trial-1-congruent-7", "trial_type": "html-keyboard-response", "trial_index": 144, "time_elapsed": 591396, "internal_node_id": "0.0-6.0-49.0"}}, {"uniqueid": "w33120880:a27170816", "current_trial": 145, "dateTime": 1664555777296, "trialdata": {"rt": 482, "stimulus": "<p id='stroop-text' class='stroop-blue'>BLUE</p>", "response": "b", "stimulus-type": "congruent", "word": "blue", "color": "blue", "correct_response": "b", "trial_id": "stroop-trial-1-congruent-12", "trial_type": "html-keyboard-response", "trial_index": 145, "time_elapsed": 592387, "internal_node_id": "0.0-6.0-50.0"}}, {"uniqueid": "w33120880:a27170816", "current_trial": 146, "dateTime": 1664555778305, "trialdata": {"rt": 494, "stimulus": "<p id='stroop-text' class='stroop-blue'>MONKEY</p>", "response": "b", "stimulus-type": "unrelated", "word": "MONKEY", "color": "blue", "correct_response": "b", "trial_id": "stroop-trial-1-unrelated-10", "trial_type": "html-keyboard-response", "trial_index": 146, "time_elapsed": 593396, "internal_node_id": "0.0-6.0-51.0"}}, {"uniqueid": "w33120880:a27170816", "current_trial": 147, "dateTime": 1664555779817, "trialdata": {"rt": 1004, "stimulus": "<p id='stroop-text' class='stroop-green'>STONE</p>", "response": "g", "stimulus-type": "unrelated", "word": "STONE", "color": "green", "correct_response": "g", "trial_id": "stroop-trial-1-unrelated-26", "trial_type": "html-keyboard-response", "trial_index": 147, "time_elapsed": 594909, "internal_node_id": "0.0-6.0-52.0"}}, {"uniqueid": "w33120880:a27170816", "current_trial": 148, "dateTime": 1664555780722, "trialdata": {"rt": 382, "stimulus": "<p id='stroop-text' class='stroop-green'>GREEN</p>", "response": "g", "stimulus-type": "congruent", "word": "green", "color": "green", "correct_response": "g", "trial_id": "stroop-trial-1-congruent-2", "trial_type": "html-keyboard-response", "trial_index": 148, "time_elapsed": 595812, "internal_node_id": "0.0-6.0-53.0"}}, {"uniqueid": "w33120880:a27170816", "current_trial": 149, "dateTime": 1664555782195, "trialdata": {"rt": 961, "stimulus": "<p id='stroop-text' class='stroop-yellow'>CHAIR</p>", "response": "y", "stimulus-type": "unrelated", "word": "CHAIR", "color": "yellow", "correct_response": "y", "trial_id": "stroop-trial-1-unrelated-28", "trial_type": "html-keyboard-response", "trial_index": 149, "time_elapsed": 597285, "internal_node_id": "0.0-6.0-54.0"}}, {"uniqueid": "w33120880:a27170816", "current_trial": 150, "dateTime": 1664555783066, "trialdata": {"rt": 360, "stimulus": "<p id='stroop-text' class='stroop-yellow'>BRIDGE</p>", "response": "y", "stimulus-type": "unrelated", "word": "BRIDGE", "color": "yellow", "correct_response": "y", "trial_id": "stroop-trial-1-unrelated-6", "trial_type": "html-keyboard-response", "trial_index": 150, "time_elapsed": 598157, "internal_node_id": "0.0-6.0-55.0"}}, {"uniqueid": "w33120880:a27170816", "current_trial": 151, "dateTime": 1664555784880, "trialdata": {"rt": 1301, "stimulus": "<p id='stroop-text' class='stroop-red'>GREEN</p>", "response": "r", "stimulus-type": "incongruent", "word": "green", "color": "red", "correct_response": "r", "trial_id": "stroop-trial-1-incongruent-1", "trial_type": "html-keyboard-response", "trial_index": 151, "time_elapsed": 599972, "internal_node_id": "0.0-6.0-56.0"}}, {"uniqueid": "w33120880:a27170816", "current_trial": 152, "dateTime": 1664555785730, "trialdata": {"rt": 338, "stimulus": "<p id='stroop-text' class='stroop-red'>BRAIN</p>", "response": "r", "stimulus-type": "unrelated", "word": "BRAIN", "color": "red", "correct_response": "r", "trial_id": "stroop-trial-1-unrelated-7", "trial_type": "html-keyboard-response", "trial_index": 152, "time_elapsed": 600822, "internal_node_id": "0.0-6.0-57.0"}}, {"uniqueid": "w33120880:a27170816", "current_trial": 153, "dateTime": 1664555787457, "trialdata": {"rt": 1213, "stimulus": "<p id='stroop-text' class='stroop-blue'>STONE</p>", "response": "b", "stimulus-type": "unrelated", "word": "STONE", "color": "blue", "correct_response": "b", "trial_id": "stroop-trial-1-unrelated-5", "trial_type": "html-keyboard-response", "trial_index": 153, "time_elapsed": 602549, "internal_node_id": "0.0-6.0-58.0"}}, {"uniqueid": "w33120880:a27170816", "current_trial": 154, "dateTime": 1664555789815, "trialdata": {"rt": 1843, "stimulus": "<p id='stroop-text' class='stroop-red'>BLUE</p>", "response": "r", "stimulus-type": "incongruent", "word": "blue", "color": "red", "correct_response": "r", "trial_id": "stroop-trial-1-incongruent-24", "trial_type": "html-keyboard-response", "trial_index": 154, "time_elapsed": 604907, "internal_node_id": "0.0-6.0-59.0"}}, {"uniqueid": "w33120880:a27170816", "current_trial": 155, "dateTime": 1664555791543, "trialdata": {"rt": 1218, "stimulus": "<p id='stroop-text' class='stroop-yellow'>YELLOW</p>", "response": "y", "stimulus-type": "congruent", "word": "yellow", "color": "yellow", "correct_response": "y", "trial_id": "stroop-trial-1-congruent-27", "trial_type": "html-keyboard-response", "trial_index": 155, "time_elapsed": 606634, "internal_node_id": "0.0-6.0-60.0"}}, {"uniqueid": "w33120880:a27170816", "current_trial": 156, "dateTime": 1664555793667, "trialdata": {"rt": 1612, "stimulus": "<p id='stroop-text' class='stroop-red'>WINDOW</p>", "response": "r", "stimulus-type": "unrelated", "word": "WINDOW", "color": "red", "correct_response": "r", "trial_id": "stroop-trial-1-unrelated-13", "trial_type": "html-keyboard-response", "trial_index": 156, "time_elapsed": 608758, "internal_node_id": "0.0-6.0-61.0"}}, {"uniqueid": "w33120880:a27170816", "current_trial": 157, "dateTime": 1664555795297, "trialdata": {"rt": 1119, "stimulus": "<p id='stroop-text' class='stroop-blue'>YELLOW</p>", "response": "b", "stimulus-type": "incongruent", "word": "yellow", "color": "blue", "correct_response": "b", "trial_id": "stroop-trial-1-incongruent-15", "trial_type": "html-keyboard-response", "trial_index": 157, "time_elapsed": 610388, "internal_node_id": "0.0-6.0-62.0"}}, {"uniqueid": "w33120880:a27170816", "current_trial": 158, "dateTime": 1664555796977, "trialdata": {"rt": 1169, "stimulus": "<p id='stroop-text' class='stroop-green'>BRIDGE</p>", "response": "g", "stimulus-type": "unrelated", "word": "BRIDGE", "color": "green", "correct_response": "g", "trial_id": "stroop-trial-1-unrelated-4", "trial_type": "html-keyboard-response", "trial_index": 158, "time_elapsed": 612067, "internal_node_id": "0.0-6.0-63.0"}}, {"uniqueid": "w33120880:a27170816", "current_trial": 159, "dateTime": 1664555798072, "trialdata": {"rt": 586, "stimulus": "<p id='stroop-text' class='stroop-green'>GREEN</p>", "response": "g", "stimulus-type": "congruent", "word": "green", "color": "green", "correct_response": "g", "trial_id": "stroop-trial-1-congruent-8", "trial_type": "html-keyboard-response", "trial_index": 159, "time_elapsed": 613163, "internal_node_id": "0.0-6.0-64.0"}}, {"uniqueid": "w33120880:a27170816", "current_trial": 160, "dateTime": 1664555799431, "trialdata": {"rt": 848, "stimulus": "<p id='stroop-text' class='stroop-yellow'>GREEN</p>", "response": "y", "stimulus-type": "incongruent", "word": "green", "color": "yellow", "correct_response": "y", "trial_id": "stroop-trial-1-incongruent-16", "trial_type": "html-keyboard-response", "trial_index": 160, "time_elapsed": 614523, "internal_node_id": "0.0-6.0-65.0"}}, {"uniqueid": "w33120880:a27170816", "current_trial": 161, "dateTime": 1664555802707, "trialdata": {"rt": 2763, "stimulus": "<p id='stroop-text' class='stroop-red'>WINDOW</p>", "response": "r", "stimulus-type": "unrelated", "word": "WINDOW", "color": "red", "correct_response": "r", "trial_id": "stroop-trial-1-unrelated-16", "trial_type": "html-keyboard-response", "trial_index": 161, "time_elapsed": 617795, "internal_node_id": "0.0-6.0-66.0"}}, {"uniqueid": "w33120880:a27170816", "current_trial": 162, "dateTime": 1664555804310, "trialdata": {"rt": 1087, "stimulus": "<p id='stroop-text' class='stroop-blue'>BRAIN</p>", "response": "b", "stimulus-type": "unrelated", "word": "BRAIN", "color": "blue", "correct_response": "b", "trial_id": "stroop-trial-1-unrelated-24", "trial_type": "html-keyboard-response", "trial_index": 162, "time_elapsed": 619401, "internal_node_id": "0.0-6.0-67.0"}}, {"uniqueid": "w33120880:a27170816", "current_trial": 163, "dateTime": 1664555806352, "trialdata": {"rt": 1527, "stimulus": "<p id='stroop-text' class='stroop-blue'>BLUE</p>", "response": "b", "stimulus-type": "congruent", "word": "blue", "color": "blue", "correct_response": "b", "trial_id": "stroop-trial-1-congruent-30", "trial_type": "html-keyboard-response", "trial_index": 163, "time_elapsed": 621443, "internal_node_id": "0.0-6.0-68.0"}}, {"uniqueid": "w33120880:a27170816", "current_trial": 164, "dateTime": 1664555807865, "trialdata": {"rt": 1002, "stimulus": "<p id='stroop-text' class='stroop-red'>BLUE</p>", "response": "r", "stimulus-type": "incongruent", "word": "blue", "color": "red", "correct_response": "r", "trial_id": "stroop-trial-1-incongruent-12", "trial_type": "html-keyboard-response", "trial_index": 164, "time_elapsed": 622956, "internal_node_id": "0.0-6.0-69.0"}}, {"uniqueid": "w33120880:a27170816", "current_trial": 165, "dateTime": 1664555809257, "trialdata": {"rt": 881, "stimulus": "<p id='stroop-text' class='stroop-blue'>RED</p>", "response": "b", "stimulus-type": "incongruent", "word": "red", "color": "blue", "correct_response": "b", "trial_id": "stroop-trial-1-incongruent-23", "trial_type": "html-keyboard-response", "trial_index": 165, "time_elapsed": 624348, "internal_node_id": "0.0-6.0-70.0"}}, {"uniqueid": "w33120880:a27170816", "current_trial": 166, "dateTime": 1664555810591, "trialdata": {"rt": 825, "stimulus": "<p id='stroop-text' class='stroop-green'>WINDOW</p>", "response": "g", "stimulus-type": "unrelated", "word": "WINDOW", "color": "green", "correct_response": "g", "trial_id": "stroop-trial-1-unrelated-9", "trial_type": "html-keyboard-response", "trial_index": 166, "time_elapsed": 625683, "internal_node_id": "0.0-6.0-71.0"}}, {"uniqueid": "w33120880:a27170816", "current_trial": 167, "dateTime": 1664555812984, "trialdata": {"rt": 1883, "stimulus": "<p id='stroop-text' class='stroop-blue'>BLUE</p>", "response": "b", "stimulus-type": "congruent", "word": "blue", "color": "blue", "correct_response": "b", "trial_id": "stroop-trial-1-congruent-17", "trial_type": "html-keyboard-response", "trial_index": 167, "time_elapsed": 628075, "internal_node_id": "0.0-6.0-72.0"}}, {"uniqueid": "w33120880:a27170816", "current_trial": 168, "dateTime": 1664555814547, "trialdata": {"rt": 1052, "stimulus": "<p id='stroop-text' class='stroop-red'>MONKEY</p>", "response": "r", "stimulus-type": "unrelated", "word": "MONKEY", "color": "red", "correct_response": "r", "trial_id": "stroop-trial-1-unrelated-11", "trial_type": "html-keyboard-response", "trial_index": 168, "time_elapsed": 629638, "internal_node_id": "0.0-6.0-73.0"}}, {"uniqueid": "w33120880:a27170816", "current_trial": 169, "dateTime": 1664555816524, "trialdata": {"rt": 1468, "stimulus": "<p id='stroop-text' class='stroop-blue'>RED</p>", "response": "b", "stimulus-type": "incongruent", "word": "red", "color": "blue", "correct_response": "b", "trial_id": "stroop-trial-1-incongruent-18", "trial_type": "html-keyboard-response", "trial_index": 169, "time_elapsed": 631616, "internal_node_id": "0.0-6.0-74.0"}}, {"uniqueid": "w33120880:a27170816", "current_trial": 170, "dateTime": 1664555818016, "trialdata": {"rt": 979, "stimulus": "<p id='stroop-text' class='stroop-red'>RED</p>", "response": "r", "stimulus-type": "congruent", "word": "red", "color": "red", "correct_response": "r", "trial_id": "stroop-trial-1-congruent-14", "trial_type": "html-keyboard-response", "trial_index": 170, "time_elapsed": 633108, "internal_node_id": "0.0-6.0-75.0"}}, {"uniqueid": "w33120880:a27170816", "current_trial": 171, "dateTime": 1664555819223, "trialdata": {"rt": 696, "stimulus": "<p id='stroop-text' class='stroop-green'>GREEN</p>", "response": "g", "stimulus-type": "congruent", "word": "green", "color": "green", "correct_response": "g", "trial_id": "stroop-trial-1-congruent-19", "trial_type": "html-keyboard-response", "trial_index": 171, "time_elapsed": 634315, "internal_node_id": "0.0-6.0-76.0"}}, {"uniqueid": "w33120880:a27170816", "current_trial": 172, "dateTime": 1664555820359, "trialdata": {"rt": 625, "stimulus": "<p id='stroop-text' class='stroop-green'>CHAIR</p>", "response": "g", "stimulus-type": "unrelated", "word": "CHAIR", "color": "green", "correct_response": "g", "trial_id": "stroop-trial-1-unrelated-27", "trial_type": "html-keyboard-response", "trial_index": 172, "time_elapsed": 635451, "internal_node_id": "0.0-6.0-77.0"}}, {"uniqueid": "w33120880:a27170816", "current_trial": 173, "dateTime": 1664555821895, "trialdata": {"rt": 1027, "stimulus": "<p id='stroop-text' class='stroop-yellow'>YELLOW</p>", "response": "y", "stimulus-type": "congruent", "word": "yellow", "color": "yellow", "correct_response": "y", "trial_id": "stroop-trial-1-congruent-4", "trial_type": "html-keyboard-response", "trial_index": 173, "time_elapsed": 636987, "internal_node_id": "0.0-6.0-78.0"}}, {"uniqueid": "w33120880:a27170816", "current_trial": 174, "dateTime": 1664555823431, "trialdata": {"rt": 1026, "stimulus": "<p id='stroop-text' class='stroop-green'>SHIP</p>", "response": "g", "stimulus-type": "unrelated", "word": "SHIP", "color": "green", "correct_response": "g", "trial_id": "stroop-trial-1-unrelated-3", "trial_type": "html-keyboard-response", "trial_index": 174, "time_elapsed": 638523, "internal_node_id": "0.0-6.0-79.0"}}, {"uniqueid": "w33120880:a27170816", "current_trial": 175, "dateTime": 1664555825275, "trialdata": {"rt": 1335, "stimulus": "<p id='stroop-text' class='stroop-yellow'>YELLOW</p>", "response": "y", "stimulus-type": "congruent", "word": "yellow", "color": "yellow", "correct_response": "y", "trial_id": "stroop-trial-1-congruent-21", "trial_type": "html-keyboard-response", "trial_index": 175, "time_elapsed": 640367, "internal_node_id": "0.0-6.0-80.0"}}, {"uniqueid": "w33120880:a27170816", "current_trial": 176, "dateTime": 1664555826569, "trialdata": {"rt": 785, "stimulus": "<p id='stroop-text' class='stroop-yellow'>RED</p>", "response": "y", "stimulus-type": "incongruent", "word": "red", "color": "yellow", "correct_response": "y", "trial_id": "stroop-trial-1-incongruent-28", "trial_type": "html-keyboard-response", "trial_index": 176, "time_elapsed": 641661, "internal_node_id": "0.0-6.0-81.0"}}, {"uniqueid": "w33120880:a27170816", "current_trial": 177, "dateTime": 1664555828627, "trialdata": {"rt": 1547, "stimulus": "<p id='stroop-text' class='stroop-red'>BRAIN</p>", "response": "r", "stimulus-type": "unrelated", "word": "BRAIN", "color": "red", "correct_response": "r", "trial_id": "stroop-trial-1-unrelated-25", "trial_type": "html-keyboard-response", "trial_index": 177, "time_elapsed": 643718, "internal_node_id": "0.0-6.0-82.0"}}, {"uniqueid": "w33120880:a27170816", "current_trial": 178, "dateTime": 1664555830287, "trialdata": {"rt": 1151, "stimulus": "<p id='stroop-text' class='stroop-green'>YELLOW</p>", "response": "g", "stimulus-type": "incongruent", "word": "yellow", "color": "green", "correct_response": "g", "trial_id": "stroop-trial-1-incongruent-21", "trial_type": "html-keyboard-response", "trial_index": 178, "time_elapsed": 645379, "internal_node_id": "0.0-6.0-83.0"}}, {"uniqueid": "w33120880:a27170816", "current_trial": 179, "dateTime": 1664555831898, "trialdata": {"rt": 1097, "stimulus": "<p id='stroop-text' class='stroop-red'>RED</p>", "response": "r", "stimulus-type": "congruent", "word": "red", "color": "red", "correct_response": "r", "trial_id": "stroop-trial-1-congruent-1", "trial_type": "html-keyboard-response", "trial_index": 179, "time_elapsed": 646990, "internal_node_id": "0.0-6.0-84.0"}}, {"uniqueid": "w33120880:a27170816", "current_trial": 180, "dateTime": 1664555833442, "trialdata": {"rt": 1035, "stimulus": "<p id='stroop-text' class='stroop-yellow'>RED</p>", "response": "y", "stimulus-type": "incongruent", "word": "red", "color": "yellow", "correct_response": "y", "trial_id": "stroop-trial-1-incongruent-17", "trial_type": "html-keyboard-response", "trial_index": 180, "time_elapsed": 648533, "internal_node_id": "0.0-6.0-85.0"}}, {"uniqueid": "w33120880:a27170816", "current_trial": 181, "dateTime": 1664555835135, "trialdata": {"rt": 1180, "stimulus": "<p id='stroop-text' class='stroop-blue'>YELLOW</p>", "response": "b", "stimulus-type": "incongruent", "word": "yellow", "color": "blue", "correct_response": "b", "trial_id": "stroop-trial-1-incongruent-29", "trial_type": "html-keyboard-response", "trial_index": 181, "time_elapsed": 650227, "internal_node_id": "0.0-6.0-86.0"}}, {"uniqueid": "w33120880:a27170816", "current_trial": 182, "dateTime": 1664555836475, "trialdata": {"rt": 822, "stimulus": "<p id='stroop-text' class='stroop-green'>BLUE</p>", "response": "g", "stimulus-type": "incongruent", "word": "blue", "color": "green", "correct_response": "g", "trial_id": "stroop-trial-1-incongruent-5", "trial_type": "html-keyboard-response", "trial_index": 182, "time_elapsed": 651566, "internal_node_id": "0.0-6.0-87.0"}}, {"uniqueid": "w33120880:a27170816", "current_trial": 183, "dateTime": 1664555837963, "trialdata": {"rt": 970, "stimulus": "<p id='stroop-text' class='stroop-yellow'>YELLOW</p>", "response": "y", "stimulus-type": "congruent", "word": "yellow", "color": "yellow", "correct_response": "y", "trial_id": "stroop-trial-1-congruent-11", "trial_type": "html-keyboard-response", "trial_index": 183, "time_elapsed": 653054, "internal_node_id": "0.0-6.0-88.0"}}, {"uniqueid": "w33120880:a27170816", "current_trial": 184, "dateTime": 1664555839078, "trialdata": {"rt": 600, "stimulus": "<p id='stroop-text' class='stroop-yellow'>BRAIN</p>", "response": "y", "stimulus-type": "unrelated", "word": "BRAIN", "color": "yellow", "correct_response": "y", "trial_id": "stroop-trial-1-unrelated-2", "trial_type": "html-keyboard-response", "trial_index": 184, "time_elapsed": 654169, "internal_node_id": "0.0-6.0-89.0"}}, {"uniqueid": "w33120880:a27170816", "current_trial": 185, "dateTime": 1664555851611, "trialdata": {"rt": 12022, "stimulus": "  <h1> End of block! </h1>\n\n  You have reached the end of the block 2/5. If you need a short break, feel free to take one now before moving on.\n\n  <br><br>\n  In the next block, you will complete another 90 rounds of this game.\n\n  <br><br>\n  <div style='text-align: center;'>Press <code>space</code> to begin.</div>\n  <br><br>\n<div style='text-align: center;'>(If the experiment doesn't continue, try clicking on the text and then pressing <code>space</code>.)</div>", "response": " ", "trial_id": "stroop_1_ready_3", "trial_type": "html-keyboard-response", "trial_index": 185, "time_elapsed": 666702, "internal_node_id": "0.0-7.0"}}, {"uniqueid": "w33120880:a27170816", "current_trial": 186, "dateTime": 1664555853392, "trialdata": {"rt": 1705, "stimulus": "<p id='stroop-text' class='stroop-blue'>RED</p>", "response": "b", "stimulus-type": "incongruent", "word": "red", "color": "blue", "correct_response": "b", "trial_id": "stroop-trial-1-incongruent-15", "trial_type": "html-keyboard-response", "trial_index": 186, "time_elapsed": 668483, "internal_node_id": "0.0-8.0-0.0"}}, {"uniqueid": "w33120880:a27170816", "current_trial": 187, "dateTime": 1664555854933, "trialdata": {"rt": 1031, "stimulus": "<p id='stroop-text' class='stroop-green'>GREEN</p>", "response": "g", "stimulus-type": "congruent", "word": "green", "color": "green", "correct_response": "g", "trial_id": "stroop-trial-1-congruent-22", "trial_type": "html-keyboard-response", "trial_index": 187, "time_elapsed": 670024, "internal_node_id": "0.0-8.0-1.0"}}, {"uniqueid": "w33120880:a27170816", "current_trial": 188, "dateTime": 1664555856383, "trialdata": {"rt": 913, "stimulus": "<p id='stroop-text' class='stroop-blue'>BLUE</p>", "response": "b", "stimulus-type": "congruent", "word": "blue", "color": "blue", "correct_response": "b", "trial_id": "stroop-trial-1-congruent-15", "trial_type": "html-keyboard-response", "trial_index": 188, "time_elapsed": 671474, "internal_node_id": "0.0-8.0-2.0"}}, {"uniqueid": "w33120880:a27170816", "current_trial": 189, "dateTime": 1664555858075, "trialdata": {"rt": 1181, "stimulus": "<p id='stroop-text' class='stroop-yellow'>STONE</p>", "response": "y", "stimulus-type": "unrelated", "word": "STONE", "color": "yellow", "correct_response": "y", "trial_id": "stroop-trial-1-unrelated-12", "trial_type": "html-keyboard-response", "trial_index": 189, "time_elapsed": 673166, "internal_node_id": "0.0-8.0-3.0"}}, {"uniqueid": "w33120880:a27170816", "current_trial": 190, "dateTime": 1664555859209, "trialdata": {"rt": 619, "stimulus": "<p id='stroop-text' class='stroop-yellow'>YELLOW</p>", "response": "y", "stimulus-type": "congruent", "word": "yellow", "color": "yellow", "correct_response": "y", "trial_id": "stroop-trial-1-congruent-7", "trial_type": "html-keyboard-response", "trial_index": 190, "time_elapsed": 674300, "internal_node_id": "0.0-8.0-4.0"}}, {"uniqueid": "w33120880:a27170816", "current_trial": 191, "dateTime": 1664555861234, "trialdata": {"rt": 1511, "stimulus": "<p id='stroop-text' class='stroop-red'>BLUE</p>", "response": "r", "stimulus-type": "incongruent", "word": "blue", "color": "red", "correct_response": "r", "trial_id": "stroop-trial-1-incongruent-10", "trial_type": "html-keyboard-response", "trial_index": 191, "time_elapsed": 676325, "internal_node_id": "0.0-8.0-5.0"}}, {"uniqueid": "w33120880:a27170816", "current_trial": 192, "dateTime": 1664555862714, "trialdata": {"rt": 973, "stimulus": "<p id='stroop-text' class='stroop-green'>STONE</p>", "response": "g", "stimulus-type": "unrelated", "word": "STONE", "color": "green", "correct_response": "g", "trial_id": "stroop-trial-1-unrelated-24", "trial_type": "html-keyboard-response", "trial_index": 192, "time_elapsed": 677805, "internal_node_id": "0.0-8.0-6.0"}}, {"uniqueid": "w33120880:a27170816", "current_trial": 193, "dateTime": 1664555864720, "trialdata": {"rt": 1494, "stimulus": "<p id='stroop-text' class='stroop-yellow'>BOAT</p>", "response": "y", "stimulus-type": "unrelated", "word": "BOAT", "color": "yellow", "correct_response": "y", "trial_id": "stroop-trial-1-unrelated-2", "trial_type": "html-keyboard-response", "trial_index": 193, "time_elapsed": 679811, "internal_node_id": "0.0-8.0-7.0"}}, {"uniqueid": "w33120880:a27170816", "current_trial": 194, "dateTime": 1664555866616, "trialdata": {"rt": 1387, "stimulus": "<p id='stroop-text' class='stroop-green'>GREEN</p>", "response": "g", "stimulus-type": "congruent", "word": "green", "color": "green", "correct_response": "g", "trial_id": "stroop-trial-1-congruent-21", "trial_type": "html-keyboard-response", "trial_index": 194, "time_elapsed": 681708, "internal_node_id": "0.0-8.0-8.0"}}, {"uniqueid": "w33120880:a27170816", "current_trial": 195, "dateTime": 1664555868815, "trialdata": {"rt": 1689, "stimulus": "<p id='stroop-text' class='stroop-blue'>GREEN</p>", "response": "b", "stimulus-type": "incongruent", "word": "green", "color": "blue", "correct_response": "b", "trial_id": "stroop-trial-1-incongruent-12", "trial_type": "html-keyboard-response", "trial_index": 195, "time_elapsed": 683906, "internal_node_id": "0.0-8.0-9.0"}}, {"uniqueid": "w33120880:a27170816", "current_trial": 196, "dateTime": 1664555870152, "trialdata": {"rt": 825, "stimulus": "<p id='stroop-text' class='stroop-blue'>BLUE</p>", "response": "b", "stimulus-type": "congruent", "word": "blue", "color": "blue", "correct_response": "b", "trial_id": "stroop-trial-1-congruent-1", "trial_type": "html-keyboard-response", "trial_index": 196, "time_elapsed": 685244, "internal_node_id": "0.0-8.0-10.0"}}, {"uniqueid": "w33120880:a27170816", "current_trial": 197, "dateTime": 1664555871728, "trialdata": {"rt": 1066, "stimulus": "<p id='stroop-text' class='stroop-green'>BLUE</p>", "response": "g", "stimulus-type": "incongruent", "word": "blue", "color": "green", "correct_response": "g", "trial_id": "stroop-trial-1-incongruent-23", "trial_type": "html-keyboard-response", "trial_index": 197, "time_elapsed": 686820, "internal_node_id": "0.0-8.0-11.0"}}, {"uniqueid": "w33120880:a27170816", "current_trial": 198, "dateTime": 1664555873244, "trialdata": {"rt": 1006, "stimulus": "<p id='stroop-text' class='stroop-blue'>BLUE</p>", "response": "b", "stimulus-type": "congruent", "word": "blue", "color": "blue", "correct_response": "b", "trial_id": "stroop-trial-1-congruent-2", "trial_type": "html-keyboard-response", "trial_index": 198, "time_elapsed": 688336, "internal_node_id": "0.0-8.0-12.0"}}, {"uniqueid": "w33120880:a27170816", "current_trial": 199, "dateTime": 1664555875176, "trialdata": {"rt": 1421, "stimulus": "<p id='stroop-text' class='stroop-yellow'>CHAIR</p>", "response": "y", "stimulus-type": "unrelated", "word": "CHAIR", "color": "yellow", "correct_response": "y", "trial_id": "stroop-trial-1-unrelated-6", "trial_type": "html-keyboard-response", "trial_index": 199, "time_elapsed": 690267, "internal_node_id": "0.0-8.0-13.0"}}, {"uniqueid": "w33120880:a27170816", "current_trial": 200, "dateTime": 1664555877600, "trialdata": {"rt": 1914, "stimulus": "<p id='stroop-text' class='stroop-blue'>BLUE</p>", "response": "b", "stimulus-type": "congruent", "word": "blue", "color": "blue", "correct_response": "b", "trial_id": "stroop-trial-1-congruent-14", "trial_type": "html-keyboard-response", "trial_index": 200, "time_elapsed": 692691, "internal_node_id": "0.0-8.0-14.0"}}, {"uniqueid": "w33120880:a27170816", "current_trial": 201, "dateTime": 1664555879377, "trialdata": {"rt": 1265, "stimulus": "<p id='stroop-text' class='stroop-red'>GREEN</p>", "response": "r", "stimulus-type": "incongruent", "word": "green", "color": "red", "correct_response": "r", "trial_id": "stroop-trial-1-incongruent-5", "trial_type": "html-keyboard-response", "trial_index": 201, "time_elapsed": 694469, "internal_node_id": "0.0-8.0-15.0"}}, {"uniqueid": "w33120880:a27170816", "current_trial": 202, "dateTime": 1664555881031, "trialdata": {"rt": 1138, "stimulus": "<p id='stroop-text' class='stroop-yellow'>RED</p>", "response": "y", "stimulus-type": "incongruent", "word": "red", "color": "yellow", "correct_response": "y", "trial_id": "stroop-trial-1-incongruent-21", "trial_type": "html-keyboard-response", "trial_index": 202, "time_elapsed": 696122, "internal_node_id": "0.0-8.0-16.0"}}, {"uniqueid": "w33120880:a27170816", "current_trial": 203, "dateTime": 1664555883626, "trialdata": {"rt": 2085, "stimulus": "<p id='stroop-text' class='stroop-blue'>GREEN</p>", "response": "b", "stimulus-type": "incongruent", "word": "green", "color": "blue", "correct_response": "b", "trial_id": "stroop-trial-1-incongruent-8", "trial_type": "html-keyboard-response", "trial_index": 203, "time_elapsed": 698718, "internal_node_id": "0.0-8.0-17.0"}}, {"uniqueid": "w33120880:a27170816", "current_trial": 204, "dateTime": 1664555885810, "trialdata": {"rt": 1672, "stimulus": "<p id='stroop-text' class='stroop-red'>DOG</p>", "response": "r", "stimulus-type": "unrelated", "word": "DOG", "color": "red", "correct_response": "r", "trial_id": "stroop-trial-1-unrelated-25", "trial_type": "html-keyboard-response", "trial_index": 204, "time_elapsed": 700901, "internal_node_id": "0.0-8.0-18.0"}}, {"uniqueid": "w33120880:a27170816", "current_trial": 205, "dateTime": 1664555887577, "trialdata": {"rt": 1255, "stimulus": "<p id='stroop-text' class='stroop-red'>STONE</p>", "response": "r", "stimulus-type": "unrelated", "word": "STONE", "color": "red", "correct_response": "r", "trial_id": "stroop-trial-1-unrelated-10", "trial_type": "html-keyboard-response", "trial_index": 205, "time_elapsed": 702668, "internal_node_id": "0.0-8.0-19.0"}}, {"uniqueid": "w33120880:a27170816", "current_trial": 206, "dateTime": 1664555888978, "trialdata": {"rt": 882, "stimulus": "<p id='stroop-text' class='stroop-red'>CHAIR</p>", "response": "r", "stimulus-type": "unrelated", "word": "CHAIR", "color": "red", "correct_response": "r", "trial_id": "stroop-trial-1-unrelated-3", "trial_type": "html-keyboard-response", "trial_index": 206, "time_elapsed": 704069, "internal_node_id": "0.0-8.0-20.0"}}, {"uniqueid": "w33120880:a27170816", "current_trial": 207, "dateTime": 1664555889994, "trialdata": {"rt": 497, "stimulus": "<p id='stroop-text' class='stroop-red'>STONE</p>", "response": "r", "stimulus-type": "unrelated", "word": "STONE", "color": "red", "correct_response": "r", "trial_id": "stroop-trial-1-unrelated-29", "trial_type": "html-keyboard-response", "trial_index": 207, "time_elapsed": 705085, "internal_node_id": "0.0-8.0-21.0"}}, {"uniqueid": "w33120880:a27170816", "current_trial": 208, "dateTime": 1664555891657, "trialdata": {"rt": 1148, "stimulus": "<p id='stroop-text' class='stroop-yellow'>BLUE</p>", "response": "y", "stimulus-type": "incongruent", "word": "blue", "color": "yellow", "correct_response": "y", "trial_id": "stroop-trial-1-incongruent-6", "trial_type": "html-keyboard-response", "trial_index": 208, "time_elapsed": 706748, "internal_node_id": "0.0-8.0-22.0"}}, {"uniqueid": "w33120880:a27170816", "current_trial": 209, "dateTime": 1664555893312, "trialdata": {"rt": 1112, "stimulus": "<p id='stroop-text' class='stroop-red'>GREEN</p>", "response": "r", "stimulus-type": "incongruent", "word": "green", "color": "red", "correct_response": "r", "trial_id": "stroop-trial-1-incongruent-9", "trial_type": "html-keyboard-response", "trial_index": 209, "time_elapsed": 708403, "internal_node_id": "0.0-8.0-23.0"}}, {"uniqueid": "w33120880:a27170816", "current_trial": 210, "dateTime": 1664555894948, "trialdata": {"rt": 1126, "stimulus": "<p id='stroop-text' class='stroop-blue'>BOTTLE</p>", "response": "b", "stimulus-type": "unrelated", "word": "BOTTLE", "color": "blue", "correct_response": "b", "trial_id": "stroop-trial-1-unrelated-23", "trial_type": "html-keyboard-response", "trial_index": 210, "time_elapsed": 710039, "internal_node_id": "0.0-8.0-24.0"}}, {"uniqueid": "w33120880:a27170816", "current_trial": 211, "dateTime": 1664555896144, "trialdata": {"rt": 686, "stimulus": "<p id='stroop-text' class='stroop-blue'>BLUE</p>", "response": "b", "stimulus-type": "congruent", "word": "blue", "color": "blue", "correct_response": "b", "trial_id": "stroop-trial-1-congruent-19", "trial_type": "html-keyboard-response", "trial_index": 211, "time_elapsed": 711235, "internal_node_id": "0.0-8.0-25.0"}}, {"uniqueid": "w33120880:a27170816", "current_trial": 212, "dateTime": 1664555897050, "trialdata": {"rt": 396, "stimulus": "<p id='stroop-text' class='stroop-blue'>BLUE</p>", "response": "b", "stimulus-type": "congruent", "word": "blue", "color": "blue", "correct_response": "b", "trial_id": "stroop-trial-1-congruent-30", "trial_type": "html-keyboard-response", "trial_index": 212, "time_elapsed": 712142, "internal_node_id": "0.0-8.0-26.0"}}, {"uniqueid": "w33120880:a27170816", "current_trial": 213, "dateTime": 1664555899129, "trialdata": {"rt": 1565, "stimulus": "<p id='stroop-text' class='stroop-red'>BLUE</p>", "response": "r", "stimulus-type": "incongruent", "word": "blue", "color": "red", "correct_response": "r", "trial_id": "stroop-trial-1-incongruent-29", "trial_type": "html-keyboard-response", "trial_index": 213, "time_elapsed": 714220, "internal_node_id": "0.0-8.0-27.0"}}, {"uniqueid": "w33120880:a27170816", "current_trial": 214, "dateTime": 1664555902122, "trialdata": {"rt": 2481, "stimulus": "<p id='stroop-text' class='stroop-blue'>BLUE</p>", "response": "b", "stimulus-type": "congruent", "word": "blue", "color": "blue", "correct_response": "b", "trial_id": "stroop-trial-1-congruent-8", "trial_type": "html-keyboard-response", "trial_index": 214, "time_elapsed": 717213, "internal_node_id": "0.0-8.0-28.0"}}, {"uniqueid": "w33120880:a27170816", "current_trial": 215, "dateTime": 1664555906249, "trialdata": {"rt": 3612, "stimulus": "<p id='stroop-text' class='stroop-green'>GREEN</p>", "response": "g", "stimulus-type": "congruent", "word": "green", "color": "green", "correct_response": "g", "trial_id": "stroop-trial-1-congruent-26", "trial_type": "html-keyboard-response", "trial_index": 215, "time_elapsed": 721340, "internal_node_id": "0.0-8.0-29.0"}}, {"uniqueid": "w33120880:a27170816", "current_trial": 216, "dateTime": 1664555907784, "trialdata": {"rt": 1024, "stimulus": "<p id='stroop-text' class='stroop-blue'>BLUE</p>", "response": "b", "stimulus-type": "congruent", "word": "blue", "color": "blue", "correct_response": "b", "trial_id": "stroop-trial-1-congruent-29", "trial_type": "html-keyboard-response", "trial_index": 216, "time_elapsed": 722876, "internal_node_id": "0.0-8.0-30.0"}}, {"uniqueid": "w33120880:a27170816", "current_trial": 217, "dateTime": 1664555909296, "trialdata": {"rt": 996, "stimulus": "<p id='stroop-text' class='stroop-red'>WINDOW</p>", "response": "r", "stimulus-type": "unrelated", "word": "WINDOW", "color": "red", "correct_response": "r", "trial_id": "stroop-trial-1-unrelated-27", "trial_type": "html-keyboard-response", "trial_index": 217, "time_elapsed": 724387, "internal_node_id": "0.0-8.0-31.0"}}, {"uniqueid": "w33120880:a27170816", "current_trial": 218, "dateTime": 1664555910823, "trialdata": {"rt": 1014, "stimulus": "<p id='stroop-text' class='stroop-yellow'>YELLOW</p>", "response": "y", "stimulus-type": "congruent", "word": "yellow", "color": "yellow", "correct_response": "y", "trial_id": "stroop-trial-1-congruent-12", "trial_type": "html-keyboard-response", "trial_index": 218, "time_elapsed": 725914, "internal_node_id": "0.0-8.0-32.0"}}, {"uniqueid": "w33120880:a27170816", "current_trial": 219, "dateTime": 1664555913063, "trialdata": {"rt": 1730, "stimulus": "<p id='stroop-text' class='stroop-green'>BLUE</p>", "response": "g", "stimulus-type": "incongruent", "word": "blue", "color": "green", "correct_response": "g", "trial_id": "stroop-trial-1-incongruent-17", "trial_type": "html-keyboard-response", "trial_index": 219, "time_elapsed": 728155, "internal_node_id": "0.0-8.0-33.0"}}, {"uniqueid": "w33120880:a27170816", "current_trial": 220, "dateTime": 1664555914099, "trialdata": {"rt": 522, "stimulus": "<p id='stroop-text' class='stroop-green'>BOAT</p>", "response": "g", "stimulus-type": "unrelated", "word": "BOAT", "color": "green", "correct_response": "g", "trial_id": "stroop-trial-1-unrelated-13", "trial_type": "html-keyboard-response", "trial_index": 220, "time_elapsed": 729191, "internal_node_id": "0.0-8.0-34.0"}}, {"uniqueid": "w33120880:a27170816", "current_trial": 221, "dateTime": 1664555915744, "trialdata": {"rt": 1126, "stimulus": "<p id='stroop-text' class='stroop-yellow'>YELLOW</p>", "response": "y", "stimulus-type": "congruent", "word": "yellow", "color": "yellow", "correct_response": "y", "trial_id": "stroop-trial-1-congruent-10", "trial_type": "html-keyboard-response", "trial_index": 221, "time_elapsed": 730836, "internal_node_id": "0.0-8.0-35.0"}}, {"uniqueid": "w33120880:a27170816", "current_trial": 222, "dateTime": 1664555917217, "trialdata": {"rt": 962, "stimulus": "<p id='stroop-text' class='stroop-green'>BOTTLE</p>", "response": "g", "stimulus-type": "unrelated", "word": "BOTTLE", "color": "