{"condition": 0, "counterbalance": 0, "assignmentId": "a24787654", "workerId": "w82497187", "hitId": "h38040989", "currenttrial": 959, "bonus": 0, "data": [{"uniqueid": "w82497187:a24787654", "current_trial": 0, "dateTime": 1664554906165, "trialdata": {"success": true, "trial_type": "fullscreen", "trial_index": 0, "time_elapsed": 3628, "internal_node_id": "0.0-0.0"}}, {"uniqueid": "w82497187:a24787654", "current_trial": 1, "dateTime": 1664554949453, "trialdata": {"view_history": [{"page_index": 0, "viewing_time": 43285}], "rt": 43285, "trial_id": "exp_instructions_distractor", "trial_type": "instructions", "trial_index": 1, "time_elapsed": 46916, "internal_node_id": "0.0-1.0"}}, {"uniqueid": "w82497187:a24787654", "current_trial": 2, "dateTime": 1664554985060, "trialdata": {"view_history": [{"page_index": 0, "viewing_time": 35606}], "rt": 35606, "trial_id": "color_game_instructions", "trial_type": "instructions", "trial_index": 2, "time_elapsed": 82523, "internal_node_id": "0.0-2.0"}}, {"uniqueid": "w82497187:a24787654", "current_trial": 3, "dateTime": 1664554994245, "trialdata": {"rt": 9184, "stimulus": "<h1> Get ready to start the game! </h1>\n\nThank you for reading the instructions. Get ready start with the first of 5 block(s) of this game.\n<br><br>\nIn this first block, you will complete 90 rounds of this game before moving on.\n<br><br>\nRemember, the better you perform, the bigger your bonus will be!\n<br><br>\n<div style='text-align: center;'>Press <code>space</code> to begin.</div>", "response": " ", "trial_id": "stroop_1_ready_1", "trial_type": "html-keyboard-response", "trial_index": 3, "time_elapsed": 91708, "internal_node_id": "0.0-3.0"}}, {"uniqueid": "w82497187:a24787654", "current_trial": 4, "dateTime": 1664554998949, "trialdata": {"rt": 4700, "stimulus": "<p id='stroop-text' class='stroop-yellow'>GREEN</p>", "response": "y", "stimulus-type": "incongruent", "word": "green", "color": "yellow", "correct_response": "y", "trial_id": "stroop-trial-1-incongruent-18", "trial_type": "html-keyboard-response", "trial_index": 4, "time_elapsed": 96411, "internal_node_id": "0.0-4.0-0.0"}}, {"uniqueid": "w82497187:a24787654", "current_trial": 5, "dateTime": 1664555000757, "trialdata": {"rt": 1292, "stimulus": "<p id='stroop-text' class='stroop-red'>BLUE</p>", "response": "r", "stimulus-type": "incongruent", "word": "blue", "color": "red", "correct_response": "r", "trial_id": "stroop-trial-1-incongruent-25", "trial_type": "html-keyboard-response", "trial_index": 5, "time_elapsed": 98220, "internal_node_id": "0.0-4.0-1.0"}}, {"uniqueid": "w82497187:a24787654", "current_trial": 6, "dateTime": 1664555002765, "trialdata": {"rt": 1507, "stimulus": "<p id='stroop-text' class='stroop-green'>BOAT</p>", "response": "g", "stimulus-type": "unrelated", "word": "BOAT", "color": "green", "correct_response": "g", "trial_id": "stroop-trial-1-unrelated-24", "trial_type": "html-keyboard-response", "trial_index": 6, "time_elapsed": 100228, "internal_node_id": "0.0-4.0-2.0"}}, {"uniqueid": "w82497187:a24787654", "current_trial": 7, "dateTime": 1664555004508, "trialdata": {"rt": 1242, "stimulus": "<p id='stroop-text' class='stroop-yellow'>RED</p>", "response": "y", "stimulus-type": "incongruent", "word": "red", "color": "yellow", "correct_response": "y", "trial_id": "stroop-trial-1-incongruent-13", "trial_type": "html-keyboard-response", "trial_index": 7, "time_elapsed": 101971, "internal_node_id": "0.0-4.0-3.0"}}, {"uniqueid": "w82497187:a24787654", "current_trial": 8, "dateTime": 1664555006660, "trialdata": {"rt": 1651, "stimulus": "<p id='stroop-text' class='stroop-red'>BRIDGE</p>", "response": "r", "stimulus-type": "unrelated", "word": "BRIDGE", "color": "red", "correct_response": "r", "trial_id": "stroop-trial-1-unrelated-18", "trial_type": "html-keyboard-response", "trial_index": 8, "time_elapsed": 104123, "internal_node_id": "0.0-4.0-4.0"}}, {"uniqueid": "w82497187:a24787654", "current_trial": 9, "dateTime": 1664555009164, "trialdata": {"rt": 2003, "stimulus": "<p id='stroop-text' class='stroop-yellow'>RED</p>", "response": "y", "stimulus-type": "incongruent", "word": "red", "color": "yellow", "correct_response": "y", "trial_id": "stroop-trial-1-incongruent-14", "trial_type": "html-keyboard-response", "trial_index": 9, "time_elapsed": 106627, "internal_node_id": "0.0-4.0-5.0"}}, {"uniqueid": "w82497187:a24787654", "current_trial": 10, "dateTime": 1664555011172, "trialdata": {"rt": 1507, "stimulus": "<p id='stroop-text' class='stroop-yellow'>RED</p>", "response": "y", "stimulus-type": "incongruent", "word": "red", "color": "yellow", "correct_response": "y", "trial_id": "stroop-trial-1-incongruent-21", "trial_type": "html-keyboard-response", "trial_index": 10, "time_elapsed": 108635, "internal_node_id": "0.0-4.0-6.0"}}, {"uniqueid": "w82497187:a24787654", "current_trial": 11, "dateTime": 1664555012844, "trialdata": {"rt": 1169, "stimulus": "<p id='stroop-text' class='stroop-green'>GREEN</p>", "response": "g", "stimulus-type": "congruent", "word": "green", "color": "green", "correct_response": "g", "trial_id": "stroop-trial-1-congruent-19", "trial_type": "html-keyboard-response", "trial_index": 11, "time_elapsed": 110307, "internal_node_id": "0.0-4.0-7.0"}}, {"uniqueid": "w82497187:a24787654", "current_trial": 12, "dateTime": 1664555014940, "trialdata": {"rt": 1595, "stimulus": "<p id='stroop-text' class='stroop-blue'>BLUE</p>", "response": "b", "stimulus-type": "congruent", "word": "blue", "color": "blue", "correct_response": "b", "trial_id": "stroop-trial-1-congruent-1", "trial_type": "html-keyboard-response", "trial_index": 12, "time_elapsed": 112403, "internal_node_id": "0.0-4.0-8.0"}}, {"uniqueid": "w82497187:a24787654", "current_trial": 13, "dateTime": 1664555016557, "trialdata": {"rt": 1113, "stimulus": "<p id='stroop-text' class='stroop-red'>BLUE</p>", "response": "r", "stimulus-type": "incongruent", "word": "blue", "color": "red", "correct_response": "r", "trial_id": "stroop-trial-1-incongruent-29", "trial_type": "html-keyboard-response", "trial_index": 13, "time_elapsed": 114020, "internal_node_id": "0.0-4.0-9.0"}}, {"uniqueid": "w82497187:a24787654", "current_trial": 14, "dateTime": 1664555017821, "trialdata": {"rt": 762, "stimulus": "<p id='stroop-text' class='stroop-blue'>BLUE</p>", "response": "b", "stimulus-type": "congruent", "word": "blue", "color": "blue", "correct_response": "b", "trial_id": "stroop-trial-1-congruent-29", "trial_type": "html-keyboard-response", "trial_index": 14, "time_elapsed": 115283, "internal_node_id": "0.0-4.0-10.0"}}, {"uniqueid": "w82497187:a24787654", "current_trial": 15, "dateTime": 1664555019036, "trialdata": {"rt": 714, "stimulus": "<p id='stroop-text' class='stroop-blue'>YELLOW</p>", "response": "b", "stimulus-type": "incongruent", "word": "yellow", "color": "blue", "correct_response": "b", "trial_id": "stroop-trial-1-incongruent-20", "trial_type": "html-keyboard-response", "trial_index": 15, "time_elapsed": 116499, "internal_node_id": "0.0-4.0-11.0"}}, {"uniqueid": "w82497187:a24787654", "current_trial": 16, "dateTime": 1664555020541, "trialdata": {"rt": 1004, "stimulus": "<p id='stroop-text' class='stroop-red'>GREEN</p>", "response": "r", "stimulus-type": "incongruent", "word": "green", "color": "red", "correct_response": "r", "trial_id": "stroop-trial-1-incongruent-4", "trial_type": "html-keyboard-response", "trial_index": 16, "time_elapsed": 118004, "internal_node_id": "0.0-4.0-12.0"}}, {"uniqueid": "w82497187:a24787654", "current_trial": 17, "dateTime": 1664555021748, "trialdata": {"rt": 706, "stimulus": "<p id='stroop-text' class='stroop-green'>GREEN</p>", "response": "g", "stimulus-type": "congruent", "word": "green", "color": "green", "correct_response": "g", "trial_id": "stroop-trial-1-congruent-9", "trial_type": "html-keyboard-response", "trial_index": 17, "time_elapsed": 119211, "internal_node_id": "0.0-4.0-13.0"}}, {"uniqueid": "w82497187:a24787654", "current_trial": 18, "dateTime": 1664555023252, "trialdata": {"rt": 1000, "stimulus": "<p id='stroop-text' class='stroop-yellow'>WINDOW</p>", "response": "y", "stimulus-type": "unrelated", "word": "WINDOW", "color": "yellow", "correct_response": "y", "trial_id": "stroop-trial-1-unrelated-28", "trial_type": "html-keyboard-response", "trial_index": 18, "time_elapsed": 120715, "internal_node_id": "0.0-4.0-14.0"}}, {"uniqueid": "w82497187:a24787654", "current_trial": 19, "dateTime": 1664555024876, "trialdata": {"rt": 1123, "stimulus": "<p id='stroop-text' class='stroop-blue'>GREEN</p>", "response": "b", "stimulus-type": "incongruent", "word": "green", "color": "blue", "correct_response": "b", "trial_id": "stroop-trial-1-incongruent-1", "trial_type": "html-keyboard-response", "trial_index": 19, "time_elapsed": 122339, "internal_node_id": "0.0-4.0-15.0"}}, {"uniqueid": "w82497187:a24787654", "current_trial": 20, "dateTime": 1664555026245, "trialdata": {"rt": 866, "stimulus": "<p id='stroop-text' class='stroop-yellow'>YELLOW</p>", "response": "y", "stimulus-type": "congruent", "word": "yellow", "color": "yellow", "correct_response": "y", "trial_id": "stroop-trial-1-congruent-11", "trial_type": "html-keyboard-response", "trial_index": 20, "time_elapsed": 123707, "internal_node_id": "0.0-4.0-16.0"}}, {"uniqueid": "w82497187:a24787654", "current_trial": 21, "dateTime": 1664555028476, "trialdata": {"rt": 1730, "stimulus": "<p id='stroop-text' class='stroop-green'>BOTTLE</p>", "response": "b", "stimulus-type": "unrelated", "word": "BOTTLE", "color": "green", "correct_response": "g", "trial_id": "stroop-trial-1-unrelated-25", "trial_type": "html-keyboard-response", "trial_index": 21, "time_elapsed": 125939, "internal_node_id": "0.0-4.0-17.0"}}, {"uniqueid": "w82497187:a24787654", "current_trial": 22, "dateTime": 1664555030996, "trialdata": {"rt": 2016, "stimulus": "<p id='stroop-text' class='stroop-red'>BLUE</p>", "response": "r", "stimulus-type": "incongruent", "word": "blue", "color": "red", "correct_response": "r", "trial_id": "stroop-trial-1-incongruent-2", "trial_type": "html-keyboard-response", "trial_index": 22, "time_elapsed": 128459, "internal_node_id": "0.0-4.0-18.0"}}, {"uniqueid": "w82497187:a24787654", "current_trial": 23, "dateTime": 1664555033324, "trialdata": {"rt": 1826, "stimulus": "<p id='stroop-text' class='stroop-blue'>BLUE</p>", "response": "b", "stimulus-type": "congruent", "word": "blue", "color": "blue", "correct_response": "b", "trial_id": "stroop-trial-1-congruent-13", "trial_type": "html-keyboard-response", "trial_index": 23, "time_elapsed": 130787, "internal_node_id": "0.0-4.0-19.0"}}, {"uniqueid": "w82497187:a24787654", "current_trial": 24, "dateTime": 1664555034893, "trialdata": {"rt": 1068, "stimulus": "<p id='stroop-text' class='stroop-green'>SHIP</p>", "response": "g", "stimulus-type": "unrelated", "word": "SHIP", "color": "green", "correct_response": "g", "trial_id": "stroop-trial-1-unrelated-1", "trial_type": "html-keyboard-response", "trial_index": 24, "time_elapsed": 132356, "internal_node_id": "0.0-4.0-20.0"}}, {"uniqueid": "w82497187:a24787654", "current_trial": 25, "dateTime": 1664555036941, "trialdata": {"rt": 1545, "stimulus": "<p id='stroop-text' class='stroop-yellow'>BLUE</p>", "response": "y", "stimulus-type": "incongruent", "word": "blue", "color": "yellow", "correct_response": "y", "trial_id": "stroop-trial-1-incongruent-9", "trial_type": "html-keyboard-response", "trial_index": 25, "time_elapsed": 134404, "internal_node_id": "0.0-4.0-21.0"}}, {"uniqueid": "w82497187:a24787654", "current_trial": 26, "dateTime": 1664555038653, "trialdata": {"rt": 1211, "stimulus": "<p id='stroop-text' class='stroop-red'>BOTTLE</p>", "response": "r", "stimulus-type": "unrelated", "word": "BOTTLE", "color": "red", "correct_response": "r", "trial_id": "stroop-trial-1-unrelated-17", "trial_type": "html-keyboard-response", "trial_index": 26, "time_elapsed": 136115, "internal_node_id": "0.0-4.0-22.0"}}, {"uniqueid": "w82497187:a24787654", "current_trial": 27, "dateTime": 1664555040445, "trialdata": {"rt": 1290, "stimulus": "<p id='stroop-text' class='stroop-yellow'>BLUE</p>", "response": "y", "stimulus-type": "incongruent", "word": "blue", "color": "yellow", "correct_response": "y", "trial_id": "stroop-trial-1-incongruent-10", "trial_type": "html-keyboard-response", "trial_index": 27, "time_elapsed": 137907, "internal_node_id": "0.0-4.0-23.0"}}, {"uniqueid": "w82497187:a24787654", "current_trial": 28, "dateTime": 1664555041701, "trialdata": {"rt": 755, "stimulus": "<p id='stroop-text' class='stroop-yellow'>YELLOW</p>", "response": "y", "stimulus-type": "congruent", "word": "yellow", "color": "yellow", "correct_response": "y", "trial_id": "stroop-trial-1-congruent-16", "trial_type": "html-keyboard-response", "trial_index": 28, "time_elapsed": 139164, "internal_node_id": "0.0-4.0-24.0"}}, {"uniqueid": "w82497187:a24787654", "current_trial": 29, "dateTime": 1664555044021, "trialdata": {"rt": 1820, "stimulus": "<p id='stroop-text' class='stroop-green'>BRIDGE</p>", "response": "g", "stimulus-type": "unrelated", "word": "BRIDGE", "color": "green", "correct_response": "g", "trial_id": "stroop-trial-1-unrelated-22", "trial_type": "html-keyboard-response", "trial_index": 29, "time_elapsed": 141484, "internal_node_id": "0.0-4.0-25.0"}}, {"uniqueid": "w82497187:a24787654", "current_trial": 30, "dateTime": 1664555045077, "trialdata": {"rt": 554, "stimulus": "<p id='stroop-text' class='stroop-green'>BRIDGE</p>", "response": "g", "stimulus-type": "unrelated", "word": "BRIDGE", "color": "green", "correct_response": "g", "trial_id": "stroop-trial-1-unrelated-12", "trial_type": "html-keyboard-response", "trial_index": 30, "time_elapsed": 142540, "internal_node_id": "0.0-4.0-26.0"}}, {"uniqueid": "w82497187:a24787654", "current_trial": 31, "dateTime": 1664555046885, "trialdata": {"rt": 1307, "stimulus": "<p id='stroop-text' class='stroop-blue'>BLUE</p>", "response": "b", "stimulus-type": "congruent", "word": "blue", "color": "blue", "correct_response": "b", "trial_id": "stroop-trial-1-congruent-8", "trial_type": "html-keyboard-response", "trial_index": 31, "time_elapsed": 144348, "internal_node_id": "0.0-4.0-27.0"}}, {"uniqueid": "w82497187:a24787654", "current_trial": 32, "dateTime": 1664555047893, "trialdata": {"rt": 506, "stimulus": "<p id='stroop-text' class='stroop-blue'>BLUE</p>", "response": "b", "stimulus-type": "congruent", "word": "blue", "color": "blue", "correct_response": "b", "trial_id": "stroop-trial-1-congruent-7", "trial_type": "html-keyboard-response", "trial_index": 32, "time_elapsed": 145356, "internal_node_id": "0.0-4.0-28.0"}}, {"uniqueid": "w82497187:a24787654", "current_trial": 33, "dateTime": 1664555049197, "trialdata": {"rt": 803, "stimulus": "<p id='stroop-text' class='stroop-red'>RED</p>", "response": "r", "stimulus-type": "congruent", "word": "red", "color": "red", "correct_response": "r", "trial_id": "stroop-trial-1-congruent-5", "trial_type": "html-keyboard-response", "trial_index": 33, "time_elapsed": 146660, "internal_node_id": "0.0-4.0-29.0"}}, {"uniqueid": "w82497187:a24787654", "current_trial": 34, "dateTime": 1664555050381, "trialdata": {"rt": 682, "stimulus": "<p id='stroop-text' class='stroop-yellow'>YELLOW</p>", "response": "y", "stimulus-type": "congruent", "word": "yellow", "color": "yellow", "correct_response": "y", "trial_id": "stroop-trial-1-congruent-14", "trial_type": "html-keyboard-response", "trial_index": 34, "time_elapsed": 147843, "internal_node_id": "0.0-4.0-30.0"}}, {"uniqueid": "w82497187:a24787654", "current_trial": 35, "dateTime": 1664555051926, "trialdata": {"rt": 1043, "stimulus": "<p id='stroop-text' class='stroop-green'>STONE</p>", "response": "g", "stimulus-type": "unrelated", "word": "STONE", "color": "green", "correct_response": "g", "trial_id": "stroop-trial-1-unrelated-9", "trial_type": "html-keyboard-response", "trial_index": 35, "time_elapsed": 149388, "internal_node_id": "0.0-4.0-31.0"}}, {"uniqueid": "w82497187:a24787654", "current_trial": 36, "dateTime": 1664555053597, "trialdata": {"rt": 1169, "stimulus": "<p id='stroop-text' class='stroop-blue'>CHAIR</p>", "response": "b", "stimulus-type": "unrelated", "word": "CHAIR", "color": "blue", "correct_response": "b", "trial_id": "stroop-trial-1-unrelated-30", "trial_type": "html-keyboard-response", "trial_index": 36, "time_elapsed": 151060, "internal_node_id": "0.0-4.0-32.0"}}, {"uniqueid": "w82497187:a24787654", "current_trial": 37, "dateTime": 1664555055813, "trialdata": {"rt": 1714, "stimulus": "<p id='stroop-text' class='stroop-green'>CHAIR</p>", "response": "g", "stimulus-type": "unrelated", "word": "CHAIR", "color": "green", "correct_response": "g", "trial_id": "stroop-trial-1-unrelated-14", "trial_type": "html-keyboard-response", "trial_index": 37, "time_elapsed": 153276, "internal_node_id": "0.0-4.0-33.0"}}, {"uniqueid": "w82497187:a24787654", "current_trial": 38, "dateTime": 1664555057551, "trialdata": {"rt": 1237, "stimulus": "<p id='stroop-text' class='stroop-red'>RED</p>", "response": "r", "stimulus-type": "congruent", "word": "red", "color": "red", "correct_response": "r", "trial_id": "stroop-trial-1-congruent-24", "trial_type": "html-keyboard-response", "trial_index": 38, "time_elapsed": 155013, "internal_node_id": "0.0-4.0-34.0"}}, {"uniqueid": "w82497187:a24787654", "current_trial": 39, "dateTime": 1664555059149, "trialdata": {"rt": 1096, "stimulus": "<p id='stroop-text' class='stroop-red'>BRIDGE</p>", "response": "r", "stimulus-type": "unrelated", "word": "BRIDGE", "color": "red", "correct_response": "r", "trial_id": "stroop-trial-1-unrelated-2", "trial_type": "html-keyboard-response", "trial_index": 39, "time_elapsed": 156612, "internal_node_id": "0.0-4.0-35.0"}}, {"uniqueid": "w82497187:a24787654", "current_trial": 40, "dateTime": 1664555061134, "trialdata": {"rt": 1484, "stimulus": "<p id='stroop-text' class='stroop-yellow'>YELLOW</p>", "response": "y", "stimulus-type": "congruent", "word": "yellow", "color": "yellow", "correct_response": "y", "trial_id": "stroop-trial-1-congruent-4", "trial_type": "html-keyboard-response", "trial_index": 40, "time_elapsed": 158596, "internal_node_id": "0.0-4.0-36.0"}}, {"uniqueid": "w82497187:a24787654", "current_trial": 41, "dateTime": 1664555062901, "trialdata": {"rt": 1265, "stimulus": "<p id='stroop-text' class='stroop-red'>BLUE</p>", "response": "r", "stimulus-type": "incongruent", "word": "blue", "color": "red", "correct_response": "r", "trial_id": "stroop-trial-1-incongruent-6", "trial_type": "html-keyboard-response", "trial_index": 41, "time_elapsed": 160364, "internal_node_id": "0.0-4.0-37.0"}}, {"uniqueid": "w82497187:a24787654", "current_trial": 42, "dateTime": 1664555064685, "trialdata": {"rt": 1283, "stimulus": "<p id='stroop-text' class='stroop-blue'>BLUE</p>", "response": "b", "stimulus-type": "congruent", "word": "blue", "color": "blue", "correct_response": "b", "trial_id": "stroop-trial-1-congruent-18", "trial_type": "html-keyboard-response", "trial_index": 42, "time_elapsed": 162148, "internal_node_id": "0.0-4.0-38.0"}}, {"uniqueid": "w82497187:a24787654", "current_trial": 43, "dateTime": 1664555066214, "trialdata": {"rt": 1020, "stimulus": "<p id='stroop-text' class='stroop-red'>BOAT</p>", "response": "r", "stimulus-type": "unrelated", "word": "BOAT", "color": "red", "correct_response": "r", "trial_id": "stroop-trial-1-unrelated-7", "trial_type": "html-keyboard-response", "trial_index": 43, "time_elapsed": 163677, "internal_node_id": "0.0-4.0-39.0"}}, {"uniqueid": "w82497187:a24787654", "current_trial": 44, "dateTime": 1664555067558, "trialdata": {"rt": 842, "stimulus": "<p id='stroop-text' class='stroop-green'>GREEN</p>", "response": "g", "stimulus-type": "congruent", "word": "green", "color": "green", "correct_response": "g", "trial_id": "stroop-trial-1-congruent-23", "trial_type": "html-keyboard-response", "trial_index": 44, "time_elapsed": 165021, "internal_node_id": "0.0-4.0-40.0"}}, {"uniqueid": "w82497187:a24787654", "current_trial": 45, "dateTime": 1664555068941, "trialdata": {"rt": 881, "stimulus": "<p id='stroop-text' class='stroop-yellow'>BLUE</p>", "response": "y", "stimulus-type": "incongruent", "word": "blue", "color": "yellow", "correct_response": "y", "trial_id": "stroop-trial-1-incongruent-12", "trial_type": "html-keyboard-response", "trial_index": 45, "time_elapsed": 166404, "internal_node_id": "0.0-4.0-41.0"}}, {"uniqueid": "w82497187:a24787654", "current_trial": 46, "dateTime": 1664555070501, "trialdata": {"rt": 1058, "stimulus": "<p id='stroop-text' class='stroop-green'>BRAIN</p>", "response": "g", "stimulus-type": "unrelated", "word": "BRAIN", "color": "green", "correct_response": "g", "trial_id": "stroop-trial-1-unrelated-10", "trial_type": "html-keyboard-response", "trial_index": 46, "time_elapsed": 167963, "internal_node_id": "0.0-4.0-42.0"}}, {"uniqueid": "w82497187:a24787654", "current_trial": 47, "dateTime": 1664555073037, "trialdata": {"rt": 2035, "stimulus": "<p id='stroop-text' class='stroop-yellow'>WINDOW</p>", "response": "y", "stimulus-type": "unrelated", "word": "WINDOW", "color": "yellow", "correct_response": "y", "trial_id": "stroop-trial-1-unrelated-26", "trial_type": "html-keyboard-response", "trial_index": 47, "time_elapsed": 170500, "internal_node_id": "0.0-4.0-43.0"}}, {"uniqueid": "w82497187:a24787654", "current_trial": 48, "dateTime": 1664555074981, "trialdata": {"rt": 1442, "stimulus": "<p id='stroop-text' class='stroop-green'>BLUE</p>", "response": "g", "stimulus-type": "incongruent", "word": "blue", "color": "green", "correct_response": "g", "trial_id": "stroop-trial-1-incongruent-24", "trial_type": "html-keyboard-response", "trial_index": 48, "time_elapsed": 172444, "internal_node_id": "0.0-4.0-44.0"}}, {"uniqueid": "w82497187:a24787654", "current_trial": 49, "dateTime": 1664555076605, "trialdata": {"rt": 1122, "stimulus": "<p id='stroop-text' class='stroop-red'>BRAIN</p>", "response": "r", "stimulus-type": "unrelated", "word": "BRAIN", "color": "red", "correct_response": "r", "trial_id": "stroop-trial-1-unrelated-6", "trial_type": "html-keyboard-response", "trial_index": 49, "time_elapsed": 174068, "internal_node_id": "0.0-4.0-45.0"}}, {"uniqueid": "w82497187:a24787654", "current_trial": 50, "dateTime": 1664555078125, "trialdata": {"rt": 1019, "stimulus": "<p id='stroop-text' class='stroop-yellow'>BLUE</p>", "response": "y", "stimulus-type": "incongruent", "word": "blue", "color": "yellow", "correct_response": "y", "trial_id": "stroop-trial-1-incongruent-16", "trial_type": "html-keyboard-response", "trial_index": 50, "time_elapsed": 175588, "internal_node_id": "0.0-4.0-46.0"}}, {"uniqueid": "w82497187:a24787654", "current_trial": 51, "dateTime": 1664555080077, "trialdata": {"rt": 1450, "stimulus": "<p id='stroop-text' class='stroop-blue'>BOTTLE</p>", "response": "b", "stimulus-type": "unrelated", "word": "BOTTLE", "color": "blue", "correct_response": "b", "trial_id": "stroop-trial-1-unrelated-4", "trial_type": "html-keyboard-response", "trial_index": 51, "time_elapsed": 177540, "internal_node_id": "0.0-4.0-47.0"}}, {"uniqueid": "w82497187:a24787654", "current_trial": 52, "dateTime": 1664555081101, "trialdata": {"rt": 522, "stimulus": "<p id='stroop-text' class='stroop-blue'>YELLOW</p>", "response": "b", "stimulus-type": "incongruent", "word": "yellow", "color": "blue", "correct_response": "b", "trial_id": "stroop-trial-1-incongruent-11", "trial_type": "html-keyboard-response", "trial_index": 52, "time_elapsed": 178564, "internal_node_id": "0.0-4.0-48.0"}}, {"uniqueid": "w82497187:a24787654", "current_trial": 53, "dateTime": 1664555082397, "trialdata": {"rt": 795, "stimulus": "<p id='stroop-text' class='stroop-red'>RED</p>", "response": "r", "stimulus-type": "congruent", "word": "red", "color": "red", "correct_response": "r", "trial_id": "stroop-trial-1-congruent-21", "trial_type": "html-keyboard-response", "trial_index": 53, "time_elapsed": 179860, "internal_node_id": "0.0-4.0-49.0"}}, {"uniqueid": "w82497187:a24787654", "current_trial": 54, "dateTime": 1664555083902, "trialdata": {"rt": 1002, "stimulus": "<p id='stroop-text' class='stroop-green'>YELLOW</p>", "response": "g", "stimulus-type": "incongruent", "word": "yellow", "color": "green", "correct_response": "g", "trial_id": "stroop-trial-1-incongruent-22", "trial_type": "html-keyboard-response", "trial_index": 54, "time_elapsed": 181365, "internal_node_id": "0.0-4.0-50.0"}}, {"uniqueid": "w82497187:a24787654", "current_trial": 55, "dateTime": 1664555085797, "trialdata": {"rt": 1393, "stimulus": "<p id='stroop-text' class='stroop-blue'>BRAIN</p>", "response": "b", "stimulus-type": "unrelated", "word": "BRAIN", "color": "blue", "correct_response": "b", "trial_id": "stroop-trial-1-unrelated-29", "trial_type": "html-keyboard-response", "trial_index": 55, "time_elapsed": 183260, "internal_node_id": "0.0-4.0-51.0"}}, {"uniqueid": "w82497187:a24787654", "current_trial": 56, "dateTime": 1664555088397, "trialdata": {"rt": 2097, "stimulus": "<p id='stroop-text' class='stroop-yellow'>RED</p>", "response": "y", "stimulus-type": "incongruent", "word": "red", "color": "yellow", "correct_response": "y", "trial_id": "stroop-trial-1-incongruent-23", "trial_type": "html-keyboard-response", "trial_index": 56, "time_elapsed": 185860, "internal_node_id": "0.0-4.0-52.0"}}, {"uniqueid": "w82497187:a24787654", "current_trial": 57, "dateTime": 1664555089941, "trialdata": {"rt": 1043, "stimulus": "<p id='stroop-text' class='stroop-red'>FORK</p>", "response": "r", "stimulus-type": "unrelated", "word": "FORK", "color": "red", "correct_response": "r", "trial_id": "stroop-trial-1-unrelated-23", "trial_type": "html-keyboard-response", "trial_index": 57, "time_elapsed": 187404, "internal_node_id": "0.0-4.0-53.0"}}, {"uniqueid": "w82497187:a24787654", "current_trial": 58, "dateTime": 1664555091173, "trialdata": {"rt": 731, "stimulus": "<p id='stroop-text' class='stroop-red'>RED</p>", "response": "r", "stimulus-type": "congruent", "word": "red", "color": "red", "correct_response": "r", "trial_id": "stroop-trial-1-congruent-30", "trial_type": "html-keyboard-response", "trial_index": 58, "time_elapsed": 188636, "internal_node_id": "0.0-4.0-54.0"}}, {"uniqueid": "w82497187:a24787654", "current_trial": 59, "dateTime": 1664555092765, "trialdata": {"rt": 1091, "stimulus": "<p id='stroop-text' class='stroop-yellow'>RED</p>", "response": "y", "stimulus-type": "incongruent", "word": "red", "color": "yellow", "correct_response": "y", "trial_id": "stroop-trial-1-incongruent-26", "trial_type": "html-keyboard-response", "trial_index": 59, "time_elapsed": 190228, "internal_node_id": "0.0-4.0-55.0"}}, {"uniqueid": "w82497187:a24787654", "current_trial": 60, "dateTime": 1664555093910, "trialdata": {"rt": 633, "stimulus": "<p id='stroop-text' class='stroop-red'>RED</p>", "response": "r", "stimulus-type": "congruent", "word": "red", "color": "red", "correct_response": "r", "trial_id": "stroop-trial-1-congruent-20", "trial_type": "html-keyboard-response", "trial_index": 60, "time_elapsed": 191373, "internal_node_id": "0.0-4.0-56.0"}}, {"uniqueid": "w82497187:a24787654", "current_trial": 61, "dateTime": 1664555095110, "trialdata": {"rt": 697, "stimulus": "<p id='stroop-text' class='stroop-green'>BLUE</p>", "response": "g", "stimulus-type": "incongruent", "word": "blue", "color": "green", "correct_response": "g", "trial_id": "stroop-trial-1-incongruent-8", "trial_type": "html-keyboard-response", "trial_index": 61, "time_elapsed": 192572, "internal_node_id": "0.0-4.0-57.0"}}, {"uniqueid": "w82497187:a24787654", "current_trial": 62, "dateTime": 1664555096245, "trialdata": {"rt": 635, "stimulus": "<p id='stroop-text' class='stroop-green'>GREEN</p>", "response": "g", "stimulus-type": "congruent", "word": "green", "color": "green", "correct_response": "g", "trial_id": "stroop-trial-1-congruent-22", "trial_type": "html-keyboard-response", "trial_index": 62, "time_elapsed": 193708, "internal_node_id": "0.0-4.0-58.0"}}, {"uniqueid": "w82497187:a24787654", "current_trial": 63, "dateTime": 1664555098532, "trialdata": {"rt": 1786, "stimulus": "<p id='stroop-text' class='stroop-red'>BOTTLE</p>", "response": "r", "stimulus-type": "unrelated", "word": "BOTTLE", "color": "red", "correct_response": "r", "trial_id": "stroop-trial-1-unrelated-20", "trial_type": "html-keyboard-response", "trial_index": 63, "time_elapsed": 195995, "internal_node_id": "0.0-4.0-59.0"}}, {"uniqueid": "w82497187:a24787654", "current_trial": 64, "dateTime": 1664555100149, "trialdata": {"rt": 1114, "stimulus": "<p id='stroop-text' class='stroop-yellow'>GREEN</p>", "response": "y", "stimulus-type": "incongruent", "word": "green", "color": "yellow", "correct_response": "y", "trial_id": "stroop-trial-1-incongruent-15", "trial_type": "html-keyboard-response", "trial_index": 64, "time_elapsed": 197612, "internal_node_id": "0.0-4.0-60.0"}}, {"uniqueid": "w82497187:a24787654", "current_trial": 65, "dateTime": 1664555102181, "trialdata": {"rt": 1530, "stimulus": "<p id='stroop-text' class='stroop-green'>BLUE</p>", "response": "g", "stimulus-type": "incongruent", "word": "blue", "color": "green", "correct_response": "g", "trial_id": "stroop-trial-1-incongruent-7", "trial_type": "html-keyboard-response", "trial_index": 65, "time_elapsed": 199643, "internal_node_id": "0.0-4.0-61.0"}}, {"uniqueid": "w82497187:a24787654", "current_trial": 66, "dateTime": 1664555103852, "trialdata": {"rt": 1170, "stimulus": "<p id='stroop-text' class='stroop-red'>RED</p>", "response": "r", "stimulus-type": "congruent", "word": "red", "color": "red", "correct_response": "r", "trial_id": "stroop-trial-1-congruent-6", "trial_type": "html-keyboard-response", "trial_index": 66, "time_elapsed": 201315, "internal_node_id": "0.0-4.0-62.0"}}, {"uniqueid": "w82497187:a24787654", "current_trial": 67, "dateTime": 1664555105349, "trialdata": {"rt": 995, "stimulus": "<p id='stroop-text' class='stroop-yellow'>BLUE</p>", "response": "y", "stimulus-type": "incongruent", "word": "blue", "color": "yellow", "correct_response": "y", "trial_id": "stroop-trial-1-incongruent-30", "trial_type": "html-keyboard-response", "trial_index": 67, "time_elapsed": 202811, "internal_node_id": "0.0-4.0-63.0"}}, {"uniqueid": "w82497187:a24787654", "current_trial": 68, "dateTime": 1664555107133, "trialdata": {"rt": 1282, "stimulus": "<p id='stroop-text' class='stroop-blue'>FORK</p>", "response": "b", "stimulus-type": "unrelated", "word": "FORK", "color": "blue", "correct_response": "b", "trial_id": "stroop-trial-1-unrelated-3", "trial_type": "html-keyboard-response", "trial_index": 68, "time_elapsed": 204596, "internal_node_id": "0.0-4.0-64.0"}}, {"uniqueid": "w82497187:a24787654", "current_trial": 69, "dateTime": 1664555108342, "trialdata": {"rt": 708, "stimulus": "<p id='stroop-text' class='stroop-green'>BRIDGE</p>", "response": "g", "stimulus-type": "unrelated", "word": "BRIDGE", "color": "green", "correct_response": "g", "trial_id": "stroop-trial-1-unrelated-5", "trial_type": "html-keyboard-response", "trial_index": 69, "time_elapsed": 205805, "internal_node_id": "0.0-4.0-65.0"}}, {"uniqueid": "w82497187:a24787654", "current_trial": 70, "dateTime": 1664555109404, "trialdata": {"rt": 559, "stimulus": "<p id='stroop-text' class='stroop-red'>RED</p>", "response": "r", "stimulus-type": "congruent", "word": "red", "color": "red", "correct_response": "r", "trial_id": "stroop-trial-1-congruent-25", "trial_type": "html-keyboard-response", "trial_index": 70, "time_elapsed": 206867, "internal_node_id": "0.0-4.0-66.0"}}, {"uniqueid": "w82497187:a24787654", "current_trial": 71, "dateTime": 1664555110356, "trialdata": {"rt": 440, "stimulus": "<p id='stroop-text' class='stroop-red'>BOTTLE</p>", "response": "r", "stimulus-type": "unrelated", "word": "BOTTLE", "color": "red", "correct_response": "r", "trial_id": "stroop-trial-1-unrelated-8", "trial_type": "html-keyboard-response", "trial_index": 71, "time_elapsed": 207819, "internal_node_id": "0.0-4.0-67.0"}}, {"uniqueid": "w82497187:a24787654", "current_trial": 72, "dateTime": 1664555111668, "trialdata": {"rt": 811, "stimulus": "<p id='stroop-text' class='stroop-blue'>RED</p>", "response": "b", "stimulus-type": "incongruent", "word": "red", "color": "blue", "correct_response": "b", "trial_id": "stroop-trial-1-incongruent-3", "trial_type": "html-keyboard-response", "trial_index": 72, "time_elapsed": 209131, "internal_node_id": "0.0-4.0-68.0"}}, {"uniqueid": "w82497187:a24787654", "current_trial": 73, "dateTime": 1664555112708, "trialdata": {"rt": 537, "stimulus": "<p id='stroop-text' class='stroop-red'>BOAT</p>", "response": "r", "stimulus-type": "unrelated", "word": "BOAT", "color": "red", "correct_response": "r", "trial_id": "stroop-trial-1-unrelated-27", "trial_type": "html-keyboard-response", "trial_index": 73, "time_elapsed": 210171, "internal_node_id": "0.0-4.0-69.0"}}, {"uniqueid": "w82497187:a24787654", "current_trial": 74, "dateTime": 1664555113900, "trialdata": {"rt": 690, "stimulus": "<p id='stroop-text' class='stroop-blue'>BOAT</p>", "response": "b", "stimulus-type": "unrelated", "word": "BOAT", "color": "blue", "correct_response": "b", "trial_id": "stroop-trial-1-unrelated-13", "trial_type": "html-keyboard-response", "trial_index": 74, "time_elapsed": 211363, "internal_node_id": "0.0-4.0-70.0"}}, {"uniqueid": "w82497187:a24787654", "current_trial": 75, "dateTime": 1664555114836, "trialdata": {"rt": 433, "stimulus": "<p id='stroop-text' class='stroop-blue'>GREEN</p>", "response": "b", "stimulus-type": "incongruent", "word": "green", "color": "blue", "correct_response": "b", "trial_id": "stroop-trial-1-incongruent-28", "trial_type": "html-keyboard-response", "trial_index": 75, "time_elapsed": 212299, "internal_node_id": "0.0-4.0-71.0"}}, {"uniqueid": "w82497187:a24787654", "current_trial": 76, "dateTime": 1664555116173, "trialdata": {"rt": 835, "stimulus": "<p id='stroop-text' class='stroop-green'>RED</p>", "response": "g", "stimulus-type": "incongruent", "word": "red", "color": "green", "correct_response": "g", "trial_id": "stroop-trial-1-incongruent-27", "trial_type": "html-keyboard-response", "trial_index": 76, "time_elapsed": 213636, "internal_node_id": "0.0-4.0-72.0"}}, {"uniqueid": "w82497187:a24787654", "current_trial": 77, "dateTime": 1664555117126, "trialdata": {"rt": 452, "stimulus": "<p id='stroop-text' class='stroop-green'>GREEN</p>", "response": "g", "stimulus-type": "congruent", "word": "green", "color": "green", "correct_response": "g", "trial_id": "stroop-trial-1-congruent-12", "trial_type": "html-keyboard-response", "trial_index": 77, "time_elapsed": 214589, "internal_node_id": "0.0-4.0-73.0"}}, {"uniqueid": "w82497187:a24787654", "current_trial": 78, "dateTime": 1664555119180, "trialdata": {"rt": 1552, "stimulus": "<p id='stroop-text' class='stroop-red'>YELLOW</p>", "response": "r", "stimulus-type": "incongruent", "word": "yellow", "color": "red", "correct_response": "r", "trial_id": "stroop-trial-1-incongruent-17", "trial_type": "html-keyboard-response", "trial_index": 78, "time_elapsed": 216643, "internal_node_id": "0.0-4.0-74.0"}}, {"uniqueid": "w82497187:a24787654", "current_trial": 79, "dateTime": 1664555120692, "trialdata": {"rt": 1011, "stimulus": "<p id='stroop-text' class='stroop-yellow'>YELLOW</p>", "response": "y", "stimulus-type": "congruent", "word": "yellow", "color": "yellow", "correct_response": "y", "trial_id": "stroop-trial-1-congruent-10", "trial_type": "html-keyboard-response", "trial_index": 79, "time_elapsed": 218155, "internal_node_id": "0.0-4.0-75.0"}}, {"uniqueid": "w82497187:a24787654", "current_trial": 80, "dateTime": 1664555122556, "trialdata": {"rt": 1363, "stimulus": "<p id='stroop-text' class='stroop-yellow'>BLUE</p>", "response": "y", "stimulus-type": "incongruent", "word": "blue", "color": "yellow", "correct_response": "y", "trial_id": "stroop-trial-1-incongruent-19", "trial_type": "html-keyboard-response", "trial_index": 80, "time_elapsed": 220019, "internal_node_id": "0.0-4.0-76.0"}}, {"uniqueid": "w82497187:a24787654", "current_trial": 81, "dateTime": 1664555123956, "trialdata": {"rt": 898, "stimulus": "<p id='stroop-text' class='stroop-red'>DOG</p>", "response": "r", "stimulus-type": "unrelated", "word": "DOG", "color": "red", "correct_response": "r", "trial_id": "stroop-trial-1-unrelated-16", "trial_type": "html-keyboard-response", "trial_index": 81, "time_elapsed": 221419, "internal_node_id": "0.0-4.0-77.0"}}, {"uniqueid": "w82497187:a24787654", "current_trial": 82, "dateTime": 1664555129277, "trialdata": {"rt": 4818, "stimulus": "<p id='stroop-text' class='stroop-blue'>BLUE</p>", "response": "b", "stimulus-type": "congruent", "word": "blue", "color": "blue", "correct_response": "b", "trial_id": "stroop-trial-1-congruent-26", "trial_type": "html-keyboard-response", "trial_index": 82, "time_elapsed": 226740, "internal_node_id": "0.0-4.0-78.0"}}, {"uniqueid": "w82497187:a24787654", "current_trial": 83, "dateTime": 1664555130892, "trialdata": {"rt": 1114, "stimulus": "<p id='stroop-text' class='stroop-red'>RED</p>", "response": "r", "stimulus-type": "congruent", "word": "red", "color": "red", "correct_response": "r", "trial_id": "stroop-trial-1-congruent-15", "trial_type": "html-keyboard-response", "trial_index": 83, "time_elapsed": 228355, "internal_node_id": "0.0-4.0-79.0"}}, {"uniqueid": "w82497187:a24787654", "current_trial": 84, "dateTime": 1664555132301, "trialdata": {"rt": 907, "stimulus": "<p id='stroop-text' class='stroop-green'>WINDOW</p>", "response": "g", "stimulus-type": "unrelated", "word": "WINDOW", "color": "green", "correct_response": "g", "trial_id": "stroop-trial-1-unrelated-15", "trial_type": "html-keyboard-response", "trial_index": 84, "time_elapsed": 229764, "internal_node_id": "0.0-4.0-80.0"}}, {"uniqueid": "w82497187:a24787654", "current_trial": 85, "dateTime": 1664555133580, "trialdata": {"rt": 777, "stimulus": "<p id='stroop-text' class='stroop-yellow'>YELLOW</p>", "response": "y", "stimulus-type": "congruent", "word": "yellow", "color": "yellow", "correct_response": "y", "trial_id": "stroop-trial-1-congruent-28", "trial_type": "html-keyboard-response", "trial_index": 85, "time_elapsed": 231043, "internal_node_id": "0.0-4.0-81.0"}}, {"uniqueid": "w82497187:a24787654", "current_trial": 86, "dateTime": 1664555134981, "trialdata": {"rt": 898, "stimulus": "<p id='stroop-text' class='stroop-red'>YELLOW</p>", "response": "r", "stimulus-type": "incongruent", "word": "yellow", "color": "red", "correct_response": "r", "trial_id": "stroop-trial-1-incongruent-5", "trial_type": "html-keyboard-response", "trial_index": 86, "time_elapsed": 232443, "internal_node_id": "0.0-4.0-82.0"}}, {"uniqueid": "w82497187:a24787654", "current_trial": 87, "dateTime": 1664555136156, "trialdata": {"rt": 673, "stimulus": "<p id='stroop-text' class='stroop-green'>GREEN</p>", "response": "g", "stimulus-type": "congruent", "word": "green", "color": "green", "correct_response": "g", "trial_id": "stroop-trial-1-congruent-2", "trial_type": "html-keyboard-response", "trial_index": 87, "time_elapsed": 233619, "internal_node_id": "0.0-4.0-83.0"}}, {"uniqueid": "w82497187:a24787654", "current_trial": 88, "dateTime": 1664555137285, "trialdata": {"rt": 627, "stimulus": "<p id='stroop-text' class='stroop-yellow'>YELLOW</p>", "response": "y", "stimulus-type": "congruent", "word": "yellow", "color": "yellow", "correct_response": "y", "trial_id": "stroop-trial-1-congruent-3", "trial_type": "html-keyboard-response", "trial_index": 88, "time_elapsed": 234748, "internal_node_id": "0.0-4.0-84.0"}}, {"uniqueid": "w82497187:a24787654", "current_trial": 89, "dateTime": 1664555138324, "trialdata": {"rt": 538, "stimulus": "<p id='stroop-text' class='stroop-yellow'>FORK</p>", "response": "y", "stimulus-type": "unrelated", "word": "FORK", "color": "yellow", "correct_response": "y", "trial_id": "stroop-trial-1-unrelated-11", "trial_type": "html-keyboard-response", "trial_index": 89, "time_elapsed": 235787, "internal_node_id": "0.0-4.0-85.0"}}, {"uniqueid": "w82497187:a24787654", "current_trial": 90, "dateTime": 1664555139212, "trialdata": {"rt": 387, "stimulus": "<p id='stroop-text' class='stroop-yellow'>YELLOW</p>", "response": "y", "stimulus-type": "congruent", "word": "yellow", "color": "yellow", "correct_response": "y", "trial_id": "stroop-trial-1-congruent-27", "trial_type": "html-keyboard-response", "trial_index": 90, "time_elapsed": 236675, "internal_node_id": "0.0-4.0-86.0"}}, {"uniqueid": "w82497187:a24787654", "current_trial": 91, "dateTime": 1664555140196, "trialdata": {"rt": 483, "stimulus": "<p id='stroop-text' class='stroop-yellow'>FORK</p>", "response": "y", "stimulus-type": "unrelated", "word": "FORK", "color": "yellow", "correct_response": "y", "trial_id": "stroop-trial-1-unrelated-21", "trial_type": "html-keyboard-response", "trial_index": 91, "time_elapsed": 237659, "internal_node_id": "0.0-4.0-87.0"}}, {"uniqueid": "w82497187:a24787654", "current_trial": 92, "dateTime": 1664555141517, "trialdata": {"rt": 818, "stimulus": "<p id='stroop-text' class='stroop-green'>GREEN</p>", "response": "g", "stimulus-type": "congruent", "word": "green", "color": "green", "correct_response": "g", "trial_id": "stroop-trial-1-congruent-17", "trial_type": "html-keyboard-response", "trial_index": 92, "time_elapsed": 238979, "internal_node_id": "0.0-4.0-88.0"}}, {"uniqueid": "w82497187:a24787654", "current_trial": 93, "dateTime": 1664555142831, "trialdata": {"rt": 812, "stimulus": "<p id='stroop-text' class='stroop-red'>BRAIN</p>", "response": "r", "stimulus-type": "unrelated", "word": "BRAIN", "color": "red", "correct_response": "r", "trial_id": "stroop-trial-1-unrelated-19", "trial_type": "html-keyboard-response", "trial_index": 93, "time_elapsed": 240293, "internal_node_id": "0.0-4.0-89.0"}}, {"uniqueid": "w82497187:a24787654", "current_trial": 94, "dateTime": 1664555146996, "trialdata": {"rt": 3663, "stimulus": "  <h1> End of block! </h1>\n\n  You have reached the end of the block 1/5. If you need a short break, feel free to take one now before moving on.\n\n  <br><br>\n  In the next block, you will complete another 90 rounds of this game.\n\n  <br><br>\n  <div style='text-align: center;'>Press <code>space</code> to begin.</div>\n  <br><br>\n<div style='text-align: center;'>(If the experiment doesn't continue, try clicking on the text and then pressing <code>space</code>.)</div>", "response": " ", "trial_id": "stroop_1_ready_2", "trial_type": "html-keyboard-response", "trial_index": 94, "time_elapsed": 244459, "internal_node_id": "0.0-5.0"}}, {"uniqueid": "w82497187:a24787654", "current_trial": 95, "dateTime": 1664555147820, "trialdata": {"rt": 823, "stimulus": "<p id='stroop-text' class='stroop-yellow'>FORK</p>", "response": "y", "stimulus-type": "unrelated", "word": "FORK", "color": "yellow", "correct_response": "y", "trial_id": "stroop-trial-1-unrelated-18", "trial_type": "html-keyboard-response", "trial_index": 95, "time_elapsed": 245283, "internal_node_id": "0.0-6.0-0.0"}}, {"uniqueid": "w82497187:a24787654", "current_trial": 96, "dateTime": 1664555149261, "trialdata": {"rt": 938, "stimulus": "<p id='stroop-text' class='stroop-green'>STONE</p>", "response": "g", "stimulus-type": "unrelated", "word": "STONE", "color": "green", "correct_response": "g", "trial_id": "stroop-trial-1-unrelated-7", "trial_type": "html-keyboard-response", "trial_index": 96, "time_elapsed": 246724, "internal_node_id": "0.0-6.0-1.0"}}, {"uniqueid": "w82497187:a24787654", "current_trial": 97, "dateTime": 1664555150212, "trialdata": {"rt": 450, "stimulus": "<p id='stroop-text' class='stroop-green'>YELLOW</p>", "response": "g", "stimulus-type": "incongruent", "word": "yellow", "color": "green", "correct_response": "g", "trial_id": "stroop-trial-1-incongruent-17", "trial_type": "html-keyboard-response", "trial_index": 97, "time_elapsed": 247675, "internal_node_id": "0.0-6.0-2.0"}}, {"uniqueid": "w82497187:a24787654", "current_trial": 98, "dateTime": 1664555151461, "trialdata": {"rt": 747, "stimulus": "<p id='stroop-text' class='stroop-red'>BLUE</p>", "response": "r", "stimulus-type": "incongruent", "word": "blue", "color": "red", "correct_response": "r", "trial_id": "stroop-trial-1-incongruent-20", "trial_type": "html-keyboard-response", "trial_index": 98, "time_elapsed": 248923, "internal_node_id": "0.0-6.0-3.0"}}, {"uniqueid": "w82497187:a24787654", "current_trial": 99, "dateTime": 1664555153276, "trialdata": {"rt": 1315, "stimulus": "<p id='stroop-text' class='stroop-blue'>GREEN</p>", "response": "b", "stimulus-type": "incongruent", "word": "green", "color": "blue", "correct_response": "b", "trial_id": "stroop-trial-1-incongruent-12", "trial_type": "html-keyboard-response", "trial_index": 99, "time_elapsed": 250739, "internal_node_id": "0.0-6.0-4.0"}}, {"uniqueid": "w82497187:a24787654", "current_trial": 100, "dateTime": 1664555154668, "trialdata": {"rt": 890, "stimulus": "<p id='stroop-text' class='stroop-green'>RED</p>", "response": "g", "stimulus-type": "incongruent", "word": "red", "color": "green", "correct_response": "g", "trial_id": "stroop-trial-1-incongruent-5", "trial_type": "html-keyboard-response", "trial_index": 100, "time_elapsed": 252131, "internal_node_id": "0.0-6.0-5.0"}}, {"uniqueid": "w82497187:a24787654", "current_trial": 101, "dateTime": 1664555155933, "trialdata": {"rt": 763, "stimulus": "<p id='stroop-text' class='stroop-yellow'>FORK</p>", "response": "y", "stimulus-type": "unrelated", "word": "FORK", "color": "yellow", "correct_response": "y", "trial_id": "stroop-trial-1-unrelated-17", "trial_type": "html-keyboard-response", "trial_index": 101, "time_elapsed": 253395, "internal_node_id": "0.0-6.0-6.0"}}, {"uniqueid": "w82497187:a24787654", "current_trial": 102, "dateTime": 1664555157157, "trialdata": {"rt": 722, "stimulus": "<p id='stroop-text' class='stroop-green'>GREEN</p>", "response": "g", "stimulus-type": "congruent", "word": "green", "color": "green", "correct_response": "g", "trial_id": "stroop-trial-1-congruent-16", "trial_type": "html-keyboard-response", "trial_index": 102, "time_elapsed": 254619, "internal_node_id": "0.0-6.0-7.0"}}, {"uniqueid": "w82497187:a24787654", "current_trial": 103, "dateTime": 1664555158565, "trialdata": {"rt": 907, "stimulus": "<p id='stroop-text' class='stroop-yellow'>STONE</p>", "response": "y", "stimulus-type": "unrelated", "word": "STONE", "color": "yellow", "correct_response": "y", "trial_id": "stroop-trial-1-unrelated-30", "trial_type": "html-keyboard-response", "trial_index": 103, "time_elapsed": 256028, "internal_node_id": "0.0-6.0-8.0"}}, {"uniqueid": "w82497187:a24787654", "current_trial": 104, "dateTime": 1664555160013, "trialdata": {"rt": 946, "stimulus": "<p id='stroop-text' class='stroop-blue'>BOAT</p>", "response": "b", "stimulus-type": "unrelated", "word": "BOAT", "color": "blue", "correct_response": "b", "trial_id": "stroop-trial-1-unrelated-6", "trial_type": "html-keyboard-response", "trial_index": 104, "time_elapsed": 257476, "internal_node_id": "0.0-6.0-9.0"}}, {"uniqueid": "w82497187:a24787654", "current_trial": 105, "dateTime": 1664555161189, "trialdata": {"rt": 674, "stimulus": "<p id='stroop-text' class='stroop-blue'>GREEN</p>", "response": "b", "stimulus-type": "incongruent", "word": "green", "color": "blue", "correct_response": "b", "trial_id": "stroop-trial-1-incongruent-19", "trial_type": "html-keyboard-response", "trial_index": 105, "time_elapsed": 258652, "internal_node_id": "0.0-6.0-10.0"}}, {"uniqueid": "w82497187:a24787654", "current_trial": 106, "dateTime": 1664555162589, "trialdata": {"rt": 897, "stimulus": "<p id='stroop-text' class='stroop-green'>YELLOW</p>", "response": "g", "stimulus-type": "incongruent", "word": "yellow", "color": "green", "correct_response": "g", "trial_id": "stroop-trial-1-incongruent-4", "trial_type": "html-keyboard-response", "trial_index": 106, "time_elapsed": 260052, "internal_node_id": "0.0-6.0-11.0"}}, {"uniqueid": "w82497187:a24787654", "current_trial": 107, "dateTime": 1664555164421, "trialdata": {"rt": 1329, "stimulus": "<p id='stroop-text' class='stroop-blue'>SHIP</p>", "response": "b", "stimulus-type": "unrelated", "word": "SHIP", "color": "blue", "correct_response": "b", "trial_id": "stroop-trial-1-unrelated-11", "trial_type": "html-keyboard-response", "trial_index": 107, "time_elapsed": 261884, "internal_node_id": "0.0-6.0-12.0"}}, {"uniqueid": "w82497187:a24787654", "current_trial": 108, "dateTime": 1664555165597, "trialdata": {"rt": 674, "stimulus": "<p id='stroop-text' class='stroop-yellow'>YELLOW</p>", "response": "y", "stimulus-type": "congruent", "word": "yellow", "color": "yellow", "correct_response": "y", "trial_id": "stroop-trial-1-congruent-30", "trial_type": "html-keyboard-response", "trial_index": 108, "time_elapsed": 263060, "internal_node_id": "0.0-6.0-13.0"}}, {"uniqueid": "w82497187:a24787654", "current_trial": 109, "dateTime": 1664555166893, "trialdata": {"rt": 794, "stimulus": "<p id='stroop-text' class='stroop-blue'>CHAIR</p>", "response": "b", "stimulus-type": "unrelated", "word": "CHAIR", "color": "blue", "correct_response": "b", "trial_id": "stroop-trial-1-unrelated-2", "trial_type": "html-keyboard-response", "trial_index": 109, "time_elapsed": 264356, "internal_node_id": "0.0-6.0-14.0"}}, {"uniqueid": "w82497187:a24787654", "current_trial": 110, "dateTime": 1664555168373, "trialdata": {"rt": 977, "stimulus": "<p id='stroop-text' class='stroop-green'>STONE</p>", "response": "g", "stimulus-type": "unrelated", "word": "STONE", "color": "green", "correct_response": "g", "trial_id": "stroop-trial-1-unrelated-1", "trial_type": "html-keyboard-response", "trial_index": 110, "time_elapsed": 265836, "internal_node_id": "0.0-6.0-15.0"}}, {"uniqueid": "w82497187:a24787654", "current_trial": 111, "dateTime": 1664555169733, "trialdata": {"rt": 844, "stimulus": "<p id='stroop-text' class='stroop-blue'>BLUE</p>", "response": "b", "stimulus-type": "congruent", "word": "blue", "color": "blue", "correct_response": "b", "trial_id": "stroop-trial-1-congruent-11", "trial_type": "html-keyboard-response", "trial_index": 111, "time_elapsed": 267196, "internal_node_id": "0.0-6.0-16.0"}}, {"uniqueid": "w82497187:a24787654", "current_trial": 112, "dateTime": 1664555171110, "trialdata": {"rt": 876, "stimulus": "<p id='stroop-text' class='stroop-yellow'>BLUE</p>", "response": "y", "stimulus-type": "incongruent", "word": "blue", "color": "yellow", "correct_response": "y", "trial_id": "stroop-trial-1-incongruent-16", "trial_type": "html-keyboard-response", "trial_index": 112, "time_elapsed": 268572, "internal_node_id": "0.0-6.0-17.0"}}, {"uniqueid": "w82497187:a24787654", "current_trial": 113, "dateTime": 1664555172477, "trialdata": {"rt": 865, "stimulus": "<p id='stroop-text' class='stroop-blue'>GREEN</p>", "response": "b", "stimulus-type": "incongruent", "word": "green", "color": "blue", "correct_response": "b", "trial_id": "stroop-trial-1-incongruent-7", "trial_type": "html-keyboard-response", "trial_index": 113, "time_elapsed": 269940, "internal_node_id": "0.0-6.0-18.0"}}, {"uniqueid": "w82497187:a24787654", "current_trial": 114, "dateTime": 1664555173781, "trialdata": {"rt": 802, "stimulus": "<p id='stroop-text' class='stroop-yellow'>DOG</p>", "response": "y", "stimulus-type": "unrelated", "word": "DOG", "color": "yellow", "correct_response": "y", "trial_id": "stroop-trial-1-unrelated-19", "trial_type": "html-keyboard-response", "trial_index": 114, "time_elapsed": 271244, "internal_node_id": "0.0-6.0-19.0"}}, {"uniqueid": "w82497187:a24787654", "current_trial": 115, "dateTime": 1664555175605, "trialdata": {"rt": 1321, "stimulus": "<p id='stroop-text' class='stroop-green'>BLUE</p>", "response": "g", "stimulus-type": "incongruent", "word": "blue", "color": "green", "correct_response": "g", "trial_id": "stroop-trial-1-incongruent-25", "trial_type": "html-keyboard-response", "trial_index": 115, "time_elapsed": 273068, "internal_node_id": "0.0-6.0-20.0"}}, {"uniqueid": "w82497187:a24787654", "current_trial": 116, "dateTime": 1664555177845, "trialdata": {"rt": 1739, "stimulus": "<p id='stroop-text' class='stroop-blue'>DOG</p>", "response": "b", "stimulus-type": "unrelated", "word": "DOG", "color": "blue", "correct_response": "b", "trial_id": "stroop-trial-1-unrelated-20", "trial_type": "html-keyboard-response", "trial_index": 116, "time_elapsed": 275308, "internal_node_id": "0.0-6.0-21.0"}}, {"uniqueid": "w82497187:a24787654", "current_trial": 117, "dateTime": 1664555179109, "trialdata": {"rt": 762, "stimulus": "<p id='stroop-text' class='stroop-blue'>GREEN</p>", "response": "b", "stimulus-type": "incongruent", "word": "green", "color": "blue", "correct_response": "b", "trial_id": "stroop-trial-1-incongruent-18", "trial_type": "html-keyboard-response", "trial_index": 117, "time_elapsed": 276572, "internal_node_id": "0.0-6.0-22.0"}}, {"uniqueid": "w82497187:a24787654", "current_trial": 118, "dateTime": 1664555180613, "trialdata": {"rt": 1003, "stimulus": "<p id='stroop-text' class='stroop-green'>YELLOW</p>", "response": "g", "stimulus-type": "incongruent", "word": "yellow", "color": "green", "correct_response": "g", "trial_id": "stroop-trial-1-incongruent-1", "trial_type": "html-keyboard-response", "trial_index": 118, "time_elapsed": 278076, "internal_node_id": "0.0-6.0-23.0"}}, {"uniqueid": "w82497187:a24787654", "current_trial": 119, "dateTime": 1664555182565, "trialdata": {"rt": 1449, "stimulus": "<p id='stroop-text' class='stroop-yellow'>MONKEY</p>", "response": "y", "stimulus-type": "unrelated", "word": "MONKEY", "color": "yellow", "correct_response": "y", "trial_id": "stroop-trial-1-unrelated-4", "trial_type": "html-keyboard-response", "trial_index": 119, "time_elapsed": 280028, "internal_node_id": "0.0-6.0-24.0"}}, {"uniqueid": "w82497187:a24787654", "current_trial": 120, "dateTime": 1664555184677, "trialdata": {"rt": 1609, "stimulus": "<p id='stroop-text' class='stroop-green'>SHIP</p>", "response": "g", "stimulus-type": "unrelated", "word": "SHIP", "color": "green", "correct_response": "g", "trial_id": "stroop-trial-1-unrelated-14", "trial_type": "html-keyboard-response", "trial_index": 120, "time_elapsed": 282140, "internal_node_id": "0.0-6.0-25.0"}}, {"uniqueid": "w82497187:a24787654", "current_trial": 121, "dateTime": 1664555186205, "trialdata": {"rt": 1025, "stimulus": "<p id='stroop-text' class='stroop-blue'>WINDOW</p>", "response": "b", "stimulus-type": "unrelated", "word": "WINDOW", "color": "blue", "correct_response": "b", "trial_id": "stroop-trial-1-unrelated-25", "trial_type": "html-keyboard-response", "trial_index": 121, "time_elapsed": 283668, "internal_node_id": "0.0-6.0-26.0"}}, {"uniqueid": "w82497187:a24787654", "current_trial": 122, "dateTime": 1664555187775, "trialdata": {"rt": 1067, "stimulus": "<p id='stroop-text' class='stroop-yellow'>GREEN</p>", "response": "y", "stimulus-type": "incongruent", "word": "green", "color": "yellow", "correct_response": "y", "trial_id": "stroop-trial-1-incongruent-21", "trial_type": "html-keyboard-response", "trial_index": 122, "time_elapsed": 285238, "internal_node_id": "0.0-6.0-27.0"}}, {"uniqueid": "w82497187:a24787654", "current_trial": 123, "dateTime": 1664555188781, "trialdata": {"rt": 504, "stimulus": "<p id='stroop-text' class='stroop-yellow'>YELLOW</p>", "response": "y", "stimulus-type": "congruent", "word": "yellow", "color": "yellow", "correct_response": "y", "trial_id": "stroop-trial-1-congruent-15", "trial_type": "html-keyboard-response", "trial_index": 123, "time_elapsed": 286244, "internal_node_id": "0.0-6.0-28.0"}}, {"uniqueid": "w82497187:a24787654", "current_trial": 124, "dateTime": 1664555190205, "trialdata": {"rt": 922, "stimulus": "<p id='stroop-text' class='stroop-blue'>GREEN</p>", "response": "b", "stimulus-type": "incongruent", "word": "green", "color": "blue", "correct_response": "b", "trial_id": "stroop-trial-1-incongruent-11", "trial_type": "html-keyboard-response", "trial_index": 124, "time_elapsed": 287668, "internal_node_id": "0.0-6.0-29.0"}}, {"uniqueid": "w82497187:a24787654", "current_trial": 125, "dateTime": 1664555192573, "trialdata": {"rt": 1857, "stimulus": "<p id='stroop-text' class='stroop-green'>GREEN</p>", "response": "g", "stimulus-type": "congruent", "word": "green", "color": "green", "correct_response": "g", "trial_id": "stroop-trial-1-congruent-17", "trial_type": "html-keyboard-response", "trial_index": 125, "time_elapsed": 290036, "internal_node_id": "0.0-6.0-30.0"}}, {"uniqueid": "w82497187:a24787654", "current_trial": 126, "dateTime": 1664555194021, "trialdata": {"rt": 946, "stimulus": "<p id='stroop-text' class='stroop-red'>RED</p>", "response": "r", "stimulus-type": "congruent", "word": "red", "color": "red", "correct_response": "r", "trial_id": "stroop-trial-1-congruent-27", "trial_type": "html-keyboard-response", "trial_index": 126, "time_elapsed": 291484, "internal_node_id": "0.0-6.0-31.0"}}, {"uniqueid": "w82497187:a24787654", "current_trial": 127, "dateTime": 1664555194933, "trialdata": {"rt": 410, "stimulus": "<p id='stroop-text' class='stroop-red'>RED</p>", "response": "r", "stimulus-type": "congruent", "word": "red", "color": "red", "correct_response": "r", "trial_id": "stroop-trial-1-congruent-2", "trial_type": "html-keyboard-response", "trial_index": 127, "time_elapsed": 292396, "internal_node_id": "0.0-6.0-32.0"}}, {"uniqueid": "w82497187:a24787654", "current_trial": 128, "dateTime": 1664555195790, "trialdata": {"rt": 354, "stimulus": "<p id='stroop-text' class='stroop-red'>RED</p>", "response": "r", "stimulus-type": "congruent", "word": "red", "color": "red", "correct_response": "r", "trial_id": "stroop-trial-1-congruent-20", "trial_type": "html-keyboard-response", "trial_index": 128, "time_elapsed": 293253, "internal_node_id": "0.0-6.0-33.0"}}, {"uniqueid": "w82497187:a24787654", "current_trial": 129, "dateTime": 1664555198533, "trialdata": {"rt": 2241, "stimulus": "<p id='stroop-text' class='stroop-green'>MONKEY</p>", "response": "g", "stimulus-type": "unrelated", "word": "MONKEY", "color": "green", "correct_response": "g", "trial_id": "stroop-trial-1-unrelated-12", "trial_type": "html-keyboard-response", "trial_index": 129, "time_elapsed": 295996, "internal_node_id": "0.0-6.0-34.0"}}, {"uniqueid": "w82497187:a24787654", "current_trial": 130, "dateTime": 1664555199501, "trialdata": {"rt": 464, "stimulus": "<p id='stroop-text' class='stroop-green'>GREEN</p>", "response": "g", "stimulus-type": "congruent", "word": "green", "color": "green", "correct_response": "g", "trial_id": "stroop-trial-1-congruent-26", "trial_type": "html-keyboard-response", "trial_index": 130, "time_elapsed": 296964, "internal_node_id": "0.0-6.0-35.0"}}, {"uniqueid": "w82497187:a24787654", "current_trial": 131, "dateTime": 1664555201125, "trialdata": {"rt": 1121, "stimulus": "<p id='stroop-text' class='stroop-yellow'>WINDOW</p>", "response": "y", "stimulus-type": "unrelated", "word": "WINDOW", "color": "yellow", "correct_response": "y", "trial_id": "stroop-trial-1-unrelated-13", "trial_type": "html-keyboard-response", "trial_index": 131, "time_elapsed": 298588, "internal_node_id": "0.0-6.0-36.0"}}, {"uniqueid": "w82497187:a24787654", "current_trial": 132, "dateTime": 1664555202677, "trialdata": {"rt": 1050, "stimulus": "<p id='stroop-text' class='stroop-yellow'>FORK</p>", "response": "y", "stimulus-type": "unrelated", "word": "FORK", "color": "yellow", "correct_response": "y", "trial_id": "stroop-trial-1-unrelated-24", "trial_type": "html-keyboard-response", "trial_index": 132, "time_elapsed": 300140, "internal_node_id": "0.0-6.0-37.0"}}, {"uniqueid": "w82497187:a24787654", "current_trial": 133, "dateTime": 1664555203933, "trialdata": {"rt": 753, "stimulus": "<p id='stroop-text' class='stroop-blue'>BLUE</p>", "response": "b", "stimulus-type": "congruent", "word": "blue", "color": "blue", "correct_response": "b", "trial_id": "stroop-trial-1-congruent-28", "trial_type": "html-keyboard-response", "trial_index": 133, "time_elapsed": 301396, "internal_node_id": "0.0-6.0-38.0"}}, {"uniqueid": "w82497187:a24787654", "current_trial": 134, "dateTime": 1664555205197, "trialdata": {"rt": 763, "stimulus": "<p id='stroop-text' class='stroop-green'>GREEN</p>", "response": "g", "stimulus-type": "congruent", "word": "green", "color": "green", "correct_response": "g", "trial_id": "stroop-trial-1-congruent-8", "trial_type": "html-keyboard-response", "trial_index": 134, "time_elapsed": 302660, "internal_node_id": "0.0-6.0-39.0"}}, {"uniqueid": "w82497187:a24787654", "current_trial": 135, "dateTime": 1664555206733, "trialdata": {"rt": 1033, "stimulus": "<p id='stroop-text' class='stroop-yellow'>BOAT</p>", "response": "y", "stimulus-type": "unrelated", "word": "BOAT", "color": "yellow", "correct_response": "y", "trial_id": "stroop-trial-1-unrelated-29", "trial_type": "html-keyboard-response", "trial_index": 135, "time_elapsed": 304196, "internal_node_id": "0.0-6.0-40.0"}}, {"uniqueid": "w82497187:a24787654", "current_trial": 136, "dateTime": 1664555208366, "trialdata": {"rt": 1129, "stimulus": "<p id='stroop-text' class='stroop-red'>GREEN</p>", "response": "r", "stimulus-type": "incongruent", "word": "green", "color": "red", "correct_response": "r", "trial_id": "stroop-trial-1-incongruent-26", "trial_type": "html-keyboard-response", "trial_index": 136, "time_elapsed": 305828, "internal_node_id": "0.0-6.0-41.0"}}, {"uniqueid": "w82497187:a24787654", "current_trial": 137, "dateTime": 1664555209429, "trialdata": {"rt": 547, "stimulus": "<p id='stroop-text' class='stroop-red'>BLUE</p>", "response": "r", "stimulus-type": "incongruent", "word": "blue", "color": "red", "correct_response": "r", "trial_id": "stroop-trial-1-incongruent-23", "trial_type": "html-keyboard-response", "trial_index": 137, "time_elapsed": 306892, "internal_node_id": "0.0-6.0-42.0"}}, {"uniqueid": "w82497187:a24787654", "current_trial": 138, "dateTime": 1664555210653, "trialdata": {"rt": 723, "stimulus": "<p id='stroop-text' class='stroop-yellow'>YELLOW</p>", "response": "y", "stimulus-type": "congruent", "word": "yellow", "color": "yellow", "correct_response": "y", "trial_id": "stroop-trial-1-congruent-9", "trial_type": "html-keyboard-response", "trial_index": 138, "time_elapsed": 308116, "internal_node_id": "0.0-6.0-43.0"}}, {"uniqueid": "w82497187:a24787654", "current_trial": 139, "dateTime": 1664555211661, "trialdata": {"rt": 506, "stimulus": "<p id='stroop-text' class='stroop-yellow'>YELLOW</p>", "response": "y", "stimulus-type": "congruent", "word": "yellow", "color": "yellow", "correct_response": "y", "trial_id": "stroop-trial-1-congruent-7", "trial_type": "html-keyboard-response", "trial_index": 139, "time_elapsed": 309124, "internal_node_id": "0.0-6.0-44.0"}}, {"uniqueid": "w82497187:a24787654", "current_trial": 140, "dateTime": 1664555212821, "trialdata": {"rt": 659, "stimulus": "<p id='stroop-text' class='stroop-green'>YELLOW</p>", "response": "g", "stimulus-type": "incongruent", "word": "yellow", "color": "green", "correct_response": "g", "trial_id": "stroop-trial-1-incongruent-29", "trial_type": "html-keyboard-response", "trial_index": 140, "time_elapsed": 310284, "internal_node_id": "0.0-6.0-45.0"}}, {"uniqueid": "w82497187:a24787654", "current_trial": 141, "dateTime": 1664555214877, "trialdata": {"rt": 1553, "stimulus": "<p id='stroop-text' class='stroop-yellow'>DOG</p>", "response": "y", "stimulus-type": "unrelated", "word": "DOG", "color": "yellow", "correct_response": "y", "trial_id": "stroop-trial-1-unrelated-26", "trial_type": "html-keyboard-response", "trial_index": 141, "time_elapsed": 312340, "internal_node_id": "0.0-6.0-46.0"}}, {"uniqueid": "w82497187:a24787654", "current_trial": 142, "dateTime": 1664555216133, "trialdata": {"rt": 753, "stimulus": "<p id='stroop-text' class='stroop-green'>GREEN</p>", "response": "g", "stimulus-type": "congruent", "word": "green", "color": "green", "correct_response": "g", "trial_id": "stroop-trial-1-congruent-3", "trial_type": "html-keyboard-response", "trial_index": 142, "time_elapsed": 313596, "internal_node_id": "0.0-6.0-47.0"}}, {"uniqueid": "w82497187:a24787654", "current_trial": 143, "dateTime": 1664555217261, "trialdata": {"rt": 626, "stimulus": "<p id='stroop-text' class='stroop-yellow'>YELLOW</p>", "response": "y", "stimulus-type": "congruent", "word": "yellow", "color": "yellow", "correct_response": "y", "trial_id": "stroop-trial-1-congruent-25", "trial_type": "html-keyboard-response", "trial_index": 143, "time_elapsed": 314724, "internal_node_id": "0.0-6.0-48.0"}}, {"uniqueid": "w82497187:a24787654", "current_trial": 144, "dateTime": 1664555218389, "trialdata": {"rt": 627, "stimulus": "<p id='stroop-text' class='stroop-green'>YELLOW</p>", "response": "y", "stimulus-type": "incongruent", "word": "yellow", "color": "green", "correct_response": "g", "trial_id": "stroop-trial-1-incongruent-10", "trial_type": "html-keyboard-response", "trial_index": 144, "time_elapsed": 315852, "internal_node_id": "0.0-6.0-49.0"}}, {"uniqueid": "w82497187:a24787654", "current_trial": 145, "dateTime": 1664555219965, "trialdata": {"rt": 1074, "stimulus": "<p id='stroop-text' class='stroop-blue'>RED</p>", "response": "b", "stimulus-type": "incongruent", "word": "red", "color": "blue", "correct_response": "b", "trial_id": "stroop-trial-1-incongruent-8", "trial_type": "html-keyboard-response", "trial_index": 145, "time_elapsed": 317428, "internal_node_id": "0.0-6.0-50.0"}}, {"uniqueid": "w82497187:a24787654", "current_trial": 146, "dateTime": 1664555222669, "trialdata": {"rt": 2202, "stimulus": "<p id='stroop-text' class='stroop-yellow'>BRIDGE</p>", "response": "y", "stimulus-type": "unrelated", "word": "BRIDGE", "color": "yellow", "correct_response": "y", "trial_id": "stroop-trial-1-unrelated-8", "trial_type": "html-keyboard-response", "trial_index": 146, "time_elapsed": 320132, "internal_node_id": "0.0-6.0-51.0"}}, {"uniqueid": "w82497187:a24787654", "current_trial": 147, "dateTime": 1664555225054, "trialdata": {"rt": 1883, "stimulus": "<p id='stroop-text' class='stroop-blue'>BOAT</p>", "response": "b", "stimulus-type": "unrelated", "word": "BOAT", "color": "blue", "correct_response": "b", "trial_id": "stroop-trial-1-unrelated-23", "trial_type": "html-keyboard-response", "trial_index": 147, "time_elapsed": 322516, "internal_node_id": "0.0-6.0-52.0"}}, {"uniqueid": "w82497187:a24787654", "current_trial": 148, "dateTime": 1664555226133, "trialdata": {"rt": 578, "stimulus": "<p id='stroop-text' class='stroop-blue'>BOAT</p>", "response": "b", "stimulus-type": "unrelated", "word": "BOAT", "color": "blue", "correct_response": "b", "trial_id": "stroop-trial-1-unrelated-22", "trial_type": "html-keyboard-response", "trial_index": 148, "time_elapsed": 323596, "internal_node_id": "0.0-6.0-53.0"}}, {"uniqueid": "w82497187:a24787654", "current_trial": 149, "dateTime": 1664555227621, "trialdata": {"rt": 984, "stimulus": "<p id='stroop-text' class='stroop-red'>WINDOW</p>", "response": "r", "stimulus-type": "unrelated", "word": "WINDOW", "color": "red", "correct_response": "r", "trial_id": "stroop-trial-1-unrelated-5", "trial_type": "html-keyboard-response", "trial_index": 149, "time_elapsed": 325084, "internal_node_id": "0.0-6.0-54.0"}}, {"uniqueid": "w82497187:a24787654", "current_trial": 150, "dateTime": 1664555229733, "trialdata": {"rt": 1609, "stimulus": "<p id='stroop-text' class='stroop-blue'>YELLOW</p>", "response": "b", "stimulus-type": "incongruent", "word": "yellow", "color": "blue", "correct_response": "b", "trial_id": "stroop-trial-1-incongruent-9", "trial_type": "html-keyboard-response", "trial_index": 150, "time_elapsed": 327196, "internal_node_id": "0.0-6.0-55.0"}}, {"uniqueid": "w82497187:a24787654", "current_trial": 151, "dateTime": 1664555231119, "trialdata": {"rt": 884, "stimulus": "<p id='stroop-text' class='stroop-yellow'>BLUE</p>", "response": "y", "stimulus-type": "incongruent", "word": "blue", "color": "yellow", "correct_response": "y", "trial_id": "stroop-trial-1-incongruent-15", "trial_type": "html-keyboard-response", "trial_index": 151, "time_elapsed": 328582, "internal_node_id": "0.0-6.0-56.0"}}, {"uniqueid": "w82497187:a24787654", "current_trial": 152, "dateTime": 1664555232709, "trialdata": {"rt": 1088, "stimulus": "<p id='stroop-text' class='stroop-blue'>BLUE</p>", "response": "b", "stimulus-type": "congruent", "word": "blue", "color": "blue", "correct_response": "b", "trial_id": "stroop-trial-1-congruent-19", "trial_type": "html-keyboard-response", "trial_index": 152, "time_elapsed": 330172, "internal_node_id": "0.0-6.0-57.0"}}, {"uniqueid": "w82497187:a24787654", "current_trial": 153, "dateTime": 1664555233886, "trialdata": {"rt": 674, "stimulus": "<p id='stroop-text' class='stroop-blue'>BLUE</p>", "response": "b", "stimulus-type": "congruent", "word": "blue", "color": "blue", "correct_response": "b", "trial_id": "stroop-trial-1-congruent-29", "trial_type": "html-keyboard-response", "trial_index": 153, "time_elapsed": 331349, "internal_node_id": "0.0-6.0-58.0"}}, {"uniqueid": "w82497187:a24787654", "current_trial": 154, "dateTime": 1664555235229, "trialdata": {"rt": 842, "stimulus": "<p id='stroop-text' class='stroop-red'>WINDOW</p>", "response": "r", "stimulus-type": "unrelated", "word": "WINDOW", "color": "red", "correct_response": "r", "trial_id": "stroop-trial-1-unrelated-21", "trial_type": "html-keyboard-response", "trial_index": 154, "time_elapsed": 332692, "internal_node_id": "0.0-6.0-59.0"}}, {"uniqueid": "w82497187:a24787654", "current_trial": 155, "dateTime": 1664555236782, "trialdata": {"rt": 1049, "stimulus": "<p id='stroop-text' class='stroop-blue'>BLUE</p>", "response": "b", "stimulus-type": "congruent", "word": "blue", "color": "blue", "correct_response": "b", "trial_id": "stroop-trial-1-congruent-6", "trial_type": "html-keyboard-response", "trial_index": 155, "time_elapsed": 334245, "internal_node_id": "0.0-6.0-60.0"}}, {"uniqueid": "w82497187:a24787654", "current_trial": 156, "dateTime": 1664555238733, "trialdata": {"rt": 1449, "stimulus": "<p id='stroop-text' class='stroop-green'>RED</p>", "response": "g", "stimulus-type": "incongruent", "word": "red", "color": "green", "correct_response": "g", "trial_id": "stroop-trial-1-incongruent-14", "trial_type": "html-keyboard-response", "trial_index": 156, "time_elapsed": 336196, "internal_node_id": "0.0-6.0-61.0"}}, {"uniqueid": "w82497187:a24787654", "current_trial": 157, "dateTime": 1664555239733, "trialdata": {"rt": 497, "stimulus": "<p id='stroop-text' class='stroop-green'>YELLOW</p>", "response": "g", "stimulus-type": "incongruent", "word": "yellow", "color": "green", "correct_response": "g", "trial_id": "stroop-trial-1-incongruent-28", "trial_type": "html-keyboard-response", "trial_index": 157, "time_elapsed": 337196, "internal_node_id": "0.0-6.0-62.0"}}, {"uniqueid": "w82497187:a24787654", "current_trial": 158, "dateTime": 1664555241822, "trialdata": {"rt": 1586, "stimulus": "<p id='stroop-text' class='stroop-red'>RED</p>", "response": "r", "stimulus-type": "congruent", "word": "red", "color": "red", "correct_response": "r", "trial_id": "stroop-trial-1-congruent-1", "trial_type": "html-keyboard-response", "trial_index": 158, "time_elapsed": 339285, "internal_node_id": "0.0-6.0-63.0"}}, {"uniqueid": "w82497187:a24787654", "current_trial": 159, "dateTime": 1664555243277, "trialdata": {"rt": 954, "stimulus": "<p id='stroop-text' class='stroop-yellow'>YELLOW</p>", "response": "y", "stimulus-type": "congruent", "word": "yellow", "color": "yellow", "correct_response": "y", "trial_id": "stroop-trial-1-congruent-21", "trial_type": "html-keyboard-response", "trial_index": 159, "time_elapsed": 340740, "internal_node_id": "0.0-6.0-64.0"}}, {"uniqueid": "w82497187:a24787654", "current_trial": 160, "dateTime": 1664555244277, "trialdata": {"rt": 496, "stimulus": "<p id='stroop-text' class='stroop-yellow'>YELLOW</p>", "response": "y", "stimulus-type": "congruent", "word": "yellow", "color": "yellow", "correct_response": "y", "trial_id": "stroop-trial-1-congruent-24", "trial_type": "html-keyboard-response", "trial_index": 160, "time_elapsed": 341740, "internal_node_id": "0.0-6.0-65.0"}}, {"uniqueid": "w82497187:a24787654", "current_trial": 161, "dateTime": 1664555245983, "trialdata": {"rt": 1203, "stimulus": "<p id='stroop-text' class='stroop-blue'>RED</p>", "response": "b", "stimulus-type": "incongruent", "word": "red", "color": "blue", "correct_response": "b", "trial_id": "stroop-trial-1-incongruent-3", "trial_type": "html-keyboard-response", "trial_index": 161, "time_elapsed": 343445, "internal_node_id": "0.0-6.0-66.0"}}, {"uniqueid": "w82497187:a24787654", "current_trial": 162, "dateTime": 1664555246942, "trialdata": {"rt": 458, "stimulus": "<p id='stroop-text' class='stroop-blue'>RED</p>", "response": "b", "stimulus-type": "incongruent", "word": "red", "color": "blue", "correct_response": "b", "trial_id": "stroop-trial-1-incongruent-2", "trial_type": "html-keyboard-response", "trial_index": 162, "time_elapsed": 344405, "internal_node_id": "0.0-6.0-67.0"}}, {"uniqueid": "w82497187:a24787654", "current_trial": 163, "dateTime": 1664555249141, "trialdata": {"rt": 1697, "stimulus": "<p id='stroop-text' class='stroop-green'>WINDOW</p>", "response": "g", "stimulus-type": "unrelated", "word": "WINDOW", "color": "green", "correct_response": "g", "trial_id": "stroop-trial-1-unrelated-3", "trial_type": "html-keyboard-response", "trial_index": 163, "time_elapsed": 346604, "internal_node_id": "0.0-6.0-68.0"}}, {"uniqueid": "w82497187:a24787654", "current_trial": 164, "dateTime": 1664555250117, "trialdata": {"rt": 474, "stimulus": "<p id='stroop-text' class='stroop-green'>GREEN</p>", "response": "g", "stimulus-type": "congruent", "word": "green", "color": "green", "correct_response": "g", "trial_id": "stroop-trial-1-congruent-23", "trial_type": "html-keyboard-response", "trial_index": 164, "time_elapsed": 347580, "internal_node_id": "0.0-6.0-69.0"}}, {"uniqueid": "w82497187:a24787654", "current_trial": 165, "dateTime": 1664555251957, "trialdata": {"rt": 1338, "stimulus": "<p id='stroop-text' class='stroop-blue'>RED</p>", "response": "b", "stimulus-type": "incongruent", "word": "red", "color": "blue", "correct_response": "b", "trial_id": "stroop-trial-1-incongruent-24", "trial_type": "html-keyboard-response", "trial_index": 165, "time_elapsed": 349420, "internal_node_id": "0.0-6.0-70.0"}}, {"uniqueid": "w82497187:a24787654", "current_trial": 166, "dateTime": 1664555253182, "trialdata": {"rt": 722, "stimulus": "<p id='stroop-text' class='stroop-yellow'>YELLOW</p>", "response": "y", "stimulus-type": "congruent", "word": "yellow", "color": "yellow", "correct_response": "y", "trial_id": "stroop-trial-1-congruent-14", "trial_type": "html-keyboard-response", "trial_index": 166, "time_elapsed": 350645, "internal_node_id": "0.0-6.0-71.0"}}, {"uniqueid": "w82497187:a24787654", "current_trial": 167, "dateTime": 1664555254629, "trialdata": {"rt": 931, "stimulus": "<p id='stroop-text' class='stroop-green'>SHIP</p>", "response": "g", "stimulus-type": "unrelated", "word": "SHIP", "color": "green", "correct_response": "g", "trial_id": "stroop-trial-1-unrelated-28", "trial_type": "html-keyboard-response", "trial_index": 167, "time_elapsed": 352092, "internal_node_id": "0.0-6.0-72.0"}}, {"uniqueid": "w82497187:a24787654", "current_trial": 168, "dateTime": 1664555255773, "trialdata": {"rt": 642, "stimulus": "<p id='stroop-text' class='stroop-red'>RED</p>", "response": "r", "stimulus-type": "congruent", "word": "red", "color": "red", "correct_response": "r", "trial_id": "stroop-trial-1-congruent-13", "trial_type": "html-keyboard-response", "trial_index": 168, "time_elapsed": 353236, "internal_node_id": "0.0-6.0-73.0"}}, {"uniqueid": "w82497187:a24787654", "current_trial": 169, "dateTime": 1664555257606, "trialdata": {"rt": 1330, "stimulus": "<p id='stroop-text' class='stroop-yellow'>FORK</p>", "response": "y", "stimulus-type": "unrelated", "word": "FORK", "color": "yellow", "correct_response": "y", "trial_id": "stroop-trial-1-unrelated-10", "trial_type": "html-keyboard-response", "trial_index": 169, "time_elapsed": 355069, "internal_node_id": "0.0-6.0-74.0"}}, {"uniqueid": "w82497187:a24787654", "current_trial": 170, "dateTime": 1664555258862, "trialdata": {"rt": 754, "stimulus": "<p id='stroop-text' class='stroop-green'>GREEN</p>", "response": "g", "stimulus-type": "congruent", "word": "green", "color": "green", "correct_response": "g", "trial_id": "stroop-trial-1-congruent-12", "trial_type": "html-keyboard-response", "trial_index": 170, "time_elapsed": 356325, "internal_node_id": "0.0-6.0-75.0"}}, {"uniqueid": "w82497187:a24787654", "current_trial": 171, "dateTime": 1664555260414, "trialdata": {"rt": 1050, "stimulus": "<p id='stroop-text' class='stroop-blue'>BLUE</p>", "response": "b", "stimulus-type": "congruent", "word": "blue", "color": "blue", "correct_response": "b", "trial_id": "stroop-trial-1-congruent-4", "trial_type": "html-keyboard-response", "trial_index": 171, "time_elapsed": 357876, "internal_node_id": "0.0-6.0-76.0"}}, {"uniqueid": "w82497187:a24787654", "current_trial": 172, "dateTime": 1664555261790, "trialdata": {"rt": 865, "stimulus": "<p id='stroop-text' class='stroop-yellow'>BRIDGE</p>", "response": "y", "stimulus-type": "unrelated", "word": "BRIDGE", "color": "yellow", "correct_response": "y", "trial_id": "stroop-trial-1-unrelated-15", "trial_type": "html-keyboard-response", "trial_index": 172, "time_elapsed": 359253, "internal_node_id": "0.0-6.0-77.0"}}, {"uniqueid": "w82497187:a24787654", "current_trial": 173, "dateTime": 1664555262837, "trialdata": {"rt": 545, "stimulus": "<p id='stroop-text' class='stroop-yellow'>BLUE</p>", "response": "y", "stimulus-type": "incongruent", "word": "blue", "color": "yellow", "correct_response": "y", "trial_id": "stroop-trial-1-incongruent-6", "trial_type": "html-keyboard-response", "trial_index": 173, "time_elapsed": 360300, "internal_node_id": "0.0-6.0-78.0"}}, {"uniqueid": "w82497187:a24787654", "current_trial": 174, "dateTime": 1664555264293, "trialdata": {"rt": 955, "stimulus": "<p id='stroop-text' class='stroop-blue'>RED</p>", "response": "b", "stimulus-type": "incongruent", "word": "red", "color": "blue", "correct_response": "b", "trial_id": "stroop-trial-1-incongruent-27", "trial_type": "html-keyboard-response", "trial_index": 174, "time_elapsed": 361756, "internal_node_id": "0.0-6.0-79.0"}}, {"uniqueid": "w82497187:a24787654", "current_trial": 175, "dateTime": 1664555265846, "trialdata": {"rt": 1049, "stimulus": "<p id='stroop-text' class='stroop-yellow'>GREEN</p>", "response": "y", "stimulus-type": "incongruent", "word": "green", "color": "yellow", "correct_response": "y", "trial_id": "stroop-trial-1-incongruent-13", "trial_type": "html-keyboard-response", "trial_index": 175, "time_elapsed": 363308, "internal_node_id": "0.0-6.0-80.0"}}, {"uniqueid": "w82497187:a24787654", "current_trial": 176, "dateTime": 1664555267247, "trialdata": {"rt": 899, "stimulus": "<p id='stroop-text' class='stroop-red'>MONKEY</p>", "response": "r", "stimulus-type": "unrelated", "word": "MONKEY", "color": "red", "correct_response": "r", "trial_id": "stroop-trial-1-unrelated-16", "trial_type": "html-keyboard-response", "trial_index": 176, "time_elapsed": 364709, "internal_node_id": "0.0-6.0-81.0"}}, {"uniqueid": "w82497187:a24787654", "current_trial": 177, "dateTime": 1664555269485, "trialdata": {"rt": 1737, "stimulus": "<p id='stroop-text' class='stroop-green'>GREEN</p>", "response": "g", "stimulus-type": "congruent", "word": "green", "color": "green", "correct_response": "g", "trial_id": "stroop-trial-1-congruent-5", "trial_type": "html-keyboard-response", "trial_index": 177, "time_elapsed": 366948, "internal_node_id": "0.0-6.0-82.0"}}, {"uniqueid": "w82497187:a24787654", "current_trial": 178, "dateTime": 1664555271294, "trialdata": {"rt": 1308, "stimulus": "<p id='stroop-text' class='stroop-blue'>YELLOW</p>", "response": "b", "stimulus-type": "incongruent", "word": "yellow", "color": "blue", "correct_response": "b", "trial_id": "stroop-trial-1-incongruent-30", "trial_type": "html-keyboard-response", "trial_index": 178, "time_elapsed": 368757, "internal_node_id": "0.0-6.0-83.0"}}, {"uniqueid": "w82497187:a24787654", "current_trial": 179, "dateTime": 1664555272909, "trialdata": {"rt": 1112, "stimulus": "<p id='stroop-text' class='stroop-red'>CHAIR</p>", "response": "r", "stimulus-type": "unrelated", "word": "CHAIR", "color": "red", "correct_response": "r", "trial_id": "stroop-trial-1-unrelated-9", "trial_type": "html-keyboard-response", "trial_index": 179, "time_elapsed": 370372, "internal_node_id": "0.0-6.0-84.0"}}, {"uniqueid": "w82497187:a24787654", "current_trial": 180, "dateTime": 1664555274245, "trialdata": {"rt": 834, "stimulus": "<p id='stroop-text' class='stroop-red'>YELLOW</p>", "response": "r", "stimulus-type": "incongruent", "word": "yellow", "color": "red", "correct_response": "r", "trial_id": "stroop-trial-1-incongruent-22", "trial_type": "html-keyboard-response", "trial_index": 180, "time_elapsed": 371708, "internal_node_id": "0.0-6.0-85.0"}}, {"uniqueid": "w82497187:a24787654", "current_trial": 181, "dateTime": 1664555275229, "trialdata": {"rt": 483, "stimulus": "<p id='stroop-text' class='stroop-red'>RED</p>", "response": "r", "stimulus-type": "congruent", "word": "red", "color": "red", "correct_response": "r", "trial_id": "stroop-trial-1-congruent-18", "trial_type": "html-keyboard-response", "trial_index": 181, "time_elapsed": 372692, "internal_node_id": "0.0-6.0-86.0"}}, {"uniqueid": "w82497187:a24787654", "current_trial": 182, "dateTime": 1664555276814, "trialdata": {"rt": 1083, "stimulus": "<p id='stroop-text' class='stroop-blue'>BRIDGE</p>", "response": "b", "stimulus-type": "unrelated", "word": "BRIDGE", "color": "blue", "correct_response": "b", "trial_id": "stroop-trial-1-unrelated-27", "trial_type": "html-keyboard-response", "trial_index": 182, "time_elapsed": 374277, "internal_node_id": "0.0-6.0-87.0"}}, {"uniqueid": "w82497187:a24787654", "current_trial": 183, "dateTime": 1664555278150, "trialdata": {"rt": 833, "stimulus": "<p id='stroop-text' class='stroop-yellow'>YELLOW</p>", "response": "y", "stimulus-type": "congruent", "word": "yellow", "color": "yellow", "correct_response": "y", "trial_id": "stroop-trial-1-congruent-10", "trial_type": "html-keyboard-response", "trial_index": 183, "time_elapsed": 375613, "internal_node_id": "0.0-6.0-88.0"}}, {"uniqueid": "w82497187:a24787654", "current_trial": 184, "dateTime": 1664555279214, "trialdata": {"rt": 562, "stimulus": "<p id='stroop-text' class='stroop-yellow'>YELLOW</p>", "response": "y", "stimulus-type": "congruent", "word": "yellow", "color": "yellow", "correct_response": "y", "trial_id": "stroop-trial-1-congruent-22", "trial_type": "html-keyboard-response", "trial_index": 184, "time_elapsed": 376676, "internal_node_id": "0.0-6.0-89.0"}}, {"uniqueid": "w82497187:a24787654", "current_trial": 185, "dateTime": 1664555280821, "trialdata": {"rt": 1105, "stimulus": "  <h1> End of block! </h1>\n\n  You have reached the end of the block 2/5. If you need a short break, feel free to take one now before moving on.\n\n  <br><br>\n  In the next block, you will complete another 90 rounds of this game.\n\n  <br><br>\n  <div style='text-align: center;'>Press <code>space</code> to begin.</div>\n  <br><br>\n<div style='text-align: center;'>(If the experiment doesn't continue, try clicking on the text and then pressing <code>space</code>.)</div>", "response": " ", "trial_id": "stroop_1_ready_3", "trial_type": "html-keyboard-response", "trial_index": 185, "time_elapsed": 378284, "internal_node_id": "0.0-7.0"}}, {"uniqueid": "w82497187:a24787654", "current_trial": 186, "dateTime": 1664555281726, "trialdata": {"rt": 903, "stimulus": "<p id='stroop-text' class='stroop-yellow'>RED</p>", "response": "y", "stimulus-type": "incongruent", "word": "red", "color": "yellow", "correct_response": "y", "trial_id": "stroop-trial-1-incongruent-20", "trial_type": "html-keyboard-response", "trial_index": 186, "time_elapsed": 379189, "internal_node_id": "0.0-8.0-0.0"}}, {"uniqueid": "w82497187:a24787654", "current_trial": 187, "dateTime": 1664555283053, "trialdata": {"rt": 825, "stimulus": "<p id='stroop-text' class='stroop-yellow'>BOAT</p>", "response": "y", "stimulus-type": "unrelated", "word": "BOAT", "color": "yellow", "correct_response": "y", "trial_id": "stroop-trial-1-unrelated-21", "trial_type": "html-keyboard-response", "trial_index": 187, "time_elapsed": 380516, "internal_node_id": "0.0-8.0-1.0"}}, {"uniqueid": "w82497187:a24787654", "current_trial": 188, "dateTime": 1664555286037, "trialdata": {"rt": 2482, "stimulus": "<p id='stroop-text' class='stroop-green'>GREEN</p>", "response": "g", "stimulus-type": "congruent", "word": "green", "color": "green", "correct_response": "g", "trial_id": "stroop-trial-1-congruent-8", "trial_type": "html-keyboard-response", "trial_index": 188, "time_elapsed": 383500, "internal_node_id": "0.0-8.0-2.0"}}, {"uniqueid": "w82497187:a24787654", "current_trial": 189, "dateTime": 1664555286989, "trialdata": {"rt": 450, "stimulus": "<p id='stroop-text' class='stroop-green'>RED</p>", "response": "g", "stimulus-type": "incongruent", "word": "red", "color": "green", "correct_response": "g", "trial_id": "stroop-trial-1-incongruent-1", "trial_type": "html-keyboard-response", "trial_index": 189, "time_elapsed": 384452, "internal_node_id": "0.0-8.0-3.0"}}, {"uniqueid": "w82497187:a24787654", "current_trial": 190, "dateTime": 1664555288990, "trialdata": {"rt": 1498, "stimulus": "<p id='stroop-text' class='stroop-yellow'>MONKEY</p>", "response": "y", "stimulus-type": "unrelated", "word": "MONKEY", "color": "yellow", "correct_response": "y", "trial_id": "stroop-trial-1-unrelated-23", "trial_type": "html-keyboard-response", "trial_index": 190, "time_elapsed": 386453, "internal_node_id": "0.0-8.0-4.0"}}, {"uniqueid": "w82497187:a24787654", "current_trial": 191, "dateTime": 1664555290717, "trialdata": {"rt": 1224, "stimulus": "<p id='stroop-text' class='stroop-blue'>DOG</p>", "response": "b", "stimulus-type": "unrelated", "word": "DOG", "color": "blue", "correct_response": "b", "trial_id": "stroop-trial-1-unrelated-29", "trial_type": "html-keyboard-response", "trial_index": 191, "time_elapsed": 388180, "internal_node_id": "0.0-8.0-5.0"}}, {"uniqueid": "w82497187:a24787654", "current_trial": 192, "dateTime": 1664555292278, "trialdata": {"rt": 1058, "stimulus": "<p id='stroop-text' class='stroop-red'>CHAIR</p>", "response": "r", "stimulus-type": "unrelated", "word": "CHAIR", "color": "red", "correct_response": "r", "trial_id": "stroop-trial-1-unrelated-8", "trial_type": "html-keyboard-response", "trial_index": 192, "time_elapsed": 389741, "internal_node_id": "0.0-8.0-6.0"}}, {"uniqueid": "w82497187:a24787654", "current_trial": 193, "dateTime": 1664555294285, "trialdata": {"rt": 1505, "stimulus": "<p id='stroop-text' class='stroop-green'>CHAIR</p>", "response": "g", "stimulus-type": "unrelated", "word": "CHAIR", "color": "green", "correct_response": "g", "trial_id": "stroop-trial-1-unrelated-25", "trial_type": "html-keyboard-response", "trial_index": 193, "time_elapsed": 391748, "internal_node_id": "0.0-8.0-7.0"}}, {"uniqueid": "w82497187:a24787654", "current_trial": 194, "dateTime": 1664555296677, "trialdata": {"rt": 1889, "stimulus": "<p id='stroop-text' class='stroop-yellow'>BOTTLE</p>", "response": "y", "stimulus-type": "unrelated", "word": "BOTTLE", "color": "yellow", "correct_response": "y", "trial_id": "stroop-trial-1-unrelated-3", "trial_type": "html-keyboard-response", "trial_index": 194, "time_elapsed": 394140, "internal_node_id": "0.0-8.0-8.0"}}, {"uniqueid": "w82497187:a24787654", "current_trial": 195, "dateTime": 1664555297790, "trialdata": {"rt": 610, "stimulus": "<p id='stroop-text' class='stroop-yellow'>YELLOW</p>", "response": "y", "stimulus-type": "congruent", "word": "yellow", "color": "yellow", "correct_response": "y", "trial_id": "stroop-trial-1-congruent-21", "trial_type": "html-keyboard-response", "trial_index": 195, "time_elapsed": 395253, "internal_node_id": "0.0-8.0-9.0"}}, {"uniqueid": "w82497187:a24787654", "current_trial": 196, "dateTime": 1664555298821, "trialdata": {"rt": 529, "stimulus": "<p id='stroop-text' class='stroop-yellow'>RED</p>", "response": "y", "stimulus-type": "incongruent", "word": "red", "color": "yellow", "correct_response": "y", "trial_id": "stroop-trial-1-incongruent-19", "trial_type": "html-keyboard-response", "trial_index": 196, "time_elapsed": 396284, "internal_node_id": "0.0-8.0-10.0"}}, {"uniqueid": "w82497187:a24787654", "current_trial": 197, "dateTime": 1664555300254, "trialdata": {"rt": 930, "stimulus": "<p id='stroop-text' class='stroop-blue'>BRIDGE</p>", "response": "b", "stimulus-type": "unrelated", "word": "BRIDGE", "color": "blue", "correct_response": "b", "trial_id": "stroop-trial-1-unrelated-22", "trial_type": "html-keyboard-response", "trial_index": 197, "time_elapsed": 397717, "internal_node_id": "0.0-8.0-11.0"}}, {"uniqueid": "w82497187:a24787654", "current_trial": 198, "dateTime": 1664555301238, "trialdata": {"rt": 480, "stimulus": "<p id='stroop-text' class='stroop-blue'>BLUE</p>", "response": "b", "stimulus-type": "congruent", "word": "blue", "color": "blue", "correct_response": "b", "trial_id": "stroop-trial-1-congruent-22", "trial_type": "html-keyboard-response", "trial_index": 198, "time_elapsed": 398700, "internal_node_id": "0.0-8.0-12.0"}}, {"uniqueid": "w82497187:a24787654", "current_trial": 199, "dateTime": 1664555302109, "trialdata": {"rt": 369, "stimulus": "<p id='stroop-text' class='stroop-blue'>BLUE</p>", "response": "b", "stimulus-type": "congruent", "word": "blue", "color": "blue", "correct_response": "b", "trial_id": "stroop-trial-1-congruent-13", "trial_type": "html-keyboard-response", "trial_index": 199, "time_elapsed": 399572, "internal_node_id": "0.0-8.0-13.0"}}, {"uniqueid": "w82497187:a24787654", "current_trial": 200, "dateTime": 1664555303845, "trialdata": {"rt": 1233, "stimulus": "<p id='stroop-text' class='stroop-green'>MONKEY</p>", "response": "g", "stimulus-type": "unrelated", "word": "MONKEY", "color": "green", "correct_response": "g", "trial_id": "stroop-trial-1-unrelated-19", "trial_type": "html-keyboard-response", "trial_index": 200, "time_elapsed": 401308, "internal_node_id": "0.0-8.0-14.0"}}, {"uniqueid": "w82497187:a24787654", "current_trial": 201, "dateTime": 1664555305229, "trialdata": {"rt": 881, "stimulus": "<p id='stroop-text' class='stroop-blue'>YELLOW</p>", "response": "y", "stimulus-type": "incongruent", "word": "yellow", "color": "blue", "correct_response": "b", "trial_id": "stroop-trial-1-incongruent-29", "trial_type": "html-keyboard-response", "trial_index": 201, "time_elapsed": 402692, "internal_node_id": "0.0-8.0-15.0"}}, {"uniqueid": "w82497187:a24787654", "current_trial": 202, "dateTime": 1664555308405, "trialdata": {"rt": 2674, "stimulus": "<p id='stroop-text' class='stroop-green'>GREEN</p>", "response": "g", "stimulus-type": "congruent", "word": "green", "color": "green", "correct_response": "g", "trial_id": "stroop-trial-1-congruent-19", "trial_type": "html-keyboard-response", "trial_index": 202, "time_elapsed": 405868, "internal_node_id": "0.0-8.0-16.0"}}, {"uniqueid": "w82497187:a24787654", "current_trial": 203, "dateTime": 1664555310053, "trialdata": {"rt": 1146, "stimulus": "<p id='stroop-text' class='stroop-yellow'>RED</p>", "response": "y", "stimulus-type": "incongruent", "word": "red", "color": "yellow", "correct_response": "y", "trial_id": "stroop-trial-1-incongruent-8", "trial_type": "html-keyboard-response", "trial_index": 203, "time_elapsed": 407516, "internal_node_id": "0.0-8.0-17.0"}}, {"uniqueid": "w82497187:a24787654", "current_trial": 204, "dateTime": 1664555311325, "trialdata": {"rt": 770, "stimulus": "<p id='stroop-text' class='stroop-blue'>YELLOW</p>", "response": "b", "stimulus-type": "incongruent", "word": "yellow", "color": "blue", "correct_response": "b", "trial_id": "stroop-trial-1-incongruent-4", "trial_type": "html-keyboard-response", "trial_index": 204, "time_elapsed": 408788, "internal_node_id": "0.0-8.0-18.0"}}, {"uniqueid": "w82497187:a24787654", "current_trial": 205, "dateTime": 1664555313046, "trialdata": {"rt": 1218, "stimulus": "<p id='stroop-text' class='stroop-green'>CHAIR</p>", "response": "g", "stimulus-type": "unrelated", "word": "CHAIR", "color": "green", "correct_response": "g", "trial_id": "stroop-trial-1-unrelated-18", "trial_type": "html-keyboard-response", "trial_index": 205, "time_elapsed": 410508, "internal_node_id": "0.0-8.0-19.0"}}, {"uniqueid": "w82497187:a24787654", "current_trial": 206, "dateTime": 1664555314534, "trialdata": {"rt": 986, "stimulus": "<p id='stroop-text' class='stroop-yellow'>YELLOW</p>", "response": "y", "stimulus-type": "congruent", "word": "yellow", "color": "yellow", "correct_response": "y", "trial_id": "stroop-trial-1-congruent-23", "trial_type": "html-keyboard-response", "trial_index": 206, "time_elapsed": 411997, "internal_node_id": "0.0-8.0-20.0"}}, {"uniqueid": "w82497187:a24787654", "current_trial": 207, "dateTime": 1664555315901, "trialdata": {"rt": 864, "stimulus": "<p id='stroop-text' class='stroop-green'>BOAT</p>", "response": "y", "stimulus-type": "unrelated", "word": "BOAT", "color": "green", "correct_response": "g", "trial_id": "stroop-trial-1-unrelated-4", "trial_type": "html-keyboard-response", "trial_index": 207, "time_elapsed": 413364, "internal_node_id": "0.0-8.0-21.0"}}, {"uniqueid": "w82497187:a24787654", "current_trial": 208, "dateTime": 1664555318317, "trialdata": {"rt": 1912, "stimulus": "<p id='stroop-text' class='stroop-yellow'>SHIP</p>", "response": "y", "stimulus-type": "unrelated", "word": "SHIP", "color": "yellow", "correct_response": "y", "trial_id": "stroop-trial-1-unrelated-20", "trial_type": "html-keyboard-response", "trial_index": 208, "time_elapsed": 415780, "internal_node_id": "0.0-8.0-22.0"}}, {"uniqueid": "w82497187:a24787654", "current_trial": 209, "dateTime": 1664555320165, "trialdata": {"rt": 1346, "stimulus": "<p id='stroop-text' class='stroop-blue'>RED</p>", "response": "b", "stimulus-type": "incongruent", "word": "red", "color": "blue", "correct_response": "b", "trial_id": "stroop-trial-1-incongruent-21", "trial_type": "html-keyboard-response", "trial_index": 209, "time_elapsed": 417628, "internal_node_id": "0.0-8.0-23.0"}}, {"uniqueid": "w82497187:a24787654", "current_trial": 210, "dateTime": 1664555322606, "trialdata": {"rt": 1938, "stimulus": "<p id='stroop-text' class='stroop-red'>RED</p>", "response": "r", "stimulus-type": "congruent", "word": "red", "color": "red", "correct_response": "r", "trial_id": "stroop-trial-1-congruent-16", "trial_type": "html-keyboard-response", "trial_index": 210, "time_elapsed": 420069, "internal_node_id": "0.0-8.0-24.0"}}, {"uniqueid": "w82497187:a24787654", "current_trial": 211, "dateTime": 1664555324398, "trialdata": {"rt": 1280, "stimulus": "<p id='stroop-text' class='stroop-yellow'>SHIP</p>", "response": "y", "stimulus-type": "unrelated", "word": "SHIP", "color": "yellow", "correct_response": "y", "trial_id": "stroop-trial-1-unrelated-10", "trial_type": "html-keyboard-response", "trial_index": 211, "time_elapsed": 421861, "internal_node_id": "0.0-8.0-25.0"}}, {"uniqueid": "w82497187:a24787654", "current_trial": 212, "dateTime": 1664555325318, "trialdata": {"rt": 417, "stimulus": "<p id='stroop-text' class='stroop-yellow'>GREEN</p>", "response": "y", "stimulus-type": "incongruent", "word": "green", "color": "yellow", "correct_response": "y", "trial_id": "stroop-trial-1-incongruent-28", "trial_type": "html-keyboard-response", "trial_index": 212, "time_elapsed": 422781, "internal_node_id": "0.0-8.0-26.0"}}, {"uniqueid": "w82497187:a24787654", "current_trial": 213, "dateTime": 1664555326630, "trialdata": {"rt": 809, "stimulus": "<p id='stroop-text' class='stroop-red'>RED</p>", "response": "r", "stimulus-type": "congruent", "word": "red", "color": "red", "correct_response": "r", "trial_id": "stroop-trial-1-congruent-2", "trial_type": "html-keyboard-response", "trial_index": 213, "time_elapsed": 424092, "internal_node_id": "0.0-8.0-27.0"}}, {"uniqueid": "w82497187:a24787654", "current_trial": 214, "dateTime": 1664555329838, "trialdata": {"rt": 2704, "stimulus": "<p id='stroop-text' class='stroop-blue'>WINDOW</p>", "response": "b", "stimulus-type": "unrelated", "word": "WINDOW", "color": "blue", "correct_response": "b", "trial_id": "stroop-trial-1-unrelated-5", "trial_type": "html-keyboard-response", "trial_index": 214, "time_elapsed": 427300, "internal_node_id": "0.0-8.0-28.0"}}, {"uniqueid": "w82497187:a24787654", "current_trial": 215, "dateTime": 1664555330877, "trialdata": {"rt": 537, "stimulus": "<p id='stroop-text' class='stroop-blue'>BLUE</p>", "response": "b", "stimulus-type": "congruent", "word": "blue", "color": "blue", "correct_response": "b", "trial_id": "stroop-trial-1-congruent-26", "trial_type": "html-keyboard-response", "trial_index": 215, "time_elapsed": 428340, "internal_node_id": "0.0-8.0-29.0"}}, {"uniqueid": "w82497187:a24787654", "current_trial": 216, "dateTime": 1664555332013, "trialdata": {"rt": 635, "stimulus": "<p id='stroop-text' class='stroop-yellow'>YELLOW</p>", "response": "y", "stimulus-type": "congruent", "word": "yellow", "color": "yellow", "correct_response": "y", "trial_id": "stroop-trial-1-congruent-20", "trial_type": "html-keyboard-response", "trial_index": 216, "time_elapsed": 429476, "internal_node_id": "0.0-8.0-30.0"}}, {"uniqueid": "w82497187:a24787654", "current_trial": 217, "dateTime": 1664555333013, "trialdata": {"rt": 498, "stimulus": "<p id='stroop-text' class='stroop-yellow'>RED</p>", "response": "y", "stimulus-type": "incongruent", "word": "red", "color": "yellow", "correct_response": "y", "trial_id": "stroop-trial-1-incongruent-15", "trial_type": "html-keyboard-response", "trial_index": 217, "time_elapsed": 430476, "internal_node_id": "0.0-8.0-31.0"}}, {"uniqueid": "w82497187:a24787654", "current_trial": 218, "dateTime": 1664555334198, "trialdata": {"rt": 681, "stimulus": "<p id='stroop-text' class='stroop-blue'>MONKEY</p>", "response": "b", "stimulus-type": "unrelated", "word": "MONKEY", "color": "blue", "correct_response": "b", "trial_id": "stroop-trial-1-unrelated-12", "trial_type": "html-keyboard-response", "trial_index": 218, "time_elapsed": 431660, "internal_node_id": "0.0-8.0-32.0"}}, {"uniqueid": "w82497187:a24787654", "current_trial": 219, "dateTime": 1664555335582, "trialdata": {"rt": 882, "stimulus": "<p id='stroop-text' class='stroop-red'>STONE</p>", "response": "r", "stimulus-type": "unrelated", "word": "STONE", "color": "red", "correct_response": "r", "trial_id": "stroop-trial-1-unrelated-17", "trial_type": "html-keyboard-response", "trial_index": 219, "time_elapsed": 433045, "internal_node_id": "0.0-8.0-33.0"}}, {"uniqueid": "w82497187:a24787654", "current_trial": 220, "dateTime": 1664555336486, "trialdata": {"rt": 401, "stimulus": "<p id='stroop-text' class='stroop-red'>YELLOW</p>", "response": "r", "stimulus-type": "incongruent", "word": "yellow", "color": "red", "correct_response": "r", "trial_id": "stroop-trial-1-incongruent-13", "trial_type": "html-keyboard-response", "trial_index": 220, "time_elapsed": 433949, "internal_node_id": "0.0-8.0-34.0"}}, {"uniqueid": "w82497187:a24787654", "current_trial": 221, "dateTime": 1664555338694, "trialdata": {"rt": 1705, "stimulus": "<p id='stroop-text' class='stroop-green'>BOAT</p>", "response": "g", "stimulus-type": "unrelated", "word": "BOAT", "color": "green", "correct_response": "g", "trial_id": "stroop-trial-1-unrelated-26", "trial_type": "html-keyboard-response", "trial_index": 221, "time_elapsed": 436156, "internal_node_id": "0.0-8.0-35.0"}}, {"uniqueid": "w82497187:a24787654", "current_trial": 222, "dateTime": 1664555340406, "trialdata": {"rt": 1209, "stimulus": "<p id='stroop-text' class='stroop-red'>RED</p>", "response": "r", "stimulus-type": "congruent", "word": "red", 