{"condition": 1, "counterbalance": 0, "assignmentId": "a27759384", "workerId": "w10806473", "hitId": "h60644212", "currenttrial": 143, "bonus": 0, "data": [{"uniqueid": "w10806473:a27759384", "current_trial": 0, "dateTime": 1664555244653, "trialdata": {"success": true, "trial_type": "fullscreen", "trial_index": 0, "time_elapsed": 32318, "internal_node_id": "0.0-0.0"}}, {"uniqueid": "w10806473:a27759384", "current_trial": 1, "dateTime": 1664555279866, "trialdata": {"view_history": [{"page_index": 0, "viewing_time": 35210}], "rt": 35210, "trial_id": "exp_instructions_no_distractor", "trial_type": "instructions", "trial_index": 1, "time_elapsed": 67532, "internal_node_id": "0.0-1.0"}}, {"uniqueid": "w10806473:a27759384", "current_trial": 2, "dateTime": 1664555283886, "trialdata": {"success": true, "trial_type": "fullscreen", "trial_index": 2, "time_elapsed": 71552, "internal_node_id": "0.0-2.0-0.0"}}, {"uniqueid": "w10806473:a27759384", "current_trial": 3, "dateTime": 1664555455385, "trialdata": {"view_history": [{"page_index": 0, "viewing_time": 70619}, {"page_index": 1, "viewing_time": 35592}, {"page_index": 2, "viewing_time": 15079}, {"page_index": 3, "viewing_time": 12021}, {"page_index": 4, "viewing_time": 38186}], "rt": 171497, "trial_id": "mouselab_instructions_1", "trial_type": "instructions", "trial_index": 3, "time_elapsed": 243051, "internal_node_id": "0.0-2.0-1.0"}}, {"uniqueid": "w10806473:a27759384", "current_trial": 4, "dateTime": 1664555488631, "trialdata": {"revealed_states": [], "num_clicks_accrued": [0, 0, 0, 0, 0, 0, 0, 0, 0, 0, 0, 0, 0], "stateRewards": ["", -10, 10, 10, -10, -10, -10, 10, 10, 10, -10, 10, 10], "withholdReward": false, "trial_id": "practice_1", "block": "test", "trialIndex": 0, "score": 11.75, "costs": -0.25, "simulationMode": [null, null, null], "rewards": [10, -10, 10], "path": ["0", "0", "9", "10", "12"], "rt": [15205, 1629, 1848], "actions": ["left", "left", "down"], "actionTimes": [16709, 18829, 21165], "queries": {"click": {"state": {"target": ["5"], "time": [7573]}, "edge": {"target": [], "time": []}}, "mouseover": {"state": {"target": ["5", "6"], "time": [7233, 15883]}, "edge": {"target": [], "time": []}}, "mouseout": {"state": {"target": ["1", "1", "0", "0", "5", "6"], "time": [null, null, null, 566, 8683, 15901]}, "edge": {"target": [], "time": []}}}, "displayed_time": "21.65", "trialTime": 25213, "trial_type": "mouselab-mdp", "trial_index": 4, "time_elapsed": 276297, "internal_node_id": "0.0-2.0-2.0-0.0"}}, {"uniqueid": "w10806473:a27759384", "current_trial": 5, "dateTime": 1664555498373, "trialdata": {"revealed_states": [], "num_clicks_accrued": [0, 0, 0, 0, 0, 0, 0, 0, 0, 0, 0, 0, 0], "stateRewards": ["", 10, 10, -10, -10, 10, 10, 10, -10, -10, -10, -10, 10], "withholdReward": false, "trial_id": "practice_2", "block": "test", "trialIndex": 1, "score": 32, "costs": 0, "simulationMode": [null, null, null], "rewards": [10, 10, 10], "path": ["0", "0", "5", "6", "7"], "rt": [1566, 469, 286], "actions": ["right", "right", "up"], "actionTimes": [3827, 4794, 5578], "queries": {"click": {"state": {"target": [], "time": []}, "edge": {"target": [], "time": []}}, "mouseover": {"state": {"target": [], "time": []}, "edge": {"target": [], "time": []}}, "mouseout": {"state": {"target": ["8", "0"], "time": [1357, 1474]}, "edge": {"target": [], "time": []}}}, "displayed_time": "6.07", "trialTime": 9698, "trial_type": "mouselab-mdp", "trial_index": 5, "time_elapsed": 286039, "internal_node_id": "0.0-2.0-2.0-1.0"}}, {"uniqueid": "w10806473:a27759384", "current_trial": 6, "dateTime": 1664555837715, "trialdata": {"view_history": [{"page_index": 0, "viewing_time": 46001}, {"page_index": 1, "viewing_time": 22623}, {"page_index": 2, "viewing_time": 270716}], "rt": 339341, "trial_id": "mouselab_instructions_2_scarce", "trial_type": "instructions", "trial_index": 6, "time_elapsed": 625381, "internal_node_id": "0.0-2.0-3.0"}}, {"uniqueid": "w10806473:a27759384", "current_trial": 7, "dateTime": 1664555892172, "trialdata": {"rt": 54454, "response": {"Q0": "$-48 to $48", "Q1": "The cost is always $0.25.", "Q2": "I will receive a $1 bonus if I perform well, otherwise I will receive no bonus.", "Q3": "No, the amount of cash at each node of the web may be different each time.", "Q4": "The values of the nodes walked through from start to finish.", "Q5": "No, the spider might forget to count the money on some rounds."}, "question_order": [0, 1, 2, 3, 4, 5], "correct": {"Q0": "$-48 to $48", "Q1": "The cost is always $0.25.", "Q2": "The better I perform the higher my bonus will be.", "Q3": "No, the amount of cash at each node of the web may be different each time.", "Q4": "The values of the nodes walked through from start to finish.", "Q5": "No, the spider might forget to count the money on some rounds."}, "trial_id": "mouselab_quiz_scarce", "trial_type": "survey-multi-choice", "trial_index": 7, "time_elapsed": 679838, "internal_node_id": "0.0-2.0-4.0"}}, {"uniqueid": "w10806473:a27759384", "current_trial": 8, "dateTime": 1664555903358, "trialdata": {"success": true, "trial_type": "fullscreen", "trial_index": 8, "time_elapsed": 691024, "internal_node_id": "0.0-2.1-0.1"}}, {"uniqueid": "w10806473:a27759384", "current_trial": 9, "dateTime": 1664556200068, "trialdata": {"view_history": [{"page_index": 0, "viewing_time": 227924}, {"page_index": 1, "viewing_time": 11985}, {"page_index": 2, "viewing_time": 15513}, {"page_index": 3, "viewing_time": 8618}, {"page_index": 4, "viewing_time": 32669}], "rt": 296708, "trial_id": "mouselab_instructions_1", "trial_type": "instructions", "trial_index": 9, "time_elapsed": 987734, "internal_node_id": "0.0-2.1-1.1"}}, {"uniqueid": "w10806473:a27759384", "current_trial": 10, "dateTime": 1664556216642, "trialdata": {"revealed_states": [], "num_clicks_accrued": [0, 0, 0, 0, 0, 0, 0, 0, 0, 0, 0, 0, 0], "stateRewards": ["", -10, 10, 10, -10, -10, -10, 10, 10, 10, -10, 10, 10], "withholdReward": false, "trial_id": "practice_1", "block": "test", "trialIndex": 2, "score": -8.25, "costs": -0.25, "simulationMode": [null, null, null], "rewards": [-10, 10, -10], "path": ["0", "0", "1", "2", "4"], "rt": [6417, 1815, 275], "actions": ["up", "up", "left"], "actionTimes": [8777, 11089, 11865], "queries": {"click": {"state": {"target": ["5"], "time": [6033]}, "edge": {"target": [], "time": []}}, "mouseover": {"state": {"target": ["5"], "time": [5806]}, "edge": {"target": [], "time": []}}, "mouseout": {"state": {"target": ["5"], "time": [6740]}, "edge": {"target": [], "time": []}}}, "displayed_time": "12.36", "trialTime": 16544, "trial_type": "mouselab-mdp", "trial_index": 10, "time_elapsed": 1004307, "internal_node_id": "0.0-2.1-2.1-0.1"}}, {"uniqueid": "w10806473:a27759384", "current_trial": 11, "dateTime": 1664556225809, "trialdata": {"revealed_states": [], "num_clicks_accrued": [0, 0, 0, 0, 0, 0, 0, 0, 0, 0, 0, 0, 0], "stateRewards": ["", 10, 10, -10, -10, 10, 10, 10, -10, -10, -10, -10, 10], "withholdReward": false, "trial_id": "practice_2", "block": "test", "trialIndex": 3, "score": 31.75, "costs": -0.25, "simulationMode": [null, null, null], "rewards": [10, 10, 10], "path": ["0", "0", "5", "6", "7"], "rt": [2032, 258, 180], "actions": ["right", "right", "up"], "actionTimes": [4331, 5084, 5755], "queries": {"click": {"state": {"target": ["9"], "time": [3624]}, "edge": {"target": [], "time": []}}, "mouseover": {"state": {"target": ["9", "9"], "time": [3108, 3475]}, "edge": {"target": [], "time": []}}, "mouseout": {"state": {"target": ["9", "9"], "time": [3159, 7325]}, "edge": {"target": [], "time": []}}}, "displayed_time": "6.24", "trialTime": 9147, "trial_type": "mouselab-mdp", "trial_index": 11, "time_elapsed": 1013475, "internal_node_id": "0.0-2.1-2.1-1.1"}}, {"uniqueid": "w10806473:a27759384", "current_trial": 12, "dateTime": 1664556254744, "trialdata": {"view_history": [{"page_index": 0, "viewing_time": 24156}, {"page_index": 1, "viewing_time": 3436}, {"page_index": 2, "viewing_time": 1341}], "rt": 28933, "trial_id": "mouselab_instructions_2_scarce", "trial_type": "instructions", "trial_index": 12, "time_elapsed": 1042410, "internal_node_id": "0.0-2.1-3.1"}}, {"uniqueid": "w10806473:a27759384", "current_trial": 13, "dateTime": 1664556301524, "trialdata": {"rt": 46778, "response": {"Q0": "$-48 to $48", "Q1": "The cost is always $0.25.", "Q2": "The better I perform the higher my bonus will be.", "Q3": "No, the amount of cash at each node of the web may be different each time.", "Q4": "The values of the nodes walked through from start to finish.", "Q5": "No, the spider might forget to count the money on some rounds."}, "question_order": [0, 1, 2, 3, 4, 5], "correct": {"Q0": "$-48 to $48", "Q1": "The cost is always $0.25.", "Q2": "The better I perform the higher my bonus will be.", "Q3": "No, the amount of cash at each node of the web may be different each time.", "Q4": "The values of the nodes walked through from start to finish.", "Q5": "No, the spider might forget to count the money on some rounds."}, "trial_id": "mouselab_quiz_scarce", "trial_type": "survey-multi-choice", "trial_index": 13, "time_elapsed": 1089190, "internal_node_id": "0.0-2.1-4.1"}}, {"uniqueid": "w10806473:a27759384", "current_trial": 14, "dateTime": 1664556658068, "trialdata": {"rt": 356539, "stimulus": "\n<h1> Get ready to start the game! </h1>\n\nThank you for reading the instructions. Get ready start with the first of 4 block(s) of this game.\n<br><br>\nIn this first block, you will complete 30 rounds of this game before moving on.\n<br><br>\nRemember, the more money the spider gets, the bigger your bonus will be!\n<br><br>\n<div style='text-align: center;'>Press <code>space</code> to begin.</div>\n\n<br><br>\n(If, at any point, the <code>space</code> key does not take you to the next page, click once on the text and try again.)", "response": " ", "trial_id": "mdp_ready_1", "trial_type": "html-keyboard-response", "trial_index": 14, "time_elapsed": 1445734, "internal_node_id": "0.0-4.0-0.0"}}, {"uniqueid": "w10806473:a27759384", "current_trial": 15, "dateTime": 1664556675131, "trialdata": {"revealed_states": [], "num_clicks_accrued": [0, 0, 0, 0, 0, 0, 0, 0, 0, 0, 0, 0, 0], "stateRewards": ["", -4, 4, -48, -48, -2, -8, -48, -24, 4, 8, -24, 24], "withholdReward": true, "trial_id": "mdp_449260894259", "block": "test1", "trialIndex": 4, "score": -43, "costs": 0, "simulationMode": [null, null, null], "rewards": [-4, 4, -48], "path": ["0", "0", "1", "2", "3"], "rt": [3522, 277, 87], "actions": ["up", "up", "right"], "actionTimes": [7924, 8699, 9275], "queries": {"click": {"state": {"target": [], "time": []}, "edge": {"target": [], "time": []}}, "mouseover": {"state": {"target": ["1"], "time": [6072]}, "edge": {"target": [], "time": []}}, "mouseout": {"state": {"target": ["0", "0"], "time": [3805, 4255]}, "edge": {"target": [], "time": []}}}, "displayed_time": "13.40", "trialTime": 17036, "trial_type": "mouselab-mdp", "trial_index": 15, "time_elapsed": 1462797, "internal_node_id": "0.0-4.0-1.0-0.0"}}, {"uniqueid": "w10806473:a27759384", "current_trial": 16, "dateTime": 1664556722002, "trialdata": {"revealed_states": [], "num_clicks_accrued": [0, 0, 0, 0, 0, 0, 0, 0, 0, 0, 0, 0, 0], "stateRewards": ["", -2, 4, 24, 48, 2, 4, -48, -48, 2, 8, 48, -48], "withholdReward": true, "trial_id": "mdp_409609775558", "block": "test1", "trialIndex": 5, "score": -33, "costs": 0, "simulationMode": [null, null, null], "rewards": [2, 8, -48], "path": ["0", "0", "9", "10", "12"], "rt": [1397, 99, 99], "actions": ["left", "left", "down"], "actionTimes": [3717, 4317, 4917], "queries": {"click": {"state": {"target": [], "time": []}, "edge": {"target": [], "time": []}}, "mouseover": {"state": {"target": [], "time": []}, "edge": {"target": [], "time": []}}, "mouseout": {"state": {"target": ["1", "0", "0", "9", "8"], "time": [1668, 2202, 13068, 13101, 44319]}, "edge": {"target": [], "time": []}}}, "displayed_time": "11.32", "trialTime": 46852, "trial_type": "mouselab-mdp", "trial_index": 16, "time_elapsed": 1509668, "internal_node_id": "0.0-4.0-1.0-1.0"}}, {"uniqueid": "w10806473:a27759384", "current_trial": 17, "dateTime": 1664556743385, "trialdata": {"revealed_states": [], "num_clicks_accrued": [0, 0, 0, 0, 0, 0, 0, 0, 0, 0, 0, 0, 0], "stateRewards": ["", 2, 8, 48, -24, -4, 4, 48, 24, -2, 8, 24, 24], "withholdReward": true, "trial_id": "mdp_123436106791", "block": "test1", "trialIndex": 6, "score": -9.25, "costs": -0.25, "simulationMode": [null, null, null], "rewards": [2, 8, -24], "path": ["0", "0", "1", "2", "4"], "rt": [2755, 67, 20], "actions": ["up", "up", "left"], "actionTimes": [5610, 6162, 6682], "queries": {"click": {"state": {"target": ["5"], "time": [3977]}, "edge": {"target": [], "time": []}}, "mouseover": {"state": {"target": ["5"], "time": [3695]}, "edge": {"target": [], "time": []}}, "mouseout": {"state": {"target": ["0", "5"], "time": [3645, 4429]}, "edge": {"target": [], "time": []}}}, "displayed_time": "11.86", "trialTime": 21362, "trial_type": "mouselab-mdp", "trial_index": 17, "time_elapsed": 1531051, "internal_node_id": "0.0-4.0-1.0-2.0"}}, {"uniqueid": "w10806473:a27759384", "current_trial": 18, "dateTime": 1664556766473, "trialdata": {"revealed_states": [], "num_clicks_accrued": [0, 0, 0, 0, 0, 0, 0, 0, 0, 0, 0, 0, 0], "stateRewards": ["", -2, -8, -48, 24, 2, -4, -48, 48, 2, 4, 24, -24], "withholdReward": true, "trial_id": "mdp_849341543762", "block": "test1", "trialIndex": 7, "score": 51, "costs": 0, "simulationMode": [null, null, null], "rewards": [2, -4, 48], "path": ["0", "0", "5", "6", "8"], "rt": [10186, 119, 230], "actions": ["right", "right", "down"], "actionTimes": [14865, 15481, 16209], "queries": {"click": {"state": {"target": [], "time": []}, "edge": {"target": [], "time": []}}, "mouseover": {"state": {"target": [], "time": []}, "edge": {"target": [], "time": []}}, "mouseout": {"state": {"target": ["5"], "time": [4294]}, "edge": {"target": [], "time": []}}}, "displayed_time": "16.70", "trialTime": 23065, "trial_type": "mouselab-mdp", "trial_index": 18, "time_elapsed": 1554139, "internal_node_id": "0.0-4.0-1.0-3.0"}}, {"uniqueid": "w10806473:a27759384", "current_trial": 19, "dateTime": 1664556780049, "trialdata": {"revealed_states": [], "num_clicks_accrued": [0, 0, 0, 0, 0, 0, 0, 0, 0, 0, 0, 0, 0], "stateRewards": ["", 2, 4, 48, -48, 2, -4, 48, 24, -2, -8, -24, 48], "withholdReward": true, "trial_id": "mdp_962424406744", "block": "test1", "trialIndex": 8, "score": 59, "costs": 0, "simulationMode": [null, null, null], "rewards": [2, 4, 48], "path": ["0", "0", "1", "2", "3"], "rt": [1757, 584, 60], "actions": ["up", "up", "right"], "actionTimes": [4352, 5424, 5984], "queries": {"click": {"state": {"target": [], "time": []}, "edge": {"target": [], "time": []}}, "mouseover": {"state": {"target": [], "time": []}, "edge": {"target": [], "time": []}}, "mouseout": {"state": {"target": ["0"], "time": [2577]}, "edge": {"target": [], "time": []}}}, "displayed_time": "11.59", "trialTime": 13552, "trial_type": "mouselab-mdp", "trial_index": 19, "time_elapsed": 1567715, "internal_node_id": "0.0-4.0-1.0-4.0"}}, {"uniqueid": "w10806473:a27759384", "current_trial": 20, "dateTime": 1664556797465, "trialdata": {"revealed_states": [], "num_clicks_accrued": [0, 0, 0, 0, 0, 0, 0, 0, 0, 0, 0, 0, 0], "stateRewards": ["", -2, 4, 24, 48, 2, 4, -48, -48, -2, 8, 48, -24], "withholdReward": true, "trial_id": "mdp_305701202606", "block": "test1", "trialIndex": 9, "score": 59, "costs": 0, "simulationMode": [null, null, null], "rewards": [-2, 8, 48], "path": ["0", "0", "9", "10", "11"], "rt": [2525, 525, 164], "actions": ["left", "left", "up"], "actionTimes": [6022, 7038, 7694], "queries": {"click": {"state": {"target": [], "time": []}, "edge": {"target": [], "time": []}}, "mouseover": {"state": {"target": [], "time": []}, "edge": {"target": [], "time": []}}, "mouseout": {"state": {"target": ["0"], "time": [3481]}, "edge": {"target": [], "time": []}}}, "displayed_time": "12.50", "trialTime": 17390, "trial_type": "mouselab-mdp", "trial_index": 20, "time_elapsed": 1585130, "internal_node_id": "0.0-4.0-1.0-5.0"}}, {"uniqueid": "w10806473:a27759384", "current_trial": 21, "dateTime": 1664556810864, "trialdata": {"revealed_states": [], "num_clicks_accrued": [0, 0, 0, 0, 0, 0, 0, 0, 0, 0, 0, 0, 0], "stateRewards": ["", 2, 4, 48, -24, 2, -8, -24, -24, 2, -8, -24, -48], "withholdReward": false, "trial_id": "mdp_274832552938", "block": "test1", "trialIndex": 10, "score": -25.25, "costs": -0.25, "simulationMode": [null, null, null], "rewards": [2, -8, -24], "path": ["0", "0", "9", "10", "11"], "rt": [2636, 17, 365], "actions": ["left", "left", "up"], "actionTimes": [3687, 4199, 5063], "queries": {"click": {"state": {"target": ["6"], "time": [2132]}, "edge": {"target": [], "time": []}}, "mouseover": {"state": {"target": ["5", "6", "6"], "time": [1415, 1548, 1915]}, "edge": {"target": [], "time": []}}, "mouseout": {"state": {"target": ["0", "5", "6", "6"], "time": [1032, 1482, 1649, 2798]}, "edge": {"target": [], "time": []}}}, "displayed_time": "9.05", "trialTime": 13375, "trial_type": "mouselab-mdp", "trial_index": 21, "time_elapsed": 1598530, "internal_node_id": "0.0-4.0-1.0-6.0"}}, {"uniqueid": "w10806473:a27759384", "current_trial": 22, "dateTime": 1664556849176, "trialdata": {"revealed_states": [], "num_clicks_accrued": [0, 0, 0, 0, 0, 0, 0, 0, 0, 0, 0, 0, 0], "stateRewards": ["", 4, 4, -24, -48, -4, 4, -48, 24, 4, -8, -48, 48], "withholdReward": false, "trial_id": "mdp_566768794366", "block": "test1", "trialIndex": 11, "score": 49, "costs": 0, "simulationMode": [null, null, null], "rewards": [4, -8, 48], "path": ["0", "0", "9", "10", "12"], "rt": [33470, 82, 107], "actions": ["left", "left", "down"], "actionTimes": [34825, 35400, 35993], "queries": {"click": {"state": {"target": [], "time": []}, "edge": {"target": [], "time": []}}, "mouseover": {"state": {"target": [], "time": []}, "edge": {"target": [], "time": []}}, "mouseout": {"state": {"target": ["6", "5"], "time": [700, 800]}, "edge": {"target": [], "time": []}}}, "displayed_time": "36.49", "trialTime": 38288, "trial_type": "mouselab-mdp", "trial_index": 22, "time_elapsed": 1636842, "internal_node_id": "0.0-4.0-1.0-7.0"}}, {"uniqueid": "w10806473:a27759384", "current_trial": 23, "dateTime": 1664556867015, "trialdata": {"revealed_states": [], "num_clicks_accrued": [0, 0, 0, 0, 0, 0, 0, 0, 0, 0, 0, 0, 0], "stateRewards": ["", 2, -4, -48, -48, -2, -4, -24, -48, -2, 8, 24, 24], "withholdReward": true, "trial_id": "mdp_656069446729", "block": "test1", "trialIndex": 12, "score": -45, "costs": 0, "simulationMode": [null, null, null], "rewards": [2, -4, -48], "path": ["0", "0", "1", "2", "3"], "rt": [2941, 65, 386], "actions": ["up", "up", "right"], "actionTimes": [11134, 11686, 12574], "queries": {"click": {"state": {"target": [], "time": []}, "edge": {"target": [], "time": []}}, "mouseover": {"state": {"target": [], "time": []}, "edge": {"target": [], "time": []}}, "mouseout": {"state": {"target": ["0"], "time": [1097]}, "edge": {"target": [], "time": []}}}, "displayed_time": "16.20", "trialTime": 17814, "trial_type": "mouselab-mdp", "trial_index": 23, "time_elapsed": 1654681, "internal_node_id": "0.0-4.0-1.0-8.0"}}, {"uniqueid": "w10806473:a27759384", "current_trial": 24, "dateTime": 1664556880447, "trialdata": {"revealed_states": [], "num_clicks_accrued": [0, 0, 0, 0, 0, 0, 0, 0, 0, 0, 0, 0, 0], "stateRewards": ["", 2, 8, 48, 24, -4, 4, -48, 24, 2, 8, 48, 48], "withholdReward": false, "trial_id": "mdp_367344599162", "block": "test1", "trialIndex": 13, "score": 29, "costs": 0, "simulationMode": [null, null, null], "rewards": [-4, 4, 24], "path": ["0", "0", "5", "6", "8"], "rt": [1561, 216, 155], "actions": ["right", "right", "down"], "actionTimes": [4095, 4799, 5471], "queries": {"click": {"state": {"target": [], "time": []}, "edge": {"target": [], "time": []}}, "mouseover": {"state": {"target": [], "time": []}, "edge": {"target": [], "time": []}}, "mouseout": {"state": {"target": ["0"], "time": [2517]}, "edge": {"target": [], "time": []}}}, "displayed_time": "11.54", "trialTime": 13407, "trial_type": "mouselab-mdp", "trial_index": 24, "time_elapsed": 1668113, "internal_node_id": "0.0-4.0-1.0-9.0"}}, {"uniqueid": "w10806473:a27759384", "current_trial": 25, "dateTime": 1664556893079, "trialdata": {"revealed_states": [], "num_clicks_accrued": [0, 0, 0, 0, 0, 0, 0, 0, 0, 0, 0, 0, 0], "stateRewards": ["", 4, -8, 48, -24, 4, -4, -48, -48, 4, -4, 24, 24], "withholdReward": true, "trial_id": "mdp_221562928904", "block": "test1", "trialIndex": 14, "score": 29, "costs": 0, "simulationMode": [null, null, null], "rewards": [4, -4, 24], "path": ["0", "0", "9", "10", "11"], "rt": [569, 177, 151], "actions": ["left", "left", "up"], "actionTimes": [2216, 2880, 3520], "queries": {"click": {"state": {"target": [], "time": []}, "edge": {"target": [], "time": []}}, "mouseover": {"state": {"target": [], "time": []}, "edge": {"target": [], "time": []}}, "mouseout": {"state": {"target": ["0"], "time": [1630]}, "edge": {"target": [], "time": []}}}, "displayed_time": "10.65", "trialTime": 12608, "trial_type": "mouselab-mdp", "trial_index": 25, "time_elapsed": 1680745, "internal_node_id": "0.0-4.0-1.0-10.0"}}, {"uniqueid": "w10806473:a27759384", "current_trial": 26, "dateTime": 1664556908927, "trialdata": {"revealed_states": [], "num_clicks_accrued": [0, 0, 0, 0, 0, 0, 0, 0, 0, 0, 0, 0, 0], "stateRewards": ["", 4, -8, -48, 24, 4, 4, -24, -24, 2, 4, -48, 24], "withholdReward": true, "trial_id": "mdp_626971397185", "block": "test1", "trialIndex": 15, "score": -11, "costs": 0, "simulationMode": [null, null, null], "rewards": [4, 4, -24], "path": ["0", "0", "5", "6", "8"], "rt": [1035, 287, 1112], "actions": ["right", "right", "down"], "actionTimes": [2824, 3608, 5216], "queries": {"click": {"state": {"target": [], "time": []}, "edge": {"target": [], "time": []}}, "mouseover": {"state": {"target": [], "time": []}, "edge": {"target": [], "time": []}}, "mouseout": {"state": {"target": ["0"], "time": [1599]}, "edge": {"target": [], "time": []}}}, "displayed_time": "9.79", "trialTime": 15824, "trial_type": "mouselab-mdp", "trial_index": 26, "time_elapsed": 1696593, "internal_node_id": "0.0-4.0-1.0-11.0"}}, {"uniqueid": "w10806473:a27759384", "current_trial": 27, "dateTime": 1664556923567, "trialdata": {"revealed_states": [], "num_clicks_accrued": [0, 0, 0, 0, 0, 0, 0, 0, 0, 0, 0, 0, 0], "stateRewards": ["", 4, -4, 24, 48, 4, 8, -24, -24, -2, 4, 48, 48], "withholdReward": true, "trial_id": "mdp_624998450453", "block": "test1", "trialIndex": 16, "score": 53, "costs": 0, "simulationMode": [null, null, null], "rewards": [4, -4, 48], "path": ["0", "0", "1", "2", "4"], "rt": [4004, 279, 393], "actions": ["up", "up", "left"], "actionTimes": [7752, 8520, 9400], "queries": {"click": {"state": {"target": [], "time": []}, "edge": {"target": [], "time": []}}, "mouseover": {"state": {"target": [], "time": []}, "edge": {"target": [], "time": []}}, "mouseout": {"state": {"target": ["0"], "time": [1903]}, "edge": {"target": [], "time": []}}}, "displayed_time": "12.75", "trialTime": 14617, "trial_type": "mouselab-mdp", "trial_index": 27, "time_elapsed": 1711233, "internal_node_id": "0.0-4.0-1.0-12.0"}}, {"uniqueid": "w10806473:a27759384", "current_trial": 28, "dateTime": 1664556935247, "trialdata": {"revealed_states": [], "num_clicks_accrued": [0, 0, 0, 0, 0, 0, 0, 0, 0, 0, 0, 0, 0], "stateRewards": ["", -4, -8, 48, -24, 4, -8, 48, 48, -2, 4, -48, -24], "withholdReward": true, "trial_id": "mdp_925905402462", "block": "test1", "trialIndex": 17, "score": 48.75, "costs": -0.25, "simulationMode": [null, null, null], "rewards": [4, -8, 48], "path": ["0", "0", "5", "6", "8"], "rt": [2453, 124, 468], "actions": ["right", "right", "down"], "actionTimes": [3966, 4590, 5550], "queries": {"click": {"state": {"target": ["5"], "time": [3329]}, "edge": {"target": [], "time": []}}, "mouseover": {"state": {"target": ["5"], "time": [3166]}, "edge": {"target": [], "time": []}}, "mouseout": {"state": {"target": ["0"], "time": [2966]}, "edge": {"target": [], "time": []}}}, "displayed_time": "8.51", "trialTime": 11654, "trial_type": "mouselab-mdp", "trial_index": 28, "time_elapsed": 1722912, "internal_node_id": "0.0-4.0-1.0-13.0"}}, {"uniqueid": "w10806473:a27759384", "current_trial": 29, "dateTime": 1664556946759, "trialdata": {"revealed_states": [], "num_clicks_accrued": [0, 0, 0, 0, 0, 0, 0, 0, 0, 0, 0, 0, 0], "stateRewards": ["", 2, 8, 24, 24, 2, -8, -24, -48, 2, 8, -48, 48], "withholdReward": true, "trial_id": "mdp_745175888812", "block": "test1", "trialIndex": 18, "score": 62.5, "costs": -0.5, "simulationMode": [null, null, null], "rewards": [2, 8, 48], "path": ["0", "0", "9", "10", "12"], "rt": [3630, 114, 146], "actions": ["left", "left", "down"], "actionTimes": [4933, 5533, 6165], "queries": {"click": {"state": {"target": ["5", "6"], "time": [2527, 3388]}, "edge": {"target": [], "time": []}}, "mouseover": {"state": {"target": ["5", "6"], "time": [2252, 3118]}, "edge": {"target": [], "time": []}}, "mouseout": {"state": {"target": ["5", "0", "5", "6"], "time": [968, 1500, 2985, 4035]}, "edge": {"target": [], "time": []}}}, "displayed_time": "10.30", "trialTime": 11485, "trial_type": "mouselab-mdp", "trial_index": 29, "time_elapsed": 1734425, "internal_node_id": "0.0-4.0-1.0-14.0"}}, {"uniqueid": "w10806473:a27759384", "current_trial": 30, "dateTime": 1664556959134, "trialdata": {"revealed_states": [], "num_clicks_accrued": [0, 0, 0, 0, 0, 0, 0, 0, 0, 0, 0, 0, 0], "stateRewards": ["", -2, -8, -24, -24, 4, -4, -48, 48, 2, 8, 48, -48], "withholdReward": true, "trial_id": "mdp_498095124548", "block": "test1", "trialIndex": 19, "score": -29, "costs": 0, "simulationMode": [null, null, null], "rewards": [-2, -8, -24], "path": ["0", "0", "1", "2", "3"], "rt": [1771, 87, 159], "actions": ["up", "up", "right"], "actionTimes": [3102, 3678, 4334], "queries": {"click": {"state": {"target": [], "time": []}, "edge": {"target": [], "time": []}}, "mouseover": {"state": {"target": [], "time": []}, "edge": {"target": [], "time": []}}, "mouseout": {"state": {"target": ["5", "0"], "time": [1074, 1174]}, "edge": {"target": [], "time": []}}}, "displayed_time": "9.33", "trialTime": 12350, "trial_type": "mouselab-mdp", "trial_index": 30, "time_elapsed": 1746800, "internal_node_id": "0.0-4.0-1.0-15.0"}}, {"uniqueid": "w10806473:a27759384", "current_trial": 31, "dateTime": 1664556980758, "trialdata": {"revealed_states": [], "num_clicks_accrued": [0, 0, 0, 0, 0, 0, 0, 0, 0, 0, 0, 0, 0], "stateRewards": ["", -2, 8, 48, 48, 2, 4, -48, 24, -4, -8, 48, 24], "withholdReward": false, "trial_id": "mdp_572910394648", "block": "test1", "trialIndex": 20, "score": 17, "costs": 0, "simulationMode": [null, null, null], "rewards": [-4, -8, 24], "path": ["0", "0", "9", "10", "12"], "rt": [4127, 319, 126], "actions": ["left", "left", "down"], "actionTimes": [5711, 6519, 7143], "queries": {"click": {"state": {"target": [], "time": []}, "edge": {"target": [], "time": []}}, "mouseover": {"state": {"target": [], "time": []}, "edge": {"target": [], "time": []}}, "mouseout": {"state": {"target": ["0"], "time": [1565]}, "edge": {"target": [], "time": []}}}, "displayed_time": "10.59", "trialTime": 21599, "trial_type": "mouselab-mdp", "trial_index": 31, "time_elapsed": 1768424, "internal_node_id": "0.0-4.0-1.0-16.0"}}, {"uniqueid": "w10806473:a27759384", "current_trial": 32, "dateTime": 1664557008709, "trialdata": {"revealed_states": [], "num_clicks_accrued": [0, 0, 0, 0, 0, 0, 0, 0, 0, 0, 0, 0, 0], "stateRewards": ["", 4, -8, -48, 48, -2, 8, -48, 48, -2, -4, 24, -48], "withholdReward": true, "trial_id": "mdp_400558136089", "block": "test1", "trialIndex": 21, "score": -37, "costs": 0, "simulationMode": [null, null, null], "rewards": [-2, 8, -48], "path": ["0", "0", "5", "6", "7"], "rt": [7574, 139, 249], "actions": ["right", "right", "up"], "actionTimes": [20958, 21582, 22326], "queries": {"click": {"state": {"target": [], "time": []}, "edge": {"target": [], "time": []}}, "mouseover": {"state": {"target": [], "time": []}, "edge": {"target": [], "time": []}}, "mouseout": {"state": {"target": ["0"], "time": [13367]}, "edge": {"target": [], "time": []}}}, "displayed_time": "22.83", "trialTime": 27926, "trial_type": "mouselab-mdp", "trial_index": 32, "time_elapsed": 1796375, "internal_node_id": "0.0-4.0-1.0-17.0"}}, {"uniqueid": "w10806473:a27759384", "current_trial": 33, "dateTime": 1664557020789, "trialdata": {"revealed_states": [], "num_clicks_accrued": [0, 0, 0, 0, 0, 0, 0, 0, 0, 0, 0, 0, 0], "stateRewards": ["", 2, 4, 48, 24, -2, -8, 24, 24, -2, 4, -48, 24], "withholdReward": false, "trial_id": "mdp_130849500124", "block": "test1", "trialIndex": 22, "score": 19, "costs": 0, "simulationMode": [null, null, null], "rewards": [-2, -8, 24], "path": ["0", "0", "5", "6", "8"], "rt": [765, 91, 108], "actions": ["right", "right", "down"], "actionTimes": [1374, 1950, 2550], "queries": {"click": {"state": {"target": [], "time": []}, "edge": {"target": [], "time": []}}, "mouseover": {"state": {"target": [], "time": []}, "edge": {"target": [], "time": []}}, "mouseout": {"state": {"target": ["0", "0"], "time": [592, 7827]}, "edge": {"target": [], "time": []}}}, "displayed_time": "9.61", "trialTime": 12054, "trial_type": "mouselab-mdp", "trial_index": 33, "time_elapsed": 1808455, "internal_node_id": "0.0-4.0-1.0-18.0"}}, {"uniqueid": "w10806473:a27759384", "current_trial": 34, "dateTime": 1664557032741, "trialdata": {"revealed_states": [], "num_clicks_accrued": [0, 0, 0, 0, 0, 0, 0, 0, 0, 0, 0, 0, 0], "stateRewards": ["", 2, -8, 24, 24, 4, -4, -24, -48, 4, 8, 24, 24], "withholdReward": true, "trial_id": "mdp_249803813713", "block": "test1", "trialIndex": 23, "score": 23, "costs": 0, "simulationMode": [null, null, null], "rewards": [2, -8, 24], "path": ["0", "0", "1", "2", "4"], "rt": [695, 198, 363], "actions": ["up", "up", "left"], "actionTimes": [2999, 3695, 4543], "queries": {"click": {"state": {"target": [], "time": []}, "edge": {"target": [], "time": []}}, "mouseover": {"state": {"target": [], "time": []}, "edge": {"target": [], "time": []}}, "mouseout": {"state": {"target": [], "time": []}, "edge": {"target": [], "time": []}}}, "displayed_time": "10.30", "trialTime": 11927, "trial_type": "mouselab-mdp", "trial_index": 34, "time_elapsed": 1820407, "internal_node_id": "0.0-4.0-1.0-19.0"}}, {"uniqueid": "w10806473:a27759384", "current_trial": 35, "dateTime": 1664557054437, "trialdata": {"revealed_states": [], "num_clicks_accrued": [0, 0, 0, 0, 0, 0, 0, 0, 0, 0, 0, 0, 0], "stateRewards": ["", 2, -8, 48, -24, 2, 8, 24, -24, 4, -4, -48, -48], "withholdReward": true, "trial_id": "mdp_130946197263", "block": "test1", "trialIndex": 24, "score": -43.25, "costs": -0.25, "simulationMode": [null, null, null], "rewards": [4, -4, -48], "path": ["0", "0", "9", "10", "11"], "rt": [2896, 511, 78], "actions": ["left", "left", "up"], "actionTimes": [5423, 6423, 6991], "queries": {"click": {"state": {"target": ["9"], "time": [4905]}, "edge": {"target": [], "time": []}}, "mouseover": {"state": {"target": ["9", "9"], "time": [3395, 4812]}, "edge": {"target": [], "time": []}}, "mouseout": {"state": {"target": ["0", "9"], "time": [3295, 3645]}, "edge": {"target": [], "time": []}}}, "displayed_time": "11.53", "trialTime": 21671, "trial_type": "mouselab-mdp", "trial_index": 35, "time_elapsed": 1842103, "internal_node_id": "0.0-4.0-1.0-20.0"}}, {"uniqueid": "w10806473:a27759384", "current_trial": 36, "dateTime": 1664557107140, "trialdata": {"revealed_states": [], "num_clicks_accrued": [0, 0, 0, 0, 0, 0, 0, 0, 0, 0, 0, 0, 0], "stateRewards": ["", -4, -4, -24, -24, -2, 4, 48, -24, -2, -4, -24, 48], "withholdReward": true, "trial_id": "mdp_855903341564", "block": "test1", "trialIndex": 25, "score": -17, "costs": 0, "simulationMode": [null, null, null], "rewards": [-2, 4, -24], "path": ["0", "0", "5", "6", "8"], "rt": [3239, 134, 188], "actions": ["right", "right", "down"], "actionTimes": [43266, 43898, 44586], "queries": {"click": {"state": {"target": [], "time": []}, "edge": {"target": [], "time": []}}, "mouseover": {"state": {"target": [], "time": []}, "edge": {"target": [], "time": []}}, "mouseout": {"state": {"target": ["9", "0", "5", "6", "0"], "time": [31780, 33430, 38364, 38396, 39313]}, "edge": {"target": [], "time": []}}}, "displayed_time": "49.03", "trialTime": 52674, "trial_type": "mouselab-mdp", "trial_index": 36, "time_elapsed": 1894806, "internal_node_id": "0.0-4.0-1.0-21.0"}}, {"uniqueid": "w10806473:a27759384", "current_trial": 37, "dateTime": 1664557122588, "trialdata": {"revealed_states": [], "num_clicks_accrued": [0, 0, 0, 0, 0, 0, 0, 0, 0, 0, 0, 0, 0], "stateRewards": ["", -2, -4, -24, -48, -4, -8, -48, 24, -4, -8, -24, -48], "withholdReward": false, "trial_id": "mdp_475782454549", "block": "test1", "trialIndex": 26, "score": -25, "costs": 0, "simulationMode": [null, null, null], "rewards": [-2, -4, -24], "path": ["0", "0", "1", "2", "3"], "rt": [632, 56, 17], "actions": ["up", "up", "right"], "actionTimes": [1311, 1855, 2382], "queries": {"click": {"state": {"target": [], "time": []}, "edge": {"target": [], "time": []}}, "mouseover": {"state": {"target": [], "time": []}, "edge": {"target": [], "time": []}}, "mouseout": {"state": {"target": ["0"], "time": [2715]}, "edge": {"target": [], "time": []}}}, "displayed_time": "9.68", "trialTime": 15422, "trial_type": "mouselab-mdp", "trial_index": 37, "time_elapsed": 1910253, "internal_node_id": "0.0-4.0-1.0-22.0"}}, {"uniqueid": "w10806473:a27759384", "current_trial": 38, "dateTime": 1664557152387, "trialdata": {"revealed_states": [], "num_clicks_accrued": [0, 0, 0, 0, 0, 0, 0, 0, 0, 0, 0, 0, 0], "stateRewards": ["", 2, 8, 24, -48, 4, 8, 24, 24, 4, -8, 48, 48], "withholdReward": true, "trial_id": "mdp_646103824875", "block": "test1", "trialIndex": 27, "score": 48.75, "costs": -0.25, "simulationMode": [null, null, null], "rewards": [4, -8, 48], "path": ["0", "0", "9", "10", "12"], "rt": [1750, 363, 81], "actions": ["left", "left", "down"], "actionTimes": [2965, 3813, 4381], "queries": {"click": {"state": {"target": ["9"], "time": [2530]}, "edge": {"target": [], "time": []}}, "mouseover": {"state": {"target": ["9", "9"], "time": [1900, 2450]}, "edge": {"target": [], "time": []}}, "mouseout": {"state": {"target": ["0", "9", "9", "10"], "time": [1883, 1950, 5600, 5616]}, "edge": {"target": [], "time": []}}}, "displayed_time": "10.22", "trialTime": 29773, "trial_type": "mouselab-mdp", "trial_index": 38, "time_elapsed": 1940053, "internal_node_id": "0.0-4.0-1.0-23.0"}}, {"uniqueid": "w10806473:a27759384", "current_trial": 39, "dateTime": 1664557165131, "trialdata": {"revealed_states": [], "num_clicks_accrued": [0, 0, 0, 0, 0, 0, 0, 0, 0, 0, 0, 0, 0], "stateRewards": ["", 2, 8, -48, 24, -4, 8, 48, -24, 2, 8, 24, 24], "withholdReward": false, "trial_id": "mdp_175372499314", "block": "test1", "trialIndex": 28, "score": -33, "costs": 0, "simulationMode": [null, null, null], "rewards": [2, 8, -48], "path": ["0", "0", "1", "2", "3"], "rt": [638, 52, 22], "actions": ["up", "up", "right"], "actionTimes": [3310, 3854, 4374], "queries": {"click": {"state": {"target": [], "time": []}, "edge": {"target": [], "time": []}}, "mouseover": {"state": {"target": [], "time": []}, "edge": {"target": [], "time": []}}, "mouseout": {"state": {"target": ["0"], "time": [3685]}, "edge": {"target": [], "time": []}}}, "displayed_time": "11.67", "trialTime": 12718, "trial_type": "mouselab-mdp", "trial_index": 39, "time_elapsed": 1952797, "internal_node_id": "0.0-4.0-1.0-24.0"}}, {"uniqueid": "w10806473:a27759384", "current_trial": 40, "dateTime": 1664557176987, "trialdata": {"revealed_states": [], "num_clicks_accrued": [0, 0, 0, 0, 0, 0, 0, 0, 0, 0, 0, 0, 0], "stateRewards": ["", 2, 8, 24, -48, 4, 8, 24, 48, 2, -8, -24, 24], "withholdReward": true, "trial_id": "mdp_939899431582", "block": "test1", "trialIndex": 29, "score": 64.75, "costs": -0.25, "simulationMode": [null, null, null], "rewards": [4, 8, 48], "path": ["0", "0", "5", "6", "8"], "rt": [1752, 45, 471], "actions": ["right", "right", "down"], "actionTimes": [2511, 3071, 4047], "queries": {"click": {"state": {"target": ["5"], "time": [2066]}, "edge": {"target": [], "time": []}}, "mouseover": {"state": {"target": ["5"], "time": [1926]}, "edge": {"target": [], "time": []}}, "mouseout": {"state": {"target": ["0"], "time": [741]}, "edge": {"target": [], "time": []}}}, "displayed_time": "8.76", "trialTime": 11831, "trial_type": "mouselab-mdp", "trial_index": 40, "time_elapsed": 1964653, "internal_node_id": "0.0-4.0-1.0-25.0"}}, {"uniqueid": "w10806473:a27759384", "current_trial": 41, "dateTime": 1664557188483, "trialdata": {"revealed_states": [], "num_clicks_accrued": [0, 0, 0, 0, 0, 0, 0, 0, 0, 0, 0, 0, 0], "stateRewards": ["", -4, -8, 48, 24, 4, -8, 24, -48, -2, -8, 24, -48], "withholdReward": true, "trial_id": "mdp_952038635544", "block": "test1", "trialIndex": 30, "score": -53, "costs": 0, "simulationMode": [null, null, null], "rewards": [-2, -8, -48], "path": ["0", "0", "9", "10", "12"], "rt": [1489, 3, 1350], "actions": ["left", "left", "down"], "actionTimes": [3109, 3606, 5469], "queries": {"click": {"state": {"target": [], "time": []}, "edge": {"target": [], "time": []}}, "mouseover": {"state": {"target": ["0"], "time": [2236]}, "edge": {"target": [], "time": []}}, "mouseout": {"state": {"target": ["5", "0", "0"], "time": [1152, 1462, 2952]}, "edge": {"target": [], "time": []}}}, "displayed_time": "10.62", "trialTime": 11470, "trial_type": "mouselab-mdp", "trial_index": 41, "time_elapsed": 1976149, "internal_node_id": "0.0-4.0-1.0-26.0"}}, {"uniqueid": "w10806473:a27759384", "current_trial": 42, "dateTime": 1664557198162, "trialdata": {"revealed_states": [], "num_clicks_accrued": [0, 0, 0, 0, 0, 0, 0, 0, 0, 0, 0, 0, 0], "stateRewards": ["", 2, -4, -48, 24, -4, 4, 24, 24, 2, -8, -24, -48], "withholdReward": true, "trial_id": "mdp_807654778305", "block": "test1", "trialIndex": 31, "score": -45.25, "costs": -0.25, "simulationMode": [null, null, null], "rewards": [2, -4, -48], "path": ["0", "0", "1", "2", "3"], "rt": [1437, 108, 196], "actions": ["up", "up", "right"], "actionTimes": [1958, 2565, 3253], "queries": {"click": {"state": {"target": ["1"], "time": [1387]}, "edge": {"target": [], "time": []}}, "mouseover": {"state": {"target": ["1"], "time": [1257]}, "edge": {"target": [], "time": []}}, "mouseout": {"state": {"target": ["0", "1"], "time": [502, 7873]}, "edge": {"target": [], "time": []}}}, "displayed_time": "8.52", "trialTime": 9653, "trial_type": "mouselab-mdp", "trial_index": 42, "time_elapsed": 1985828, "internal_node_id": "0.0-4.0-1.0-27.0"}}, {"uniqueid": "w10806473:a27759384", "current_trial": 43, "dateTime": 1664557210723, "trialdata": {"revealed_states": [], "num_clicks_accrued": [0, 0, 0, 0, 0, 0, 0, 0, 0, 0, 0, 0, 0], "stateRewards": ["", -4, -4, -24, -48, -4, 8, -24, -48, 4, -8, 24, -24], "withholdReward": false, "trial_id": "mdp_924927483179", "block": "test1", "trialIndex": 32, "score": -39, "costs": 0, "simulationMode": [null, null, null], "rewards": [-4, 8, -48], "path": ["0", "0", "5", "6", "8"], "rt": [408, 82, 147], "actions": ["right", "right", "down"], "actionTimes": [1934, 2510, 3142], "queries": {"click": {"state": {"target": [], "time": []}, "edge": {"target": [], "time": []}}, "mouseover": {"state": {"target": [], "time": []}, "edge": {"target": [], "time": []}}, "mouseout": {"state": {"target": ["0"], "time": [761]}, "edge": {"target": [], "time": []}}}, "displayed_time": "10.53", "trialTime": 12535, "trial_type": "mouselab-mdp", "trial_index": 43, "time_elapsed": 1998389, "internal_node_id": "0.0-4.0-1.0-28.0"}}, {"uniqueid": "w10806473:a27759384", "current_trial": 44, "dateTime": 1664557222259, "trialdata": {"revealed_states": [], "num_clicks_accrued": [0, 0, 0, 0, 0, 0, 0, 0, 0, 0, 0, 0, 0], "stateRewards": ["", 2, 4, -48, -24, 2, 8, 24, 48, -2, 4, 48, -48], "withholdReward": true, "trial_id": "mdp_551894842204", "block": "test1", "trialIndex": 33, "score": -13.25, "costs": -0.25, "simulationMode": [null, null, null], "rewards": [2, 4, -24], "path": ["0", "0", "1", "2", "4"], "rt": [1369, 5, 568], "actions": ["up", "up", "left"], "actionTimes": [2670, 3190, 4270], "queries": {"click": {"state": {"target": ["1"], "time": [2110]}, "edge": {"target": [], "time": []}}, "mouseover": {"state": {"target": ["1"], "time": [1968]}, "edge": {"target": [], "time": []}}, "mouseout": {"state": {"target": ["0", "0", "0", "1"], "time": [644, 701, 1852, 2402]}, "edge": {"target": [], "time": []}}}, "displayed_time": "10.30", "trialTime": 11510, "trial_type": "mouselab-mdp", "trial_index": 44, "time_elapsed": 2009925, "internal_node_id": "0.0-4.0-1.0-29.0"}}, {"uniqueid": "w10806473:a27759384", "current_trial": 45, "dateTime": 1664557288369, "trialdata": {"rt": 66109, "stimulus": "<h1> End of block! </h1>\n\nYou have reached the end of the block 1/4. If you need a short break, feel free to take one now before moving on.\n\n<br><br>\nIn the next block, you will complete another 30 rounds of this game.\n\n<br><br>\n<div style='text-align: center;'>Press <code>space</code> to begin.</div>\n<br><br>\n<div style='text-align: center;'>(If the experiment doesn't continue, try clicking on the text and then pressing <code>space</code>.)</div>", "response": " ", "trial_id": "mdp_ready_2", "trial_type": "html-keyboard-response", "trial_index": 45, "time_elapsed": 2076035, "internal_node_id": "0.0-4.0-2.0"}}, {"uniqueid": "w10806473:a27759384", "current_trial": 46, "dateTime": 1664557312065, "trialdata": {"revealed_states": [], "num_clicks_accrued": [0, 0, 0, 0, 0, 0, 0, 0, 0, 0, 0, 0, 0], "stateRewards": ["", 2, -8, 24, -24, -2, 8, -48, -48, 2, -8, -24, -48], "withholdReward": false, "trial_id": "mdp_744278669205", "block": "test2", "trialIndex": 34, "score": -37, "costs": 0, "simulationMode": [null, null, null], "rewards": [-2, 8, -48], "path": ["0", "0", "5", "6", "8"], "rt": [1866, 274, 339], "actions": ["right", "right", "down"], "actionTimes": [8036, 8796, 9628], "queries": {"click": {"state": {"target": [], "time": []}, "edge": {"target": [], "time": []}}, "mouseover": {"state": {"target": [], "time": []}, "edge": {"target": [], "time": []}}, "mouseout": {"state": {"target": ["6", "5", "0", "5", "6", "5", "1", "0"], "time": [5755, 5805, 12005, 12038, 12055, 21989, 22122, 22239]}, "edge": {"target": [], "time": []}}}, "displayed_time": "15.17", "trialTime": 23667, "trial_type": "mouselab-mdp", "trial_index": 46, "time_elapsed": 2099731, "internal_node_id": "0.0-4.0-3.0-0.0"}}, {"uniqueid": "w10806473:a27759384", "current_trial": 47, "dateTime": 1664557324217, "trialdata": {"revealed_states": [], "num_clicks_accrued": [0, 0, 0, 0, 0, 0, 0, 0, 0, 0, 0, 0, 0], "stateRewards": ["", -2, 8, 48, 48, 2, 4, -48, 24, -4, -8, 48, 24], "withholdReward": true, "trial_id": "mdp_572910394648", "block": "test2", "trialIndex": 35, "score": 58.75, "costs": -0.25, "simulationMode": [null, null, null], "rewards": [-2, 8, 48], "path": ["0", "0", "1", "2", "3"], "rt": [1093, 99, 75], "actions": ["up", "up", "right"], "actionTimes": [2285, 2876, 3453], "queries": {"click": {"state": {"target": ["1"], "time": [1713]}, "edge": {"target": [], "time": []}}, "mouseover": {"state": {"target": ["1"], "time": [1544]}, "edge": {"target": [], "time": []}}, "mouseout": {"state": {"target": ["0", "1"], "time": [1160, 10944]}, "edge": {"target": [], "time": []}}}, "displayed_time": "9.19", "trialTime": 12125, "trial_type": "mouselab-mdp", "trial_index": 47, "time_elapsed": 2111883, "internal_node_id": "0.0-4.0-3.0-1.0"}}, {"uniqueid": "w10806473:a27759384", "current_trial": 48, "dateTime": 1664557336025, "trialdata": {"revealed_states": [], "num_clicks_accrued": [0, 0, 0, 0, 0, 0, 0, 0, 0, 0, 0, 0, 0], "stateRewards": ["", -4, 4, 24, 24, 4, -8, 48, -48, -2, -8, 24, 24], "withholdReward": false, "trial_id": "mdp_395264223239", "block": "test2", "trialIndex": 36, "score": -47.5, "costs": -0.5, "simulationMode": [null, null, null], "rewards": [4, -8, -48], "path": ["0", "0", "5", "6", "8"], "rt": [3167, 112, 160], "actions": ["right", "right", "down"], "actionTimes": [4787, 5403, 6051], "queries": {"click": {"state": {"target": ["9", "5"], "time": [2482, 4158]}, "edge": {"target": [], "time": []}}, "mouseover": {"state": {"target": ["0", "9", "5", "5"], "time": [1912, 2208, 3658, 3958]}, "edge": {"target": [], "time": []}}, "mouseout": {"state": {"target": ["0", "0", "9", "5", "5"], "time": [958, 2091, 3575, 3741, 4658]}, "edge": {"target": [], "time": []}}}, "displayed_time": "9.62", "trialTime": 11779, "trial_type": "mouselab-mdp", "trial_index": 48, "time_elapsed": 2123690, "internal_node_id": "0.0-4.0-3.0-2.0"}}, {"uniqueid": "w10806473:a27759384", "current_trial": 49, "dateTime": 1664557349272, "trialdata": {"revealed_states": [], "num_clicks_accrued": [0, 0, 0, 0, 0, 0, 0, 0, 0, 0, 0, 0, 0], "stateRewards": ["", 2, 8, 24, -48, 4, 8, 24, 24, 4, -8, 48, 48], "withholdReward": true, "trial_id": "mdp_646103824875", "block": "test2", "trialIndex": 37, "score": 40.25, "costs": -0.75, "simulationMode": [null, null, null], "rewards": [4, 8, 24], "path": ["0", "0", "5", "6", "7"], "rt": [2398, 37, 78], "actions": ["right", "right", "up"], "actionTimes": [3428, 3972, 4572], "queries": {"click": {"state": {"target": ["5", "6", "7"], "time": [1873, 2383, 2949]}, "edge": {"target": [], "time": []}}, "mouseover": {"state": {"target": ["5", "6", "7"], "time": [1618, 2285, 2818]}, "edge": {"target": [], "time": []}}, "mouseout": {"state": {"target": ["0", "5", "6", "7"], "time": [1568, 2218, 2752, 3352]}, "edge": {"target": [], "time": []}}}, "displayed_time": "10.03", "trialTime": 13220, "trial_type": "mouselab-mdp", "trial_index": 49, "time_elapsed": 2136938, "internal_node_id": "0.0-4.0-3.0-3.0"}}, {"uniqueid": "w10806473:a27759384", "current_trial": 50, "dateTime": 1664557360808, "trialdata": {"revealed_states": [], "num_clicks_accrued": [0, 0, 0, 0, 0, 0, 0, 0, 0, 0, 0, 0, 0], "stateRewards": ["", 4, 4, -48, -24, -2, -4, 48, 24, -4, 4, 24, -48], "withholdReward": true, "trial_id": "mdp_617383046444", "block": "test2", "trialIndex": 38, "score": 23, "costs": 0, "simulationMode": [null, null, null], "rewards": [-2, -4, 24], "path": ["0", "0", "5", "6", "8"], "rt": [304, 50, 19], "actions": ["right", "right", "down"], "actionTimes": [2267, 2803, 3339], "queries": {"click": {"state": {"target": [], "time": []}, "edge": {"target": [], "time": []}}, "mouseover": {"state": {"target": [], "time": []}, "edge": {"target": [], "time": []}}, "mouseout": {"state": {"target": ["6", "5", "0", "5", "6", "6", "5"], "time": [886, 953, 5853, 5903, 5937, 6286, 6319]}, "edge": {"target": [], "time": []}}}, "displayed_time": "9.96", "trialTime": 11507, "trial_type": "mouselab-mdp", "trial_index": 50, "time_elapsed": 2148474, "internal_node_id": "0.0-4.0-3.0-4.0"}}, {"uniqueid": "w10806473:a27759384", "current_trial": 51, "dateTime": 1664557372328, "trialdata": {"revealed_states": [], "num_clicks_accrued": [0, 0, 0, 0, 0, 0, 0, 0, 0, 0, 0, 0, 0], "stateRewards": ["", 4, -4, 48, -48, 4, -4, 24, -24, 4, 8, -24, -48], "withholdReward": true, "trial_id": "mdp_433630527224", "block": "test2", "trialIndex": 39, "score": 52.25, "costs": -0.75, "simulationMode": [null, null, null], "rewards": [4, -4, 48], "path": ["0", "0", "1", "2", "3"], "rt": [2722, 51, 38], "actions": ["up", "up", "right"], "actionTimes": [3449, 4001, 4553], "queries": {"click": {"state": {"target": ["1", "2", "3"], "time": [1510, 2224, 2830]}, "edge": {"target": [], "time": []}}, "mouseover": {"state": {"target": ["1", "2", "3"], "time": [1415, 2115, 2715]}, "edge": {"target": [], "time": []}}, "mouseout": {"state": {"target": ["0", "1", "2", "3", "5"], "time": [698, 1982, 2665, 3715, 3948]}, "edge": {"target": [], "time": []}}}, "displayed_time": "9.73", "trialTime": 11489, "trial_type": "mouselab-mdp", "trial_index": 51, "time_elapsed": 2159994, "internal_node_id": "0.0-4.0-3.0-5.0"}}, {"uniqueid": "w10806473:a27759384", "current_trial": 52, "dateTime": 1664557389200, "trialdata": {"revealed_states": [], "num_clicks_accrued": [0, 0, 0, 0, 0, 0, 0, 0, 0, 0, 0, 0, 0], "stateRewards": ["", -2, 4, -48, -48, -4, -8, 48, -48, 2, 4, 48, -48], "withholdReward": true, "trial_id": "mdp_258647270500", "block": "test2", "trialIndex": 40, "score": 58.25, "costs": -0.75, "simulationMode": [null, null, null], "rewards": [2, 4, 48], "path": ["0", "0", "9", "10", "11"], "rt": [2949, 54, 160], "actions": ["left", "left", "up"], "actionTimes": [4277, 4821, 5477], "queries": {"click": {"state": {"target": ["9", "10", "11"], "time": [2351, 3386, 3805]}, "edge": {"target": [], "time": []}}, "mouseover": {"state": {"target": ["9", "10", "10", "11"], "time": [2266, 2916, 3333, 3733]}, "edge": {"target": [], "time": []}}, "mouseout": {"state": {"target": ["5", "0", "9", "10", "10", "11", "0"], "time": [749, 1983, 2899, 2950, 3683, 4049, 5149]}, "edge": {"target": [], "time": []}}}, "displayed_time": "9.33", "trialTime": 16845, "trial_type": "mouselab-mdp", "trial_index": 52, "time_elapsed": 2176866, "internal_node_id": "0.0-4.0-3.0-6.0"}}, {"uniqueid": "w10806473:a27759384", "current_trial": 53, "dateTime": 1664557403312, "trialdata": {"revealed_states": [], "num_clicks_accrued": [0, 0, 0, 0, 0, 0, 0, 0, 0, 0, 0, 0, 0], "stateRewards": ["", -2, -8, -24, 24, -2, -8, -48, 24, -2, -8, 24, 24], "withholdReward": true, "trial_id": "mdp_336617436097", "block": "test2", "trialIndex": 41, "score": 18.25, "costs": -0.75, "simulationMode": [null, null, null], "rewards": [-2, -8, 24], "path": ["0", "0", "5", "6", "8"], "rt": [3376, 54, 104], "actions": ["right", "right", "down"], "actionTimes": [7163, 7715, 8331], "queries": {"click": {"state": {"target": ["5", "6", "8"], "time": [4764, 5206, 5593]}, "edge": {"target": [], "time": []}}, "mouseover": {"state": {"target": ["5", "5", "6", "8"], "time": [4194, 4660, 5160, 5560]}, "edge": {"target": [], "time": []}}, "mouseout": {"state": {"target": ["5", "0", "5", "5", "6", "8", "6", "6"], "time": [1468, 4160, 4260, 5060, 5494, 5960, 6044, 6677]}, "edge": {"target": [], "time": []}}}, "displayed_time": "12.79", "trialTime": 14083, "trial_type": "mouselab-mdp", "trial_index": 53, "time_elapsed": 2190977, "internal_node_id": "0.0-4.0-3.0-7.0"}}, {"uniqueid": "w10806473:a27759384", "current_trial": 54, "dateTime": 1664557415159, "trialdata": {"revealed_states": [], "num_clicks_accrued": [0, 0, 0, 0, 0, 0, 0, 0, 0, 0, 0, 0, 0], "stateRewards": ["", -2, -4, -24, -48, 2, -8, -24, -24, 4, -8, 48, 48], "withholdReward": true, "trial_id": "mdp_950599994674", "block": "test2", "trialIndex": 42, "score": 47.5, "costs": -1.5, "simulationMode": [null, null, null], "rewards": [4, -8, 48], "path": ["0", "0", "9", "10", "12"], "rt": [4981, 28, 207], "actions": ["left", "left", "down"], "actionTimes": [6724, 7244, 7940], "queries": {"click": {"state": {"target": ["1", "2", "4", "9", "10", "12"], "time": [2458, 2909, 3302, 4785, 5353, 6210]}, "edge": {"target": [], "time": []}}, "mouseover": {"state": {"target": ["1", "2", "4", "9", "10", "12", "12"], "time": [2367, 2850, 3233, 4333, 5216, 5750, 6100]}, "edge": {"target": [], "time": []}}, "mouseout": {"state": {"target": ["6", "5", "1", "2", "4", "9", "10", "12", "12"], "time": [516, 549, 2767, 3167, 3900, 5100, 5700, 5842, 6633]}, "edge": {"target": [], "time": []}}}, "displayed_time": "9.74", "trialTime": 11820, "trial_type": "mouselab-mdp", "trial_index": 54, "time_elapsed": 2202825, "internal_node_id": "0.0-4.0-3.0-8.0"}}, {"uniqueid": "w10806473:a27759384", "current_trial": 55, "dateTime": 1664557428015, "trialdata": {"revealed_states": [], "num_clicks_accrued": [0, 0, 0, 0, 0, 0, 0, 0, 0, 0, 0, 0, 0], "stateRewards": ["", 2, 8, -48, 48, -4, -8, 24, 24, -2, -8, 24, -24], "withholdReward": true, "trial_id": "mdp_910248289075", "block": "test2", "trialIndex": 43, "score": 17, "costs": 0, "simulationMode": [null, null, null], "rewards": [-4, -8, 24], "path": ["0", "0", "5", "6", "7"], "rt": [287, 60, 6], "actions": ["right", "right", "up"], "actionTimes": [1236, 1796, 2292], "queries": {"click": {"state": {"target": [], "time": []}, "edge": {"target": [], "time": []}}, "mouseover": {"state": {"target": [], "time": []}, "edge": {"target": [], "time": []}}, "mouseout": {"state": {"target": ["0"], "time": [902]}, "edge": {"target": [], "time": []}}}, "displayed_time": "8.95", "trialTime": 12828, "trial_type": "mouselab-mdp", "trial_index": 55, "time_elapsed": 2215681, "internal_node_id": "0.0-4.0-3.0-9.0"}}, {"uniqueid": "w10806473:a27759384", "current_trial": 56, "dateTime": 1664557439279, "trialdata": {"revealed_states": [], "num_clicks_accrued": [0, 0, 0, 0, 0, 0, 0, 0, 0, 0, 0, 0, 0], "stateRewards": ["", -4, -4, -24, 48, 2, 4, -24, -48, -2, 4, 24, 24], "withholdReward": true, "trial_id": "mdp_360934723192", "block": "test2", "trialIndex": 44, "score": 44.75, "costs": -0.25, "simulationMode": [null, null, null], "rewards": [-4, -4, 48], "path": ["0", "0", "1", "2", "4"], "rt": [2288, 283, 212], "actions": ["up", "up", "left"], "actionTimes": [2796, 3580, 4292], "queries": {"click": {"state": {"target": ["1"], "time": [2401]}, "edge": {"target": [], "time": []}}, "mouseover": {"state": {"target": ["1"], "time": [2330]}, "edge": {"target": [], "time": []}}, "mouseout": {"state": {"target": ["0", "1", "1"], "time": [1177, 3313, 4996]}, "edge": {"target": [], "time": []}}}, "displayed_time": "8.51", "trialTime": 11236, "trial_type": "mouselab-mdp", "trial_index": 56, "time_elapsed": 2226945, "internal_node_id": "0.0-4.0-3.0-10.0"}}, {"uniqueid": "w10806473:a27759384", "current_trial": 57, "dateTime": 1664557454071, "trialdata": {"revealed_states": [], "num_clicks_accrued": [0, 0, 0, 0, 0, 0, 0, 0, 0, 0, 0, 0, 0], "stateRewards": ["", -2, 4, 48, -24, 2, 8, 24, 48, 2, 4, -24, -48], "withholdReward": false, "trial_id": "mdp_892412058587", "block": "test2", "trialIndex": 45, "score": 62.25, "costs": -0.75, "simulationMode": [null, null, null], "rewards": [2, 8, 48], "path": ["0", "0", "5", "6", "8"], "rt": [1859, 100, 52], "actions": ["right", "right", "down"], "actionTimes": [3485, 4101, 4653], "queries": {"click": {"state": {"target": ["5", "6", "8"], "time": [2135, 2718, 3089]}, "edge": {"target": [], "time": []}}, "mouseover": {"state": {"target": ["0", "5", "6", "8"], "time": [1900, 1967, 2600, 2984]}, "edge": {"target": [], "time": []}}, "mouseout": {"state": {"target": ["0", "0", "5", "6", "8"], "time": [1500, 1917, 2550, 2934, 3467]}, "edge": {"target": [], "time": []}}}, "displayed_time": "9.63", "trialTime": 14765, "trial_type": "mouselab-mdp", "trial_index": 57, "time_elapsed": 2241737, "internal_node_id": "0.0-4.0-3.0-11.0"}}, {"uniqueid": "w10806473:a27759384", "current_trial": 58, "dateTime": 1664557464191, "trialdata": {"revealed_states": [], "num_clicks_accrued": [0, 0, 0, 0, 0, 0, 0, 0, 0, 0, 0, 0, 0], "stateRewards": ["", -2, 4, 24, 48, 2, 4, -48, -48, 2, 8, 48, -48], "withholdReward": true, "trial_id": "mdp_409609775558", "block": "test2", "trialIndex": 46, "score": 31, "costs": 0, "simulationMode": [null, null, null], "rewards": [-2, 4, 24], "path": ["0", "0", "1", "2", "3"], "rt": [472, 46, 280], "actions": ["up", "up", "right"], "actionTimes": [1444, 1988, 2772], "queries": {"click": {"state": {"target": [], "time": []}, "edge": {"target": [], "time": []}}, "mouseover": {"state": {"target": [], "time": []}, "edge": {"target": [], "time": []}}, "mouseout": {"state": {"target": ["0", "0"], "time": [625, 6742]}, "edge": {"target": [], "time": []}}}, "displayed_time": "8.97", "trialTime": 10093, "trial_type": "mouselab-mdp", "trial_index": 58, "time_elapsed": 2251857, "internal_node_id": "0.0-4.0-3.0-12.0"}}, {"uniqueid": "w10806473:a27759384", "current_trial": 59, "dateTime": 1664557477463, "trialdata": {"revealed_states": [], "num_clicks_accrued": [0, 0, 0, 0, 0, 0, 0, 0, 0, 0, 0, 0, 0], "stateRewards": ["", 2, 8, -24, -48, 2, 4, -24, 48, 2, -8, 48, -24], "withholdReward": true, "trial_id": "mdp_791659307216", "block": "test2", "trialIndex": 47, "score": 46.25, "costs": -0.75, "simulationMode": [null, null, null], "rewards": [2, -8, 48], "path": ["0", "0", "9", "10", "11"], "rt": [3128, 64, 161], "actions": ["left", "left", "up"], "actionTimes": [4243, 4820, 5483], "queries": {"click": {"state": {"target": ["9", "10", "11"], "time": [2796, 3178, 3752]}, "edge": {"target": [], "time": []}}, "mouseover": {"state": {"target": ["0", "9", "9", "10", "11"], "time": [1655, 2255, 2688, 3088, 3655]}, "edge": {"target": [], "time": []}}, "mouseout": {"state": {"target": ["0", "0", "9", "9", "10", "10", "11", "10"], "time": [1390, 2105, 2488, 3005, 3438, 3622, 4072, 4155]}, "edge": {"target": [], "time": []}}}, "displayed_time": "9.12", "trialTime": 13244, "trial_type": "mouselab-mdp", "trial_index": 59, "time_elapsed": 2265129, "internal_node_id": "0.0-4.0-3.0-13.0"}}, {"uniqueid": "w10806473:a27759384", "current_trial": 60, "dateTime": 1664557488550, "trialdata": {"revealed_states": [], "num_clicks_accrued": [0, 0, 0, 0, 0, 0, 0, 0, 0, 0, 0, 0, 0], "stateRewards": ["", -4, 4, 24, 24, -2, 8, 24, -48, 4, -8, -24, -48], "withholdReward": false, "trial_id": "mdp_651542905861", "block": "test2", "trialIndex": 48, "score": -37, "costs": 0, "simulationMode": [null, null, null], "rewards": [-2, 8, -48], "path": ["0", "0", "5", "6", "8"], "rt": [332, 90, 195], "actions": ["right", "right", "down"], "actionTimes": [1332, 1908, 2596], "queries": {"click": {"state": {"target": [], "time": []}, "edge": {"target": [], "time": []}}, "mouseover": {"state": {"target": [], "time": []}, "edge": {"target": [], "time": []}}, "mouseout": {"state": {"target": [], "time": []}, "edge": {"target": [], "time": []}}}, "displayed_time": "10.00", "trialTime": 11060, "trial_type": "mouselab-mdp", "trial_index": 60, "time_elapsed": 2276216, "internal_node_id": "0.0-4.0-3.0-14.0"}}, {"uniqueid": "w10806473:a27759384", "current_trial": 61, "dateTime": 1664557499238, "trialdata": {"revealed_states": [], "num_clicks_accrued": [0, 0, 0, 0, 0, 0, 0, 0, 0, 0, 0, 0, 0], "stateRewards": ["", -2, 8, -48, 48, -4, -8, 24, 24, -2, -4, 48, -48], "withholdReward": true, "trial_id": "mdp_867247318592", "block": "test2", "trialIndex": 49, "score": 58, "costs": -1, "simulationMode": [null, null, null], "rewards": [-2, 8, 48], "path": ["0", "0", "1", "2", "4"], "rt": [4104, 607, 68], "actions": ["up", "up", "left"], "actionTimes": [4870, 5982, 6542], "queries": {"click": {"state": {"target": ["1", "2", "3", "4"], "time": [2121, 2554, 2968, 4441]}, "edge": {"target": [], "time": []}}, "mouseover": {"state": {"target": ["5", "1", "2", "3", "4"], "time": [1457, 2057, 2491, 2874, 3991]}, "edge": {"target": [], "time": []}}, "mouseout": {"state": {"target": ["0", "5", "1", "2", "3", "2", "4", "1"], "time": [1424, 1757, 2424, 2824, 3207, 3874, 4707, 5191]}, "edge": {"target": [], "time": []}}}, "displayed_time": "8.77", "trialTime": 10654, "trial_type": "mouselab-mdp", "trial_index": 61, "time_elapsed": 2286904, "internal_node_id": "0.0-4.0-3.0-15.0"}}, {"uniqueid": "w10806473:a27759384", "current_trial": 62, "dateTime": 1664557510262, "trialdata": {"revealed_states": [], "num_clicks_accrued": [0, 0, 0, 0, 0, 0, 0, 0, 0, 0, 0, 0, 0], "stateRewards": ["", -4, -8, 48, 24, 4, -8, 24, -48, -2, -8, 24, -48], "withholdReward": true, "trial_id": "mdp_952038635544", "block": "test2", "trialIndex": 50, "score": -53, "costs": 0, "simulationMode": [null, null, null], "rewards": [-2, -8, -48], "path": ["0", "0", "9", "10", "12"], "rt": [340, 31, 106], "actions": ["left", "left", "down"], "actionTimes": [1609, 2137, 2729], "queries": {"click": {"state": {"target": [], "time": []}, "edge": {"target": [], "time": []}}, "mouseover": {"state": {"target": [], "time": []}, "edge": {"target": [], "time": []}}, "mouseout": {"state": {"target": ["5"], "time": [1039]}, "edge": {"target": [], "time": []}}}, "displayed_time": "9.27", "trialTime": 10993, "trial_type": "mouselab-mdp", "trial_index": 62, "time_elapsed": 2297928, "internal_node_id": "0.0-4.0-3.0-16.0"}}, {"uniqueid": "w10806473:a27759384", "current_trial": 63, "dateTime": 1664557520206, "trialdata": {"revealed_states": [], "num_clicks_accrued": [0, 0, 0, 0, 0, 0, 0, 0, 0, 0, 0, 0, 0], "stateRewards": ["", 4, 4, 48, -24, -4, -8, 24, -24, 2, -8, -24, 24], "withholdReward": false, "trial_id": "mdp_933201675789", "block": "test2", "trialIndex": 51, "score": 17, "costs": 0, "simulationMode": [null, null, null], "rewards": [-4, -8, 24], "path": ["0", "0", "5", "6", "7"], "rt": [479, 86, 70], "actions": ["right", "right", "up"], "actionTimes": [987, 1571, 2139], "queries": {"click": {"state": {"target": [], "time": []}, "edge": {"target": [], "time": []}}, "mouseover": {"state": {"target": [], "time": []}, "edge": {"target": [], "time": []}}, "mouseout": {"state": {"target": [], "time": []}, "edge": {"target": [], "time": []}}}, "displayed_time": "8.51", "trialTime": 9915, "trial_type": "mouselab-mdp", "trial_index": 63, "time_elapsed": 2307872, "internal_node_id": "0.0-4.0-3.0-17.0"}}, {"uniqueid": "w10806473:a27759384", "current_trial": 64, "dateTime": 1664557532109, "trialdata": {"revealed_states": [], "num_clicks_accrued": [0, 0, 0, 0, 0, 0, 0, 0, 0, 0, 0, 0, 0], "stateRewards": ["", -4, -8, 48, -48, 2, -4, 48, -24, 2, -8, -48, -48], "withholdReward": false, "trial_id": "mdp_624553692913", "block": "test2", "trialIndex": 52, "score": 49.25, "costs": -1.75, "simulationMode": [null, null, null], "rewards": [2, -4, 48], "path": ["0", "0", "5", "6", "7"], "rt": [5756, 65, 34], "actions": ["right", "right", "up"], "actionTimes": [7145, 7721, 8257], "queries": {"click": {"state": {"target": ["9", "10", "12", "11", "6", "8", "7"], "time": [2385, 2981, 3403, 4065, 5261, 5965, 6591]}, "edge": {"target": [], "time": []}}, "mouseover": {"state": {"target": ["9", "10", "12", "11", "5", "6", "8", "7"], "time": [2056, 2889, 3323, 3956, 4807, 4956, 5740, 6489]}, "edge": {"target": [], "time": []}}, "mouseout": {"state": {"target": ["9", "0", "9", "10", "12", "10", "11", "5", "6", "8", "6", "7", "6"], "time": [439, 2006, 2840, 3273, 3773, 3890, 4473, 4906, 5606, 6256, 6422, 7422, 7639]}, "edge": {"target": [], "time": []}}}, "displayed_time": "10.39", "trialTime": 11873, "trial_type": "mouselab-mdp", "trial_index": 64, "time_elapsed": 2319775, "internal_node_id": "0.0-4.0-3.0-18.0"}}, {"uniqueid": "w10806473:a27759384", "current_trial": 65, "dateTime": 1664557542453, "trialdata": {"revealed_states": [], "num_clicks_accrued": [0, 0, 0, 0, 0, 0, 0, 0, 0, 0, 0, 0, 0], "stateRewards": ["", -2, -8, 48, 24, 4, -8, 24, 48, 4, -4, 24, -48], "withholdReward": true, "trial_id": "mdp_871576155740", "block": "test2", "trialIndex": 53, "score": 42.25, "costs": -0.75, "simulationMode": [null, null, null], "rewards": [-2, -8, 48], "path": ["0", "0", "1", "2", "3"], "rt": [2313, 45, 103], "actions": ["up", "up", "right"], "actionTimes": [3549, 4085, 4693], "queries": {"click": {"state": {"target": ["1", "2", "3"], "time": [2170, 2571, 2955]}, "edge": {"target": [], "time": []}}, "mouseover": {"state": {"target": ["1", "2", "3"], "time": [2072, 2523, 2906]}, "edge": {"target": [], "time": []}}, "mouseout": {"state": {"target": ["0", "1", "2", "3", "8"], "time": [1972, 2439, 2856, 4373, 9989]}, "edge": {"target": [], "time": []}}}, "displayed_time": "9.24", "trialTime": 10317, "trial_type": "mouselab-mdp", "trial_index": 65, "time_elapsed": 2330119, "internal_node_id": "0.0-4.0-3.0-19.0"}}, {"uniqueid": "w10806473:a27759384", "current_trial": 66, "dateTime": 1664557553629, "trialdata": {"revealed_states": [], "num_clicks_accrued": [0, 0, 0, 0, 0, 0, 0, 0, 0, 0, 0, 0, 0], "stateRewards": ["", -2, -4, -48, 48, -4, 4, -48, 24, -4, -8, 24, 48], "withholdReward": true, "trial_id": "mdp_264482284450", "block": "test2", "trialIndex": 54, "score": 39.25, "costs": -1.75, "simulationMode": [null, null, null], "rewards": [-4, -8, 48], "path": ["0", "0", "9", "10", "12"], "rt": [4802, 30, 209], "actions": ["left", "left", "down"], "actionTimes": [5562, 6091, 6786], "queries": {"click": {"state": {"target": ["5", "6", "7", "8", "9", "10", "12"], "time": [1585, 2019, 2480, 3036, 4205, 4516, 4886]}, "edge": {"target": [], "time": []}}, "mouseover": {"state": {"target": ["5", "5", "6", "7", "8", "0", "9", "9", "10", "12"], "time": [1127, 1527, 1943, 2444, 2910, 3527, 3577, 4127, 4460, 4810]}, "edge": {"target": [], "time": []}}, "mouseout": {"state": {"target": ["8", "0", "5", "5", "6", "7", "6", "8", "0", "9", "9", "10", "12"], "time": [443, 1093, 1193, 1827, 2394, 2827, 2893, 3444, 3560, 3610, 4393, 4777, 5827]}, "edge": {"target": [], "time": []}}}, "displayed_time": "8.76", "trialTime": 11146, "trial_type": "mouselab-mdp", "trial_index": 66, "time_elapsed": 2341294, "internal_node_id": "0.0-4.0-3.0-20.0"}}, {"uniqueid": "w10806473:a27759384", "current_trial": 67, "dateTime": 1664557568596, "trialdata": {"revealed_states": [], "num_clicks_accrued": [0, 0, 0, 0, 0, 0, 0, 0, 0, 0, 0, 0, 0], "stateRewards": ["", 2, 8, 48, -48, -2, -4, -24, 24, 4, -4, 48, -48], "withholdReward": true, "trial_id": "mdp_105734044587", "block": "test2", "trialIndex": 55, "score": 62, "costs": -1, "simulationMode": [null, null, null], "rewards": [2, 8, 48], "path": ["0", "0", "1", "2", "3"], "rt": [2454, 56, 65], "actions": ["up", "up", "right"], "actionTimes": [7524, 8075, 8651], "queries": {"click": {"state": {"target": ["1", "2", "4", "3"], "time": [5704, 6126, 6494, 7003]}, "edge": {"target": [], "time": []}}, "mouseover": {"state": {"target": ["1", "2", "4", "3"], "time": [5502, 6086, 6469, 6935]}, "edge": {"target": [], "time": []}}, "mouseout": {"state": {"target": ["5", "5", "0", "1", "2", "4", "2", "3"], "time": [4569, 4852, 5402, 5985, 6419, 6819, 6902, 7469]}, "edge": {"target": [], "time": []}}}, "displayed_time": "13.07", "trialTime": 14939, "trial_type": "mouselab-mdp", "trial_index": 67, "time_elapsed": 2356262, "internal_node_id": "0.0-4.0-3.0-21.0"}}, {"uniqueid": "w10806473:a27759384", "current_trial": 68, "dateTime": 1664557580756, "trialdata": {"revealed_states": [], "num_clicks_accrued": [0, 0, 0, 0, 0, 0, 0, 0, 0, 0, 0, 0, 0], "stateRewards": ["", 2, -4, -48, 24, -4, 4, 24, 24, 2, -8, -24, -48], "withholdReward": true, "trial_id": "mdp_807654778305", "block": "test2", "trialIndex": 56, "score": 27, "costs": -2, "simulationMode": [null, null, null], "rewards": [-4, 4, 24], "path": ["0", "0", "5", "6", "8"], "rt": [5299, 29, 625], "actions": ["right", "right", "down"], "actionTimes": [6001, 6529, 7641], "queries": {"click": {"state": {"target": ["9", "10", "12", "11", "6", "5", "7", "8"], "time": [1346, 1722, 2451, 3038, 3932, 4395, 4879, 5478]}, "edge": {"target": [], "time": []}}, "mouseover": {"state": {"target": ["9", "10", "12", "12", "11", "5", "6", "5", "7", "8"], "time": [1199, 1649, 1982, 2366, 2916, 3516, 3666, 4333, 4799, 5333]}, "edge": {"target": [], "time": []}}, "mouseout": {"state": {"target": ["0", "9", "10", "12", "12", "10", "11", "5", "6", "5", "6", "7", "6"], "time": [1133, 1566, 1966, 2033, 2766, 2849, 3333, 3599, 4266, 4600, 4749, 5133, 5283]}, "edge": {"target": [], "time": []}}}, "displayed_time": "9.70", "trialTime": 12129, "trial_type": "mouselab-mdp", "trial_index": 68, "time_elapsed": 2368422, "internal_node_id": "0.0-4.0-3.0-22.0"}}, {"uniqueid": "w10806473:a27759384", "current_trial": 69, "dateTime": 1664557590845, "trialdata": {"revealed_states": [], "num_clicks_accrued": [0, 0, 0, 0, 0, 0, 0, 0, 0, 0, 0, 0, 0], "stateRewards": ["", -4, 4, -24, 48, -2, 8, -48, 24, 2, 4, 48, -48], "withholdReward": true, "trial_id": "mdp_366632183904", "block": "test2", "trialIndex": 57, "score": -19, "costs": 0, "simulationMode": [null, null, null], "rewards": [-4, 4, -24], "path": ["0", "0", "1", "2", "3"], "rt": [329, 3, 30], "actions": ["up", "up", "right"], "actionTimes": [1291, 1795, 2339], "queries": {"click": {"state": {"target": [], "time": []}, "edge": {"target": [], "time": []}}, "mouseover": {"state": {"target": [], "time": []}, "edge": {"target": [], "time": []}}, "mouseout": {"state": {"target": ["8", "0"], "time": [608, 925]}, "edge": {"target": [], "time": []}}}, "displayed_time": "8.96", "trialTime": 10060, "trial_type": "mouselab-mdp", "trial_index": 69, "time_elapsed": 2378511, "internal_node_id": "0.0-4.0-3.0-23.0"}}, {"uniqueid": "w10806473:a27759384", "current_trial": 70, "dateTime": 1664557601957, "trialdata": {"revealed_states": [], "num_clicks_accrued": [0, 0, 0, 0, 0, 0, 0, 0, 0, 0, 0, 0, 0], "stateRewards": ["", 4, 8, 24, 24, 2, -4, 48, -24, -4, 8, -24, 24], "withholdReward": true, "trial_id": "mdp_932292142091", "block": "test2", "trialIndex": 58, "score": 40, "costs": -1, "simulationMode": [null, null, null], "rewards": [4, 8, 24], "path": ["0", "0", "1", "2", "4"], "rt": [2959, 611, 39], "actions": ["up", "up", "left"], "actionTimes": [3594, 4698, 5226], "queries": {"click": {"state": {"target": ["1", "2", "4", "3"], "time": [1117, 1481, 2277, 3048]}, "edge": {"target": [], "time": []}}, "mouseover": {"state": {"target": ["1", "2", "4", "3"], "time": [954, 1387, 2204, 2904]}, "edge": {"target": [], "time": []}}, "mouseout": {"state": {"target": ["0", "1", "2", "4", "2", "3", "5"], "time": [490, 1320, 1837, 2787, 2854, 3654, 5904]}, "edge": {"target": [], "time": []}}}, "displayed_time": "9.64", "trialTime": 11082, "trial_type": "mouselab-mdp", "trial_index": 70, "time_elapsed": 2389623, "internal_node_id": "0.0-4.0-3.0-24.0"}}, {"uniqueid": "w10806473:a27759384", "current_trial": 71, "dateTime": 1664557619364, "trialdata": {"revealed_states": [], "num_clicks_accrued": [0, 0, 0, 0, 0, 0, 0, 0, 0, 0, 0, 0, 0], "stateRewards": ["", -4, -4, -24, 24, -4, 4, -24, 48, -2, 4, 48, -48], "withholdReward": true, "trial_id": "mdp_774757609669", "block": "test2", "trialIndex": 59, "score": 52, "costs": -1, "simulationMode": [null, null, null], "rewards": [-4, 4, 48], "path": ["0", "0", "5", "6", "8"], "rt": [2514, 24, 195], "actions": ["right", "right", "down"], "actionTimes": [3146, 3666, 4370], "queries": {"click": {"state": {"target": ["5", "6", "7", "8"], "time": [1150, 1549, 1937, 2470]}, "edge": {"target": [], "time": []}}, "mouseover": {"state": {"target": ["5", "6", "7", "8"], "time": [1009, 1458, 1892, 2375]}, "edge": {"target": [], "time": []}}, "mouseout": {"state": {"target": ["5", "0", "5", "6", "7", "6", "8", "5"], "time": [358, 909, 1376, 1809, 2192, 2309, 2775, 16477]}, "edge": {"target": [], "time": []}}}, "displayed_time": "9.63", "trialTime": 17378, "trial_type": "mouselab-mdp", "trial_index": 71, "time_elapsed": 2407030, "internal_node_id": "0.0-4.0-3.0-25.0"}}, {"uniqueid": "w10806473:a27759384", "current_trial": 72, "dateTime": 1664557674219, "trialdata": {"revealed_states": [], "num_clicks_accrued": [0, 0, 0, 0, 0, 0, 0, 0, 0, 0, 0, 0, 0], "stateRewards": ["", 2, 8, 48, -24, -4, 4, 48, 24, -2, 8, 24, 24], "withholdReward": false, "trial_id": "mdp_123436106791", "block": "test2", "trialIndex": 60, "score": 52.25, "costs": -0.75, "simulationMode": [null, null, null], "rewards": [-4, 4, 48], "path": ["0", "0", "5", "6", "7"], "rt": [2149, 441, 68], "actions": ["right", "right", "up"], "actionTimes": [47218, 48154, 48714], "queries": {"click": {"state": {"target": ["5", "6", "7"], "time": [45815, 46297, 46676]}, "edge": {"target": [], "time": []}}, "mouseover": {"state": {"target": ["5", "6", "7", "8"], "time": [45663, 46213, 46629, 46979]}, "edge": {"target": [], "time": []}}, "mouseout": {"state": {"target": ["0", "5", "6", "7", "6", "8", "8", "8"], "time": [45312, 46096, 46546, 46912, 46962, 47662, 49279, 53379]}, "edge": {"target": [], "time": []}}}, "displayed_time": "53.07", "trialTime": 54818, "trial_type": "mouselab-mdp", "trial_index": 72, "time_elapsed": 2461885, "internal_node_id": "0.0-4.0-3.0-26.0"}}, {"uniqueid": "w10806473:a27759384", "current_trial": 73, "dateTime": 1664557685067, "trialdata": {"revealed_states": [], "num_clicks_accrued": [0, 0, 0, 0, 0, 0, 0, 0, 0, 0, 0, 0, 0], "stateRewards": ["", 2, -8, 24, -48, 2, 4, 48, -48, -2, -8, -48, 48], "withholdReward": true, "trial_id": "mdp_629420544881", "block": "test2", "trialIndex": 61, "score": 42, "costs": -1, "simulationMode": [null, null, null], "rewards": [-2, -8, 48], "path": ["0", "0", "9", "10", "12"], "rt": [3630, 18, 142], "actions": ["left", "left", "down"], "actionTimes": [4489, 5016, 5672], "queries": {"click": {"state": {"target": ["9", "10", "12", "11"], "time": [1613, 2013, 2419, 4124]}, "edge": {"target": [], "time": []}}, "mouseover": {"state": {"target": ["9", "10", "12", "11"], "time": [1513, 1913, 2296, 4012]}, "edge": {"target": [], "time": []}}, "mouseout": {"state": {"target": ["0", "9", "10", "12", "10", "11"], "time": [796, 1880, 2262, 3155, 3946, 4396]}, "edge": {"target": [], "time": []}}}, "displayed_time": "9.86", "trialTime": 10816, "trial_type": "mouselab-mdp", "trial_index": 73, "time_elapsed": 2472733, "internal_node_id": "0.0-4.0-3.0-27.0"}}, {"uniqueid": "w10806473:a27759384", "current_trial": 74, "dateTime": 1664557699179, "trialdata": {"revealed_states": [], "num_clicks_accrued": [0, 0, 0, 0, 0, 0, 0, 0, 0, 0, 0, 0, 0], "stateRewards": ["", -4, -8, -48, 24, -4, -4, -24, -48, 2, -8, -24, -48], "withholdReward": false, "trial_id": "mdp_628181832088", "block": "test2", "trialIndex": 62, "score": -27, "costs": 0, "simulationMode": [null, null, null], "rewards": [-4, -4, -24], "path": ["0", "0", "5", "6", "7"], "rt": [530, 12, 479], "actions": ["right", "right", "up"], "actionTimes": [1442, 1962, 2946], "queries": {"click": {"state": {"target": [], "time": []}, "edge": {"target": [], "time": []}}, "mouseover": {"state": {"target": [], "time": []}, "edge": {"target": [], "time": []}}, "mouseout": {"state": {"target": ["0", "0", "5", "5", "0"], "time": [717, 4367, 4450, 9917, 9934]}, "edge": {"target": [], "time": []}}}, "displayed_time": "8.91", "trialTime": 14082, "trial_type": "mouselab-mdp", "trial_index": 74, "time_elapsed": 2486845, "internal_node_id": "0.0-4.0-3.0-28.0"}}, {"uniqueid": "w10806473:a27759384", "current_trial": 75, "dateTime": 1664557711787, "trialdata": {"revealed_states": [], "num_clicks_accrued": [0, 0, 0, 0, 0, 0, 0, 0, 0, 0, 0, 0, 0], "stateRewards": ["", -4, -8, 24, 48, 2, -4, -24, 24, -4, 8, 48, 48], "withholdReward": true, "trial_id": "mdp_496672670022", "block": "test2", "trialIndex": 63, "score": 27, "costs": 0, "simulationMode": [null, null, null], "rewards": [2, -4, 24], "path": ["0", "0", "5", "6", "8"], "rt": [612, 67, 45], "actions": ["right", "right", "down"], "actionTimes": [2329, 2889, 3433], "queries": {"click": {"state": {"target": [], "time": []}, "edge": {"target": [], "time": []}}, "mouseover": {"state": {"target": [], "time": []}, "edge": {"target": [], "time": []}}, "mouseout": {"state": {"target": ["0"], "time": [2554]}, "edge": {"target": [], "time": []}}}, "displayed_time": "10.72", "trialTime": 12577, "trial_type": "mouselab-mdp", "trial_index": 75, "time_elapsed": 2499453, "internal_node_id": "0.0-4.0-3.0-29.0"}}, {"uniqueid": "w10806473:a27759384", "current_trial": 76, "dateTime": 1664558177652, "trialdata": {"rt": 465863, "stimulus": "<h1> End of block! </h1>\n\nYou have reached the end of the block 2/4. If you need a short break, feel free to take one now before moving on.\n\n<br><br>\nIn the next block, you will complete another 30 rounds of this game.\n\n<br><br>\n<div style='text-align: center;'>Press <code>space</code> to begin.</div>\n<br><br>\n<div style='text-align: center;'>(If the experiment doesn't continue, try clicking on the text and then pressing <code>space</code>.)</div>", "response": " ", "trial_id": "mdp_ready_3", "trial_type": "html-keyboard-response", "trial_index": 76, "time_elapsed": 2965318, "internal_node_id": "0.0-4.0-4.0"}}, {"uniqueid": "w10806473:a27759384", "current_trial": 77, "dateTime": 1664558190875, "trialdata": {"revealed_states": [], "num_clicks_accrued": [0, 0, 0, 0, 0, 0, 0, 0, 0, 0, 0, 0, 0], "stateRewards": ["", -2, -8, -24, 48, -2, -8, -48, -48, 2, -8, -48, 24], "withholdReward": true, "trial_id": "mdp_288324580942", "block": "test3", "trialIndex": 64, "score": 21, "costs": -2, "simulationMode": [null, null, null], "rewards": [2, -8, 24], "path": ["0", "0", "9", "10", "12"], "rt": [5444, 323, 410], "actions": ["left", "left", "down"], "actionTimes": [6355, 7163, 8066], "queries": {"click": {"state": {"target": ["5", "6", "8", "7", "9", "10", "11", "12"], "time": [1417, 1745, 2046, 2663, 4010, 4368, 4649, 5132]}, "edge": {"target": [], "time": []}}, "mouseover": {"state": {"target": ["5", "6", "8", "7", "1", "1", "9", "10", "11", "12"], "time": [1356, 1656, 1989, 2506, 3039, 3339, 3923, 4240, 4573, 4990]}, "edge": {"target": [], "time": []}}, "mouseout": {"state": {"target": ["2", "1", "0", "5", "6", "8", "6", "7", "1", "1", "9", "10", "11", "10", "12", "9", "9", "12", "12", "8", "0"], "time": [606, 656, 1223, 1607, 1956, 2373, 2456, 2923, 3173, 3473, 4173, 4506, 4856, 4956, 5373, 5990, 7640, 8490, 11440, 11806, 12056]}, "edge": {"target": [], "time": []}}}, "displayed_time": "8.56", "trialTime": 13186, "trial_type": "mouselab-mdp", "trial_index": 77, "time_elapsed": 2978541, "internal_node_id": "0.0-4.0-5.0-0.0"}}, {"uniqueid": "w10806473:a27759384", "current_trial": 78, "dateTime": 1664558211187, "trialdata": {"revealed_states": [], "num_clicks_accrued": [0, 0, 0, 0, 0, 0, 0, 0, 0, 0, 0, 0, 0], "stateRewards": ["", -4, -4, 48, 24, -4, -4, -24, -48, -4, 4, 48, -24], "withholdReward": true, "trial_id": "mdp_896503755738", "block": "test3", "trialIndex": 65, "score": 44.25, "costs": -0.75, "simulationMode": [null, null, null], "rewards": [-4, -4, 48], "path": ["0", "0", "1", "2", "3"], "rt": [10606, 40, 26], "actions": ["up", "up", "right"], "actionTimes": [11353, 11897, 12433], "queries": {"click": {"state": {"target": ["1", "2", "3"], "time": [9924, 10380, 10720]}, "edge": {"target": [], "time": []}}, "mouseover": {"state": {"target": ["1", "2", "3"], "time": [9723, 10256, 10623]}, "edge": {"target": [], "time": []}}, "mouseout": {"state": {"target": ["0", "1", "2", "3", "7", "5"], "time": [1939, 10189, 10573, 11257, 16090, 16206]}, "edge": {"target": [], "time": []}}}, "displayed_time": "12.92", "trialTime": 20281, "trial_type": "mouselab-mdp", "trial_index": 78, "time_elapsed": 2998853, "internal_node_id": "0.0-4.0-5.0-1.0"}}, {"uniqueid": "w10806473:a27759384", "current_trial": 79, "dateTime": 1664558227147, "trialdata": {"revealed_states": [], "num_clicks_accrued": [0, 0, 0, 0, 0, 0, 0, 0, 0, 0, 0, 0, 0], "stateRewards": ["", -2, 4, -24, -48, -4, 8, -24, 48, 4, 4, -48, 24], "withholdReward": true, "trial_id": "mdp_341117665701", "block": "test3", "trialIndex": 66, "score": 36, "costs": -1, "simulationMode": [null, null, null], "rewards": [4, 4, 24], "path": ["0", "0", "9", "10", "12"], "rt": [2743, 56, 153], "actions": ["left", "left", "down"], "actionTimes": [3221, 3797, 4461], "queries": {"click": {"state": {"target": ["9", "10", "12", "11"], "time": [1075, 1494, 1935, 2835]}, "edge": {"target": [], "time": []}}, "mouseover": {"state": {"target": ["9", "10", "12", "11"], "time": [940, 1424, 1840, 2690]}, "edge": {"target": [], "time": []}}, "mouseout": {"state": {"target": ["0", "9", "10", "12", "11", "9", "0"], "time": [308, 1324, 1791, 2340, 3124, 3674, 6650]}, "edge": {"target": [], "time": []}}}, "displayed_time": "9.48", "trialTime": 15925, "trial_type": "mouselab-mdp", "trial_index": 79, "time_elapsed": 3014813, "internal_node_id": "0.0-4.0-5.0-2.0"}}, {"uniqueid": "w10806473:a27759384", "current_trial": 80, "dateTime": 1664558239875, "trialdata": {"revealed_states": [], "num_clicks_accrued": [0, 0, 0, 0, 0, 0, 0, 0, 0, 0, 0, 0, 0], "stateRewards": ["", 4, -8, 48, 48, 2, 4, 48, -48, 4, -4, -48, 48], "withholdReward": true, "trial_id": "mdp_519605841135", "block": "test3", "trialIndex": 67, "score": 58.25, "costs": -0.75, "simulationMode": [null, null, null], "rewards": [2, 4, 48], "path": ["0", "0", "5", "6", "7"], "rt": [2794, 84, 109], "actions": ["right", "right", "up"], "actionTimes": [6333, 6933, 7541], "queries": {"click": {"state": {"target": ["5", "6", "7"], "time": [4094, 4485, 4870]}, "edge": {"target": [], "time": []}}, "mouseover": {"state": {"target": ["5", "6", "7", "8"], "time": [3882, 4399, 4815, 5982]}, "edge": {"target": [], "time": []}}, "mouseout": {"state": {"target": ["0", "5", "6", "7", "6", "8"], "time": [3015, 4365, 4749, 5315, 5949, 6015]}, "edge": {"target": [], "time": []}}}, "displayed_time": "11.54", "trialTime": 12693, "trial_type": "mouselab-mdp", "trial_index": 80, "time_elapsed": 3027540, "internal_node_id": "0.0-4.0-5.0-3.0"}}, {"uniqueid": "w10806473:a27759384", "current_trial": 81, "dateTime": 1664558252194, "trialdata": {"revealed_states": [], "num_clicks_accrued": [0, 0, 0, 0, 0, 0, 0, 0, 0, 0, 0, 0, 0], "stateRewards": ["", -4, 4, 48, 24, -4, 4, -24, 48, -2, -8, 24, -48], "withholdReward": true, "trial_id": "mdp_261501605436", "block": "test3", "trialIndex": 68, "score": 52.25, "costs": -0.75, "simulationMode": [null, null, null], "rewards": [-4, 4, 48], "path": ["0", "0", "1", "2", "3"], "rt": [2816, 452, 686], "actions": ["up", "up", "right"], "actionTimes": [3626, 4578, 5762], "queries": {"click": {"state": {"target": ["1", "2", "3"], "time": [1391, 1730, 2440]}, "edge": {"target": [], "time": []}}, "mouseover": {"state": {"target": ["1", "2", "3", "3"], "time": [1276, 1659, 1959, 2376]}, "edge": {"target": [], "time": []}}, "mouseout": {"state": {"target": ["8", "0", "1", "2", "3", "3", "2"], "time": [392, 1193, 1576, 1926, 2009, 2759, 3326]}, "edge": {"target": [], "time": []}}}, "displayed_time": "10.81", "trialTime": 12290, "trial_type": "mouselab-mdp", "trial_index": 81, "time_elapsed": 3039860, "internal_node_id": "0.0-4.0-5.0-4.0"}}, {"uniqueid": "w10806473:a27759384", "current_trial": 82, "dateTime": 1664558262986, "trialdata": {"revealed_states": [], "num_clicks_accrued": [0, 0, 0, 0, 0, 0, 0, 0, 0, 0, 0, 0, 0], "stateRewards": ["", -2, 8, 48, 48, 2, 4, -48, 24, -4, -8, 48, 24], "withholdReward": false, "trial_id": "mdp_572910394648", "block": "test3", "trialIndex": 69, "score": 58.25, "costs": -0.75, "simulationMode": [null, null, null], "rewards": [-2, 8, 48], "path": ["0", "0", "1", "2", "4"], "rt": [2253, 7, 675], "actions": ["up", "up", "left"], "actionTimes": [3009, 3513, 4697], "queries": {"click": {"state": {"target": ["1", "2", "4"], "time": [1261, 1575, 1970]}, "edge": {"target": [], "time": []}}, "mouseover": {"state": {"target": ["1", "2", "4"], "time": [1122, 1505, 1888]}, "edge": {"target": [], "time": []}}, "mouseout": {"state": {"target": ["5", "0", "1", "2", "4", "2"], "time": [538, 972, 1455, 1839, 2255, 2755]}, "edge": {"target": [], "time": []}}}, "displayed_time": "9.76", "trialTime": 10761, "trial_type": "mouselab-mdp", "trial_index": 82, "time_elapsed": 3050652, "internal_node_id": "0.0-4.0-5.0-5.0"}}, {"uniqueid": "w10806473:a27759384", "current_trial": 83, "dateTime": 1664558273914, "trialdata": {"revealed_states": [], "num_clicks_accrued": [0, 0, 0, 0, 0, 0, 0, 0, 0, 0, 0, 0, 0], "stateRewards": ["", 2, 4, -24, -48, 4, -4, 24, 48, -4, -4, -24, 48], "withholdReward": false, "trial_id": "mdp_181958792175", "block": "test3", "trialIndex": 70, "score": 52, "costs": -1, "simulationMode": [null, null, null], "rewards": [4, -4, 48], "path": ["0", "0", "5", "6", "8"], "rt": [2647, 27, 190], "actions": ["right", "right", "down"], "actionTimes": [3308, 3836, 4516], "queries": {"click": {"state": {"target": ["5", "6", "7", "8"], "time": [1060, 1406, 1762, 2218]}, "edge": {"target": [], "time": []}}, "mouseover": {"state": {"target": ["5", "6", "7", "8"], "time": [958, 1342, 1709, 2125]}, "edge": {"target": [], "time": []}}, "mouseout": {"state": {"target": ["0", "5", "6", "7", "6", "8", "6", "5"], "time": [925, 1291, 1675, 1975, 2075, 2575, 6925, 8609]}, "edge": {"target": [], "time": []}}}, "displayed_time": "9.66", "trialTime": 10892, "trial_type": "mouselab-mdp", "trial_index": 83, "time_elapsed": 3061580, "internal_node_id": "0.0-4.0-5.0-6.0"}}, {"uniqueid": "w10806473:a27759384", "current_trial": 84, "dateTime": 1664558291346, "trialdata": {"revealed_states": [], "num_clicks_accrued": [0, 0, 0, 0, 0, 0, 0, 0, 0, 0, 0, 0, 0], "stateRewards": ["", 4, 4, 48, -24, -4, -8, 24, -24, 2, -8, -24, 24], "withholdReward": true, "trial_id": "mdp_933201675789", "block": "test3", "trialIndex": 71, "score": 21, "costs": -2, "simulationMode": [null, null, null], "rewards": [2, -8, 24], "path": ["0", "0", "9", "10", "12"], "rt": [5451, 50, 236], "actions": ["left", "left", "down"], "actionTimes": [6391, 6952, 7687], "queries": {"click": {"state": {"target": ["9", "10", "11", "12", "5", "6", "8", "7"], "time": [2319, 2677, 3042, 3600, 4488, 4797, 5110, 5702]}, "edge": {"target": [], "time": []}}, "mouseover": {"state": {"target": ["9", "10", "11", "12", "5", "6", "8", "7"], "time": [2085, 2518, 2985, 3485, 4368, 4718, 5035, 5601]}, "edge": {"target": [], "time": []}}, "mouseout": {"state": {"target": ["9", "10", "11", "10", "12", "5", "6", "8", "6", "7", "6", "6"], "time": [2485, 2901, 3301, 3401, 3985, 4668, 4985, 5418, 5518, 6002, 14280, 15635]}, "edge": {"target": [], "time": []}}}, "displayed_time": "8.94", "trialTime": 17399, "trial_type": "mouselab-mdp", "trial_index": 84, "time_elapsed": 3079011, "internal_node_id": "0.0-4.0-5.0-7.0"}}, {"uniqueid": "w10806473:a27759384", "current_trial": 85, "dateTime": 1664558304697, "trialdata": {"revealed_states": [], "num_clicks_accrued": [0, 0, 0, 0, 0, 0, 0, 0, 0, 0, 0, 0, 0], "stateRewards": ["", 2, 8, 24, -48, 4, 8, 24, 24, 4, -8, 48, 48], "withholdReward": true, "trial_id": "mdp_646103824875", "block": "test3", "trialIndex": 72, "score": 38, "costs": -1, "simulationMode": [null, null, null], "rewards": [2, 8, 24], "path": ["0", "0", "1", "2", "3"], "rt": [2400, 3, 45], "actions": ["up", "up", "right"], "actionTimes": [4138, 4634, 5194], "queries": {"click": {"state": {"target": ["1", "2", "3", "4"], "time": [2294, 2648, 3070, 3712]}, "edge": {"target": [], "time": []}}, "mouseover": {"state": {"target": ["1", "2", "3", "4"], "time": [2215, 2532, 3015, 3548]}, "edge": {"target": [], "time": []}}, "mouseout": {"state": {"target": ["5", "0", "1", "2", "3", "2", "4", "1"], "time": [1115, 1743, 2482, 2932, 3465, 3532, 3965, 4348]}, "edge": {"target": [], "time": []}}}, "displayed_time": "9.74", "trialTime": 13314, "trial_type": "mouselab-mdp", "trial_index": 85, "time_elapsed": 3092363, "internal_node_id": "0.0-4.0-5.0-8.0"}}, {"uniqueid": "w10806473:a27759384", "current_trial": 86, "dateTime": 1664558315202, "trialdata": {"revealed_states": [], "num_clicks_accrued": [0, 0, 0, 0, 0, 0, 0, 0, 0, 0, 0, 0, 0], "stateRewards": ["", 2, -4, 48, -48, -4, -8, -48, 24, -4, 4, 48, 48], "withholdReward": true, "trial_id": "mdp_544803968425", "block": "test3", "trialIndex": 73, "score": 51.25, "costs": -1.75, "simulationMode": [null, null, null], "rewards": [-4, 4, 48], "path": ["0", "0", "9", "10", "12"], "rt": [4509, 313, 233], "actions": ["left", "left", "down"], "actionTimes": [6020, 6820, 7540], "queries": {"click": {"state": {"target": ["5", "6", "7", "8", "9", "10", "12"], "time": [2309, 2690, 3012, 3576, 4491, 4864, 5239]}, "edge": {"target": [], "time": []}}, "mouseover": {"state": {"target": ["5", "6", "5", "6", "7", "8", "9", "9", "10", "12"], "time": [1890, 1956, 2190, 2640, 2940, 3440, 4040, 4423, 4823, 5173]}, "edge": {"target": [], "time": []}}, "mouseout": {"state": {"target": ["6", "5", "0", "5", "6", "5", "6", "7", "6", "8", "9", "9", "10", "12", "10", "9", "8"], "time": [855, 905, 1873, 1923, 2140, 2557, 2890, 3240, 3357, 3840, 4090, 4740, 5106, 5556, 5656, 7957, 9940]}, "edge": {"target": [], "time": []}}}, "displayed_time": "8.52", "trialTime": 10476, "trial_type": "mouselab-mdp", "trial_index": 86, "time_elapsed": 3102868, "internal_node_id": "0.0-4.0-5.0-9.0"}}, {"uniqueid": "w10806473:a27759384", "current_trial": 87, "dateTime": 1664558328778, "trialdata": {"revealed_states": [], "num_clicks_accrued": [0, 0, 0, 0, 0, 0, 0, 0, 0, 0, 0, 0, 0], "stateRewards": ["", 4, -8, -24, 24, 2, -4, 24, 24, 2, -4, 48, 48], "withholdReward": true, "trial_id": "mdp_457607480918", "block": "test3", "trialIndex": 74, "score": 25, "costs": 0, "simulationMode": [null, null, null], "rewards": [4, -8, 24], "path": ["0", "0", "1", "2", "4"], "rt": [410, 730, 57], "actions": ["up", "up", "left"], "actionTimes": [1677, 2893, 3453], "queries": {"click": {"state": {"target": [], "time": []}, "edge": {"target": [], "time": []}}, "mouseover": {"state": {"target": [], "time": []}, "edge": {"target": [], "time": []}}, "mouseout": {"state": {"target": ["0", "0", "1", "2", "5", "0"], "time": [695, 1829, 2095, 2862, 4812, 4846]}, "edge": {"target": [], "time": []}}}, "displayed_time": "9.27", "trialTime": 13540, "trial_type": "mouselab-mdp", "trial_index": 87, "time_elapsed": 3116444, "internal_node_id": "0.0-4.0-5.0-10.0"}}, {"uniqueid": "w10806473:a27759384", "current_trial": 88, "dateTime": 1664558344497, "trialdata": {"revealed_states": [], "num_clicks_accrued": [0, 0, 0, 0, 0, 0, 0, 0, 0, 0, 0, 0, 0], "stateRewards": ["", 4, 8, 24, 24, 2, -4, 48, -24, -4, 8, -24, 24], "withholdReward": true, "trial_id": "mdp_932292142091", "block": "test3", "trialIndex": 75, "score": 40, "costs": -1, "simulationMode": [null, null, null], "rewards": [4, 8, 24], "path": ["0", "0", "1", "2", "4"], "rt": [3466, 77, 38], "actions": ["up", "up", "left"], "actionTimes": [4608, 5184, 5712], "queries": {"click": {"state": {"target": ["1", "2", "3", "4"], "time": [2271, 2592, 2918, 3815]}, "edge": {"target": [], "time": []}}, "mouseover": {"state": {"target": ["1", "2", "1", "2", "3", "4", "4"], "time": [1441, 1941, 2174, 2507, 2824, 3307, 3724]}, "edge": {"target": [], "time": []}}, "mouseout": {"state": {"target": ["0", "1", "2", "1", "2", "3", "2", "4", "4", "2"], "time": [707, 1574, 2107, 2457, 2774, 3241, 3291, 3357, 4041, 4074]}, "edge": {"target": [], "time": []}}}, "displayed_time": "9.14", "trialTime": 15688, "trial_type": "mouselab-mdp", "trial_index": 88, "time_elapsed": 3132163, "internal_node_id": "0.0-4.0-5.0-11.0"}}, {"uniqueid": "w10806473:a27759384", "current_trial": 89, "dateTime": 1664558360289, "trialdata": {"revealed_states": [], "num_clicks_accrued": [0, 0, 0, 0, 0, 0, 0, 0, 0, 0, 0, 0, 0], "stateRewards": ["", -4, 8, -24, 48, 2, -8, 24, 48, 2, -8, -24, -48], "withholdReward": true, "trial_id": "mdp_493778446445", "block": "test3", "trialIndex": 76, "score": 56, "costs": -1, "simulationMode": [null, null, null], "rewards": [-4, 8, 48], "path": ["0", "0", "1", "2", "4"], "rt": [4226, 82, 131], "actions": ["up", "up", "left"], "actionTimes": [6735, 7303, 7935], "queries": {"click": {"state": {"target": ["1", "2", "3", "4"], "time": [4193, 4848, 5560, 6145]}, "edge": {"target": [], "time": []}}, "mouseover": {"state": {"target": ["1", "2", "3", "3", "4"], "time": [3604, 4737, 5137, 5434, 5937]}, "edge": {"target": [], "time": []}}, "mouseout": {"state": {"target": ["10", "9", "0", "1", "2", "3", "3", "2", "4", "9", "8", "8"], "time": [2137, 2187, 2954, 4720, 5104, 5204, 5837, 5904, 6404, 8804, 14771, 14987]}, "edge": {"target": [], "time": []}}}, "displayed_time": "10.51", "trialTime": 15759, "trial_type": "mouselab-mdp", "trial_index": 89, "time_elapsed": 3147955, "internal_node_id": "0.0-4.0-5.0-12.0"}}, {"uniqueid": "w10806473:a27759384", "current_trial": 90, "dateTime": 1664558373441, "trialdata": {"revealed_states": [], "num_clicks_accrued": [0, 0, 0, 0, 0, 0, 0, 0, 0, 0, 0, 0, 0], "stateRewards": ["", -4, -8, 48, -48, 2, -4, 48, -24, 2, -8, -48, -48], "withholdReward": true, "trial_id": "mdp_624553692913", "block": "test3", "trialIndex": 77, "score": 50, "costs": -1, "simulationMode": [null, null, null], "rewards": [2, -4, 48], "path": ["0", "0", "5", "6", "7"], "rt": [2571, 47, 218], "actions": ["right", "right", "up"], "actionTimes": [6406, 6942, 7646], "queries": {"click": {"state": {"target": ["5", "6", "8", "7"], "time": [4404, 4770, 5065, 5629]}, "edge": {"target": [], "time": []}}, "mouseover": {"state": {"target": ["5", "6", "8", "7"], "time": [4278, 4661, 4978, 5411]}, "edge": {"target": [], "time": []}}, "mouseout": {"state": {"target": ["5", "0", "5", "6", "8", "6", "7"], "time": [3478, 4178, 4628, 4944, 5328, 5394, 5861]}, "edge": {"target": [], "time": []}}}, "displayed_time": "12.84", "trialTime": 13118, "trial_type": "mouselab-mdp", "trial_index": 90, "time_elapsed": 3161107, "internal_node_id": "0.0-4.0-5.0-13.0"}}, {"uniqueid": "w10806473:a27759384", "current_trial": 91, "dateTime": 1664558386553, "trialdata": {"revealed_states": [], "num_clicks_accrued": [0, 0, 0, 0, 0, 0, 0, 0, 0, 0, 0, 0, 0], "stateRewards": ["", -4, -4, 24, 48, 4, -4, -24, 24, -4, -4, 24, 24], "withholdReward": true, "trial_id": "mdp_357725458160", "block": "test3", "trialIndex": 78, "score": 19, "costs": -2, "simulationMode": [null, null, null], "rewards": [-4, -4, 24], "path": ["0", "0", "9", "10", "12"], "rt": [4940, 61, 174], "actions": ["left", "left", "down"], "actionTimes": [5681, 6257, 6921], "queries": {"click": {"state": {"target": ["9", "10", "11", "12", "5", "6", "8", "7"], "time": [1450, 1930, 2280, 2788, 3948, 4297, 4582, 5070]}, "edge": {"target": [], "time": []}}, "mouseover": {"state": {"target": ["0", "9", "10", "11", "12", "5", "6", "8", "7"], "time": [1046, 1396, 1812, 2179, 2662, 3829, 4229, 4529, 4912]}, "edge": {"target": [], "time": []}}, "mouseout": {"state": {"target": ["0", "0", "9", "10", "11", "10", "12", "9", "5", "6", "8", "6", "7"], "time": [629, 1246, 1762, 2129, 2479, 2579, 3146, 3529, 4196, 4479, 4796, 4879, 5462]}, "edge": {"target": [], "time": []}}}, "displayed_time": "9.75", "trialTime": 13081, "trial_type": "mouselab-mdp", "trial_index": 91, "time_elapsed": 3174219, "internal_node_id": "0.0-4.0-5.0-14.0"}}, {"uniqueid": "w10806473:a27759384", "current_trial": 92, "dateTime": 1664558400873, "trialdata": {"revealed_states": [], "num_clicks_accrued": [0, 0, 0, 0, 0, 0, 0, 0, 0, 0, 0, 0, 0], "stateRewards": ["", -4, 4, -24, -24, -4, -8, 24, 48, 4, -4, 24, 48], "withholdReward": true, "trial_id": "mdp_175395325183", "block": "test3", "trialIndex": 79, "score": 39, "costs": -2, "simulationMode": [null, null, null], "rewards": [-4, -8, 48], "path": ["0", "0", "5", "6", "8"], "rt": [5104, 145, 48], "actions": ["right", "right", "down"], "actionTimes": [5878, 6510, 7046], "queries": {"click": {"state": {"target": ["1", "2", "4", "3", "5", "6", "7", "8"], "time": [1329, 1694, 2062, 2689, 3387, 3775, 4073, 4550]}, "edge": {"target": [], "time": []}}, "mouseover": {"state": {"target": ["1", "2", "4", "3", "5", "6", "7", "8"], "time": [1248, 1632, 1981, 2598, 3098, 3681, 3998, 4398]}, "edge": {"target": [], "time": []}}, "mouseout": {"state": {"target": ["6", "5", "1", "2", "4", "2", "3", "5", "6", "7", "6", "8"], "time": [401, 531, 1565, 1914, 2315, 2464, 2915, 3631, 3948, 4265, 4348, 4815]}, "edge": {"target": [], "time": []}}}, "displayed_time": "8.77", "trialTime": 14285, "trial_type": "mouselab-mdp", "trial_index": 92, "time_elapsed": 3188539, "internal_node_id": "0.0-4.0-5.0-15.0"}}, {"uniqueid": "w10806473:a27759384", "current_trial": 93, "dateTime": 1664558415640, "trialdata": {"revealed_states": [], "num_clicks_accrued": [0, 0, 0, 0, 0, 0, 0, 0, 0, 0, 0, 0, 0], "stateRewards": ["", 4, 4, -48, -48, 4, 4, -24, -24, -4, 8, -48, 24], "withholdReward": true, "trial_id": "mdp_669785455541", "block": "test3", "trialIndex": 80, "score": 30.25, "costs": -2.75, "simulationMode": [null, null, null], "rewards": [-4, 8, 24], "path": ["0", "0", "9", "10", "12"], "rt": [8106, 5, 240], "actions": ["left", "left", "down"], "actionTimes": [10624, 11136, 11887], "queries": {"click": {"state": {"target": ["5", "6", "8", "7", "9", "10", "11", "12", "2", "3", "4"], "time": [3807, 4199, 4540, 5052, 6045, 6473, 6816, 7314, 8409, 8832, 9264]}, "edge": {"target": [], "time": []}}, "mouseover": {"state": {"target": ["5", "6", "8", "7", "9", "10", "11", "12", "1", "2", "3", "4", "1"], "time": [3730, 4147, 4464, 4947, 5531, 6397, 6747, 7214, 8047, 8364, 8747, 9181, 9614]}, "edge": {"target": [], "time": []}}, "mouseout": {"state": {"target": ["0", "5", "6", "8", "6", "7", "9", "10", "11", "10", "12", "9", "1", "2", "3", "2", "4", "1"], "time": [2397, 4097, 4397, 4764, 4880, 5414, 6314, 6680, 7047, 7147, 7614, 7791, 8281, 8664, 9064, 9147, 9547, 10664]}, "edge": {"target": [], "time": []}}}, "displayed_time": "12.38", "trialTime": 14735, "trial_type": "mouselab-mdp", "trial_index": 93, "time_elapsed": 3203306, "internal_node_id": "0.0-4.0-5.0-16.0"}}, {"uniqueid": "w10806473:a27759384", "current_trial": 94, "dateTime": 1664558429104, "trialdata": {"revealed_states": [], "num_clicks_accrued": [0, 0, 0, 0, 0, 0, 0, 0, 0, 0, 0, 0, 0], "stateRewards": ["", 4, -4, 48, -48, 4, -4, 24, -24, 4, 8, -24, -48], "withholdReward": true, "trial_id": "mdp_433630527224", "block": "test3", "trialIndex": 81, "score": 51, "costs": -2, "simulationMode": [null, null, null], "rewards": [4, -4, 48], "path": ["0", "0", "1", "2", "3"], "rt": [8551, 260, 117], "actions": ["up", "up", "right"], "actionTimes": [9660, 10420, 11028], "queries": {"click": {"state": {"target": ["9", "10", "11", "12", "6", "5", "8", "7"], "time": [5660, 6053, 6345, 6777, 7492, 7990, 8602, 9083]}, "edge": {"target": [], "time": []}}, "mouseover": {"state": {"target": ["9", "10", "11", "12", "6", "5", "8", "7"], "time": [5426, 5960, 6260, 6643, 7310, 7927, 8510, 9010]}, "edge": {"target": [], "time": []}}, "mouseout": {"state": {"target": ["0", "9", "10", "11", "10", "12", "6", "5", "8", "6", "7", "0"], "time": [1043, 5893, 6210, 6527, 6610, 6993, 7877, 8293, 8810, 8927, 10193, 12544]}, "edge": {"target": [], "time": []}}}, "displayed_time": "11.54", "trialTime": 13428, "trial_type": "mouselab-mdp", "trial_index": 94, "time_elapsed": 3216770, "internal_node_id": "0.0-4.0-5.0-17.0"}}, {"uniqueid": "w10806473:a27759384", "current_trial": 95, "dateTime": 1664558439440, "trialdata": {"revealed_states": [], "num_clicks_accrued": [0, 0, 0, 0, 0, 0, 0, 0, 0, 0, 0, 0, 0], "stateRewards": ["", 4, -8, 48, -24, -4, 4, 24, 24, -2, -4, 24, 24], "withholdReward": true, "trial_id": "mdp_542168715839", "block": "test3", "trialIndex": 82, "score": 48, "costs": -1, "simulationMode": [null, null, null], "rewards": [4, -8, 48], "path": ["0", "0", "1", "2", "3"], "rt": [2674, 62, 95], "actions": ["up", "up", "right"], "actionTimes": [3335, 3896, 4495], "queries": {"click": {"state": {"target": ["1", "2", "4", "3"], "time": [1561, 1906, 2167, 2583]}, "edge": {"target": [], "time": []}}, "mouseover": {"state": {"target": ["1", "2", "4", "3"], "time": [1449, 1832, 2099, 2516]}, "edge": {"target": [], "time": []}}, "mouseout": {"state": {"target": ["0", "1", "2", "4", "2", "3", "1"], "time": [1282, 1766, 2082, 2416, 2482, 2866, 3833]}, "edge": {"target": [], "time": []}}}, "displayed_time": "9.66", "trialTime": 10303, "trial_type": "mouselab-mdp", "trial_index": 95, "time_elapsed": 3227106, "internal_node_id": "0.0-4.0-5.0-18.0"}}, {"uniqueid": "w10806473:a27759384", "current_trial": 96, "dateTime": 1664558452928, "trialdata": {"revealed_states": [], "num_clicks_accrued": [0, 0, 0, 0, 0, 0, 0, 0, 0, 0, 0, 0, 0], "stateRewards": ["", -2, -4, 48, -24, 2, -4, -24, -48, 2, 8, -48, -24], "withholdReward": false, "trial_id": "mdp_238243948191", "block": "test3", "trialIndex": 83, "score": 44.75, "costs": -2.25, "simulationMode": [null, null, null], "rewards": [-2, -4, 48], "path": ["0", "0", "1", "2", "3"], "rt": [6956, 9, 61], "actions": ["up", "up", "right"], "actionTimes": [8094, 8606, 9174], "queries": {"click": {"state": {"target": ["5", "6", "7", "8", "10", "11", "12", "4", "3"], "time": [2378, 2714, 3064, 4023, 5035, 5370, 5981, 6964, 7489]}, "edge": {"target": [], "time": []}}, "mouseover": {"state": {"target": ["5", "6", "7", "8", "8", "9", "10", "10", "11", "12", "9", "2", "4", "2", "3"], "time": [2162, 2629, 2979, 3729, 3946, 4446, 4479, 4962, 5