{"condition": 0, "counterbalance": 0, "assignmentId": "a76193330", "workerId": "w96566892", "hitId": "h54726455", "currenttrial": 965, "bonus": 0, "data": [{"uniqueid": "w96566892:a76193330", "current_trial": 0, "dateTime": 1664463931236, "trialdata": {"success": true, "trial_type": "fullscreen", "trial_index": 0, "time_elapsed": 17282, "internal_node_id": "0.0-0.0"}}, {"uniqueid": "w96566892:a76193330", "current_trial": 1, "dateTime": 1664463966678, "trialdata": {"view_history": [{"page_index": 0, "viewing_time": 35439}], "rt": 35439, "trial_id": "exp_instructions_distractor", "trial_type": "instructions", "trial_index": 1, "time_elapsed": 52724, "internal_node_id": "0.0-1.0"}}, {"uniqueid": "w96566892:a76193330", "current_trial": 2, "dateTime": 1664464002662, "trialdata": {"view_history": [{"page_index": 0, "viewing_time": 35982}], "rt": 35982, "trial_id": "color_game_instructions", "trial_type": "instructions", "trial_index": 2, "time_elapsed": 88708, "internal_node_id": "0.0-2.0"}}, {"uniqueid": "w96566892:a76193330", "current_trial": 3, "dateTime": 1664464022317, "trialdata": {"rt": 19653, "stimulus": "<h1> Get ready to start the game! </h1>\n\nThank you for reading the instructions. Get ready start with the first of 5 block(s) of this game.\n<br><br>\nIn this first block, you will complete 90 rounds of this game before moving on.\n<br><br>\nRemember, the better you perform, the bigger your bonus will be!\n<br><br>\n<div style='text-align: center;'>Press <code>space</code> to begin.</div>", "response": " ", "trial_id": "stroop_1_ready_1", "trial_type": "html-keyboard-response", "trial_index": 3, "time_elapsed": 108363, "internal_node_id": "0.0-3.0"}}, {"uniqueid": "w96566892:a76193330", "current_trial": 4, "dateTime": 1664464022908, "trialdata": {"rt": 589, "stimulus": "<p id='stroop-text' class='stroop-red'>BRAIN</p>", "response": "r", "stimulus-type": "unrelated", "word": "BRAIN", "color": "red", "correct_response": "r", "trial_id": "stroop-trial-1-unrelated-27", "trial_type": "html-keyboard-response", "trial_index": 4, "time_elapsed": 108954, "internal_node_id": "0.0-4.0-0.0"}}, {"uniqueid": "w96566892:a76193330", "current_trial": 5, "dateTime": 1664464023538, "trialdata": {"rt": 129, "stimulus": "<p id='stroop-text' class='stroop-yellow'>YELLOW</p>", "response": "g", "stimulus-type": "congruent", "word": "yellow", "color": "yellow", "correct_response": "y", "trial_id": "stroop-trial-1-congruent-18", "trial_type": "html-keyboard-response", "trial_index": 5, "time_elapsed": 109584, "internal_node_id": "0.0-4.0-1.0"}}, {"uniqueid": "w96566892:a76193330", "current_trial": 6, "dateTime": 1664464024371, "trialdata": {"rt": 330, "stimulus": "<p id='stroop-text' class='stroop-yellow'>YELLOW</p>", "response": "y", "stimulus-type": "congruent", "word": "yellow", "color": "yellow", "correct_response": "y", "trial_id": "stroop-trial-1-congruent-29", "trial_type": "html-keyboard-response", "trial_index": 6, "time_elapsed": 110416, "internal_node_id": "0.0-4.0-2.0"}}, {"uniqueid": "w96566892:a76193330", "current_trial": 7, "dateTime": 1664464026330, "trialdata": {"rt": 1458, "stimulus": "<p id='stroop-text' class='stroop-red'>RED</p>", "response": "r", "stimulus-type": "congruent", "word": "red", "color": "red", "correct_response": "r", "trial_id": "stroop-trial-1-congruent-8", "trial_type": "html-keyboard-response", "trial_index": 7, "time_elapsed": 112376, "internal_node_id": "0.0-4.0-3.0"}}, {"uniqueid": "w96566892:a76193330", "current_trial": 8, "dateTime": 1664464027941, "trialdata": {"rt": 1109, "stimulus": "<p id='stroop-text' class='stroop-green'>BLUE</p>", "response": "g", "stimulus-type": "incongruent", "word": "blue", "color": "green", "correct_response": "g", "trial_id": "stroop-trial-1-incongruent-14", "trial_type": "html-keyboard-response", "trial_index": 8, "time_elapsed": 113987, "internal_node_id": "0.0-4.0-4.0"}}, {"uniqueid": "w96566892:a76193330", "current_trial": 9, "dateTime": 1664464029005, "trialdata": {"rt": 561, "stimulus": "<p id='stroop-text' class='stroop-red'>RED</p>", "response": "r", "stimulus-type": "congruent", "word": "red", "color": "red", "correct_response": "r", "trial_id": "stroop-trial-1-congruent-3", "trial_type": "html-keyboard-response", "trial_index": 9, "time_elapsed": 115051, "internal_node_id": "0.0-4.0-5.0"}}, {"uniqueid": "w96566892:a76193330", "current_trial": 10, "dateTime": 1664464030093, "trialdata": {"rt": 587, "stimulus": "<p id='stroop-text' class='stroop-green'>RED</p>", "response": "g", "stimulus-type": "incongruent", "word": "red", "color": "green", "correct_response": "g", "trial_id": "stroop-trial-1-incongruent-9", "trial_type": "html-keyboard-response", "trial_index": 10, "time_elapsed": 116139, "internal_node_id": "0.0-4.0-6.0"}}, {"uniqueid": "w96566892:a76193330", "current_trial": 11, "dateTime": 1664464031159, "trialdata": {"rt": 564, "stimulus": "<p id='stroop-text' class='stroop-yellow'>YELLOW</p>", "response": "y", "stimulus-type": "congruent", "word": "yellow", "color": "yellow", "correct_response": "y", "trial_id": "stroop-trial-1-congruent-9", "trial_type": "html-keyboard-response", "trial_index": 11, "time_elapsed": 117205, "internal_node_id": "0.0-4.0-7.0"}}, {"uniqueid": "w96566892:a76193330", "current_trial": 12, "dateTime": 1664464032183, "trialdata": {"rt": 523, "stimulus": "<p id='stroop-text' class='stroop-red'>CHAIR</p>", "response": "r", "stimulus-type": "unrelated", "word": "CHAIR", "color": "red", "correct_response": "r", "trial_id": "stroop-trial-1-unrelated-6", "trial_type": "html-keyboard-response", "trial_index": 12, "time_elapsed": 118229, "internal_node_id": "0.0-4.0-8.0"}}, {"uniqueid": "w96566892:a76193330", "current_trial": 13, "dateTime": 1664464033121, "trialdata": {"rt": 436, "stimulus": "<p id='stroop-text' class='stroop-red'>CHAIR</p>", "response": "r", "stimulus-type": "unrelated", "word": "CHAIR", "color": "red", "correct_response": "r", "trial_id": "stroop-trial-1-unrelated-29", "trial_type": "html-keyboard-response", "trial_index": 13, "time_elapsed": 119167, "internal_node_id": "0.0-4.0-9.0"}}, {"uniqueid": "w96566892:a76193330", "current_trial": 14, "dateTime": 1664464034237, "trialdata": {"rt": 615, "stimulus": "<p id='stroop-text' class='stroop-green'>RED</p>", "response": "g", "stimulus-type": "incongruent", "word": "red", "color": "green", "correct_response": "g", "trial_id": "stroop-trial-1-incongruent-7", "trial_type": "html-keyboard-response", "trial_index": 14, "time_elapsed": 120283, "internal_node_id": "0.0-4.0-10.0"}}, {"uniqueid": "w96566892:a76193330", "current_trial": 15, "dateTime": 1664464035186, "trialdata": {"rt": 446, "stimulus": "<p id='stroop-text' class='stroop-red'>RED</p>", "response": "r", "stimulus-type": "congruent", "word": "red", "color": "red", "correct_response": "r", "trial_id": "stroop-trial-1-congruent-14", "trial_type": "html-keyboard-response", "trial_index": 15, "time_elapsed": 121231, "internal_node_id": "0.0-4.0-11.0"}}, {"uniqueid": "w96566892:a76193330", "current_trial": 16, "dateTime": 1664464036063, "trialdata": {"rt": 376, "stimulus": "<p id='stroop-text' class='stroop-green'>GREEN</p>", "response": "g", "stimulus-type": "congruent", "word": "green", "color": "green", "correct_response": "g", "trial_id": "stroop-trial-1-congruent-2", "trial_type": "html-keyboard-response", "trial_index": 16, "time_elapsed": 122109, "internal_node_id": "0.0-4.0-12.0"}}, {"uniqueid": "w96566892:a76193330", "current_trial": 17, "dateTime": 1664464037109, "trialdata": {"rt": 544, "stimulus": "<p id='stroop-text' class='stroop-yellow'>YELLOW</p>", "response": "y", "stimulus-type": "congruent", "word": "yellow", "color": "yellow", "correct_response": "y", "trial_id": "stroop-trial-1-congruent-27", "trial_type": "html-keyboard-response", "trial_index": 17, "time_elapsed": 123155, "internal_node_id": "0.0-4.0-13.0"}}, {"uniqueid": "w96566892:a76193330", "current_trial": 18, "dateTime": 1664464038137, "trialdata": {"rt": 527, "stimulus": "<p id='stroop-text' class='stroop-green'>GREEN</p>", "response": "g", "stimulus-type": "congruent", "word": "green", "color": "green", "correct_response": "g", "trial_id": "stroop-trial-1-congruent-20", "trial_type": "html-keyboard-response", "trial_index": 18, "time_elapsed": 124183, "internal_node_id": "0.0-4.0-14.0"}}, {"uniqueid": "w96566892:a76193330", "current_trial": 19, "dateTime": 1664464039071, "trialdata": {"rt": 432, "stimulus": "<p id='stroop-text' class='stroop-green'>STONE</p>", "response": "g", "stimulus-type": "unrelated", "word": "STONE", "color": "green", "correct_response": "g", "trial_id": "stroop-trial-1-unrelated-18", "trial_type": "html-keyboard-response", "trial_index": 19, "time_elapsed": 125117, "internal_node_id": "0.0-4.0-15.0"}}, {"uniqueid": "w96566892:a76193330", "current_trial": 20, "dateTime": 1664464039962, "trialdata": {"rt": 389, "stimulus": "<p id='stroop-text' class='stroop-blue'>BLUE</p>", "response": "b", "stimulus-type": "congruent", "word": "blue", "color": "blue", "correct_response": "b", "trial_id": "stroop-trial-1-congruent-22", "trial_type": "html-keyboard-response", "trial_index": 20, "time_elapsed": 126007, "internal_node_id": "0.0-4.0-16.0"}}, {"uniqueid": "w96566892:a76193330", "current_trial": 21, "dateTime": 1664464041057, "trialdata": {"rt": 595, "stimulus": "<p id='stroop-text' class='stroop-yellow'>YELLOW</p>", "response": "y", "stimulus-type": "congruent", "word": "yellow", "color": "yellow", "correct_response": "y", "trial_id": "stroop-trial-1-congruent-16", "trial_type": "html-keyboard-response", "trial_index": 21, "time_elapsed": 127102, "internal_node_id": "0.0-4.0-17.0"}}, {"uniqueid": "w96566892:a76193330", "current_trial": 22, "dateTime": 1664464042002, "trialdata": {"rt": 443, "stimulus": "<p id='stroop-text' class='stroop-red'>RED</p>", "response": "r", "stimulus-type": "congruent", "word": "red", "color": "red", "correct_response": "r", "trial_id": "stroop-trial-1-congruent-7", "trial_type": "html-keyboard-response", "trial_index": 22, "time_elapsed": 128047, "internal_node_id": "0.0-4.0-18.0"}}, {"uniqueid": "w96566892:a76193330", "current_trial": 23, "dateTime": 1664464043304, "trialdata": {"rt": 802, "stimulus": "<p id='stroop-text' class='stroop-blue'>YELLOW</p>", "response": "g", "stimulus-type": "incongruent", "word": "yellow", "color": "blue", "correct_response": "b", "trial_id": "stroop-trial-1-incongruent-23", "trial_type": "html-keyboard-response", "trial_index": 23, "time_elapsed": 129350, "internal_node_id": "0.0-4.0-19.0"}}, {"uniqueid": "w96566892:a76193330", "current_trial": 24, "dateTime": 1664464045177, "trialdata": {"rt": 1372, "stimulus": "<p id='stroop-text' class='stroop-green'>GREEN</p>", "response": "g", "stimulus-type": "congruent", "word": "green", "color": "green", "correct_response": "g", "trial_id": "stroop-trial-1-congruent-24", "trial_type": "html-keyboard-response", "trial_index": 24, "time_elapsed": 131223, "internal_node_id": "0.0-4.0-20.0"}}, {"uniqueid": "w96566892:a76193330", "current_trial": 25, "dateTime": 1664464046179, "trialdata": {"rt": 500, "stimulus": "<p id='stroop-text' class='stroop-red'>BOAT</p>", "response": "r", "stimulus-type": "unrelated", "word": "BOAT", "color": "red", "correct_response": "r", "trial_id": "stroop-trial-1-unrelated-20", "trial_type": "html-keyboard-response", "trial_index": 25, "time_elapsed": 132225, "internal_node_id": "0.0-4.0-21.0"}}, {"uniqueid": "w96566892:a76193330", "current_trial": 26, "dateTime": 1664464047288, "trialdata": {"rt": 607, "stimulus": "<p id='stroop-text' class='stroop-green'>BRIDGE</p>", "response": "g", "stimulus-type": "unrelated", "word": "BRIDGE", "color": "green", "correct_response": "g", "trial_id": "stroop-trial-1-unrelated-11", "trial_type": "html-keyboard-response", "trial_index": 26, "time_elapsed": 133334, "internal_node_id": "0.0-4.0-22.0"}}, {"uniqueid": "w96566892:a76193330", "current_trial": 27, "dateTime": 1664464048404, "trialdata": {"rt": 615, "stimulus": "<p id='stroop-text' class='stroop-red'>RED</p>", "response": "r", "stimulus-type": "congruent", "word": "red", "color": "red", "correct_response": "r", "trial_id": "stroop-trial-1-congruent-13", "trial_type": "html-keyboard-response", "trial_index": 27, "time_elapsed": 134450, "internal_node_id": "0.0-4.0-23.0"}}, {"uniqueid": "w96566892:a76193330", "current_trial": 28, "dateTime": 1664464049290, "trialdata": {"rt": 385, "stimulus": "<p id='stroop-text' class='stroop-green'>YELLOW</p>", "response": "g", "stimulus-type": "incongruent", "word": "yellow", "color": "green", "correct_response": "g", "trial_id": "stroop-trial-1-incongruent-22", "trial_type": "html-keyboard-response", "trial_index": 28, "time_elapsed": 135336, "internal_node_id": "0.0-4.0-24.0"}}, {"uniqueid": "w96566892:a76193330", "current_trial": 29, "dateTime": 1664464050291, "trialdata": {"rt": 498, "stimulus": "<p id='stroop-text' class='stroop-red'>BLUE</p>", "response": "r", "stimulus-type": "incongruent", "word": "blue", "color": "red", "correct_response": "r", "trial_id": "stroop-trial-1-incongruent-16", "trial_type": "html-keyboard-response", "trial_index": 29, "time_elapsed": 136336, "internal_node_id": "0.0-4.0-25.0"}}, {"uniqueid": "w96566892:a76193330", "current_trial": 30, "dateTime": 1664464051228, "trialdata": {"rt": 436, "stimulus": "<p id='stroop-text' class='stroop-red'>BLUE</p>", "response": "r", "stimulus-type": "incongruent", "word": "blue", "color": "red", "correct_response": "r", "trial_id": "stroop-trial-1-incongruent-6", "trial_type": "html-keyboard-response", "trial_index": 30, "time_elapsed": 137273, "internal_node_id": "0.0-4.0-26.0"}}, {"uniqueid": "w96566892:a76193330", "current_trial": 31, "dateTime": 1664464052302, "trialdata": {"rt": 572, "stimulus": "<p id='stroop-text' class='stroop-green'>WINDOW</p>", "response": "g", "stimulus-type": "unrelated", "word": "WINDOW", "color": "green", "correct_response": "g", "trial_id": "stroop-trial-1-unrelated-23", "trial_type": "html-keyboard-response", "trial_index": 31, "time_elapsed": 138348, "internal_node_id": "0.0-4.0-27.0"}}, {"uniqueid": "w96566892:a76193330", "current_trial": 32, "dateTime": 1664464053516, "trialdata": {"rt": 712, "stimulus": "<p id='stroop-text' class='stroop-blue'>SHIP</p>", "response": "b", "stimulus-type": "unrelated", "word": "SHIP", "color": "blue", "correct_response": "b", "trial_id": "stroop-trial-1-unrelated-12", "trial_type": "html-keyboard-response", "trial_index": 32, "time_elapsed": 139562, "internal_node_id": "0.0-4.0-28.0"}}, {"uniqueid": "w96566892:a76193330", "current_trial": 33, "dateTime": 1664464054414, "trialdata": {"rt": 397, "stimulus": "<p id='stroop-text' class='stroop-blue'>MONKEY</p>", "response": "b", "stimulus-type": "unrelated", "word": "MONKEY", "color": "blue", "correct_response": "b", "trial_id": "stroop-trial-1-unrelated-30", "trial_type": "html-keyboard-response", "trial_index": 33, "time_elapsed": 140460, "internal_node_id": "0.0-4.0-29.0"}}, {"uniqueid": "w96566892:a76193330", "current_trial": 34, "dateTime": 1664464055329, "trialdata": {"rt": 411, "stimulus": "<p id='stroop-text' class='stroop-blue'>STONE</p>", "response": "b", "stimulus-type": "unrelated", "word": "STONE", "color": "blue", "correct_response": "b", "trial_id": "stroop-trial-1-unrelated-17", "trial_type": "html-keyboard-response", "trial_index": 34, "time_elapsed": 141374, "internal_node_id": "0.0-4.0-30.0"}}, {"uniqueid": "w96566892:a76193330", "current_trial": 35, "dateTime": 1664464056372, "trialdata": {"rt": 543, "stimulus": "<p id='stroop-text' class='stroop-blue'>YELLOW</p>", "response": "b", "stimulus-type": "incongruent", "word": "yellow", "color": "blue", "correct_response": "b", "trial_id": "stroop-trial-1-incongruent-11", "trial_type": "html-keyboard-response", "trial_index": 35, "time_elapsed": 142418, "internal_node_id": "0.0-4.0-31.0"}}, {"uniqueid": "w96566892:a76193330", "current_trial": 36, "dateTime": 1664464057348, "trialdata": {"rt": 475, "stimulus": "<p id='stroop-text' class='stroop-yellow'>BLUE</p>", "response": "y", "stimulus-type": "incongruent", "word": "blue", "color": "yellow", "correct_response": "y", "trial_id": "stroop-trial-1-incongruent-2", "trial_type": "html-keyboard-response", "trial_index": 36, "time_elapsed": 143394, "internal_node_id": "0.0-4.0-32.0"}}, {"uniqueid": "w96566892:a76193330", "current_trial": 37, "dateTime": 1664464058239, "trialdata": {"rt": 389, "stimulus": "<p id='stroop-text' class='stroop-blue'>GREEN</p>", "response": "b", "stimulus-type": "incongruent", "word": "green", "color": "blue", "correct_response": "b", "trial_id": "stroop-trial-1-incongruent-27", "trial_type": "html-keyboard-response", "trial_index": 37, "time_elapsed": 144285, "internal_node_id": "0.0-4.0-33.0"}}, {"uniqueid": "w96566892:a76193330", "current_trial": 38, "dateTime": 1664464059249, "trialdata": {"rt": 509, "stimulus": "<p id='stroop-text' class='stroop-green'>BLUE</p>", "response": "g", "stimulus-type": "incongruent", "word": "blue", "color": "green", "correct_response": "g", "trial_id": "stroop-trial-1-incongruent-15", "trial_type": "html-keyboard-response", "trial_index": 38, "time_elapsed": 145295, "internal_node_id": "0.0-4.0-34.0"}}, {"uniqueid": "w96566892:a76193330", "current_trial": 39, "dateTime": 1664464060159, "trialdata": {"rt": 408, "stimulus": "<p id='stroop-text' class='stroop-red'>YELLOW</p>", "response": "r", "stimulus-type": "incongruent", "word": "yellow", "color": "red", "correct_response": "r", "trial_id": "stroop-trial-1-incongruent-25", "trial_type": "html-keyboard-response", "trial_index": 39, "time_elapsed": 146205, "internal_node_id": "0.0-4.0-35.0"}}, {"uniqueid": "w96566892:a76193330", "current_trial": 40, "dateTime": 1664464061262, "trialdata": {"rt": 601, "stimulus": "<p id='stroop-text' class='stroop-yellow'>GREEN</p>", "response": "g", "stimulus-type": "incongruent", "word": "green", "color": "yellow", "correct_response": "y", "trial_id": "stroop-trial-1-incongruent-17", "trial_type": "html-keyboard-response", "trial_index": 40, "time_elapsed": 147308, "internal_node_id": "0.0-4.0-36.0"}}, {"uniqueid": "w96566892:a76193330", "current_trial": 41, "dateTime": 1664464062380, "trialdata": {"rt": 617, "stimulus": "<p id='stroop-text' class='stroop-green'>BRAIN</p>", "response": "g", "stimulus-type": "unrelated", "word": "BRAIN", "color": "green", "correct_response": "g", "trial_id": "stroop-trial-1-unrelated-9", "trial_type": "html-keyboard-response", "trial_index": 41, "time_elapsed": 148426, "internal_node_id": "0.0-4.0-37.0"}}, {"uniqueid": "w96566892:a76193330", "current_trial": 42, "dateTime": 1664464063484, "trialdata": {"rt": 602, "stimulus": "<p id='stroop-text' class='stroop-red'>BRIDGE</p>", "response": "r", "stimulus-type": "unrelated", "word": "BRIDGE", "color": "red", "correct_response": "r", "trial_id": "stroop-trial-1-unrelated-15", "trial_type": "html-keyboard-response", "trial_index": 42, "time_elapsed": 149529, "internal_node_id": "0.0-4.0-38.0"}}, {"uniqueid": "w96566892:a76193330", "current_trial": 43, "dateTime": 1664464064699, "trialdata": {"rt": 714, "stimulus": "<p id='stroop-text' class='stroop-yellow'>GREEN</p>", "response": "y", "stimulus-type": "incongruent", "word": "green", "color": "yellow", "correct_response": "y", "trial_id": "stroop-trial-1-incongruent-19", "trial_type": "html-keyboard-response", "trial_index": 43, "time_elapsed": 150745, "internal_node_id": "0.0-4.0-39.0"}}, {"uniqueid": "w96566892:a76193330", "current_trial": 44, "dateTime": 1664464065717, "trialdata": {"rt": 517, "stimulus": "<p id='stroop-text' class='stroop-red'>STONE</p>", "response": "r", "stimulus-type": "unrelated", "word": "STONE", "color": "red", "correct_response": "r", "trial_id": "stroop-trial-1-unrelated-25", "trial_type": "html-keyboard-response", "trial_index": 44, "time_elapsed": 151762, "internal_node_id": "0.0-4.0-40.0"}}, {"uniqueid": "w96566892:a76193330", "current_trial": 45, "dateTime": 1664464066786, "trialdata": {"rt": 567, "stimulus": "<p id='stroop-text' class='stroop-red'>RED</p>", "response": "r", "stimulus-type": "congruent", "word": "red", "color": "red", "correct_response": "r", "trial_id": "stroop-trial-1-congruent-28", "trial_type": "html-keyboard-response", "trial_index": 45, "time_elapsed": 152832, "internal_node_id": "0.0-4.0-41.0"}}, {"uniqueid": "w96566892:a76193330", "current_trial": 46, "dateTime": 1664464067693, "trialdata": {"rt": 405, "stimulus": "<p id='stroop-text' class='stroop-red'>BOAT</p>", "response": "r", "stimulus-type": "unrelated", "word": "BOAT", "color": "red", "correct_response": "r", "trial_id": "stroop-trial-1-unrelated-13", "trial_type": "html-keyboard-response", "trial_index": 46, "time_elapsed": 153739, "internal_node_id": "0.0-4.0-42.0"}}, {"uniqueid": "w96566892:a76193330", "current_trial": 47, "dateTime": 1664464068809, "trialdata": {"rt": 614, "stimulus": "<p id='stroop-text' class='stroop-blue'>STONE</p>", "response": "b", "stimulus-type": "unrelated", "word": "STONE", "color": "blue", "correct_response": "b", "trial_id": "stroop-trial-1-unrelated-7", "trial_type": "html-keyboard-response", "trial_index": 47, "time_elapsed": 154855, "internal_node_id": "0.0-4.0-43.0"}}, {"uniqueid": "w96566892:a76193330", "current_trial": 48, "dateTime": 1664464069861, "trialdata": {"rt": 550, "stimulus": "<p id='stroop-text' class='stroop-yellow'>BRIDGE</p>", "response": "y", "stimulus-type": "unrelated", "word": "BRIDGE", "color": "yellow", "correct_response": "y", "trial_id": "stroop-trial-1-unrelated-4", "trial_type": "html-keyboard-response", "trial_index": 48, "time_elapsed": 155907, "internal_node_id": "0.0-4.0-44.0"}}, {"uniqueid": "w96566892:a76193330", "current_trial": 49, "dateTime": 1664464070909, "trialdata": {"rt": 546, "stimulus": "<p id='stroop-text' class='stroop-red'>YELLOW</p>", "response": "r", "stimulus-type": "incongruent", "word": "yellow", "color": "red", "correct_response": "r", "trial_id": "stroop-trial-1-incongruent-12", "trial_type": "html-keyboard-response", "trial_index": 49, "time_elapsed": 156955, "internal_node_id": "0.0-4.0-45.0"}}, {"uniqueid": "w96566892:a76193330", "current_trial": 50, "dateTime": 1664464071892, "trialdata": {"rt": 481, "stimulus": "<p id='stroop-text' class='stroop-red'>FORK</p>", "response": "r", "stimulus-type": "unrelated", "word": "FORK", "color": "red", "correct_response": "r", "trial_id": "stroop-trial-1-unrelated-5", "trial_type": "html-keyboard-response", "trial_index": 50, "time_elapsed": 157937, "internal_node_id": "0.0-4.0-46.0"}}, {"uniqueid": "w96566892:a76193330", "current_trial": 51, "dateTime": 1664464072893, "trialdata": {"rt": 498, "stimulus": "<p id='stroop-text' class='stroop-yellow'>YELLOW</p>", "response": "y", "stimulus-type": "congruent", "word": "yellow", "color": "yellow", "correct_response": "y", "trial_id": "stroop-trial-1-congruent-11", "trial_type": "html-keyboard-response", "trial_index": 51, "time_elapsed": 158938, "internal_node_id": "0.0-4.0-47.0"}}, {"uniqueid": "w96566892:a76193330", "current_trial": 52, "dateTime": 1664464073900, "trialdata": {"rt": 506, "stimulus": "<p id='stroop-text' class='stroop-yellow'>YELLOW</p>", "response": "y", "stimulus-type": "congruent", "word": "yellow", "color": "yellow", "correct_response": "y", "trial_id": "stroop-trial-1-congruent-25", "trial_type": "html-keyboard-response", "trial_index": 52, "time_elapsed": 159946, "internal_node_id": "0.0-4.0-48.0"}}, {"uniqueid": "w96566892:a76193330", "current_trial": 53, "dateTime": 1664464074942, "trialdata": {"rt": 540, "stimulus": "<p id='stroop-text' class='stroop-blue'>BLUE</p>", "response": "b", "stimulus-type": "congruent", "word": "blue", "color": "blue", "correct_response": "b", "trial_id": "stroop-trial-1-congruent-10", "trial_type": "html-keyboard-response", "trial_index": 53, "time_elapsed": 160988, "internal_node_id": "0.0-4.0-49.0"}}, {"uniqueid": "w96566892:a76193330", "current_trial": 54, "dateTime": 1664464075868, "trialdata": {"rt": 423, "stimulus": "<p id='stroop-text' class='stroop-red'>YELLOW</p>", "response": "r", "stimulus-type": "incongruent", "word": "yellow", "color": "red", "correct_response": "r", "trial_id": "stroop-trial-1-incongruent-21", "trial_type": "html-keyboard-response", "trial_index": 54, "time_elapsed": 161914, "internal_node_id": "0.0-4.0-50.0"}}, {"uniqueid": "w96566892:a76193330", "current_trial": 55, "dateTime": 1664464076890, "trialdata": {"rt": 520, "stimulus": "<p id='stroop-text' class='stroop-blue'>BRIDGE</p>", "response": "y", "stimulus-type": "unrelated", "word": "BRIDGE", "color": "blue", "correct_response": "b", "trial_id": "stroop-trial-1-unrelated-1", "trial_type": "html-keyboard-response", "trial_index": 55, "time_elapsed": 162934, "internal_node_id": "0.0-4.0-51.0"}}, {"uniqueid": "w96566892:a76193330", "current_trial": 56, "dateTime": 1664464077809, "trialdata": {"rt": 418, "stimulus": "<p id='stroop-text' class='stroop-yellow'>STONE</p>", "response": "y", "stimulus-type": "unrelated", "word": "STONE", "color": "yellow", "correct_response": "y", "trial_id": "stroop-trial-1-unrelated-3", "trial_type": "html-keyboard-response", "trial_index": 56, "time_elapsed": 163855, "internal_node_id": "0.0-4.0-52.0"}}, {"uniqueid": "w96566892:a76193330", "current_trial": 57, "dateTime": 1664464078873, "trialdata": {"rt": 562, "stimulus": "<p id='stroop-text' class='stroop-green'>WINDOW</p>", "response": "b", "stimulus-type": "unrelated", "word": "WINDOW", "color": "green", "correct_response": "g", "trial_id": "stroop-trial-1-unrelated-16", "trial_type": "html-keyboard-response", "trial_index": 57, "time_elapsed": 164919, "internal_node_id": "0.0-4.0-53.0"}}, {"uniqueid": "w96566892:a76193330", "current_trial": 58, "dateTime": 1664464079934, "trialdata": {"rt": 558, "stimulus": "<p id='stroop-text' class='stroop-red'>DOG</p>", "response": "r", "stimulus-type": "unrelated", "word": "DOG", "color": "red", "correct_response": "r", "trial_id": "stroop-trial-1-unrelated-24", "trial_type": "html-keyboard-response", "trial_index": 58, "time_elapsed": 165979, "internal_node_id": "0.0-4.0-54.0"}}, {"uniqueid": "w96566892:a76193330", "current_trial": 59, "dateTime": 1664464081088, "trialdata": {"rt": 651, "stimulus": "<p id='stroop-text' class='stroop-yellow'>BOTTLE</p>", "response": "y", "stimulus-type": "unrelated", "word": "BOTTLE", "color": "yellow", "correct_response": "y", "trial_id": "stroop-trial-1-unrelated-14", "trial_type": "html-keyboard-response", "trial_index": 59, "time_elapsed": 167133, "internal_node_id": "0.0-4.0-55.0"}}, {"uniqueid": "w96566892:a76193330", "current_trial": 60, "dateTime": 1664464082107, "trialdata": {"rt": 517, "stimulus": "<p id='stroop-text' class='stroop-yellow'>YELLOW</p>", "response": "y", "stimulus-type": "congruent", "word": "yellow", "color": "yellow", "correct_response": "y", "trial_id": "stroop-trial-1-congruent-17", "trial_type": "html-keyboard-response", "trial_index": 60, "time_elapsed": 168153, "internal_node_id": "0.0-4.0-56.0"}}, {"uniqueid": "w96566892:a76193330", "current_trial": 61, "dateTime": 1664464083249, "trialdata": {"rt": 641, "stimulus": "<p id='stroop-text' class='stroop-blue'>BLUE</p>", "response": "b", "stimulus-type": "congruent", "word": "blue", "color": "blue", "correct_response": "b", "trial_id": "stroop-trial-1-congruent-21", "trial_type": "html-keyboard-response", "trial_index": 61, "time_elapsed": 169295, "internal_node_id": "0.0-4.0-57.0"}}, {"uniqueid": "w96566892:a76193330", "current_trial": 62, "dateTime": 1664464084437, "trialdata": {"rt": 686, "stimulus": "<p id='stroop-text' class='stroop-yellow'>YELLOW</p>", "response": "y", "stimulus-type": "congruent", "word": "yellow", "color": "yellow", "correct_response": "y", "trial_id": "stroop-trial-1-congruent-19", "trial_type": "html-keyboard-response", "trial_index": 62, "time_elapsed": 170483, "internal_node_id": "0.0-4.0-58.0"}}, {"uniqueid": "w96566892:a76193330", "current_trial": 63, "dateTime": 1664464086161, "trialdata": {"rt": 1222, "stimulus": "<p id='stroop-text' class='stroop-yellow'>GREEN</p>", "response": "y", "stimulus-type": "incongruent", "word": "green", "color": "yellow", "correct_response": "y", "trial_id": "stroop-trial-1-incongruent-5", "trial_type": "html-keyboard-response", "trial_index": 63, "time_elapsed": 172207, "internal_node_id": "0.0-4.0-59.0"}}, {"uniqueid": "w96566892:a76193330", "current_trial": 64, "dateTime": 1664464087431, "trialdata": {"rt": 769, "stimulus": "<p id='stroop-text' class='stroop-blue'>YELLOW</p>", "response": "b", "stimulus-type": "incongruent", "word": "yellow", "color": "blue", "correct_response": "b", "trial_id": "stroop-trial-1-incongruent-8", "trial_type": "html-keyboard-response", "trial_index": 64, "time_elapsed": 173477, "internal_node_id": "0.0-4.0-60.0"}}, {"uniqueid": "w96566892:a76193330", "current_trial": 65, "dateTime": 1664464088620, "trialdata": {"rt": 687, "stimulus": "<p id='stroop-text' class='stroop-yellow'>YELLOW</p>", "response": "y", "stimulus-type": "congruent", "word": "yellow", "color": "yellow", "correct_response": "y", "trial_id": "stroop-trial-1-congruent-4", "trial_type": "html-keyboard-response", "trial_index": 65, "time_elapsed": 174665, "internal_node_id": "0.0-4.0-61.0"}}, {"uniqueid": "w96566892:a76193330", "current_trial": 66, "dateTime": 1664464089547, "trialdata": {"rt": 426, "stimulus": "<p id='stroop-text' class='stroop-blue'>YELLOW</p>", "response": "b", "stimulus-type": "incongruent", "word": "yellow", "color": "blue", "correct_response": "b", "trial_id": "stroop-trial-1-incongruent-20", "trial_type": "html-keyboard-response", "trial_index": 66, "time_elapsed": 175593, "internal_node_id": "0.0-4.0-62.0"}}, {"uniqueid": "w96566892:a76193330", "current_trial": 67, "dateTime": 1664464090591, "trialdata": {"rt": 542, "stimulus": "<p id='stroop-text' class='stroop-green'>BOTTLE</p>", "response": "g", "stimulus-type": "unrelated", "word": "BOTTLE", "color": "green", "correct_response": "g", "trial_id": "stroop-trial-1-unrelated-10", "trial_type": "html-keyboard-response", "trial_index": 67, "time_elapsed": 176637, "internal_node_id": "0.0-4.0-63.0"}}, {"uniqueid": "w96566892:a76193330", "current_trial": 68, "dateTime": 1664464091512, "trialdata": {"rt": 420, "stimulus": "<p id='stroop-text' class='stroop-green'>GREEN</p>", "response": "g", "stimulus-type": "congruent", "word": "green", "color": "green", "correct_response": "g", "trial_id": "stroop-trial-1-congruent-1", "trial_type": "html-keyboard-response", "trial_index": 68, "time_elapsed": 177558, "internal_node_id": "0.0-4.0-64.0"}}, {"uniqueid": "w96566892:a76193330", "current_trial": 69, "dateTime": 1664464092488, "trialdata": {"rt": 475, "stimulus": "<p id='stroop-text' class='stroop-green'>YELLOW</p>", "response": "g", "stimulus-type": "incongruent", "word": "yellow", "color": "green", "correct_response": "g", "trial_id": "stroop-trial-1-incongruent-28", "trial_type": "html-keyboard-response", "trial_index": 69, "time_elapsed": 178534, "internal_node_id": "0.0-4.0-65.0"}}, {"uniqueid": "w96566892:a76193330", "current_trial": 70, "dateTime": 1664464093634, "trialdata": {"rt": 644, "stimulus": "<p id='stroop-text' class='stroop-blue'>BLUE</p>", "response": "b", "stimulus-type": "congruent", "word": "blue", "color": "blue", "correct_response": "b", "trial_id": "stroop-trial-1-congruent-6", "trial_type": "html-keyboard-response", "trial_index": 70, "time_elapsed": 179679, "internal_node_id": "0.0-4.0-66.0"}}, {"uniqueid": "w96566892:a76193330", "current_trial": 71, "dateTime": 1664464094643, "trialdata": {"rt": 507, "stimulus": "<p id='stroop-text' class='stroop-red'>CHAIR</p>", "response": "r", "stimulus-type": "unrelated", "word": "CHAIR", "color": "red", "correct_response": "r", "trial_id": "stroop-trial-1-unrelated-8", "trial_type": "html-keyboard-response", "trial_index": 71, "time_elapsed": 180689, "internal_node_id": "0.0-4.0-67.0"}}, {"uniqueid": "w96566892:a76193330", "current_trial": 72, "dateTime": 1664464095682, "trialdata": {"rt": 538, "stimulus": "<p id='stroop-text' class='stroop-green'>GREEN</p>", "response": "g", "stimulus-type": "congruent", "word": "green", "color": "green", "correct_response": "g", "trial_id": "stroop-trial-1-congruent-30", "trial_type": "html-keyboard-response", "trial_index": 72, "time_elapsed": 181728, "internal_node_id": "0.0-4.0-68.0"}}, {"uniqueid": "w96566892:a76193330", "current_trial": 73, "dateTime": 1664464096712, "trialdata": {"rt": 528, "stimulus": "<p id='stroop-text' class='stroop-yellow'>WINDOW</p>", "response": "y", "stimulus-type": "unrelated", "word": "WINDOW", "color": "yellow", "correct_response": "y", "trial_id": "stroop-trial-1-unrelated-26", "trial_type": "html-keyboard-response", "trial_index": 73, "time_elapsed": 182758, "internal_node_id": "0.0-4.0-69.0"}}, {"uniqueid": "w96566892:a76193330", "current_trial": 74, "dateTime": 1664464098126, "trialdata": {"rt": 913, "stimulus": "<p id='stroop-text' class='stroop-blue'>BLUE</p>", "response": "b", "stimulus-type": "congruent", "word": "blue", "color": "blue", "correct_response": "b", "trial_id": "stroop-trial-1-congruent-5", "trial_type": "html-keyboard-response", "trial_index": 74, "time_elapsed": 184172, "internal_node_id": "0.0-4.0-70.0"}}, {"uniqueid": "w96566892:a76193330", "current_trial": 75, "dateTime": 1664464099209, "trialdata": {"rt": 582, "stimulus": "<p id='stroop-text' class='stroop-red'>RED</p>", "response": "r", "stimulus-type": "congruent", "word": "red", "color": "red", "correct_response": "r", "trial_id": "stroop-trial-1-congruent-12", "trial_type": "html-keyboard-response", "trial_index": 75, "time_elapsed": 185255, "internal_node_id": "0.0-4.0-71.0"}}, {"uniqueid": "w96566892:a76193330", "current_trial": 76, "dateTime": 1664464100295, "trialdata": {"rt": 585, "stimulus": "<p id='stroop-text' class='stroop-yellow'>BLUE</p>", "response": "y", "stimulus-type": "incongruent", "word": "blue", "color": "yellow", "correct_response": "y", "trial_id": "stroop-trial-1-incongruent-13", "trial_type": "html-keyboard-response", "trial_index": 76, "time_elapsed": 186341, "internal_node_id": "0.0-4.0-72.0"}}, {"uniqueid": "w96566892:a76193330", "current_trial": 77, "dateTime": 1664464101456, "trialdata": {"rt": 660, "stimulus": "<p id='stroop-text' class='stroop-green'>RED</p>", "response": "g", "stimulus-type": "incongruent", "word": "red", "color": "green", "correct_response": "g", "trial_id": "stroop-trial-1-incongruent-30", "trial_type": "html-keyboard-response", "trial_index": 77, "time_elapsed": 187502, "internal_node_id": "0.0-4.0-73.0"}}, {"uniqueid": "w96566892:a76193330", "current_trial": 78, "dateTime": 1664464102611, "trialdata": {"rt": 653, "stimulus": "<p id='stroop-text' class='stroop-blue'>YELLOW</p>", "response": "b", "stimulus-type": "incongruent", "word": "yellow", "color": "blue", "correct_response": "b", "trial_id": "stroop-trial-1-incongruent-29", "trial_type": "html-keyboard-response", "trial_index": 78, "time_elapsed": 188657, "internal_node_id": "0.0-4.0-74.0"}}, {"uniqueid": "w96566892:a76193330", "current_trial": 79, "dateTime": 1664464103505, "trialdata": {"rt": 392, "stimulus": "<p id='stroop-text' class='stroop-red'>YELLOW</p>", "response": "r", "stimulus-type": "incongruent", "word": "yellow", "color": "red", "correct_response": "r", "trial_id": "stroop-trial-1-incongruent-3", "trial_type": "html-keyboard-response", "trial_index": 79, "time_elapsed": 189551, "internal_node_id": "0.0-4.0-75.0"}}, {"uniqueid": "w96566892:a76193330", "current_trial": 80, "dateTime": 1664464104606, "trialdata": {"rt": 598, "stimulus": "<p id='stroop-text' class='stroop-yellow'>YELLOW</p>", "response": "y", "stimulus-type": "congruent", "word": "yellow", "color": "yellow", "correct_response": "y", "trial_id": "stroop-trial-1-congruent-15", "trial_type": "html-keyboard-response", "trial_index": 80, "time_elapsed": 190651, "internal_node_id": "0.0-4.0-76.0"}}, {"uniqueid": "w96566892:a76193330", "current_trial": 81, "dateTime": 1664464105605, "trialdata": {"rt": 499, "stimulus": "<p id='stroop-text' class='stroop-red'>GREEN</p>", "response": "r", "stimulus-type": "incongruent", "word": "green", "color": "red", "correct_response": "r", "trial_id": "stroop-trial-1-incongruent-10", "trial_type": "html-keyboard-response", "trial_index": 81, "time_elapsed": 191651, "internal_node_id": "0.0-4.0-77.0"}}, {"uniqueid": "w96566892:a76193330", "current_trial": 82, "dateTime": 1664464106829, "trialdata": {"rt": 722, "stimulus": "<p id='stroop-text' class='stroop-yellow'>FORK</p>", "response": "y", "stimulus-type": "unrelated", "word": "FORK", "color": "yellow", "correct_response": "y", "trial_id": "stroop-trial-1-unrelated-19", "trial_type": "html-keyboard-response", "trial_index": 82, "time_elapsed": 192875, "internal_node_id": "0.0-4.0-78.0"}}, {"uniqueid": "w96566892:a76193330", "current_trial": 83, "dateTime": 1664464107837, "trialdata": {"rt": 506, "stimulus": "<p id='stroop-text' class='stroop-green'>YELLOW</p>", "response": "g", "stimulus-type": "incongruent", "word": "yellow", "color": "green", "correct_response": "g", "trial_id": "stroop-trial-1-incongruent-1", "trial_type": "html-keyboard-response", "trial_index": 83, "time_elapsed": 193883, "internal_node_id": "0.0-4.0-79.0"}}, {"uniqueid": "w96566892:a76193330", "current_trial": 84, "dateTime": 1664464108771, "trialdata": {"rt": 432, "stimulus": "<p id='stroop-text' class='stroop-green'>RED</p>", "response": "g", "stimulus-type": "incongruent", "word": "red", "color": "green", "correct_response": "g", "trial_id": "stroop-trial-1-incongruent-18", "trial_type": "html-keyboard-response", "trial_index": 84, "time_elapsed": 194816, "internal_node_id": "0.0-4.0-80.0"}}, {"uniqueid": "w96566892:a76193330", "current_trial": 85, "dateTime": 1664464109714, "trialdata": {"rt": 441, "stimulus": "<p id='stroop-text' class='stroop-green'>GREEN</p>", "response": "g", "stimulus-type": "congruent", "word": "green", "color": "green", "correct_response": "g", "trial_id": "stroop-trial-1-congruent-26", "trial_type": "html-keyboard-response", "trial_index": 85, "time_elapsed": 195760, "internal_node_id": "0.0-4.0-81.0"}}, {"uniqueid": "w96566892:a76193330", "current_trial": 86, "dateTime": 1664464110893, "trialdata": {"rt": 678, "stimulus": "<p id='stroop-text' class='stroop-yellow'>DOG</p>", "response": "y", "stimulus-type": "unrelated", "word": "DOG", "color": "yellow", "correct_response": "y", "trial_id": "stroop-trial-1-unrelated-28", "trial_type": "html-keyboard-response", "trial_index": 86, "time_elapsed": 196939, "internal_node_id": "0.0-4.0-82.0"}}, {"uniqueid": "w96566892:a76193330", "current_trial": 87, "dateTime": 1664464111791, "trialdata": {"rt": 396, "stimulus": "<p id='stroop-text' class='stroop-blue'>BLUE</p>", "response": "b", "stimulus-type": "congruent", "word": "blue", "color": "blue", "correct_response": "b", "trial_id": "stroop-trial-1-congruent-23", "trial_type": "html-keyboard-response", "trial_index": 87, "time_elapsed": 197837, "internal_node_id": "0.0-4.0-83.0"}}, {"uniqueid": "w96566892:a76193330", "current_trial": 88, "dateTime": 1664464112839, "trialdata": {"rt": 546, "stimulus": "<p id='stroop-text' class='stroop-yellow'>RED</p>", "response": "y", "stimulus-type": "incongruent", "word": "red", "color": "yellow", "correct_response": "y", "trial_id": "stroop-trial-1-incongruent-26", "trial_type": "html-keyboard-response", "trial_index": 88, "time_elapsed": 198885, "internal_node_id": "0.0-4.0-84.0"}}, {"uniqueid": "w96566892:a76193330", "current_trial": 89, "dateTime": 1664464113757, "trialdata": {"rt": 416, "stimulus": "<p id='stroop-text' class='stroop-red'>DOG</p>", "response": "r", "stimulus-type": "unrelated", "word": "DOG", "color": "red", "correct_response": "r", "trial_id": "stroop-trial-1-unrelated-21", "trial_type": "html-keyboard-response", "trial_index": 89, "time_elapsed": 199803, "internal_node_id": "0.0-4.0-85.0"}}, {"uniqueid": "w96566892:a76193330", "current_trial": 90, "dateTime": 1664464114729, "trialdata": {"rt": 470, "stimulus": "<p id='stroop-text' class='stroop-red'>BLUE</p>", "response": "r", "stimulus-type": "incongruent", "word": "blue", "color": "red", "correct_response": "r", "trial_id": "stroop-trial-1-incongruent-24", "trial_type": "html-keyboard-response", "trial_index": 90, "time_elapsed": 200775, "internal_node_id": "0.0-4.0-86.0"}}, {"uniqueid": "w96566892:a76193330", "current_trial": 91, "dateTime": 1664464115684, "trialdata": {"rt": 454, "stimulus": "<p id='stroop-text' class='stroop-green'>BLUE</p>", "response": "g", "stimulus-type": "incongruent", "word": "blue", "color": "green", "correct_response": "g", "trial_id": "stroop-trial-1-incongruent-4", "trial_type": "html-keyboard-response", "trial_index": 91, "time_elapsed": 201730, "internal_node_id": "0.0-4.0-87.0"}}, {"uniqueid": "w96566892:a76193330", "current_trial": 92, "dateTime": 1664464116768, "trialdata": {"rt": 582, "stimulus": "<p id='stroop-text' class='stroop-blue'>WINDOW</p>", "response": "b", "stimulus-type": "unrelated", "word": "WINDOW", "color": "blue", "correct_response": "b", "trial_id": "stroop-trial-1-unrelated-2", "trial_type": "html-keyboard-response", "trial_index": 92, "time_elapsed": 202814, "internal_node_id": "0.0-4.0-88.0"}}, {"uniqueid": "w96566892:a76193330", "current_trial": 93, "dateTime": 1664464117977, "trialdata": {"rt": 707, "stimulus": "<p id='stroop-text' class='stroop-green'>CHAIR</p>", "response": "g", "stimulus-type": "unrelated", "word": "CHAIR", "color": "green", "correct_response": "g", "trial_id": "stroop-trial-1-unrelated-22", "trial_type": "html-keyboard-response", "trial_index": 93, "time_elapsed": 204022, "internal_node_id": "0.0-4.0-89.0"}}, {"uniqueid": "w96566892:a76193330", "current_trial": 94, "dateTime": 1664464127889, "trialdata": {"rt": 9410, "stimulus": "  <h1> End of block! </h1>\n\n  You have reached the end of the block 1/5. If you need a short break, feel free to take one now before moving on.\n\n  <br><br>\n  In the next block, you will complete another 90 rounds of this game.\n\n  <br><br>\n  <div style='text-align: center;'>Press <code>space</code> to begin.</div>\n  <br><br>\n<div style='text-align: center;'>(If the experiment doesn't continue, try clicking on the text and then pressing <code>space</code>.)</div>", "response": " ", "trial_id": "stroop_1_ready_2", "trial_type": "html-keyboard-response", "trial_index": 94, "time_elapsed": 213935, "internal_node_id": "0.0-5.0"}}, {"uniqueid": "w96566892:a76193330", "current_trial": 95, "dateTime": 1664464128535, "trialdata": {"rt": 645, "stimulus": "<p id='stroop-text' class='stroop-yellow'>YELLOW</p>", "response": "y", "stimulus-type": "congruent", "word": "yellow", "color": "yellow", "correct_response": "y", "trial_id": "stroop-trial-1-congruent-21", "trial_type": "html-keyboard-response", "trial_index": 95, "time_elapsed": 214581, "internal_node_id": "0.0-6.0-0.0"}}, {"uniqueid": "w96566892:a76193330", "current_trial": 96, "dateTime": 1664464129665, "trialdata": {"rt": 628, "stimulus": "<p id='stroop-text' class='stroop-red'>GREEN</p>", "response": "r", "stimulus-type": "incongruent", "word": "green", "color": "red", "correct_response": "r", "trial_id": "stroop-trial-1-incongruent-3", "trial_type": "html-keyboard-response", "trial_index": 96, "time_elapsed": 215711, "internal_node_id": "0.0-6.0-1.0"}}, {"uniqueid": "w96566892:a76193330", "current_trial": 97, "dateTime": 1664464130679, "trialdata": {"rt": 511, "stimulus": "<p id='stroop-text' class='stroop-yellow'>MONKEY</p>", "response": "y", "stimulus-type": "unrelated", "word": "MONKEY", "color": "yellow", "correct_response": "y", "trial_id": "stroop-trial-1-unrelated-3", "trial_type": "html-keyboard-response", "trial_index": 97, "time_elapsed": 216725, "internal_node_id": "0.0-6.0-2.0"}}, {"uniqueid": "w96566892:a76193330", "current_trial": 98, "dateTime": 1664464131887, "trialdata": {"rt": 706, "stimulus": "<p id='stroop-text' class='stroop-blue'>YELLOW</p>", "response": "b", "stimulus-type": "incongruent", "word": "yellow", "color": "blue", "correct_response": "b", "trial_id": "stroop-trial-1-incongruent-13", "trial_type": "html-keyboard-response", "trial_index": 98, "time_elapsed": 217933, "internal_node_id": "0.0-6.0-3.0"}}, {"uniqueid": "w96566892:a76193330", "current_trial": 99, "dateTime": 1664464132921, "trialdata": {"rt": 532, "stimulus": "<p id='stroop-text' class='stroop-red'>STONE</p>", "response": "r", "stimulus-type": "unrelated", "word": "STONE", "color": "red", "correct_response": "r", "trial_id": "stroop-trial-1-unrelated-11", "trial_type": "html-keyboard-response", "trial_index": 99, "time_elapsed": 218967, "internal_node_id": "0.0-6.0-4.0"}}, {"uniqueid": "w96566892:a76193330", "current_trial": 100, "dateTime": 1664464133862, "trialdata": {"rt": 440, "stimulus": "<p id='stroop-text' class='stroop-yellow'>YELLOW</p>", "response": "y", "stimulus-type": "congruent", "word": "yellow", "color": "yellow", "correct_response": "y", "trial_id": "stroop-trial-1-congruent-27", "trial_type": "html-keyboard-response", "trial_index": 100, "time_elapsed": 219908, "internal_node_id": "0.0-6.0-5.0"}}, {"uniqueid": "w96566892:a76193330", "current_trial": 101, "dateTime": 1664464134940, "trialdata": {"rt": 576, "stimulus": "<p id='stroop-text' class='stroop-red'>BLUE</p>", "response": "r", "stimulus-type": "incongruent", "word": "blue", "color": "red", "correct_response": "r", "trial_id": "stroop-trial-1-incongruent-6", "trial_type": "html-keyboard-response", "trial_index": 101, "time_elapsed": 220986, "internal_node_id": "0.0-6.0-6.0"}}, {"uniqueid": "w96566892:a76193330", "current_trial": 102, "dateTime": 1664464135958, "trialdata": {"rt": 517, "stimulus": "<p id='stroop-text' class='stroop-yellow'>YELLOW</p>", "response": "y", "stimulus-type": "congruent", "word": "yellow", "color": "yellow", "correct_response": "y", "trial_id": "stroop-trial-1-congruent-6", "trial_type": "html-keyboard-response", "trial_index": 102, "time_elapsed": 222004, "internal_node_id": "0.0-6.0-7.0"}}, {"uniqueid": "w96566892:a76193330", "current_trial": 103, "dateTime": 1664464136952, "trialdata": {"rt": 493, "stimulus": "<p id='stroop-text' class='stroop-blue'>GREEN</p>", "response": "b", "stimulus-type": "incongruent", "word": "green", "color": "blue", "correct_response": "b", "trial_id": "stroop-trial-1-incongruent-22", "trial_type": "html-keyboard-response", "trial_index": 103, "time_elapsed": 222998, "internal_node_id": "0.0-6.0-8.0"}}, {"uniqueid": "w96566892:a76193330", "current_trial": 104, "dateTime": 1664464138308, "trialdata": {"rt": 855, "stimulus": "<p id='stroop-text' class='stroop-red'>RED</p>", "response": "r", "stimulus-type": "congruent", "word": "red", "color": "red", "correct_response": "r", "trial_id": "stroop-trial-1-congruent-15", "trial_type": "html-keyboard-response", "trial_index": 104, "time_elapsed": 224354, "internal_node_id": "0.0-6.0-9.0"}}, {"uniqueid": "w96566892:a76193330", "current_trial": 105, "dateTime": 1664464139280, "trialdata": {"rt": 470, "stimulus": "<p id='stroop-text' class='stroop-red'>SHIP</p>", "response": "r", "stimulus-type": "unrelated", "word": "SHIP", "color": "red", "correct_response": "r", "trial_id": "stroop-trial-1-unrelated-22", "trial_type": "html-keyboard-response", "trial_index": 105, "time_elapsed": 225325, "internal_node_id": "0.0-6.0-10.0"}}, {"uniqueid": "w96566892:a76193330", "current_trial": 106, "dateTime": 1664464140561, "trialdata": {"rt": 779, "stimulus": "<p id='stroop-text' class='stroop-red'>YELLOW</p>", "response": "r", "stimulus-type": "incongruent", "word": "yellow", "color": "red", "correct_response": "r", "trial_id": "stroop-trial-1-incongruent-26", "trial_type": "html-keyboard-response", "trial_index": 106, "time_elapsed": 226607, "internal_node_id": "0.0-6.0-11.0"}}, {"uniqueid": "w96566892:a76193330", "current_trial": 107, "dateTime": 1664464141653, "trialdata": {"rt": 589, "stimulus": "<p id='stroop-text' class='stroop-green'>BLUE</p>", "response": "g", "stimulus-type": "incongruent", "word": "blue", "color": "green", "correct_response": "g", "trial_id": "stroop-trial-1-incongruent-18", "trial_type": "html-keyboard-response", "trial_index": 107, "time_elapsed": 227699, "internal_node_id": "0.0-6.0-12.0"}}, {"uniqueid": "w96566892:a76193330", "current_trial": 108, "dateTime": 1664464142714, "trialdata": {"rt": 558, "stimulus": "<p id='stroop-text' class='stroop-red'>RED</p>", "response": "r", "stimulus-type": "congruent", "word": "red", "color": "red", "correct_response": "r", "trial_id": "stroop-trial-1-congruent-28", "trial_type": "html-keyboard-response", "trial_index": 108, "time_elapsed": 228760, "internal_node_id": "0.0-6.0-13.0"}}, {"uniqueid": "w96566892:a76193330", "current_trial": 109, "dateTime": 1664464143998, "trialdata": {"rt": 783, "stimulus": "<p id='stroop-text' class='stroop-blue'>SHIP</p>", "response": "b", "stimulus-type": "unrelated", "word": "SHIP", "color": "blue", "correct_response": "b", "trial_id": "stroop-trial-1-unrelated-28", "trial_type": "html-keyboard-response", "trial_index": 109, "time_elapsed": 230044, "internal_node_id": "0.0-6.0-14.0"}}, {"uniqueid": "w96566892:a76193330", "current_trial": 110, "dateTime": 1664464145264, "trialdata": {"rt": 763, "stimulus": "<p id='stroop-text' class='stroop-green'>FORK</p>", "response": "g", "stimulus-type": "unrelated", "word": "FORK", "color": "green", "correct_response": "g", "trial_id": "stroop-trial-1-unrelated-6", "trial_type": "html-keyboard-response", "trial_index": 110, "time_elapsed": 231310, "internal_node_id": "0.0-6.0-15.0"}}, {"uniqueid": "w96566892:a76193330", "current_trial": 111, "dateTime": 1664464146189, "trialdata": {"rt": 423, "stimulus": "<p id='stroop-text' class='stroop-red'>BLUE</p>", "response": "r", "stimulus-type": "incongruent", "word": "blue", "color": "red", "correct_response": "r", "trial_id": "stroop-trial-1-incongruent-5", "trial_type": "html-keyboard-response", "trial_index": 111, "time_elapsed": 232235, "internal_node_id": "0.0-6.0-16.0"}}, {"uniqueid": "w96566892:a76193330", "current_trial": 112, "dateTime": 1664464147176, "trialdata": {"rt": 486, "stimulus": "<p id='stroop-text' class='stroop-yellow'>YELLOW</p>", "response": "y", "stimulus-type": "congruent", "word": "yellow", "color": "yellow", "correct_response": "y", "trial_id": "stroop-trial-1-congruent-8", "trial_type": "html-keyboard-response", "trial_index": 112, "time_elapsed": 233222, "internal_node_id": "0.0-6.0-17.0"}}, {"uniqueid": "w96566892:a76193330", "current_trial": 113, "dateTime": 1664464148195, "trialdata": {"rt": 518, "stimulus": "<p id='stroop-text' class='stroop-green'>GREEN</p>", "response": "g", "stimulus-type": "congruent", "word": "green", "color": "green", "correct_response": "g", "trial_id": "stroop-trial-1-congruent-2", "trial_type": "html-keyboard-response", "trial_index": 113, "time_elapsed": 234241, "internal_node_id": "0.0-6.0-18.0"}}, {"uniqueid": "w96566892:a76193330", "current_trial": 114, "dateTime": 1664464149165, "trialdata": {"rt": 468, "stimulus": "<p id='stroop-text' class='stroop-red'>GREEN</p>", "response": "r", "stimulus-type": "incongruent", "word": "green", "color": "red", "correct_response": "r", "trial_id": "stroop-trial-1-incongruent-28", "trial_type": "html-keyboard-response", "trial_index": 114, "time_elapsed": 235211, "internal_node_id": "0.0-6.0-19.0"}}, {"uniqueid": "w96566892:a76193330", "current_trial": 115, "dateTime": 1664464150251, "trialdata": {"rt": 585, "stimulus": "<p id='stroop-text' class='stroop-green'>BLUE</p>", "response": "g", "stimulus-type": "incongruent", "word": "blue", "color": "green", "correct_response": "g", "trial_id": "stroop-trial-1-incongruent-16", "trial_type": "html-keyboard-response", "trial_index": 115, "time_elapsed": 236297, "internal_node_id": "0.0-6.0-20.0"}}, {"uniqueid": "w96566892:a76193330", "current_trial": 116, "dateTime": 1664464151295, "trialdata": {"rt": 542, "stimulus": "<p id='stroop-text' class='stroop-blue'>GREEN</p>", "response": "b", "stimulus-type": "incongruent", "word": "green", "color": "blue", "correct_response": "b", "trial_id": "stroop-trial-1-incongruent-15", "trial_type": "html-keyboard-response", "trial_index": 116, "time_elapsed": 237341, "internal_node_id": "0.0-6.0-21.0"}}, {"uniqueid": "w96566892:a76193330", "current_trial": 117, "dateTime": 1664464152565, "trialdata": {"rt": 769, "stimulus": "<p id='stroop-text' class='stroop-green'>RED</p>", "response": "g", "stimulus-type": "incongruent", "word": "red", "color": "green", "correct_response": "g", "trial_id": "stroop-trial-1-incongruent-17", "trial_type": "html-keyboard-response", "trial_index": 117, "time_elapsed": 238611, "internal_node_id": "0.0-6.0-22.0"}}, {"uniqueid": "w96566892:a76193330", "current_trial": 118, "dateTime": 1664464153653, "trialdata": {"rt": 587, "stimulus": "<p id='stroop-text' class='stroop-blue'>BRAIN</p>", "response": "b", "stimulus-type": "unrelated", "word": "BRAIN", "color": "blue", "correct_response": "b", "trial_id": "stroop-trial-1-unrelated-21", "trial_type": "html-keyboard-response", "trial_index": 118, "time_elapsed": 239699, "internal_node_id": "0.0-6.0-23.0"}}, {"uniqueid": "w96566892:a76193330", "current_trial": 119, "dateTime": 1664464154680, "trialdata": {"rt": 526, "stimulus": "<p id='stroop-text' class='stroop-green'>FORK</p>", "response": "g", "stimulus-type": "unrelated", "word": "FORK", "color": "green", "correct_response": "g", "trial_id": "stroop-trial-1-unrelated-25", "trial_type": "html-keyboard-response", "trial_index": 119, "time_elapsed": 240726, "internal_node_id": "0.0-6.0-24.0"}}, {"uniqueid": "w96566892:a76193330", "current_trial": 120, "dateTime": 1664464155710, "trialdata": {"rt": 528, "stimulus": "<p id='stroop-text' class='stroop-red'>BOTTLE</p>", "response": "r", "stimulus-type": "unrelated", "word": "BOTTLE", "color": "red", "correct_response": "r", "trial_id": "stroop-trial-1-unrelated-2", "trial_type": "html-keyboard-response", "trial_index": 120, "time_elapsed": 241756, "internal_node_id": "0.0-6.0-25.0"}}, {"uniqueid": "w96566892:a76193330", "current_trial": 121, "dateTime": 1664464156714, "trialdata": {"rt": 502, "stimulus": "<p id='stroop-text' class='stroop-red'>RED</p>", "response": "r", "stimulus-type": "congruent", "word": "red", "color": "red", "correct_response": "r", "trial_id": "stroop-trial-1-congruent-25", "trial_type": "html-keyboard-response", "trial_index": 121, "time_elapsed": 242759, "internal_node_id": "0.0-6.0-26.0"}}, {"uniqueid": "w96566892:a76193330", "current_trial": 122, "dateTime": 1664464157727, "trialdata": {"rt": 511, "stimulus": "<p id='stroop-text' class='stroop-green'>GREEN</p>", "response": "g", "stimulus-type": "congruent", "word": "green", "color": "green", "correct_response": "g", "trial_id": "stroop-trial-1-congruent-13", "trial_type": "html-keyboard-response", "trial_index": 122, "time_elapsed": 243773, "internal_node_id": "0.0-6.0-27.0"}}, {"uniqueid": "w96566892:a76193330", "current_trial": 123, "dateTime": 1664464158752, "trialdata": {"rt": 523, "stimulus": "<p id='stroop-text' class='stroop-red'>STONE</p>", "response": "r", "stimulus-type": "unrelated", "word": "STONE", "color": "red", "correct_response": "r", "trial_id": "stroop-trial-1-unrelated-29", "trial_type": "html-keyboard-response", "trial_index": 123, "time_elapsed": 244798, "internal_node_id": "0.0-6.0-28.0"}}, {"uniqueid": "w96566892:a76193330", "current_trial": 124, "dateTime": 1664464160246, "trialdata": {"rt": 992, "stimulus": "<p id='stroop-text' class='stroop-green'>BLUE</p>", "response": "g", "stimulus-type": "incongruent", "word": "blue", "color": "green", "correct_response": "g", "trial_id": "stroop-trial-1-incongruent-14", "trial_type": "html-keyboard-response", "trial_index": 124, "time_elapsed": 246292, "internal_node_id": "0.0-6.0-29.0"}}, {"uniqueid": "w96566892:a76193330", "current_trial": 125, "dateTime": 1664464161428, "trialdata": {"rt": 681, "stimulus": "<p id='stroop-text' class='stroop-yellow'>YELLOW</p>", "response": "y", "stimulus-type": "congruent", "word": "yellow", "color": "yellow", "correct_response": "y", "trial_id": "stroop-trial-1-congruent-10", "trial_type": "html-keyboard-response", "trial_index": 125, "time_elapsed": 247474, "internal_node_id": "0.0-6.0-30.0"}}, {"uniqueid": "w96566892:a76193330", "current_trial": 126, "dateTime": 1664464163340, "trialdata": {"rt": 1408, "stimulus": "<p id='stroop-text' class='stroop-green'>WINDOW</p>", "response": "g", "stimulus-type": "unrelated", "word": "WINDOW", "color": "green", "correct_response": "g", "trial_id": "stroop-trial-1-unrelated-5", "trial_type": "html-keyboard-response", "trial_index": 126, "time_elapsed": 249386, "internal_node_id": "0.0-6.0-31.0"}}, {"uniqueid": "w96566892:a76193330", "current_trial": 127, "dateTime": 1664464164221, "trialdata": {"rt": 379, "stimulus": "<p id='stroop-text' class='stroop-red'>YELLOW</p>", "response": "r", "stimulus-type": "incongruent", "word": "yellow", "color": "red", "correct_response": "r", "trial_id": "stroop-trial-1-incongruent-7", "trial_type": "html-keyboard-response", "trial_index": 127, "time_elapsed": 250267, "internal_node_id": "0.0-6.0-32.0"}}, {"uniqueid": "w96566892:a76193330", "current_trial": 128, "dateTime": 1664464165149, "trialdata": {"rt": 427, "stimulus": "<p id='stroop-text' class='stroop-blue'>GREEN</p>", "response": "b", "stimulus-type": "incongruent", "word": "green", "color": "blue", "correct_response": "b", "trial_id": "stroop-trial-1-incongruent-23", "trial_type": "html-keyboard-response", "trial_index": 128, "time_elapsed": 251195, "internal_node_id": "0.0-6.0-33.0"}}, {"uniqueid": "w96566892:a76193330", "current_trial": 129, "dateTime": 1664464166499, "trialdata": {"rt": 849, "stimulus": "<p id='stroop-text' class='stroop-yellow'>SHIP</p>", "response": "y", "stimulus-type": "unrelated", "word": "SHIP", "color": "yellow", "correct_response": "y", "trial_id": "stroop-trial-1-unrelated-19", "trial_type": "html-keyboard-response", "trial_index": 129, "time_elapsed": 252545, "internal_node_id": "0.0-6.0-34.0"}}, {"uniqueid": "w96566892:a76193330", "current_trial": 130, "dateTime": 1664464167569, "trialdata": {"rt": 568, "stimulus": "<p id='stroop-text' class='stroop-green'>GREEN</p>", "response": "g", "stimulus-type": "congruent", "word": "green", "color": "green", "correct_response": "g", "trial_id": "stroop-trial-1-congruent-12", "trial_type": "html-keyboard-response", "trial_index": 130, "time_elapsed": 253615, "internal_node_id": "0.0-6.0-35.0"}}, {"uniqueid": "w96566892:a76193330", "current_trial": 131, "dateTime": 1664464168485, "trialdata": {"rt": 415, "stimulus": "<p id='stroop-text' class='stroop-green'>WINDOW</p>", "response": "g", "stimulus-type": "unrelated", "word": "WINDOW", "color": "green", "correct_response": "g", "trial_id": "stroop-trial-1-unrelated-4", "trial_type": "html-keyboard-response", "trial_index": 131, "time_elapsed": 254531, "internal_node_id": "0.0-6.0-36.0"}}, {"uniqueid": "w96566892:a76193330", "current_trial": 132, "dateTime": 1664464169609, "trialdata": {"rt": 622, "stimulus": "<p id='stroop-text' class='stroop-blue'>YELLOW</p>", "response": "b", "stimulus-type": "incongruent", "word": "yellow", "color": "blue", "correct_response": "b", "trial_id": "stroop-trial-1-incongruent-1", "trial_type": "html-keyboard-response", "trial_index": 132, "time_elapsed": 255655, "internal_node_id": "0.0-6.0-37.0"}}, {"uniqueid": "w96566892:a76193330", "current_trial": 133, "dateTime": 1664464170511, "trialdata": {"rt": 400, "stimulus": "<p id='stroop-text' class='stroop-red'>RED</p>", "response": "r", "stimulus-type": "congruent", "word": "red", "color": "red", "correct_response": "r", "trial_id": "stroop-trial-1-congruent-17", "trial_type": "html-keyboard-response", "trial_index": 133, "time_elapsed": 256557, "internal_node_id": "0.0-6.0-38.0"}}, {"uniqueid": "w96566892:a76193330", "current_trial": 134, "dateTime": 1664464171393, "trialdata": {"rt": 381, "stimulus": "<p id='stroop-text' class='stroop-green'>WINDOW</p>", "response": "g", "stimulus-type": "unrelated", "word": "WINDOW", "color": "green", "correct_response": "g", "trial_id": "stroop-trial-1-unrelated-27", "trial_type": "html-keyboard-response", "trial_index": 134, "time_elapsed": 257439, "internal_node_id": "0.0-6.0-39.0"}}, {"uniqueid": "w96566892:a76193330", "current_trial": 135, "dateTime": 1664464172314, "trialdata": {"rt": 419, "stimulus": "<p id='stroop-text' class='stroop-green'>GREEN</p>", "response": "g", "stimulus-type": "congruent", "word": "green", "color": "green", "correct_response": "g", "trial_id": "stroop-trial-1-congruent-29", "trial_type": "html-keyboard-response", "trial_index": 135, "time_elapsed": 258359, "internal_node_id": "0.0-6.0-40.0"}}, {"uniqueid": "w96566892:a76193330", "current_trial": 136, "dateTime": 1664464173255, "trialdata": {"rt": 440, "stimulus": "<p id='stroop-text' class='stroop-red'>GREEN</p>", "response": "r", "stimulus-type": "incongruent", "word": "green", "color": "red", "correct_response": "r", "trial_id": "stroop-trial-1-incongruent-11", "trial_type": "html-keyboard-response", "trial_index": 136, "time_elapsed": 259301, "internal_node_id": "0.0-6.0-41.0"}}, {"uniqueid": "w96566892:a76193330", "current_trial": 137, "dateTime": 1664464174157, "trialdata": {"rt": 401, "stimulus": "<p id='stroop-text' class='stroop-blue'>SHIP</p>", "response": "g", "stimulus-type": "unrelated", "word": "SHIP", "color": "blue", "correct_response": "b", "trial_id": "stroop-trial-1-unrelated-26", "trial_type": "html-keyboard-response", "trial_index": 137, "time_elapsed": 260203, "internal_node_id": "0.0-6.0-42.0"}}, {"uniqueid": "w96566892:a76193330", "current_trial": 138, "dateTime": 1664464175631, "trialdata": {"rt": 972, "stimulus": "<p id='stroop-text' class='stroop-blue'>RED</p>", "response": "b", "stimulus-type": "incongruent", "word": "red", "color": "blue", "correct_response": "b", "trial_id": "stroop-trial-1-incongruent-24", "trial_type": "html-keyboard-response", "trial_index": 138, "time_elapsed": 261677, "internal_node_id": "0.0-6.0-43.0"}}, {"uniqueid": "w96566892:a76193330", "current_trial": 139, "dateTime": 1664464176585, "trialdata": {"rt": 452, "stimulus": "<p id='stroop-text' class='stroop-blue'>RED</p>", "response": "b", "stimulus-type": "incongruent", "word": "red", "color": "blue", "correct_response": "b", "trial_id": "stroop-trial-1-incongruent-21", "trial_type": "html-keyboard-response", "trial_index": 139, "time_elapsed": 262631, "internal_node_id": "0.0-6.0-44.0"}}, {"uniqueid": "w96566892:a76193330", "current_trial": 140, "dateTime": 1664464177633, "trialdata": {"rt": 546, "stimulus": "<p id='stroop-text' class='stroop-red'>BRAIN</p>", "response": "r", "stimulus-type": "unrelated", "word": "BRAIN", "color": "red", "correct_response": "r", "trial_id": "stroop-trial-1-unrelated-14", "trial_type": "html-keyboard-response", "trial_index": 140, "time_elapsed": 263679, "internal_node_id": "0.0-6.0-45.0"}}, {"uniqueid": "w96566892:a76193330", "current_trial": 141, "dateTime": 1664464178998, "trialdata": {"rt": 864, "stimulus": "<p id='stroop-text' class='stroop-green'>GREEN</p>", "response": "g", "stimulus-type": "congruent", "word": "green", "color": "green", "correct_response": "g", "trial_id": "stroop-trial-1-congruent-4", "trial_type": "html-keyboard-response", "trial_index": 141, "time_elapsed": 265044, "internal_node_id": "0.0-6.0-46.0"}}, {"uniqueid": "w96566892:a76193330", "current_trial": 142, "dateTime": 1664464180072, "trialdata": {"rt": 573, "stimulus": "<p id='stroop-text' class='stroop-red'>MONKEY</p>", "response": "r", "stimulus-type": "unrelated", "word": "MONKEY", "color": "red", "correct_response": "r", "trial_id": "stroop-trial-1-unrelated-16", "trial_type": "html-keyboard-response", "trial_index": 142, "time_elapsed": 266118, "internal_node_id": "0.0-6.0-47.0"}}, {"uniqueid": "w96566892:a76193330", "current_trial": 143, "dateTime": 1664464181434, "trialdata": {"rt": 861, "stimulus": "<p id='stroop-text' class='stroop-green'>BLUE</p>", "response": "g", "stimulus-type": "incongruent", "word": "blue", "color": "green", "correct_response": "g", "trial_id": "stroop-trial-1-incongruent-12", "trial_type": "html-keyboard-response", "trial_index": 143, "time_elapsed": 267480, "internal_node_id": "0.0-6.0-48.0"}}, {"uniqueid": "w96566892:a76193330", "current_trial": 144, "dateTime": 1664464182409, "trialdata": {"rt": 472, "stimulus": "<p id='stroop-text' class='stroop-blue'>BLUE</p>", "response": "b", "stimulus-type": "congruent", "word": "blue", "color": "blue", "correct_response": "b", "trial_id": "stroop-trial-1-congruent-7", "trial_type": "html-keyboard-response", "trial_index": 144, "time_elapsed": 268455, "internal_node_id": "0.0-6.0-49.0"}}, {"uniqueid": "w96566892:a76193330", "current_trial": 145, "dateTime": 1664464183459, "trialdata": {"rt": 548, "stimulus": "<p id='stroop-text' class='stroop-yellow'>MONKEY</p>", "response": "y", "stimulus-type": "unrelated", "word": "MONKEY", "color": "yellow", "correct_response": "y", "trial_id": "stroop-trial-1-unrelated-7", "trial_type": "html-keyboard-response", "trial_index": 145, "time_elapsed": 269503, "internal_node_id": "0.0-6.0-50.0"}}, {"uniqueid": "w96566892:a76193330", "current_trial": 146, "dateTime": 1664464184412, "trialdata": {"rt": 452, "stimulus": "<p id='stroop-text' class='stroop-yellow'>YELLOW</p>", "response": "y", "stimulus-type": "congruent", "word": "yellow", "color": "yellow", "correct_response": "y", "trial_id": "stroop-trial-1-congruent-23", "trial_type": "html-keyboard-response", "trial_index": 146, "time_elapsed": 270457, "internal_node_id": "0.0-6.0-51.0"}}, {"uniqueid": "w96566892:a76193330", "current_trial": 147, "dateTime": 1664464185472, "trialdata": {"rt": 558, "stimulus": "<p id='stroop-text' class='stroop-red'>YELLOW</p>", "response": "r", "stimulus-type": "incongruent", "word": "yellow", "color": "red", "correct_response": "r", "trial_id": "stroop-trial-1-incongruent-29", "trial_type": "html-keyboard-response", "trial_index": 147, "time_elapsed": 271518, "internal_node_id": "0.0-6.0-52.0"}}, {"uniqueid": "w96566892:a76193330", "current_trial": 148, "dateTime": 1664464186468, "trialdata": {"rt": 494, "stimulus": "<p id='stroop-text' class='stroop-red'>YELLOW</p>", "response": "r", "stimulus-type": "incongruent", "word": "yellow", "color": "red", "correct_response": "r", "trial_id": "stroop-trial-1-incongruent-2", "trial_type": "html-keyboard-response", "trial_index": 148, "time_elapsed": 272513, "internal_node_id": "0.0-6.0-53.0"}}, {"uniqueid": "w96566892:a76193330", "current_trial": 149, "dateTime": 1664464187547, "trialdata": {"rt": 578, "stimulus": "<p id='stroop-text' class='stroop-blue'>BRAIN</p>", "response": "b", "stimulus-type": "unrelated", "word": "BRAIN", "color": "blue", "correct_response": "b", "trial_id": "stroop-trial-1-unrelated-23", "trial_type": "html-keyboard-response", "trial_index": 149, "time_elapsed": 273593, "internal_node_id": "0.0-6.0-54.0"}}, {"uniqueid": "w96566892:a76193330", "current_trial": 150, "dateTime": 1664464188689, "trialdata": {"rt": 641, "stimulus": "<p id='stroop-text' class='stroop-yellow'>BLUE</p>", "response": "y", "stimulus-type": "incongruent", "word": "blue", "color": "yellow", "correct_response": "y", "trial_id": "stroop-trial-1-incongruent-9", "trial_type": "html-keyboard-response", "trial_index": 150, "time_elapsed": 274734, "internal_node_id": "0.0-6.0-55.0"}}, {"uniqueid": "w96566892:a76193330", "current_trial": 151, "dateTime": 1664464189842, "trialdata": {"rt": 651, "stimulus": "<p id='stroop-text' class='stroop-red'>BRAIN</p>", "response": "r", "stimulus-type": "unrelated", "word": "BRAIN", "color": "red", "correct_response": "r", "trial_id": "stroop-trial-1-unrelated-12", "trial_type": "html-keyboard-response", "trial_index": 151, "time_elapsed": 275888, "internal_node_id": "0.0-6.0-56.0"}}, {"uniqueid": "w96566892:a76193330", "current_trial": 152, "dateTime": 1664464190901, "trialdata": {"rt": 556, "stimulus": "<p id='stroop-text' class='stroop-green'>CHAIR</p>", "response": "g", "stimulus-type": "unrelated", "word": "CHAIR", "color": "green", "correct_response": "g", "trial_id": "stroop-trial-1-unrelated-13", "trial_type": "html-keyboard-response", "trial_index": 152, "time_elapsed": 276946, "internal_node_id": "0.0-6.0-57.0"}}, {"uniqueid": "w96566892:a76193330", "current_trial": 153, "dateTime": 1664464191930, "trialdata": {"rt": 528, "stimulus": "<p id='stroop-text' class='stroop-green'>RED</p>", "response": "g", "stimulus-type": "incongruent", "word": "red", "color": "green", "correct_response": "g", "trial_id": "stroop-trial-1-incongruent-10", "trial_type": "html-keyboard-response", "trial_index": 153, "time_elapsed": 277975, "internal_node_id": "0.0-6.0-58.0"}}, {"uniqueid": "w96566892:a76193330", "current_trial": 154, "dateTime": 1664464192887, "trialdata": {"rt": 455, "stimulus": "<p id='stroop-text' class='stroop-red'>GREEN</p>", "response": "r", "stimulus-type": "incongruent", "word": "green", "color": "red", "correct_response": "r", "trial_id": "stroop-trial-1-incongruent-19", "trial_type": "html-keyboard-response", "trial_index": 154, "time_elapsed": 278932, "internal_node_id": "0.0-6.0-59.0"}}, {"uniqueid": "w96566892:a76193330", "current_trial": 155, "dateTime": 1664464193786, "trialdata": {"rt": 397, "stimulus": "<p id='stroop-text' class='stroop-blue'>BLUE</p>", "response": "b", "stimulus-type": "congruent", "word": "blue", "color": "blue", "correct_response": "b", "trial_id": "stroop-trial-1-congruent-26", "trial_type": "html-keyboard-response", "trial_index": 155, "time_elapsed": 279832, "internal_node_id": "0.0-6.0-60.0"}}, {"uniqueid": "w96566892:a76193330", "current_trial": 156, "dateTime": 1664464194665, "trialdata": {"rt": 377, "stimulus": "<p id='stroop-text' class='stroop-yellow'>SHIP</p>", "response": "y", "stimulus-type": "unrelated", "word": "SHIP", "color": "yellow", "correct_response": "y", "trial_id": "stroop-trial-1-unrelated-18", "trial_type": "html-keyboard-response", "trial_index": 156, "time_elapsed": 280711, "internal_node_id": "0.0-6.0-61.0"}}, {"uniqueid": "w96566892:a76193330", "current_trial": 157, "dateTime": 1664464195683, "trialdata": {"rt": 515, "stimulus": "<p id='stroop-text' class='stroop-yellow'>YELLOW</p>", "response": "y", "stimulus-type": "congruent", "word": "yellow", "color": "yellow", "correct_response": "y", "trial_id": "stroop-trial-1-congruent-9", "trial_type": "html-keyboard-response", "trial_index": 157, "time_elapsed": 281728, "internal_node_id": "0.0-6.0-62.0"}}, {"uniqueid": "w96566892:a76193330", "current_trial": 158, "dateTime": 1664464196579, "trialdata": {"rt": 394, "stimulus": "<p id='stroop-text' class='stroop-blue'>BOTTLE</p>", "response": "b", "stimulus-type": "unrelated", "word": "BOTTLE", "color": "blue", "correct_response": "b", "trial_id": "stroop-trial-1-unrelated-17", "trial_type": "html-keyboard-response", "trial_index": 158, "time_elapsed": 282625, "internal_node_id": "0.0-6.0-63.0"}}, {"uniqueid": "w96566892:a76193330", "current_trial": 159, "dateTime": 1664464197525, "trialdata": {"rt": 444, "stimulus": "<p id='stroop-text' class='stroop-blue'>BLUE</p>", "response": "b", "stimulus-type": "congruent", "word": "blue", "color": "blue", "correct_response": "b", "trial_id": "stroop-trial-1-congruent-1", "trial_type": "html-keyboard-response", "trial_index": 159, "time_elapsed": 283571, "internal_node_id": "0.0-6.0-64.0"}}, {"uniqueid": "w96566892:a76193330", "current_trial": 160, "dateTime": 1664464198569, "trialdata": {"rt": 542, "stimulus": "<p id='stroop-text' class='stroop-green'>BLUE</p>", "response": "g", "stimulus-type": "incongruent", "word": "blue", "color": "green", "correct_response": "g", "trial_id": "stroop-trial-1-incongruent-30", "trial_type": "html-keyboard-response", "trial_index": 160, "time_elapsed": 284615, "internal_node_id": "0.0-6.0-65.0"}}, {"uniqueid": "w96566892:a76193330", "current_trial": 161, "dateTime": 1664464199490, "trialdata": {"rt": 419, "stimulus": "<p id='stroop-text' class='stroop-red'>RED</p>", "response": "r", "stimulus-type": "congruent", "word": "red", "color": "red", "correct_response": "r", "trial_id": "stroop-trial-1-congruent-14", "trial_type": "html-keyboard-response", "trial_index": 161, "time_elapsed": 285535, "internal_node_id": "0.0-6.0-66.0"}}, {"uniqueid": "w96566892:a76193330", "current_trial": 162, "dateTime": 1664464200601, "trialdata": {"rt": 610, "stimulus": "<p id='stroop-text' class='stroop-yellow'>CHAIR</p>", "response": "y", "stimulus-type": "unrelated", "word": "CHAIR", "color": "yellow", "correct_response": "y", "trial_id": "stroop-trial-1-unrelated-24", "trial_type": "html-keyboard-response", "trial_index": 162, "time_elapsed": 286647, "internal_node_id": "0.0-6.0-67.0"}}, {"uniqueid": "w96566892:a76193330", "current_trial": 163, "dateTime": 1664464201565, "trialdata": {"rt": 463, "stimulus": "<p id='stroop-text' class='stroop-yellow'>BLUE</p>", "response": "y", "stimulus-type": "incongruent", "word": "blue", "color": "yellow", "correct_response": "y", "trial_id": "stroop-trial-1-incongruent-20", "trial_type": "html-keyboard-response", "trial_index": 163, "time_elapsed": 287611, "internal_node_id": "0.0-6.0-68.0"}}, {"uniqueid": "w96566892:a76193330", "current_trial": 164, "dateTime": 1664464202578, "trialdata": {"rt": 511, "stimulus": "<p id='stroop-text' class='stroop-blue'>BLUE</p>", "response": "b", "stimulus-type": "congruent", "word": "blue", "color": "blue", "correct_response": "b", "trial_id": "stroop-trial-1-congruent-30", "trial_type": "html-keyboard-response", "trial_index": 164, "time_elapsed": 288624, "internal_node_id": "0.0-6.0-69.0"}}, {"uniqueid": "w96566892:a76193330", "current_trial": 165, "dateTime": 1664464203817, "trialdata": {"rt": 736, "stimulus": "<p id='stroop-text' class='stroop-green'>RED</p>", "response": "r", "stimulus-type": "incongruent", "word": "red", "color": "green", "correct_response": "g", "trial_id": "stroop-trial-1-incongruent-27", "trial_type": "html-keyboard-response", "trial_index": 165, "time_elapsed": 289862, "internal_node_id": "0.0-6.0-70.0"}}, {"uniqueid": "w96566892:a76193330", "current_trial": 166, "dateTime": 1664464205199, "trialdata": {"rt": 880, "stimulus": "<p id='stroop-text' class='stroop-red'>MONKEY</p>", "response": "r", "stimulus-type": "unrelated", "word": "MONKEY", "color": "red", "correct_response": "r", "trial_id": "stroop-trial-1-unrelated-10", "trial_type": "html-keyboard-response", "trial_index": 166, "time_elapsed": 291244, "internal_node_id": "0.0-6.0-71.0"}}, {"uniqueid": "w96566892:a76193330", "current_trial": 167, "dateTime": 1664464206117, "trialdata": {"rt": 416, "stimulus": "<p id='stroop-text' class='stroop-red'>BLUE</p>", "response": "r", "stimulus-type": "incongruent", "word": "blue", "color": "red", "correct_response": "r", "trial_id": "stroop-trial-1-incongruent-25", "trial_type": "html-keyboard-response", "trial_index": 167, "time_elapsed": 292163, "internal_node_id": "0.0-6.0-72.0"}}, {"uniqueid": "w96566892:a76193330", "current_trial": 168, "dateTime": 1664464206975, "trialdata": {"rt": 355, "stimulus": "<p id='stroop-text' class='stroop-red'>BOAT</p>", "response": "r", "stimulus-type": "unrelated", "word": "BOAT", "color": "red", "correct_response": "r", "trial_id": "stroop-trial-1-unrelated-8", "trial_type": "html-keyboard-response", "trial_index": 168, "time_elapsed": 293020, "internal_node_id": "0.0-6.0-73.0"}}, {"uniqueid": "w96566892:a76193330", "current_trial": 169, "dateTime": 1664464207862, "trialdata": {"rt": 386, "stimulus": "<p id='stroop-text' class='stroop-red'>BRAIN</p>", "response": "r", "stimulus-type": "unrelated", "word": "BRAIN", "color": "red", "correct_response": "r", "trial_id": "stroop-trial-1-unrelated-1", "trial_type": "html-keyboard-response", "trial_index": 169, "time_elapsed": 293908, "internal_node_id": "0.0-6.0-74.0"}}, {"uniqueid": "w96566892:a76193330", "current_trial": 170, "dateTime": 1664464208836, "trialdata": {"rt": 472, "stimulus": "<p id='stroop-text' class='stroop-green'>STONE</p>", "response": "g", "stimulus-type": "unrelated", "word": "STONE", "color": "green", "correct_response": "g", "trial_id": "stroop-trial-1-unrelated-20", "trial_type": "html-keyboard-response", "trial_index": 170, "time_elapsed": 294882, "internal_node_id": "0.0-6.0-75.0"}}, {"uniqueid": "w96566892:a76193330", "current_trial": 171, "dateTime": 1664464209914, "trialdata": {"rt": 575, "stimulus": "<p id='stroop-text' class='stroop-red'>YELLOW</p>", "response": "r", "stimulus-type": "incongruent", "word": "yellow", "color": "red", "correct_response": "r", "trial_id": "stroop-trial-1-incongruent-8", "trial_type": "html-keyboard-response", "trial_index": 171, "time_elapsed": 295960, "internal_node_id": "0.0-6.0-76.0"}}, {"uniqueid": "w96566892:a76193330", "current_trial": 172, "dateTime": 1664464211016, "trialdata": {"rt": 600, "stimulus": "<p id='stroop-text' class='stroop-blue'>BLUE</p>", "response": "b", "stimulus-type": "congruent", "word": "blue", "color": "blue", "correct_response": "b", "trial_id": "stroop-trial-1-congruent-18", "trial_type": "html-keyboard-response", "trial_index": 172, "time_elapsed": 297061, "internal_node_id": "0.0-6.0-77.0"}}, {"uniqueid": "w96566892:a76193330", "current_trial": 173, "dateTime": 1664464212061, "trialdata": {"rt": 543, "stimulus": "<p id='stroop-text' class='stroop-green'>GREEN</p>", "response": "g", "stimulus-type": "congruent", "word": "green", "color": "green", "correct_response": "g", "trial_id": "stroop-trial-1-congruent-3", "trial_type": "html-keyboard-response", "trial_index": 173, "time_elapsed": 298106, "internal_node_id": "0.0-6.0-78.0"}}, {"uniqueid": "w96566892:a76193330", "current_trial": 174, "dateTime": 1664464213166, "trialdata": {"rt": 603, "stimulus": "<p id='stroop-text' class='stroop-red'>BRAIN</p>", "response": "r", "stimulus-type": "unrelated", "word": "BRAIN", "color": "red", "correct_response": "r", "trial_id": "stroop-trial-1-unrelated-30", "trial_type": "html-keyboard-response", "trial_index": 174, "time_elapsed": 299211, "internal_node_id": "0.0-6.0-79.0"}}, {"uniqueid": "w96566892:a76193330", "current_trial": 175, "dateTime": 1664464214265, "trialdata": {"rt": 598, "stimulus": "<p id='stroop-text' class='stroop-blue'>YELLOW</p>", "response": "b", "stimulus-type": "incongruent", "word": "yellow", "color": "blue", "correct_response": "b", "trial_id": "stroop-trial-1-incongruent-4", "trial_type": "html-keyboard-response", "trial_index": 175, "time_elapsed": 300311, "internal_node_id": "0.0-6.0-80.0"}}, {"uniqueid": "w96566892:a76193330", "current_trial": 176, "dateTime": 1664464215431, "trialdata": {"rt": 665, "stimulus": "<p id='stroop-text' class='stroop-yellow'>YELLOW</p>", "response": "y", "stimulus-type": "congruent", "word": "yellow", "color": "yellow", "correct_response": "y", "trial_id": "stroop-trial-1-congruent-11", "trial_type": "html-keyboard-response", "trial_index": 176, "time_elapsed": 301476, "internal_node_id": "0.0-6.0-81.0"}}, {"uniqueid": "w96566892:a76193330", "current_trial": 177, "dateTime": 1664464216408, "trialdata": {"rt": 474, "stimulus": "<p id='stroop-text' class='stroop-red'>RED</p>", "response": "r", "stimulus-type": "congruent", "word": "red", "color": "red", "correct_response": "r", "trial_id": "stroop-trial-1-congruent-20", "trial_type": "html-keyboard-response", "trial_index": 177, "time_elapsed": 302453, "internal_node_id": "0.0-6.0-82.0"}}, {"uniqueid": "w96566892:a76193330", "current_trial": 178, "dateTime": 1664464217474, "trialdata": {"rt": 564, "stimulus": "<p id='stroop-text' class='stroop-green'>BRIDGE</p>", "response": "g", "stimulus-type": "unrelated", "word": "BRIDGE", "color": "green", "correct_response": "g", "trial_id": "stroop-trial-1-unrelated-9", "trial_type": "html-keyboard-response", "trial_index": 178, "time_elapsed": 303519, "internal_node_id": "0.0-6.0-83.0"}}, {"uniqueid": "w96566892:a76193330", "current_trial": 179, "dateTime": 1664464218529, "trialdata": {"rt": 554, "stimulus": "<p id='stroop-text' class='stroop-yellow'>YELLOW</p>", "response": "y", "stimulus-type": "congruent", "word": "yellow", "color": "yellow", "correct_response": "y", "trial_id": "stroop-trial-1-congruent-19", "trial_type": "html-keyboard-response", "trial_index": 179, "time_elapsed": 304575, "internal_node_id": "0.0-6.0-84.0"}}, {"uniqueid": "w96566892:a76193330", "current_trial": 180, "dateTime": 1664464219357, "trialdata": {"rt": 326, "stimulus": "<p id='stroop-text' class='stroop-blue'>BLUE</p>", "response": "b", "stimulus-type": "congruent", "word": "blue", "color": "blue", "correct_response": "b", "trial_id": "stroop-trial-1-congruent-16", "trial_type": "html-keyboard-response", "trial_index": 180, "time_elapsed": 305403, "internal_node_id": "0.0-6.0-85.0"}}, {"uniqueid": "w96566892:a76193330", "current_trial": 181, "dateTime": 1664464220308, "trialdata": {"rt": 449, "stimulus": "<p id='stroop-text' class='stroop-green'>GREEN</p>", "response": "g", "stimulus-type": "congruent", "word": "green", "color": "green", "correct_response": "g", "trial_id": "stroop-trial-1-congruent-24", "trial_type": "html-keyboard-response", "trial_index": 181, "time_elapsed": 306353, "internal_node_id": "0.0-6.0-86.0"}}, {"uniqueid": "w96566892:a76193330", "current_trial": 182, "dateTime": 1664464221373, "trialdata": {"rt": 563, "stimulus": "<p id='stroop-text' class='stroop-blue'>BLUE</p>", "response": "b", "stimulus-type": "congruent", "word": "blue", "color": "blue", "correct_response": "b", "trial_id": "stroop-trial-1-congruent-22", "trial_type": "html-keyboard-response", "trial_index": 182, "time_elapsed": 307419, "internal_node_id": "0.0-6.0-87.0"}}, {"uniqueid": "w96566892:a76193330", "current_trial": 183, "dateTime": 1664464222365, "trialdata": {"rt": 489, "stimulus": "<p id='stroop-text' class='stroop-yellow'>YELLOW</p>", "response": "g", "stimulus-type": "congruent", "word": "yellow", "color": "yellow", "correct_response": "y", "trial_id": "stroop-trial-1-congruent-5", "trial_type": "html-keyboard-response", "trial_index": 183, "time_elapsed": 308410, "internal_node_id": "0.0-6.0-88.0"}}, {"uniqueid": "w96566892:a76193330", "current_trial": 184, "dateTime": 1664464224136, "trialdata": {"rt": 1269, "stimulus": "<p id='stroop-text' class='stroop-green'>MONKEY</p>", "response": "g", "stimulus-type": "unrelated", "word": "MONKEY", "color": "green", "correct_response": "g", "trial_id": "stroop-trial-1-unrelated-15", "trial_type": "html-keyboard-response", "trial_index": 184, "time_elapsed": 310181, "internal_node_id": "0.0-6.0-89.0"}}, {"uniqueid": "w96566892:a76193330", "current_trial": 185, "dateTime": 1664464227569, "trialdata": {"rt": 2932, "stimulus": "  <h1> End of block! </h1>\n\n  You have reached the end of the block 2/5. If you need a short break, feel free to take one now before moving on.\n\n  <br><br>\n  In the next block, you will complete another 90 rounds of this game.\n\n  <br><br>\n  <div style='text-align: center;'>Press <code>space</code> to begin.</div>\n  <br><br>\n<div style='text-align: center;'>(If the experiment doesn't continue, try clicking on the text and then pressing <code>space</code>.)</div>", "response": " ", "trial_id": "stroop_1_ready_3", "trial_type": "html-keyboard-response", "trial_index": 185, "time_elapsed": 313615, "internal_node_id": "0.0-7.0"}}, {"uniqueid": "w96566892:a76193330", "current_trial": 186, "dateTime": 1664464228035, "trialdata": {"rt": 463, "stimulus": "<p id='stroop-text' class='stroop-red'>RED</p>", "response": "r", "stimulus-type": "congruent", "word": "red", "color": "red", "correct_response": "r", "trial_id": "stroop-trial-1-congruent-14", "trial_type": "html-keyboard-response", "trial_index": 186, "time_elapsed": 314081, "internal_node_id": "0.0-8.0-0.0"}}, {"uniqueid": "w96566892:a76193330", "current_trial": 187, "dateTime": 1664464229552, "trialdata": {"rt": 1015, "stimulus": "<p id='stroop-text' class='stroop-yellow'>RED</p>", "response": "y", "stimulus-type": "incongruent", "word": "red", "color": "yellow", "correct_response": "y", "trial_id": "stroop-trial-1-incongruent-26", "trial_type": "html-keyboard-response", "trial_index": 187, "time_elapsed": 315598, "internal_node_id": "0.0-8.0-1.0"}}, {"uniqueid": "w96566892:a76193330", "current_trial": 188, "dateTime": 1664464230604, "trialdata": {"rt": 550, "stimulus": "<p id='stroop-text' class='stroop-red'>BRAIN</p>", "response": "r", "stimulus-type": "unrelated", "word": "BRAIN", "color": "red", "correct_response": "r", "trial_id": "stroop-trial-1-unrelated-7", "trial_type": "html-keyboard-response", "trial_index": 188, "time_elapsed": 316650, "internal_node_id": "0.0-8.0-2.0"}}, {"uniqueid": "w96566892:a76193330", "current_trial": 189, "dateTime": 1664464231626, "trialdata": {"rt": 519, "stimulus": "<p id='stroop-text' class='stroop-green'>GREEN</p>", "response": "g", "stimulus-type": "congruent", "word": "green", "color": "green", "correct_response": "g", "trial_id": "stroop-trial-1-congruent-9", "trial_type": "html-keyboard-response", "trial_index": 189, "time_elapsed": 317672, "internal_node_id": "0.0-8.0-3.0"}}, {"uniqueid": "w96566892:a76193330", "current_trial": 190, "dateTime": 1664464232586, "trialdata": {"rt": 459, "stimulus": "<p id='stroop-text' class='stroop-green'>DOG</p>", "response": "g", "stimulus-type": "unrelated", "word": "DOG", "color": "green", "correct_response": "g", "trial_id": "stroop-trial-1-unrelated-15", "trial_type": "html-keyboard-response", "trial_index": 190, "time_elapsed": 318632, "internal_node_id": "0.0-8.0-4.0"}}, {"uniqueid": "w96566892:a76193330", "current_trial": 191, "dateTime": 1664464233619, "trialdata": {"rt": 531, "stimulus": "<p id='stroop-text' class='stroop-blue'>BLUE</p>", "response": "b", "stimulus-type": "congruent", "word": "blue", "color": "blue", "correct_response": "b", "trial_id": "stroop-trial-1-congruent-4", "trial_type": "html-keyboard-response", "trial_index": 191, "time_elapsed": 319663, "internal_node_id": "0.0-8.0-5.0"}}, {"uniqueid": "w96566892:a76193330", "current_trial": 192, "dateTime": 1664464234510, "trialdata": {"rt": 389, "stimulus": "<p id='stroop-text' class='stroop-blue'>BLUE</p>", "response": "b", "stimulus-type": "congruent", "word": "blue", "color": "blue", "correct_response": "b", "trial_id": "stroop-trial-1-congruent-1", "trial_type": "html-keyboard-response", "trial_index": 192, "time_elapsed": 320556, "internal_node_id": "0.0-8.0-6.0"}}, {"uniqueid": "w96566892:a76193330", "current_trial": 193, "dateTime": 1664464235564, "trialdata": {"rt": 552, "stimulus": "<p id='stroop-text' class='stroop-yellow'>YELLOW</p>", "response": "y", "stimulus-type": "congruent", "word": "yellow", "color": "yellow", "correct_response": "y", "trial_id": "stroop-trial-1-congruent-13", "trial_type": "html-keyboard-response", "trial_index": 193, "time_elapsed": 321610, "internal_node_id": "0.0-8.0-7.0"}}, {"uniqueid": "w96566892:a76193330", "current_trial": 194, "dateTime": 1664464236566, "trialdata": {"rt": 500, "stimulus": "<p id='stroop-text' class='stroop-yellow'>RED</p>", "response": "r", "stimulus-type": "incongruent", "word": "red", "color": "yellow", "correct_response": "y", "trial_id": "stroop-trial-1-incongruent-1", "trial_type": "html-keyboard-response", "trial_index": 194, "time_elapsed": 322612, "internal_node_id": "0.0-8.0-8.0"}}, {"uniqueid": "w96566892:a76193330", "current_trial": 195, "dateTime": 1664464238678, "trialdata": {"rt": 1611, "stimulus": "<p id='stroop-text' class='stroop-yellow'>DOG</p>", "response": "y", "stimulus-type": "unrelated", "word": "DOG", "color": "yellow", "correct_response": "y", "trial_id": "stroop-trial-1-unrelated-3", "trial_type": "html-keyboard-response", "trial_index": 195, "time_elapsed": 324724, "internal_node_id": "0.0-8.0-9.0"}}, {"uniqueid": "w96566892:a76193330", "current_trial": 196, "dateTime": 1664464239731, "trialdata": {"rt": 552, "stimulus": "<p id='stroop-text' class='stroop-blue'>BLUE</p>", "response": "b", "stimulus-type": "congruent", "word": "blue", "color": "blue", "correct_response": "b", "trial_id": "stroop-trial-1-congruent-21", "trial_type": "html-keyboard-response", "trial_index": 196, "time_elapsed": 325777, "internal_node_id": "0.0-8.0-10.0"}}, {"uniqueid": "w96566892:a76193330", "current_trial": 197, "dateTime": 1664464241031, "trialdata": {"rt": 798, "stimulus": "<p id='stroop-text' class='stroop-blue'>SHIP</p>", "response": "b", "stimulus-type": "unrelated", "word": "SHIP", "color": "blue", "correct_response": "b", "trial_id": "stroop-trial-1-unrelated-10", "trial_type": "html-keyboard-response", "trial_index": 197, "time_elapsed": 327077, "internal_node_id": "0.0-8.0-11.0"}}, {"uniqueid": "w96566892:a76193330", "current_trial": 198, "dateTime": 1664464242134, "trialdata": {"rt": 601, "stimulus": "<p id='stroop-text' class='stroop-red'>DOG</p>", "response": "r", "stimulus-type": "unrelated", "word": "DOG", "color": "red", "correct_response": "r", "trial_id": "stroop-trial-1-unrelated-19", "trial_type": "html-keyboard-response", "trial_index": 198, "time_elapsed": 328180, "internal_node_id": "0.0-8.0-12.0"}}, {"uniqueid": "w96566892:a76193330", "current_trial": 199, "dateTime": 1664464243167, "trialdata": {"rt": 530, "stimulus": "<p id='stroop-text' class='stroop-yellow'>YELLOW</p>", "response": "y", "stimulus-type": "congruent", "word": "yellow", "color": "yellow", "correct_response": "y", "trial_id": "stroop-trial-1-congruent-30", "trial_type": "html-keyboard-response", "trial_index": 199, "time_elapsed": 329211, "internal_node_id": "0.0-8.0-13.0"}}, {"uniqueid": "w96566892:a76193330", "current_trial": 200, "dateTime": 1664464244028, "trialdata": {"rt": 359, "stimulus": "<p id='stroop-text' class='stroop-green'>RED</p>", "response": "g", "stimulus-type": "incongruent", "word": "red", "color": "green", "correct_response": "g", "trial_id": "stroop-trial-1-incongruent-19", "trial_type": "html-keyboard-response", "trial_index": 200, "time_elapsed": 330073, "internal_node_id": "0.0-8.0-14.0"}}, {"uniqueid": "w96566892:a76193330", "current_trial": 201, "dateTime": 1664464244921, "trialdata": {"rt": 392, "stimulus": "<p id='stroop-text' class='stroop-green'>BLUE</p>", "response": "g", "stimulus-type": "incongruent", "word": "blue", "color": "green", "correct_response": "g", "trial_id": "stroop-trial-1-incongruent-14", "trial_type": "html-keyboard-response", "trial_index": 201, "time_elapsed": 330967, "internal_node_id": "0.0-8.0-15.0"}}, {"uniqueid": "w96566892:a76193330", "current_trial": 202, "dateTime": 1664464245851, "trialdata": {"rt": 429, "stimulus": "<p id='stroop-text' class='stroop-red'>DOG</p>", "response": "r", "stimulus-type": "unrelated", "word": "DOG", "color": "red", "correct_response": "r", "trial_id": "stroop-trial-1-unrelated-28", "trial_type": "html-keyboard-response", "trial_index": 202, "time_elapsed": 331897, "internal_node_id": "0.0-8.0-16.0"}}, {"uniqueid": "w96566892:a76193330", "current_trial": 203, "dateTime": 1664464246886, "trialdata": {"rt": 534, "stimulus": "<p id='stroop-text' class='stroop-green'>YELLOW</p>", "response": "g", "stimulus-type": "incongruent", "word": "yellow", "color": "green", "correct_response": "g", "trial_id": "stroop-trial-1-incongruent-3", "trial_type": "html-keyboard-response", "trial_index": 203, "time_elapsed": 332932, "internal_node_id": "0.0-8.0-17.0"}}, {"uniqueid": "w96566892:a76193330", "current_trial": 204, "dateTime": 1664464247908, "trialdata": {"rt": 519, "stimulus": "<p id='stroop-text' class='stroop-red'>CHAIR</p>", "response": "r", "stimulus-type": "unrelated", "word": "CHAIR", "color": "red", "correct_response": "r", "trial_id": "stroop-trial-1-unrelated-13", "trial_type": "html-keyboard-response", "trial_index": 204, "time_elapsed": 333954, "internal_node_id": "0.0-8.0-18.0"}}, {"uniqueid": "w96566892:a76193330", "current_trial": 205, "dateTime": 1664464248810, "trialdata": {"rt": 400, "stimulus": "<p id='stroop-text' class='stroop-red'>BLUE</p>", "response": "r", "stimulus-type": "incongruent", "word": "blue", "color": "red", "correct_response": "r", "trial_id": "stroop-trial-1-incongruent-10", "trial_type": "html-keyboard-response", "trial_index": 205, "time_elapsed": 334856, "internal_node_id": "0.0-8.0-19.0"}}, {"uniqueid": "w96566892:a76193330", "current_trial": 206, "dateTime": 1664464249858, "trialdata": {"rt": 547, "stimulus": "<p id='stroop-text' class='stroop-blue'>GREEN</p>", "response": "b", "stimulus-type": "incongruent", "word": "green", "color": "blue", "correct_response": "b", "trial_id": "stroop-trial-1-incongruent-22", "trial_type": "html-keyboard-response", "trial_index": 206, "time_elapsed": 335904, "internal_node_id": "0.0-8.0-20.0"}}, {"uniqueid": "w96566892:a76193330", "current_trial": 207, "dateTime": 1664464251003, "trialdata": {"rt": 643, "stimulus": "<p id='stroop-text' class='stroop-red'>FORK</p>", "response": "r", "stimulus-type": "unrelated", "word": "FORK", "color": "red", "correct_response": "r", "trial_id": "stroop-trial-1-unrelated-18", "trial_type": "html-keyboard-response", "trial_index": 207, "time_elapsed": 337049, "internal_node_id": "0.0-8.0-21.0"}}, {"uniqueid": "w96566892:a76193330", "current_trial": 208, "dateTime": 1664464252366, "trialdata": {"rt": 861, "stimulus": "<p id='stroop-text' class='stroop-yellow'>YELLOW</p>", "response": "y", "stimulus-type": "congruent", "word": "yellow", "color": "yellow", "correct_response": "y", "trial_id": "stroop-trial-1-congruent-16", "trial_type": "html-keyboard-response", "trial_index": 208, "time_elapsed": 338412, "internal_node_id": "0.0-8.0-22.0"}}, {"uniqueid": "w96566892:a76193330", "current_trial": 209, "dateTime": 1664464253682, "trialdata": {"rt": 813, "stimulus": "<p id='stroop-text' class='stroop-blue'>DOG</p>", "response": "b", "stimulus-type": "unrelated", "word": "DOG", "color": "blue", "correct_response": "b", "trial_id": "stroop-trial-1-unrelated-8", "trial_type": "html-keyboard-response", "trial_index": 209, "time_elapsed": 339727, "internal_node_id": "0.0-8.0-23.0"}}, {"uniqueid": "w96566892:a76193330", "current_trial": 210, "dateTime": 1664464254558, "trialdata": {"rt": 375, "stimulus": "<p id='stroop-text' class='stroop-blue'>DOG</p>", "response": "b", "stimulus-type": "unrelated", "word": "DOG", "color": "blue", "correct_response": "b", "trial_id": "stroop-trial-1-unrelated-21", "trial_type": "html-keyboard-response", "trial_index": 210, "time_elapsed": 340602, "internal_node_id": "0.0-8.0-24.0"}}, {"uniqueid": "w96566892:a76193330", "current_trial": 211, "dateTime": 1664464256291, "trialdata": {"rt": 1232, "stimulus": "<p id='stroop-text' class='stroop-yellow'>DOG</p>", "response": "y", "stimulus-type": "unrelated", "word": "DOG", "color": "yellow", "correct_response": "y", "trial_id": "stroop-trial-1-unrelated-24", "trial_type": "html-keyboard-response", "trial_index": 211, "time_elapsed": 342337, "internal_node_id": "0.0-8.0-25.0"}}, {"uniqueid": "w96566892:a76193330", "current_trial": 212, "dateTime": 1664464258050, "trialdata": {"rt": 1256, "stimulus": "<p id='stroop-text' class='stroop-blue'>STONE</p>", "response": "b", "stimulus-type": "unrelated", "word": "STONE", "color": "blue", "correct_response": "b", "trial_id": "stroop-trial-1-unrelated-22", "trial_type": "html-keyboard-response", "trial_index": 212, "time_elapsed": 344095, "internal_node_id": "0.0-8.0-26.0"}}, {"uniqueid": "w96566892:a76193330", "current_trial": 213, "dateTime": 1664464259747, "trialdata": {"rt": 1196, "stimulus": "<p id='stroop-text' class='stroop-green'>SHIP</p>", "response": "g", "stimulus-type": "unrelated", "word": "SHIP", "color": "green", "correct_response": "g", "trial_id": "stroop-trial-1-unrelated-5", "trial_type": "html-keyboard-response", "trial_index": 213, "time_elapsed": 345793, "internal_node_id": "0.0-8.0-27.0"}}, {"uniqueid": "w96566892:a76193330", "current_trial": 214, "dateTime": 1664464260873, "trialdata": {"rt": 625, "stimulus": "<p id='stroop-text' class='stroop-yellow'>YELLOW</p>", "response": "y", "stimulus-type": "congruent", "word": "yellow", "color": "yellow", "correct_response": "y", "trial_id": "stroop-trial-1-congruent-26", "trial_type": "html-keyboard-response", "trial_index": 214, "time_elapsed": 346919, "internal_node_id": "0.0-8.0-28.0"}}, {"uniqueid": "w96566892:a76193330", "current_trial": 215, "dateTime": 1664464261779, "trialdata": {"rt": 404, "stimulus": "<p id='stroop-text' class='stroop-green'>GREEN</p>", "response": "g", "stimulus-type": "congruent", "word": "green", "color": "green", "correct_response": "g", "trial_id": "stroop-trial-1-congruent-24", "trial_type": "html-keyboard-response", "trial_index": 215, "time_elapsed": 347825, "internal_node_id": "0.0-8.0-29.0"}}, {"uniqueid": "w96566892:a76193330", "current_trial": 216, "dateTime": 1664464262675, "trialdata": {"rt": 394, "stimulus": "<p id='stroop-text' class='stroop-red'>YELLOW</p>", "response": "r", "stimulus-type": "incongruent", "word": "yellow", "color": "red", "correct_response": "r", "trial_id": "stroop-trial-1-incongruent-7", "trial_type": "html-keyboard-response", "trial_index": 216, "time_elapsed": 348721, "internal_node_id": "0.0-8.0-30.0"}}, {"uniqueid": "w96566892:a76193330", "current_trial": 217, "dateTime": 1664464264025, "trialdata": {"rt": 848, "stimulus": "<p id='stroop-text' class='stroop-yellow'>RED</p>", "response": "y", "stimulus-type": "incongruent", "word": "red", "color": "yellow", "correct_response": "y", "trial_id": "stroop-trial-1-incongruent-18", "trial_type": "html-keyboard-response", "trial_index": 217, "time_elapsed": 350071, "internal_node_id": "0.0-8.0-31.0"}}, {"uniqueid": "w96566892:a76193330", "current_trial": 218, "dateTime": 1664464265049, "trialdata": {"rt": 522, "stimulus": "<p id='stroop-text' class='stroop-blue'>GREEN</p>", "response": "b", "stimulus-type": "incongruent", "word": "green", "color": "blue", "correct_response": "b", "trial_id": "stroop-trial-1-incongruent-16", "trial_type": "html-keyboard-response", "trial_index": 218, "time_elapsed": 351095, "internal_node_id": "0.0-8.0-32.0"}}, {"uniqueid": "w96566892:a76193330", "current_trial": 219, "dateTime": 1664464266153, "trialdata": {"rt": 601, "stimulus": "<p id='stroop-text' class='stroop-green'>BLUE</p>", "response": "g", "stimulus-type": "incongruent", "word": "blue", "color": "green", "correct_response": "g", "trial_id": "stroop-trial-1-incongruent-13", "trial_type": "html-keyboard-response", "trial_index": 219, "time_elapsed": 352199, "internal_node_id": "0.0-8.0-33.0"}}, {"uniqueid": "w96566892:a76193330", "current_trial": 220, "dateTime": 1664464267087, "trialdata": {"rt": 433, "stimulus": "<p id='stroop-text' class='stroop-yellow'>YELLOW</p>", "response": "y", "stimulus-type": "congruent", "word": "yellow", "color": "yellow", "correct_response": "y", "trial_id": "stroop-trial-1-congruent-17", "trial_type": "html-keyboard-response", "trial_index": 220, "time_elapsed": 353133, "internal_node_id": "0.0-8.0-34.0"}}, {"uniqueid": "w96566892:a76193330", "current_trial": 221, "dateTime": 1664464268128, "trialdata": {"rt": 537, "stimulus": "<p id='stroop-text' class='stroop-green'>YELLOW</p>", "response": "g", "stimulus-type": "incongruent", "word": "yellow", "color": "green", "correct_response": "g", "trial_id": "stroop-trial-1-incongruent-28", "trial_type": "html-keyboard-response", "trial_index": 221, "time_elapsed": 354173, "internal_node_id": "0.0-8.0-35.0"}}, {"uniqueid": "w96566892:a76193330", "current_trial": 222, "dateTime": 1664464269228, "trialdata": {"rt": 597, "stimulus": "<p id='stroop-text' class='stroop-yellow'>CHAIR</p>", "response": "y", "stimulus-type": "unrelated", "word": "CHAIR", "color": "yellow", "correct_response": "y", "trial_id": "stroop-trial-1-unrelated-6", "trial_type": "html-keyboard-response", "tria