{"condition": 0, "counterbalance": 0, "assignmentId": "a80915835", "workerId": "w99982439", "hitId": "h25142148", "currenttrial": 977, "bonus": 0, "data": [{"uniqueid": "w99982439:a80915835", "current_trial": 0, "dateTime": 1664463947881, "trialdata": {"success": true, "trial_type": "fullscreen", "trial_index": 0, "time_elapsed": 4766, "internal_node_id": "0.0-0.0"}}, {"uniqueid": "w99982439:a80915835", "current_trial": 1, "dateTime": 1664463986724, "trialdata": {"view_history": [{"page_index": 0, "viewing_time": 38840}], "rt": 38840, "trial_id": "exp_instructions_distractor", "trial_type": "instructions", "trial_index": 1, "time_elapsed": 43609, "internal_node_id": "0.0-1.0"}}, {"uniqueid": "w99982439:a80915835", "current_trial": 2, "dateTime": 1664464021878, "trialdata": {"view_history": [{"page_index": 0, "viewing_time": 35151}], "rt": 35151, "trial_id": "color_game_instructions", "trial_type": "instructions", "trial_index": 2, "time_elapsed": 78762, "internal_node_id": "0.0-2.0"}}, {"uniqueid": "w99982439:a80915835", "current_trial": 3, "dateTime": 1664464024094, "trialdata": {"rt": 2214, "stimulus": "<h1> Get ready to start the game! </h1>\n\nThank you for reading the instructions. Get ready start with the first of 5 block(s) of this game.\n<br><br>\nIn this first block, you will complete 90 rounds of this game before moving on.\n<br><br>\nRemember, the better you perform, the bigger your bonus will be!\n<br><br>\n<div style='text-align: center;'>Press <code>space</code> to begin.</div>", "response": " ", "trial_id": "stroop_1_ready_1", "trial_type": "html-keyboard-response", "trial_index": 3, "time_elapsed": 80978, "internal_node_id": "0.0-3.0"}}, {"uniqueid": "w99982439:a80915835", "current_trial": 4, "dateTime": 1664464025685, "trialdata": {"rt": 1590, "stimulus": "<p id='stroop-text' class='stroop-red'>CHAIR</p>", "response": "r", "stimulus-type": "unrelated", "word": "CHAIR", "color": "red", "correct_response": "r", "trial_id": "stroop-trial-1-unrelated-10", "trial_type": "html-keyboard-response", "trial_index": 4, "time_elapsed": 82570, "internal_node_id": "0.0-4.0-0.0"}}, {"uniqueid": "w99982439:a80915835", "current_trial": 5, "dateTime": 1664464027405, "trialdata": {"rt": 1212, "stimulus": "<p id='stroop-text' class='stroop-green'>GREEN</p>", "response": "g", "stimulus-type": "congruent", "word": "green", "color": "green", "correct_response": "g", "trial_id": "stroop-trial-1-congruent-2", "trial_type": "html-keyboard-response", "trial_index": 5, "time_elapsed": 84290, "internal_node_id": "0.0-4.0-1.0"}}, {"uniqueid": "w99982439:a80915835", "current_trial": 6, "dateTime": 1664464028733, "trialdata": {"rt": 814, "stimulus": "<p id='stroop-text' class='stroop-blue'>BLUE</p>", "response": "b", "stimulus-type": "congruent", "word": "blue", "color": "blue", "correct_response": "b", "trial_id": "stroop-trial-1-congruent-12", "trial_type": "html-keyboard-response", "trial_index": 6, "time_elapsed": 85617, "internal_node_id": "0.0-4.0-2.0"}}, {"uniqueid": "w99982439:a80915835", "current_trial": 7, "dateTime": 1664464030101, "trialdata": {"rt": 852, "stimulus": "<p id='stroop-text' class='stroop-blue'>MONKEY</p>", "response": "b", "stimulus-type": "unrelated", "word": "MONKEY", "color": "blue", "correct_response": "b", "trial_id": "stroop-trial-1-unrelated-14", "trial_type": "html-keyboard-response", "trial_index": 7, "time_elapsed": 86986, "internal_node_id": "0.0-4.0-3.0"}}, {"uniqueid": "w99982439:a80915835", "current_trial": 8, "dateTime": 1664464031509, "trialdata": {"rt": 894, "stimulus": "<p id='stroop-text' class='stroop-yellow'>YELLOW</p>", "response": "y", "stimulus-type": "congruent", "word": "yellow", "color": "yellow", "correct_response": "y", "trial_id": "stroop-trial-1-congruent-7", "trial_type": "html-keyboard-response", "trial_index": 8, "time_elapsed": 88394, "internal_node_id": "0.0-4.0-4.0"}}, {"uniqueid": "w99982439:a80915835", "current_trial": 9, "dateTime": 1664464033157, "trialdata": {"rt": 1140, "stimulus": "<p id='stroop-text' class='stroop-blue'>GREEN</p>", "response": "b", "stimulus-type": "incongruent", "word": "green", "color": "blue", "correct_response": "b", "trial_id": "stroop-trial-1-incongruent-14", "trial_type": "html-keyboard-response", "trial_index": 9, "time_elapsed": 90041, "internal_node_id": "0.0-4.0-5.0"}}, {"uniqueid": "w99982439:a80915835", "current_trial": 10, "dateTime": 1664464034437, "trialdata": {"rt": 769, "stimulus": "<p id='stroop-text' class='stroop-red'>BLUE</p>", "response": "r", "stimulus-type": "incongruent", "word": "blue", "color": "red", "correct_response": "r", "trial_id": "stroop-trial-1-incongruent-2", "trial_type": "html-keyboard-response", "trial_index": 10, "time_elapsed": 91322, "internal_node_id": "0.0-4.0-6.0"}}, {"uniqueid": "w99982439:a80915835", "current_trial": 11, "dateTime": 1664464035669, "trialdata": {"rt": 728, "stimulus": "<p id='stroop-text' class='stroop-red'>GREEN</p>", "response": "r", "stimulus-type": "incongruent", "word": "green", "color": "red", "correct_response": "r", "trial_id": "stroop-trial-1-incongruent-11", "trial_type": "html-keyboard-response", "trial_index": 11, "time_elapsed": 92554, "internal_node_id": "0.0-4.0-7.0"}}, {"uniqueid": "w99982439:a80915835", "current_trial": 12, "dateTime": 1664464036837, "trialdata": {"rt": 662, "stimulus": "<p id='stroop-text' class='stroop-blue'>BLUE</p>", "response": "b", "stimulus-type": "congruent", "word": "blue", "color": "blue", "correct_response": "b", "trial_id": "stroop-trial-1-congruent-1", "trial_type": "html-keyboard-response", "trial_index": 12, "time_elapsed": 93722, "internal_node_id": "0.0-4.0-8.0"}}, {"uniqueid": "w99982439:a80915835", "current_trial": 13, "dateTime": 1664464037925, "trialdata": {"rt": 585, "stimulus": "<p id='stroop-text' class='stroop-red'>RED</p>", "response": "r", "stimulus-type": "congruent", "word": "red", "color": "red", "correct_response": "r", "trial_id": "stroop-trial-1-congruent-19", "trial_type": "html-keyboard-response", "trial_index": 13, "time_elapsed": 94810, "internal_node_id": "0.0-4.0-9.0"}}, {"uniqueid": "w99982439:a80915835", "current_trial": 14, "dateTime": 1664464039517, "trialdata": {"rt": 1081, "stimulus": "<p id='stroop-text' class='stroop-green'>FORK</p>", "response": "g", "stimulus-type": "unrelated", "word": "FORK", "color": "green", "correct_response": "g", "trial_id": "stroop-trial-1-unrelated-29", "trial_type": "html-keyboard-response", "trial_index": 14, "time_elapsed": 96402, "internal_node_id": "0.0-4.0-10.0"}}, {"uniqueid": "w99982439:a80915835", "current_trial": 15, "dateTime": 1664464040773, "trialdata": {"rt": 739, "stimulus": "<p id='stroop-text' class='stroop-red'>DOG</p>", "response": "r", "stimulus-type": "unrelated", "word": "DOG", "color": "red", "correct_response": "r", "trial_id": "stroop-trial-1-unrelated-18", "trial_type": "html-keyboard-response", "trial_index": 15, "time_elapsed": 97657, "internal_node_id": "0.0-4.0-11.0"}}, {"uniqueid": "w99982439:a80915835", "current_trial": 16, "dateTime": 1664464042061, "trialdata": {"rt": 783, "stimulus": "<p id='stroop-text' class='stroop-green'>BOTTLE</p>", "response": "g", "stimulus-type": "unrelated", "word": "BOTTLE", "color": "green", "correct_response": "g", "trial_id": "stroop-trial-1-unrelated-7", "trial_type": "html-keyboard-response", "trial_index": 16, "time_elapsed": 98946, "internal_node_id": "0.0-4.0-12.0"}}, {"uniqueid": "w99982439:a80915835", "current_trial": 17, "dateTime": 1664464043269, "trialdata": {"rt": 699, "stimulus": "<p id='stroop-text' class='stroop-blue'>YELLOW</p>", "response": "b", "stimulus-type": "incongruent", "word": "yellow", "color": "blue", "correct_response": "b", "trial_id": "stroop-trial-1-incongruent-17", "trial_type": "html-keyboard-response", "trial_index": 17, "time_elapsed": 100154, "internal_node_id": "0.0-4.0-13.0"}}, {"uniqueid": "w99982439:a80915835", "current_trial": 18, "dateTime": 1664464044445, "trialdata": {"rt": 665, "stimulus": "<p id='stroop-text' class='stroop-blue'>FORK</p>", "response": "b", "stimulus-type": "unrelated", "word": "FORK", "color": "blue", "correct_response": "b", "trial_id": "stroop-trial-1-unrelated-28", "trial_type": "html-keyboard-response", "trial_index": 18, "time_elapsed": 101330, "internal_node_id": "0.0-4.0-14.0"}}, {"uniqueid": "w99982439:a80915835", "current_trial": 19, "dateTime": 1664464045485, "trialdata": {"rt": 525, "stimulus": "<p id='stroop-text' class='stroop-yellow'>FORK</p>", "response": "y", "stimulus-type": "unrelated", "word": "FORK", "color": "yellow", "correct_response": "y", "trial_id": "stroop-trial-1-unrelated-20", "trial_type": "html-keyboard-response", "trial_index": 19, "time_elapsed": 102370, "internal_node_id": "0.0-4.0-15.0"}}, {"uniqueid": "w99982439:a80915835", "current_trial": 20, "dateTime": 1664464046613, "trialdata": {"rt": 621, "stimulus": "<p id='stroop-text' class='stroop-red'>DOG</p>", "response": "r", "stimulus-type": "unrelated", "word": "DOG", "color": "red", "correct_response": "r", "trial_id": "stroop-trial-1-unrelated-4", "trial_type": "html-keyboard-response", "trial_index": 20, "time_elapsed": 103498, "internal_node_id": "0.0-4.0-16.0"}}, {"uniqueid": "w99982439:a80915835", "current_trial": 21, "dateTime": 1664464047589, "trialdata": {"rt": 466, "stimulus": "<p id='stroop-text' class='stroop-red'>RED</p>", "response": "r", "stimulus-type": "congruent", "word": "red", "color": "red", "correct_response": "r", "trial_id": "stroop-trial-1-congruent-9", "trial_type": "html-keyboard-response", "trial_index": 21, "time_elapsed": 104474, "internal_node_id": "0.0-4.0-17.0"}}, {"uniqueid": "w99982439:a80915835", "current_trial": 22, "dateTime": 1664464048629, "trialdata": {"rt": 530, "stimulus": "<p id='stroop-text' class='stroop-red'>BOAT</p>", "response": "r", "stimulus-type": "unrelated", "word": "BOAT", "color": "red", "correct_response": "r", "trial_id": "stroop-trial-1-unrelated-17", "trial_type": "html-keyboard-response", "trial_index": 22, "time_elapsed": 105513, "internal_node_id": "0.0-4.0-18.0"}}, {"uniqueid": "w99982439:a80915835", "current_trial": 23, "dateTime": 1664464050269, "trialdata": {"rt": 1127, "stimulus": "<p id='stroop-text' class='stroop-green'>BRAIN</p>", "response": "g", "stimulus-type": "unrelated", "word": "BRAIN", "color": "green", "correct_response": "g", "trial_id": "stroop-trial-1-unrelated-30", "trial_type": "html-keyboard-response", "trial_index": 23, "time_elapsed": 107154, "internal_node_id": "0.0-4.0-19.0"}}, {"uniqueid": "w99982439:a80915835", "current_trial": 24, "dateTime": 1664464052325, "trialdata": {"rt": 1542, "stimulus": "<p id='stroop-text' class='stroop-red'>BLUE</p>", "response": "r", "stimulus-type": "incongruent", "word": "blue", "color": "red", "correct_response": "r", "trial_id": "stroop-trial-1-incongruent-23", "trial_type": "html-keyboard-response", "trial_index": 24, "time_elapsed": 109210, "internal_node_id": "0.0-4.0-20.0"}}, {"uniqueid": "w99982439:a80915835", "current_trial": 25, "dateTime": 1664464053941, "trialdata": {"rt": 1100, "stimulus": "<p id='stroop-text' class='stroop-blue'>BLUE</p>", "response": "b", "stimulus-type": "congruent", "word": "blue", "color": "blue", "correct_response": "b", "trial_id": "stroop-trial-1-congruent-6", "trial_type": "html-keyboard-response", "trial_index": 25, "time_elapsed": 110825, "internal_node_id": "0.0-4.0-21.0"}}, {"uniqueid": "w99982439:a80915835", "current_trial": 26, "dateTime": 1664464055933, "trialdata": {"rt": 1476, "stimulus": "<p id='stroop-text' class='stroop-green'>RED</p>", "response": "g", "stimulus-type": "incongruent", "word": "red", "color": "green", "correct_response": "g", "trial_id": "stroop-trial-1-incongruent-29", "trial_type": "html-keyboard-response", "trial_index": 26, "time_elapsed": 112818, "internal_node_id": "0.0-4.0-22.0"}}, {"uniqueid": "w99982439:a80915835", "current_trial": 27, "dateTime": 1664464057013, "trialdata": {"rt": 568, "stimulus": "<p id='stroop-text' class='stroop-yellow'>BLUE</p>", "response": "y", "stimulus-type": "incongruent", "word": "blue", "color": "yellow", "correct_response": "y", "trial_id": "stroop-trial-1-incongruent-8", "trial_type": "html-keyboard-response", "trial_index": 27, "time_elapsed": 113898, "internal_node_id": "0.0-4.0-23.0"}}, {"uniqueid": "w99982439:a80915835", "current_trial": 28, "dateTime": 1664464058221, "trialdata": {"rt": 702, "stimulus": "<p id='stroop-text' class='stroop-yellow'>BLUE</p>", "response": "y", "stimulus-type": "incongruent", "word": "blue", "color": "yellow", "correct_response": "y", "trial_id": "stroop-trial-1-incongruent-30", "trial_type": "html-keyboard-response", "trial_index": 28, "time_elapsed": 115106, "internal_node_id": "0.0-4.0-24.0"}}, {"uniqueid": "w99982439:a80915835", "current_trial": 29, "dateTime": 1664464060181, "trialdata": {"rt": 1452, "stimulus": "<p id='stroop-text' class='stroop-blue'>CHAIR</p>", "response": "b", "stimulus-type": "unrelated", "word": "CHAIR", "color": "blue", "correct_response": "b", "trial_id": "stroop-trial-1-unrelated-3", "trial_type": "html-keyboard-response", "trial_index": 29, "time_elapsed": 117066, "internal_node_id": "0.0-4.0-25.0"}}, {"uniqueid": "w99982439:a80915835", "current_trial": 30, "dateTime": 1664464061789, "trialdata": {"rt": 1107, "stimulus": "<p id='stroop-text' class='stroop-yellow'>YELLOW</p>", "response": "y", "stimulus-type": "congruent", "word": "yellow", "color": "yellow", "correct_response": "y", "trial_id": "stroop-trial-1-congruent-14", "trial_type": "html-keyboard-response", "trial_index": 30, "time_elapsed": 118674, "internal_node_id": "0.0-4.0-26.0"}}, {"uniqueid": "w99982439:a80915835", "current_trial": 31, "dateTime": 1664464063741, "trialdata": {"rt": 1439, "stimulus": "<p id='stroop-text' class='stroop-red'>RED</p>", "response": "r", "stimulus-type": "congruent", "word": "red", "color": "red", "correct_response": "r", "trial_id": "stroop-trial-1-congruent-18", "trial_type": "html-keyboard-response", "trial_index": 31, "time_elapsed": 120626, "internal_node_id": "0.0-4.0-27.0"}}, {"uniqueid": "w99982439:a80915835", "current_trial": 32, "dateTime": 1664464065565, "trialdata": {"rt": 1321, "stimulus": "<p id='stroop-text' class='stroop-blue'>GREEN</p>", "response": "b", "stimulus-type": "incongruent", "word": "green", "color": "blue", "correct_response": "b", "trial_id": "stroop-trial-1-incongruent-3", "trial_type": "html-keyboard-response", "trial_index": 32, "time_elapsed": 122450, "internal_node_id": "0.0-4.0-28.0"}}, {"uniqueid": "w99982439:a80915835", "current_trial": 33, "dateTime": 1664464067445, "trialdata": {"rt": 1377, "stimulus": "<p id='stroop-text' class='stroop-red'>GREEN</p>", "response": "r", "stimulus-type": "incongruent", "word": "green", "color": "red", "correct_response": "r", "trial_id": "stroop-trial-1-incongruent-12", "trial_type": "html-keyboard-response", "trial_index": 33, "time_elapsed": 124330, "internal_node_id": "0.0-4.0-29.0"}}, {"uniqueid": "w99982439:a80915835", "current_trial": 34, "dateTime": 1664464068813, "trialdata": {"rt": 861, "stimulus": "<p id='stroop-text' class='stroop-yellow'>YELLOW</p>", "response": "y", "stimulus-type": "congruent", "word": "yellow", "color": "yellow", "correct_response": "y", "trial_id": "stroop-trial-1-congruent-26", "trial_type": "html-keyboard-response", "trial_index": 34, "time_elapsed": 125698, "internal_node_id": "0.0-4.0-30.0"}}, {"uniqueid": "w99982439:a80915835", "current_trial": 35, "dateTime": 1664464069949, "trialdata": {"rt": 625, "stimulus": "<p id='stroop-text' class='stroop-red'>DOG</p>", "response": "r", "stimulus-type": "unrelated", "word": "DOG", "color": "red", "correct_response": "r", "trial_id": "stroop-trial-1-unrelated-5", "trial_type": "html-keyboard-response", "trial_index": 35, "time_elapsed": 126834, "internal_node_id": "0.0-4.0-31.0"}}, {"uniqueid": "w99982439:a80915835", "current_trial": 36, "dateTime": 1664464071405, "trialdata": {"rt": 946, "stimulus": "<p id='stroop-text' class='stroop-blue'>SHIP</p>", "response": "b", "stimulus-type": "unrelated", "word": "SHIP", "color": "blue", "correct_response": "b", "trial_id": "stroop-trial-1-unrelated-8", "trial_type": "html-keyboard-response", "trial_index": 36, "time_elapsed": 128290, "internal_node_id": "0.0-4.0-32.0"}}, {"uniqueid": "w99982439:a80915835", "current_trial": 37, "dateTime": 1664464072445, "trialdata": {"rt": 533, "stimulus": "<p id='stroop-text' class='stroop-blue'>MONKEY</p>", "response": "b", "stimulus-type": "unrelated", "word": "MONKEY", "color": "blue", "correct_response": "b", "trial_id": "stroop-trial-1-unrelated-16", "trial_type": "html-keyboard-response", "trial_index": 37, "time_elapsed": 129330, "internal_node_id": "0.0-4.0-33.0"}}, {"uniqueid": "w99982439:a80915835", "current_trial": 38, "dateTime": 1664464074205, "trialdata": {"rt": 1249, "stimulus": "<p id='stroop-text' class='stroop-green'>RED</p>", "response": "g", "stimulus-type": "incongruent", "word": "red", "color": "green", "correct_response": "g", "trial_id": "stroop-trial-1-incongruent-7", "trial_type": "html-keyboard-response", "trial_index": 38, "time_elapsed": 131090, "internal_node_id": "0.0-4.0-34.0"}}, {"uniqueid": "w99982439:a80915835", "current_trial": 39, "dateTime": 1664464075981, "trialdata": {"rt": 1261, "stimulus": "<p id='stroop-text' class='stroop-red'>YELLOW</p>", "response": "r", "stimulus-type": "incongruent", "word": "yellow", "color": "red", "correct_response": "r", "trial_id": "stroop-trial-1-incongruent-18", "trial_type": "html-keyboard-response", "trial_index": 39, "time_elapsed": 132866, "internal_node_id": "0.0-4.0-35.0"}}, {"uniqueid": "w99982439:a80915835", "current_trial": 40, "dateTime": 1664464077574, "trialdata": {"rt": 1079, "stimulus": "<p id='stroop-text' class='stroop-green'>YELLOW</p>", "response": "g", "stimulus-type": "incongruent", "word": "yellow", "color": "green", "correct_response": "g", "trial_id": "stroop-trial-1-incongruent-15", "trial_type": "html-keyboard-response", "trial_index": 40, "time_elapsed": 134459, "internal_node_id": "0.0-4.0-36.0"}}, {"uniqueid": "w99982439:a80915835", "current_trial": 41, "dateTime": 1664464078950, "trialdata": {"rt": 865, "stimulus": "<p id='stroop-text' class='stroop-red'>BLUE</p>", "response": "r", "stimulus-type": "incongruent", "word": "blue", "color": "red", "correct_response": "r", "trial_id": "stroop-trial-1-incongruent-24", "trial_type": "html-keyboard-response", "trial_index": 41, "time_elapsed": 135835, "internal_node_id": "0.0-4.0-37.0"}}, {"uniqueid": "w99982439:a80915835", "current_trial": 42, "dateTime": 1664464080957, "trialdata": {"rt": 1500, "stimulus": "<p id='stroop-text' class='stroop-blue'>BOAT</p>", "response": "b", "stimulus-type": "unrelated", "word": "BOAT", "color": "blue", "correct_response": "b", "trial_id": "stroop-trial-1-unrelated-1", "trial_type": "html-keyboard-response", "trial_index": 42, "time_elapsed": 137842, "internal_node_id": "0.0-4.0-38.0"}}, {"uniqueid": "w99982439:a80915835", "current_trial": 43, "dateTime": 1664464082325, "trialdata": {"rt": 865, "stimulus": "<p id='stroop-text' class='stroop-yellow'>YELLOW</p>", "response": "y", "stimulus-type": "congruent", "word": "yellow", "color": "yellow", "correct_response": "y", "trial_id": "stroop-trial-1-congruent-30", "trial_type": "html-keyboard-response", "trial_index": 43, "time_elapsed": 139210, "internal_node_id": "0.0-4.0-39.0"}}, {"uniqueid": "w99982439:a80915835", "current_trial": 44, "dateTime": 1664464083797, "trialdata": {"rt": 970, "stimulus": "<p id='stroop-text' class='stroop-red'>GREEN</p>", "response": "r", "stimulus-type": "incongruent", "word": "green", "color": "red", "correct_response": "r", "trial_id": "stroop-trial-1-incongruent-4", "trial_type": "html-keyboard-response", "trial_index": 44, "time_elapsed": 140682, "internal_node_id": "0.0-4.0-40.0"}}, {"uniqueid": "w99982439:a80915835", "current_trial": 45, "dateTime": 1664464085429, "trialdata": {"rt": 1127, "stimulus": "<p id='stroop-text' class='stroop-yellow'>YELLOW</p>", "response": "y", "stimulus-type": "congruent", "word": "yellow", "color": "yellow", "correct_response": "y", "trial_id": "stroop-trial-1-congruent-13", "trial_type": "html-keyboard-response", "trial_index": 45, "time_elapsed": 142314, "internal_node_id": "0.0-4.0-41.0"}}, {"uniqueid": "w99982439:a80915835", "current_trial": 46, "dateTime": 1664464086822, "trialdata": {"rt": 886, "stimulus": "<p id='stroop-text' class='stroop-yellow'>GREEN</p>", "response": "y", "stimulus-type": "incongruent", "word": "green", "color": "yellow", "correct_response": "y", "trial_id": "stroop-trial-1-incongruent-25", "trial_type": "html-keyboard-response", "trial_index": 46, "time_elapsed": 143707, "internal_node_id": "0.0-4.0-42.0"}}, {"uniqueid": "w99982439:a80915835", "current_trial": 47, "dateTime": 1664464088390, "trialdata": {"rt": 1055, "stimulus": "<p id='stroop-text' class='stroop-blue'>GREEN</p>", "response": "b", "stimulus-type": "incongruent", "word": "green", "color": "blue", "correct_response": "b", "trial_id": "stroop-trial-1-incongruent-26", "trial_type": "html-keyboard-response", "trial_index": 47, "time_elapsed": 145275, "internal_node_id": "0.0-4.0-43.0"}}, {"uniqueid": "w99982439:a80915835", "current_trial": 48, "dateTime": 1664464089845, "trialdata": {"rt": 939, "stimulus": "<p id='stroop-text' class='stroop-green'>MONKEY</p>", "response": "g", "stimulus-type": "unrelated", "word": "MONKEY", "color": "green", "correct_response": "g", "trial_id": "stroop-trial-1-unrelated-12", "trial_type": "html-keyboard-response", "trial_index": 48, "time_elapsed": 146730, "internal_node_id": "0.0-4.0-44.0"}}, {"uniqueid": "w99982439:a80915835", "current_trial": 49, "dateTime": 1664464091845, "trialdata": {"rt": 1494, "stimulus": "<p id='stroop-text' class='stroop-blue'>BLUE</p>", "response": "b", "stimulus-type": "congruent", "word": "blue", "color": "blue", "correct_response": "b", "trial_id": "stroop-trial-1-congruent-4", "trial_type": "html-keyboard-response", "trial_index": 49, "time_elapsed": 148730, "internal_node_id": "0.0-4.0-45.0"}}, {"uniqueid": "w99982439:a80915835", "current_trial": 50, "dateTime": 1664464092886, "trialdata": {"rt": 537, "stimulus": "<p id='stroop-text' class='stroop-blue'>STONE</p>", "response": "b", "stimulus-type": "unrelated", "word": "STONE", "color": "blue", "correct_response": "b", "trial_id": "stroop-trial-1-unrelated-11", "trial_type": "html-keyboard-response", "trial_index": 50, "time_elapsed": 149770, "internal_node_id": "0.0-4.0-46.0"}}, {"uniqueid": "w99982439:a80915835", "current_trial": 51, "dateTime": 1664464094166, "trialdata": {"rt": 773, "stimulus": "<p id='stroop-text' class='stroop-yellow'>BLUE</p>", "response": "y", "stimulus-type": "incongruent", "word": "blue", "color": "yellow", "correct_response": "y", "trial_id": "stroop-trial-1-incongruent-9", "trial_type": "html-keyboard-response", "trial_index": 51, "time_elapsed": 151051, "internal_node_id": "0.0-4.0-47.0"}}, {"uniqueid": "w99982439:a80915835", "current_trial": 52, "dateTime": 1664464095206, "trialdata": {"rt": 537, "stimulus": "<p id='stroop-text' class='stroop-yellow'>RED</p>", "response": "y", "stimulus-type": "incongruent", "word": "red", "color": "yellow", "correct_response": "y", "trial_id": "stroop-trial-1-incongruent-1", "trial_type": "html-keyboard-response", "trial_index": 52, "time_elapsed": 152091, "internal_node_id": "0.0-4.0-48.0"}}, {"uniqueid": "w99982439:a80915835", "current_trial": 53, "dateTime": 1664464096773, "trialdata": {"rt": 1063, "stimulus": "<p id='stroop-text' class='stroop-green'>GREEN</p>", "response": "g", "stimulus-type": "congruent", "word": "green", "color": "green", "correct_response": "g", "trial_id": "stroop-trial-1-congruent-17", "trial_type": "html-keyboard-response", "trial_index": 53, "time_elapsed": 153658, "internal_node_id": "0.0-4.0-49.0"}}, {"uniqueid": "w99982439:a80915835", "current_trial": 54, "dateTime": 1664464098221, "trialdata": {"rt": 933, "stimulus": "<p id='stroop-text' class='stroop-blue'>BLUE</p>", "response": "b", "stimulus-type": "congruent", "word": "blue", "color": "blue", "correct_response": "b", "trial_id": "stroop-trial-1-congruent-21", "trial_type": "html-keyboard-response", "trial_index": 54, "time_elapsed": 155106, "internal_node_id": "0.0-4.0-50.0"}}, {"uniqueid": "w99982439:a80915835", "current_trial": 55, "dateTime": 1664464099341, "trialdata": {"rt": 612, "stimulus": "<p id='stroop-text' class='stroop-red'>RED</p>", "response": "r", "stimulus-type": "congruent", "word": "red", "color": "red", "correct_response": "r", "trial_id": "stroop-trial-1-congruent-24", "trial_type": "html-keyboard-response", "trial_index": 55, "time_elapsed": 156226, "internal_node_id": "0.0-4.0-51.0"}}, {"uniqueid": "w99982439:a80915835", "current_trial": 56, "dateTime": 1664464100557, "trialdata": {"rt": 700, "stimulus": "<p id='stroop-text' class='stroop-yellow'>YELLOW</p>", "response": "y", "stimulus-type": "congruent", "word": "yellow", "color": "yellow", "correct_response": "y", "trial_id": "stroop-trial-1-congruent-3", "trial_type": "html-keyboard-response", "trial_index": 56, "time_elapsed": 157442, "internal_node_id": "0.0-4.0-52.0"}}, {"uniqueid": "w99982439:a80915835", "current_trial": 57, "dateTime": 1664464101533, "trialdata": {"rt": 461, "stimulus": "<p id='stroop-text' class='stroop-yellow'>FORK</p>", "response": "y", "stimulus-type": "unrelated", "word": "FORK", "color": "yellow", "correct_response": "y", "trial_id": "stroop-trial-1-unrelated-2", "trial_type": "html-keyboard-response", "trial_index": 57, "time_elapsed": 158418, "internal_node_id": "0.0-4.0-53.0"}}, {"uniqueid": "w99982439:a80915835", "current_trial": 58, "dateTime": 1664464102590, "trialdata": {"rt": 550, "stimulus": "<p id='stroop-text' class='stroop-blue'>BLUE</p>", "response": "g", "stimulus-type": "congruent", "word": "blue", "color": "blue", "correct_response": "b", "trial_id": "stroop-trial-1-congruent-27", "trial_type": "html-keyboard-response", "trial_index": 58, "time_elapsed": 159475, "internal_node_id": "0.0-4.0-54.0"}}, {"uniqueid": "w99982439:a80915835", "current_trial": 59, "dateTime": 1664464103950, "trialdata": {"rt": 852, "stimulus": "<p id='stroop-text' class='stroop-blue'>CHAIR</p>", "response": "b", "stimulus-type": "unrelated", "word": "CHAIR", "color": "blue", "correct_response": "b", "trial_id": "stroop-trial-1-unrelated-23", "trial_type": "html-keyboard-response", "trial_index": 59, "time_elapsed": 160835, "internal_node_id": "0.0-4.0-55.0"}}, {"uniqueid": "w99982439:a80915835", "current_trial": 60, "dateTime": 1664464105165, "trialdata": {"rt": 714, "stimulus": "<p id='stroop-text' class='stroop-yellow'>YELLOW</p>", "response": "y", "stimulus-type": "congruent", "word": "yellow", "color": "yellow", "correct_response": "y", "trial_id": "stroop-trial-1-congruent-28", "trial_type": "html-keyboard-response", "trial_index": 60, "time_elapsed": 162050, "internal_node_id": "0.0-4.0-56.0"}}, {"uniqueid": "w99982439:a80915835", "current_trial": 61, "dateTime": 1664464106382, "trialdata": {"rt": 703, "stimulus": "<p id='stroop-text' class='stroop-green'>YELLOW</p>", "response": "g", "stimulus-type": "incongruent", "word": "yellow", "color": "green", "correct_response": "g", "trial_id": "stroop-trial-1-incongruent-19", "trial_type": "html-keyboard-response", "trial_index": 61, "time_elapsed": 163266, "internal_node_id": "0.0-4.0-57.0"}}, {"uniqueid": "w99982439:a80915835", "current_trial": 62, "dateTime": 1664464107862, "trialdata": {"rt": 963, "stimulus": "<p id='stroop-text' class='stroop-blue'>RED</p>", "response": "b", "stimulus-type": "incongruent", "word": "red", "color": "blue", "correct_response": "b", "trial_id": "stroop-trial-1-incongruent-20", "trial_type": "html-keyboard-response", "trial_index": 62, "time_elapsed": 164747, "internal_node_id": "0.0-4.0-58.0"}}, {"uniqueid": "w99982439:a80915835", "current_trial": 63, "dateTime": 1664464108782, "trialdata": {"rt": 411, "stimulus": "<p id='stroop-text' class='stroop-blue'>GREEN</p>", "response": "b", "stimulus-type": "incongruent", "word": "green", "color": "blue", "correct_response": "b", "trial_id": "stroop-trial-1-incongruent-6", "trial_type": "html-keyboard-response", "trial_index": 63, "time_elapsed": 165667, "internal_node_id": "0.0-4.0-59.0"}}, {"uniqueid": "w99982439:a80915835", "current_trial": 64, "dateTime": 1664464109950, "trialdata": {"rt": 664, "stimulus": "<p id='stroop-text' class='stroop-yellow'>CHAIR</p>", "response": "y", "stimulus-type": "unrelated", "word": "CHAIR", "color": "yellow", "correct_response": "y", "trial_id": "stroop-trial-1-unrelated-6", "trial_type": "html-keyboard-response", "trial_index": 64, "time_elapsed": 166835, "internal_node_id": "0.0-4.0-60.0"}}, {"uniqueid": "w99982439:a80915835", "current_trial": 65, "dateTime": 1664464111245, "trialdata": {"rt": 784, "stimulus": "<p id='stroop-text' class='stroop-green'>RED</p>", "response": "g", "stimulus-type": "incongruent", "word": "red", "color": "green", "correct_response": "g", "trial_id": "stroop-trial-1-incongruent-21", "trial_type": "html-keyboard-response", "trial_index": 65, "time_elapsed": 168130, "internal_node_id": "0.0-4.0-61.0"}}, {"uniqueid": "w99982439:a80915835", "current_trial": 66, "dateTime": 1664464112398, "trialdata": {"rt": 647, "stimulus": "<p id='stroop-text' class='stroop-blue'>BLUE</p>", "response": "b", "stimulus-type": "congruent", "word": "blue", "color": "blue", "correct_response": "b", "trial_id": "stroop-trial-1-congruent-22", "trial_type": "html-keyboard-response", "trial_index": 66, "time_elapsed": 169282, "internal_node_id": "0.0-4.0-62.0"}}, {"uniqueid": "w99982439:a80915835", "current_trial": 67, "dateTime": 1664464113350, "trialdata": {"rt": 437, "stimulus": "<p id='stroop-text' class='stroop-blue'>BLUE</p>", "response": "b", "stimulus-type": "congruent", "word": "blue", "color": "blue", "correct_response": "b", "trial_id": "stroop-trial-1-congruent-25", "trial_type": "html-keyboard-response", "trial_index": 67, "time_elapsed": 170234, "internal_node_id": "0.0-4.0-63.0"}}, {"uniqueid": "w99982439:a80915835", "current_trial": 68, "dateTime": 1664464114462, "trialdata": {"rt": 605, "stimulus": "<p id='stroop-text' class='stroop-red'>BOAT</p>", "response": "r", "stimulus-type": "unrelated", "word": "BOAT", "color": "red", "correct_response": "r", "trial_id": "stroop-trial-1-unrelated-19", "trial_type": "html-keyboard-response", "trial_index": 68, "time_elapsed": 171346, "internal_node_id": "0.0-4.0-64.0"}}, {"uniqueid": "w99982439:a80915835", "current_trial": 69, "dateTime": 1664464115518, "trialdata": {"rt": 547, "stimulus": "<p id='stroop-text' class='stroop-red'>BOTTLE</p>", "response": "r", "stimulus-type": "unrelated", "word": "BOTTLE", "color": "red", "correct_response": "r", "trial_id": "stroop-trial-1-unrelated-15", "trial_type": "html-keyboard-response", "trial_index": 69, "time_elapsed": 172402, "internal_node_id": "0.0-4.0-65.0"}}, {"uniqueid": "w99982439:a80915835", "current_trial": 70, "dateTime": 1664464116766, "trialdata": {"rt": 743, "stimulus": "<p id='stroop-text' class='stroop-green'>GREEN</p>", "response": "g", "stimulus-type": "congruent", "word": "green", "color": "green", "correct_response": "g", "trial_id": "stroop-trial-1-congruent-29", "trial_type": "html-keyboard-response", "trial_index": 70, "time_elapsed": 173651, "internal_node_id": "0.0-4.0-66.0"}}, {"uniqueid": "w99982439:a80915835", "current_trial": 71, "dateTime": 1664464118046, "trialdata": {"rt": 771, "stimulus": "<p id='stroop-text' class='stroop-red'>BOTTLE</p>", "response": "r", "stimulus-type": "unrelated", "word": "BOTTLE", "color": "red", "correct_response": "r", "trial_id": "stroop-trial-1-unrelated-21", "trial_type": "html-keyboard-response", "trial_index": 71, "time_elapsed": 174931, "internal_node_id": "0.0-4.0-67.0"}}, {"uniqueid": "w99982439:a80915835", "current_trial": 72, "dateTime": 1664464121366, "trialdata": {"rt": 2817, "stimulus": "<p id='stroop-text' class='stroop-blue'>YELLOW</p>", "response": "b", "stimulus-type": "incongruent", "word": "yellow", "color": "blue", "correct_response": "b", "trial_id": "stroop-trial-1-incongruent-13", "trial_type": "html-keyboard-response", "trial_index": 72, "time_elapsed": 178251, "internal_node_id": "0.0-4.0-68.0"}}, {"uniqueid": "w99982439:a80915835", "current_trial": 73, "dateTime": 1664464122462, "trialdata": {"rt": 582, "stimulus": "<p id='stroop-text' class='stroop-yellow'>BOAT</p>", "response": "y", "stimulus-type": "unrelated", "word": "BOAT", "color": "yellow", "correct_response": "y", "trial_id": "stroop-trial-1-unrelated-24", "trial_type": "html-keyboard-response", "trial_index": 73, "time_elapsed": 179347, "internal_node_id": "0.0-4.0-69.0"}}, {"uniqueid": "w99982439:a80915835", "current_trial": 74, "dateTime": 1664464123526, "trialdata": {"rt": 561, "stimulus": "<p id='stroop-text' class='stroop-red'>RED</p>", "response": "r", "stimulus-type": "congruent", "word": "red", "color": "red", "correct_response": "r", "trial_id": "stroop-trial-1-congruent-11", "trial_type": "html-keyboard-response", "trial_index": 74, "time_elapsed": 180411, "internal_node_id": "0.0-4.0-70.0"}}, {"uniqueid": "w99982439:a80915835", "current_trial": 75, "dateTime": 1664464124614, "trialdata": {"rt": 582, "stimulus": "<p id='stroop-text' class='stroop-green'>BOAT</p>", "response": "g", "stimulus-type": "unrelated", "word": "BOAT", "color": "green", "correct_response": "g", "trial_id": "stroop-trial-1-unrelated-13", "trial_type": "html-keyboard-response", "trial_index": 75, "time_elapsed": 181499, "internal_node_id": "0.0-4.0-71.0"}}, {"uniqueid": "w99982439:a80915835", "current_trial": 76, "dateTime": 1664464125710, "trialdata": {"rt": 584, "stimulus": "<p id='stroop-text' class='stroop-red'>GREEN</p>", "response": "r", "stimulus-type": "incongruent", "word": "green", "color": "red", "correct_response": "r", "trial_id": "stroop-trial-1-incongruent-28", "trial_type": "html-keyboard-response", "trial_index": 76, "time_elapsed": 182595, "internal_node_id": "0.0-4.0-72.0"}}, {"uniqueid": "w99982439:a80915835", "current_trial": 77, "dateTime": 1664464126870, "trialdata": {"rt": 646, "stimulus": "<p id='stroop-text' class='stroop-yellow'>YELLOW</p>", "response": "y", "stimulus-type": "congruent", "word": "yellow", "color": "yellow", "correct_response": "y", "trial_id": "stroop-trial-1-congruent-16", "trial_type": "html-keyboard-response", "trial_index": 77, "time_elapsed": 183754, "internal_node_id": "0.0-4.0-73.0"}}, {"uniqueid": "w99982439:a80915835", "current_trial": 78, "dateTime": 1664464127846, "trialdata": {"rt": 466, "stimulus": "<p id='stroop-text' class='stroop-blue'>BLUE</p>", "response": "b", "stimulus-type": "congruent", "word": "blue", "color": "blue", "correct_response": "b", "trial_id": "stroop-trial-1-congruent-15", "trial_type": "html-keyboard-response", "trial_index": 78, "time_elapsed": 184731, "internal_node_id": "0.0-4.0-74.0"}}, {"uniqueid": "w99982439:a80915835", "current_trial": 79, "dateTime": 1664464128774, "trialdata": {"rt": 423, "stimulus": "<p id='stroop-text' class='stroop-blue'>SHIP</p>", "response": "b", "stimulus-type": "unrelated", "word": "SHIP", "color": "blue", "correct_response": "b", "trial_id": "stroop-trial-1-unrelated-25", "trial_type": "html-keyboard-response", "trial_index": 79, "time_elapsed": 185659, "internal_node_id": "0.0-4.0-75.0"}}, {"uniqueid": "w99982439:a80915835", "current_trial": 80, "dateTime": 1664464129774, "trialdata": {"rt": 496, "stimulus": "<p id='stroop-text' class='stroop-red'>RED</p>", "response": "r", "stimulus-type": "congruent", "word": "red", "color": "red", "correct_response": "r", "trial_id": "stroop-trial-1-congruent-23", "trial_type": "html-keyboard-response", "trial_index": 80, "time_elapsed": 186659, "internal_node_id": "0.0-4.0-76.0"}}, {"uniqueid": "w99982439:a80915835", "current_trial": 81, "dateTime": 1664464130758, "trialdata": {"rt": 474, "stimulus": "<p id='stroop-text' class='stroop-blue'>BLUE</p>", "response": "b", "stimulus-type": "congruent", "word": "blue", "color": "blue", "correct_response": "b", "trial_id": "stroop-trial-1-congruent-20", "trial_type": "html-keyboard-response", "trial_index": 81, "time_elapsed": 187643, "internal_node_id": "0.0-4.0-77.0"}}, {"uniqueid": "w99982439:a80915835", "current_trial": 82, "dateTime": 1664464131798, "trialdata": {"rt": 532, "stimulus": "<p id='stroop-text' class='stroop-yellow'>YELLOW</p>", "response": "y", "stimulus-type": "congruent", "word": "yellow", "color": "yellow", "correct_response": "y", "trial_id": "stroop-trial-1-congruent-8", "trial_type": "html-keyboard-response", "trial_index": 82, "time_elapsed": 188683, "internal_node_id": "0.0-4.0-78.0"}}, {"uniqueid": "w99982439:a80915835", "current_trial": 83, "dateTime": 1664464132982, "trialdata": {"rt": 679, "stimulus": "<p id='stroop-text' class='stroop-red'>BLUE</p>", "response": "r", "stimulus-type": "incongruent", "word": "blue", "color": "red", "correct_response": "r", "trial_id": "stroop-trial-1-incongruent-27", "trial_type": "html-keyboard-response", "trial_index": 83, "time_elapsed": 189867, "internal_node_id": "0.0-4.0-79.0"}}, {"uniqueid": "w99982439:a80915835", "current_trial": 84, "dateTime": 1664464134118, "trialdata": {"rt": 623, "stimulus": "<p id='stroop-text' class='stroop-green'>RED</p>", "response": "g", "stimulus-type": "incongruent", "word": "red", "color": "green", "correct_response": "g", "trial_id": "stroop-trial-1-incongruent-10", "trial_type": "html-keyboard-response", "trial_index": 84, "time_elapsed": 191003, "internal_node_id": "0.0-4.0-80.0"}}, {"uniqueid": "w99982439:a80915835", "current_trial": 85, "dateTime": 1664464135182, "trialdata": {"rt": 558, "stimulus": "<p id='stroop-text' class='stroop-red'>RED</p>", "response": "r", "stimulus-type": "congruent", "word": "red", "color": "red", "correct_response": "r", "trial_id": "stroop-trial-1-congruent-5", "trial_type": "html-keyboard-response", "trial_index": 85, "time_elapsed": 192067, "internal_node_id": "0.0-4.0-81.0"}}, {"uniqueid": "w99982439:a80915835", "current_trial": 86, "dateTime": 1664464136302, "trialdata": {"rt": 612, "stimulus": "<p id='stroop-text' class='stroop-yellow'>BLUE</p>", "response": "y", "stimulus-type": "incongruent", "word": "blue", "color": "yellow", "correct_response": "y", "trial_id": "stroop-trial-1-incongruent-22", "trial_type": "html-keyboard-response", "trial_index": 86, "time_elapsed": 193187, "internal_node_id": "0.0-4.0-82.0"}}, {"uniqueid": "w99982439:a80915835", "current_trial": 87, "dateTime": 1664464137270, "trialdata": {"rt": 454, "stimulus": "<p id='stroop-text' class='stroop-yellow'>FORK</p>", "response": "y", "stimulus-type": "unrelated", "word": "FORK", "color": "yellow", "correct_response": "y", "trial_id": "stroop-trial-1-unrelated-26", "trial_type": "html-keyboard-response", "trial_index": 87, "time_elapsed": 194154, "internal_node_id": "0.0-4.0-83.0"}}, {"uniqueid": "w99982439:a80915835", "current_trial": 88, "dateTime": 1664464138262, "trialdata": {"rt": 489, "stimulus": "<p id='stroop-text' class='stroop-red'>FORK</p>", "response": "r", "stimulus-type": "unrelated", "word": "FORK", "color": "red", "correct_response": "r", "trial_id": "stroop-trial-1-unrelated-9", "trial_type": "html-keyboard-response", "trial_index": 88, "time_elapsed": 195146, "internal_node_id": "0.0-4.0-84.0"}}, {"uniqueid": "w99982439:a80915835", "current_trial": 89, "dateTime": 1664464139286, "trialdata": {"rt": 522, "stimulus": "<p id='stroop-text' class='stroop-blue'>BLUE</p>", "response": "b", "stimulus-type": "congruent", "word": "blue", "color": "blue", "correct_response": "b", "trial_id": "stroop-trial-1-congruent-10", "trial_type": "html-keyboard-response", "trial_index": 89, "time_elapsed": 196171, "internal_node_id": "0.0-4.0-85.0"}}, {"uniqueid": "w99982439:a80915835", "current_trial": 90, "dateTime": 1664464140230, "trialdata": {"rt": 431, "stimulus": "<p id='stroop-text' class='stroop-blue'>WINDOW</p>", "response": "b", "stimulus-type": "unrelated", "word": "WINDOW", "color": "blue", "correct_response": "b", "trial_id": "stroop-trial-1-unrelated-27", "trial_type": "html-keyboard-response", "trial_index": 90, "time_elapsed": 197115, "internal_node_id": "0.0-4.0-86.0"}}, {"uniqueid": "w99982439:a80915835", "current_trial": 91, "dateTime": 1664464141262, "trialdata": {"rt": 521, "stimulus": "<p id='stroop-text' class='stroop-red'>GREEN</p>", "response": "r", "stimulus-type": "incongruent", "word": "green", "color": "red", "correct_response": "r", "trial_id": "stroop-trial-1-incongruent-16", "trial_type": "html-keyboard-response", "trial_index": 91, "time_elapsed": 198147, "internal_node_id": "0.0-4.0-87.0"}}, {"uniqueid": "w99982439:a80915835", "current_trial": 92, "dateTime": 1664464142423, "trialdata": {"rt": 653, "stimulus": "<p id='stroop-text' class='stroop-green'>BLUE</p>", "response": "b", "stimulus-type": "incongruent", "word": "blue", "color": "green", "correct_response": "g", "trial_id": "stroop-trial-1-incongruent-5", "trial_type": "html-keyboard-response", "trial_index": 92, "time_elapsed": 199307, "internal_node_id": "0.0-4.0-88.0"}}, {"uniqueid": "w99982439:a80915835", "current_trial": 93, "dateTime": 1664464143415, "trialdata": {"rt": 476, "stimulus": "<p id='stroop-text' class='stroop-green'>SHIP</p>", "response": "b", "stimulus-type": "unrelated", "word": "SHIP", "color": "green", "correct_response": "g", "trial_id": "stroop-trial-1-unrelated-22", "trial_type": "html-keyboard-response", "trial_index": 93, "time_elapsed": 200299, "internal_node_id": "0.0-4.0-89.0"}}, {"uniqueid": "w99982439:a80915835", "current_trial": 94, "dateTime": 1664464155406, "trialdata": {"rt": 11475, "stimulus": "  <h1> End of block! </h1>\n\n  You have reached the end of the block 1/5. If you need a short break, feel free to take one now before moving on.\n\n  <br><br>\n  In the next block, you will complete another 90 rounds of this game.\n\n  <br><br>\n  <div style='text-align: center;'>Press <code>space</code> to begin.</div>\n  <br><br>\n<div style='text-align: center;'>(If the experiment doesn't continue, try clicking on the text and then pressing <code>space</code>.)</div>", "response": " ", "trial_id": "stroop_1_ready_2", "trial_type": "html-keyboard-response", "trial_index": 94, "time_elapsed": 212291, "internal_node_id": "0.0-5.0"}}, {"uniqueid": "w99982439:a80915835", "current_trial": 95, "dateTime": 1664464156662, "trialdata": {"rt": 1255, "stimulus": "<p id='stroop-text' class='stroop-yellow'>YELLOW</p>", "response": "y", "stimulus-type": "congruent", "word": "yellow", "color": "yellow", "correct_response": "y", "trial_id": "stroop-trial-1-congruent-13", "trial_type": "html-keyboard-response", "trial_index": 95, "time_elapsed": 213547, "internal_node_id": "0.0-6.0-0.0"}}, {"uniqueid": "w99982439:a80915835", "current_trial": 96, "dateTime": 1664464157894, "trialdata": {"rt": 722, "stimulus": "<p id='stroop-text' class='stroop-green'>RED</p>", "response": "g", "stimulus-type": "incongruent", "word": "red", "color": "green", "correct_response": "g", "trial_id": "stroop-trial-1-incongruent-18", "trial_type": "html-keyboard-response", "trial_index": 96, "time_elapsed": 214779, "internal_node_id": "0.0-6.0-1.0"}}, {"uniqueid": "w99982439:a80915835", "current_trial": 97, "dateTime": 1664464158967, "trialdata": {"rt": 561, "stimulus": "<p id='stroop-text' class='stroop-red'>STONE</p>", "response": "r", "stimulus-type": "unrelated", "word": "STONE", "color": "red", "correct_response": "r", "trial_id": "stroop-trial-1-unrelated-13", "trial_type": "html-keyboard-response", "trial_index": 97, "time_elapsed": 215852, "internal_node_id": "0.0-6.0-2.0"}}, {"uniqueid": "w99982439:a80915835", "current_trial": 98, "dateTime": 1664464160431, "trialdata": {"rt": 960, "stimulus": "<p id='stroop-text' class='stroop-blue'>GREEN</p>", "response": "b", "stimulus-type": "incongruent", "word": "green", "color": "blue", "correct_response": "b", "trial_id": "stroop-trial-1-incongruent-17", "trial_type": "html-keyboard-response", "trial_index": 98, "time_elapsed": 217316, "internal_node_id": "0.0-6.0-3.0"}}, {"uniqueid": "w99982439:a80915835", "current_trial": 99, "dateTime": 1664464162583, "trialdata": {"rt": 1645, "stimulus": "<p id='stroop-text' class='stroop-yellow'>BRIDGE</p>", "response": "y", "stimulus-type": "unrelated", "word": "BRIDGE", "color": "yellow", "correct_response": "y", "trial_id": "stroop-trial-1-unrelated-19", "trial_type": "html-keyboard-response", "trial_index": 99, "time_elapsed": 219467, "internal_node_id": "0.0-6.0-4.0"}}, {"uniqueid": "w99982439:a80915835", "current_trial": 100, "dateTime": 1664464163775, "trialdata": {"rt": 680, "stimulus": "<p id='stroop-text' class='stroop-blue'>MONKEY</p>", "response": "b", "stimulus-type": "unrelated", "word": "MONKEY", "color": "blue", "correct_response": "b", "trial_id": "stroop-trial-1-unrelated-26", "trial_type": "html-keyboard-response", "trial_index": 100, "time_elapsed": 220660, "internal_node_id": "0.0-6.0-5.0"}}, {"uniqueid": "w99982439:a80915835", "current_trial": 101, "dateTime": 1664464164934, "trialdata": {"rt": 646, "stimulus": "<p id='stroop-text' class='stroop-blue'>BLUE</p>", "response": "b", "stimulus-type": "congruent", "word": "blue", "color": "blue", "correct_response": "b", "trial_id": "stroop-trial-1-congruent-12", "trial_type": "html-keyboard-response", "trial_index": 101, "time_elapsed": 221819, "internal_node_id": "0.0-6.0-6.0"}}, {"uniqueid": "w99982439:a80915835", "current_trial": 102, "dateTime": 1664464165878, "trialdata": {"rt": 441, "stimulus": "<p id='stroop-text' class='stroop-green'>GREEN</p>", "response": "g", "stimulus-type": "congruent", "word": "green", "color": "green", "correct_response": "g", "trial_id": "stroop-trial-1-congruent-26", "trial_type": "html-keyboard-response", "trial_index": 102, "time_elapsed": 222763, "internal_node_id": "0.0-6.0-7.0"}}, {"uniqueid": "w99982439:a80915835", "current_trial": 103, "dateTime": 1664464167063, "trialdata": {"rt": 672, "stimulus": "<p id='stroop-text' class='stroop-yellow'>YELLOW</p>", "response": "y", "stimulus-type": "congruent", "word": "yellow", "color": "yellow", "correct_response": "y", "trial_id": "stroop-trial-1-congruent-16", "trial_type": "html-keyboard-response", "trial_index": 103, "time_elapsed": 223948, "internal_node_id": "0.0-6.0-8.0"}}, {"uniqueid": "w99982439:a80915835", "current_trial": 104, "dateTime": 1664464168974, "trialdata": {"rt": 1407, "stimulus": "<p id='stroop-text' class='stroop-blue'>YELLOW</p>", "response": "b", "stimulus-type": "incongruent", "word": "yellow", "color": "blue", "correct_response": "b", "trial_id": "stroop-trial-1-incongruent-28", "trial_type": "html-keyboard-response", "trial_index": 104, "time_elapsed": 225859, "internal_node_id": "0.0-6.0-9.0"}}, {"uniqueid": "w99982439:a80915835", "current_trial": 105, "dateTime": 1664464170022, "trialdata": {"rt": 538, "stimulus": "<p id='stroop-text' class='stroop-red'>RED</p>", "response": "r", "stimulus-type": "congruent", "word": "red", "color": "red", "correct_response": "r", "trial_id": "stroop-trial-1-congruent-29", "trial_type": "html-keyboard-response", "trial_index": 105, "time_elapsed": 226907, "internal_node_id": "0.0-6.0-10.0"}}, {"uniqueid": "w99982439:a80915835", "current_trial": 106, "dateTime": 1664464171294, "trialdata": {"rt": 759, "stimulus": "<p id='stroop-text' class='stroop-green'>RED</p>", "response": "g", "stimulus-type": "incongruent", "word": "red", "color": "green", "correct_response": "g", "trial_id": "stroop-trial-1-incongruent-1", "trial_type": "html-keyboard-response", "trial_index": 106, "time_elapsed": 228179, "internal_node_id": "0.0-6.0-11.0"}}, {"uniqueid": "w99982439:a80915835", "current_trial": 107, "dateTime": 1664464172423, "trialdata": {"rt": 620, "stimulus": "<p id='stroop-text' class='stroop-red'>GREEN</p>", "response": "r", "stimulus-type": "incongruent", "word": "green", "color": "red", "correct_response": "r", "trial_id": "stroop-trial-1-incongruent-27", "trial_type": "html-keyboard-response", "trial_index": 107, "time_elapsed": 229308, "internal_node_id": "0.0-6.0-12.0"}}, {"uniqueid": "w99982439:a80915835", "current_trial": 108, "dateTime": 1664464173614, "trialdata": {"rt": 688, "stimulus": "<p id='stroop-text' class='stroop-yellow'>YELLOW</p>", "response": "y", "stimulus-type": "congruent", "word": "yellow", "color": "yellow", "correct_response": "y", "trial_id": "stroop-trial-1-congruent-25", "trial_type": "html-keyboard-response", "trial_index": 108, "time_elapsed": 230499, "internal_node_id": "0.0-6.0-13.0"}}, {"uniqueid": "w99982439:a80915835", "current_trial": 109, "dateTime": 1664464174902, "trialdata": {"rt": 784, "stimulus": "<p id='stroop-text' class='stroop-blue'>YELLOW</p>", "response": "b", "stimulus-type": "incongruent", "word": "yellow", "color": "blue", "correct_response": "b", "trial_id": "stroop-trial-1-incongruent-6", "trial_type": "html-keyboard-response", "trial_index": 109, "time_elapsed": 231787, "internal_node_id": "0.0-6.0-14.0"}}, {"uniqueid": "w99982439:a80915835", "current_trial": 110, "dateTime": 1664464175967, "trialdata": {"rt": 551, "stimulus": "<p id='stroop-text' class='stroop-red'>RED</p>", "response": "r", "stimulus-type": "congruent", "word": "red", "color": "red", "correct_response": "r", "trial_id": "stroop-trial-1-congruent-6", "trial_type": "html-keyboard-response", "trial_index": 110, "time_elapsed": 232852, "internal_node_id": "0.0-6.0-15.0"}}, {"uniqueid": "w99982439:a80915835", "current_trial": 111, "dateTime": 1664464177414, "trialdata": {"rt": 933, "stimulus": "<p id='stroop-text' class='stroop-yellow'>BLUE</p>", "response": "y", "stimulus-type": "incongruent", "word": "blue", "color": "yellow", "correct_response": "y", "trial_id": "stroop-trial-1-incongruent-20", "trial_type": "html-keyboard-response", "trial_index": 111, "time_elapsed": 234299, "internal_node_id": "0.0-6.0-16.0"}}, {"uniqueid": "w99982439:a80915835", "current_trial": 112, "dateTime": 1664464178431, "trialdata": {"rt": 511, "stimulus": "<p id='stroop-text' class='stroop-yellow'>RED</p>", "response": "y", "stimulus-type": "incongruent", "word": "red", "color": "yellow", "correct_response": "y", "trial_id": "stroop-trial-1-incongruent-11", "trial_type": "html-keyboard-response", "trial_index": 112, "time_elapsed": 235316, "internal_node_id": "0.0-6.0-17.0"}}, {"uniqueid": "w99982439:a80915835", "current_trial": 113, "dateTime": 1664464179535, "trialdata": {"rt": 593, "stimulus": "<p id='stroop-text' class='stroop-blue'>YELLOW</p>", "response": "b", "stimulus-type": "incongruent", "word": "yellow", "color": "blue", "correct_response": "b", "trial_id": "stroop-trial-1-incongruent-22", "trial_type": "html-keyboard-response", "trial_index": 113, "time_elapsed": 236420, "internal_node_id": "0.0-6.0-18.0"}}, {"uniqueid": "w99982439:a80915835", "current_trial": 114, "dateTime": 1664464180543, "trialdata": {"rt": 504, "stimulus": "<p id='stroop-text' class='stroop-yellow'>WINDOW</p>", "response": "y", "stimulus-type": "unrelated", "word": "WINDOW", "color": "yellow", "correct_response": "y", "trial_id": "stroop-trial-1-unrelated-29", "trial_type": "html-keyboard-response", "trial_index": 114, "time_elapsed": 237428, "internal_node_id": "0.0-6.0-19.0"}}, {"uniqueid": "w99982439:a80915835", "current_trial": 115, "dateTime": 1664464181623, "trialdata": {"rt": 570, "stimulus": "<p id='stroop-text' class='stroop-red'>RED</p>", "response": "r", "stimulus-type": "congruent", "word": "red", "color": "red", "correct_response": "r", "trial_id": "stroop-trial-1-congruent-3", "trial_type": "html-keyboard-response", "trial_index": 115, "time_elapsed": 238508, "internal_node_id": "0.0-6.0-20.0"}}, {"uniqueid": "w99982439:a80915835", "current_trial": 116, "dateTime": 1664464183151, "trialdata": {"rt": 1025, "stimulus": "<p id='stroop-text' class='stroop-blue'>BLUE</p>", "response": "b", "stimulus-type": "congruent", "word": "blue", "color": "blue", "correct_response": "b", "trial_id": "stroop-trial-1-congruent-18", "trial_type": "html-keyboard-response", "trial_index": 116, "time_elapsed": 240035, "internal_node_id": "0.0-6.0-21.0"}}, {"uniqueid": "w99982439:a80915835", "current_trial": 117, "dateTime": 1664464184223, "trialdata": {"rt": 556, "stimulus": "<p id='stroop-text' class='stroop-yellow'>YELLOW</p>", "response": "y", "stimulus-type": "congruent", "word": "yellow", "color": "yellow", "correct_response": "y", "trial_id": "stroop-trial-1-congruent-10", "trial_type": "html-keyboard-response", "trial_index": 117, "time_elapsed": 241107, "internal_node_id": "0.0-6.0-22.0"}}, {"uniqueid": "w99982439:a80915835", "current_trial": 118, "dateTime": 1664464185343, "trialdata": {"rt": 616, "stimulus": "<p id='stroop-text' class='stroop-yellow'>YELLOW</p>", "response": "y", "stimulus-type": "congruent", "word": "yellow", "color": "yellow", "correct_response": "y", "trial_id": "stroop-trial-1-congruent-11", "trial_type": "html-keyboard-response", "trial_index": 118, "time_elapsed": 242228, "internal_node_id": "0.0-6.0-23.0"}}, {"uniqueid": "w99982439:a80915835", "current_trial": 119, "dateTime": 1664464186318, "trialdata": {"rt": 474, "stimulus": "<p id='stroop-text' class='stroop-yellow'>BLUE</p>", "response": "y", "stimulus-type": "incongruent", "word": "blue", "color": "yellow", "correct_response": "y", "trial_id": "stroop-trial-1-incongruent-25", "trial_type": "html-keyboard-response", "trial_index": 119, "time_elapsed": 243203, "internal_node_id": "0.0-6.0-24.0"}}, {"uniqueid": "w99982439:a80915835", "current_trial": 120, "dateTime": 1664464187398, "trialdata": {"rt": 569, "stimulus": "<p id='stroop-text' class='stroop-red'>WINDOW</p>", "response": "r", "stimulus-type": "unrelated", "word": "WINDOW", "color": "red", "correct_response": "r", "trial_id": "stroop-trial-1-unrelated-25", "trial_type": "html-keyboard-response", "trial_index": 120, "time_elapsed": 244283, "internal_node_id": "0.0-6.0-25.0"}}, {"uniqueid": "w99982439:a80915835", "current_trial": 121, "dateTime": 1664464188446, "trialdata": {"rt": 541, "stimulus": "<p id='stroop-text' class='stroop-red'>WINDOW</p>", "response": "r", "stimulus-type": "unrelated", "word": "WINDOW", "color": "red", "correct_response": "r", "trial_id": "stroop-trial-1-unrelated-17", "trial_type": "html-keyboard-response", "trial_index": 121, "time_elapsed": 245331, "internal_node_id": "0.0-6.0-26.0"}}, {"uniqueid": "w99982439:a80915835", "current_trial": 122, "dateTime": 1664464189895, "trialdata": {"rt": 946, "stimulus": "<p id='stroop-text' class='stroop-green'>WINDOW</p>", "response": "g", "stimulus-type": "unrelated", "word": "WINDOW", "color": "green", "correct_response": "g", "trial_id": "stroop-trial-1-unrelated-22", "trial_type": "html-keyboard-response", "trial_index": 122, "time_elapsed": 246780, "internal_node_id": "0.0-6.0-27.0"}}, {"uniqueid": "w99982439:a80915835", "current_trial": 123, "dateTime": 1664464190991, "trialdata": {"rt": 593, "stimulus": "<p id='stroop-text' class='stroop-red'>BLUE</p>", "response": "r", "stimulus-type": "incongruent", "word": "blue", "color": "red", "correct_response": "r", "trial_id": "stroop-trial-1-incongruent-24", "trial_type": "html-keyboard-response", "trial_index": 123, "time_elapsed": 247876, "internal_node_id": "0.0-6.0-28.0"}}, {"uniqueid": "w99982439:a80915835", "current_trial": 124, "dateTime": 1664464192367, "trialdata": {"rt": 864, "stimulus": "<p id='stroop-text' class='stroop-yellow'>YELLOW</p>", "response": "y", "stimulus-type": "congruent", "word": "yellow", "color": "yellow", "correct_response": "y", "trial_id": "stroop-trial-1-congruent-14", "trial_type": "html-keyboard-response", "trial_index": 124, "time_elapsed": 249252, "internal_node_id": "0.0-6.0-29.0"}}, {"uniqueid": "w99982439:a80915835", "current_trial": 125, "dateTime": 1664464193935, "trialdata": {"rt": 1054, "stimulus": "<p id='stroop-text' class='stroop-red'>GREEN</p>", "response": "r", "stimulus-type": "incongruent", "word": "green", "color": "red", "correct_response": "r", "trial_id": "stroop-trial-1-incongruent-26", "trial_type": "html-keyboard-response", "trial_index": 125, "time_elapsed": 250820, "internal_node_id": "0.0-6.0-30.0"}}, {"uniqueid": "w99982439:a80915835", "current_trial": 126, "dateTime": 1664464195071, "trialdata": {"rt": 620, "stimulus": "<p id='stroop-text' class='stroop-yellow'>YELLOW</p>", "response": "y", "stimulus-type": "congruent", "word": "yellow", "color": "yellow", "correct_response": "y", "trial_id": "stroop-trial-1-congruent-17", "trial_type": "html-keyboard-response", "trial_index": 126, "time_elapsed": 251955, "internal_node_id": "0.0-6.0-31.0"}}, {"uniqueid": "w99982439:a80915835", "current_trial": 127, "dateTime": 1664464196327, "trialdata": {"rt": 741, "stimulus": "<p id='stroop-text' class='stroop-green'>WINDOW</p>", "response": "g", "stimulus-type": "unrelated", "word": "WINDOW", "color": "green", "correct_response": "g", "trial_id": "stroop-trial-1-unrelated-1", "trial_type": "html-keyboard-response", "trial_index": 127, "time_elapsed": 253211, "internal_node_id": "0.0-6.0-32.0"}}, {"uniqueid": "w99982439:a80915835", "current_trial": 128, "dateTime": 1664464197311, "trialdata": {"rt": 477, "stimulus": "<p id='stroop-text' class='stroop-green'>GREEN</p>", "response": "g", "stimulus-type": "congruent", "word": "green", "color": "green", "correct_response": "g", "trial_id": "stroop-trial-1-congruent-15", "trial_type": "html-keyboard-response", "trial_index": 128, "time_elapsed": 254195, "internal_node_id": "0.0-6.0-33.0"}}, {"uniqueid": "w99982439:a80915835", "current_trial": 129, "dateTime": 1664464198423, "trialdata": {"rt": 605, "stimulus": "<p id='stroop-text' class='stroop-yellow'>RED</p>", "response": "y", "stimulus-type": "incongruent", "word": "red", "color": "yellow", "correct_response": "y", "trial_id": "stroop-trial-1-incongruent-12", "trial_type": "html-keyboard-response", "trial_index": 129, "time_elapsed": 255308, "internal_node_id": "0.0-6.0-34.0"}}, {"uniqueid": "w99982439:a80915835", "current_trial": 130, "dateTime": 1664464199311, "trialdata": {"rt": 386, "stimulus": "<p id='stroop-text' class='stroop-yellow'>GREEN</p>", "response": "y", "stimulus-type": "incongruent", "word": "green", "color": "yellow", "correct_response": "y", "trial_id": "stroop-trial-1-incongruent-23", "trial_type": "html-keyboard-response", "trial_index": 130, "time_elapsed": 256195, "internal_node_id": "0.0-6.0-35.0"}}, {"uniqueid": "w99982439:a80915835", "current_trial": 131, "dateTime": 1664464200463, "trialdata": {"rt": 641, "stimulus": "<p id='stroop-text' class='stroop-red'>BLUE</p>", "response": "r", "stimulus-type": "incongruent", "word": "blue", "color": "red", "correct_response": "r", "trial_id": "stroop-trial-1-incongruent-29", "trial_type": "html-keyboard-response", "trial_index": 131, "time_elapsed": 257348, "internal_node_id": "0.0-6.0-36.0"}}, {"uniqueid": "w99982439:a80915835", "current_trial": 132, "dateTime": 1664464201535, "trialdata": {"rt": 563, "stimulus": "<p id='stroop-text' class='stroop-red'>RED</p>", "response": "r", "stimulus-type": "congruent", "word": "red", "color": "red", "correct_response": "r", "trial_id": "stroop-trial-1-congruent-2", "trial_type": "html-keyboard-response", "trial_index": 132, "time_elapsed": 258420, "internal_node_id": "0.0-6.0-37.0"}}, {"uniqueid": "w99982439:a80915835", "current_trial": 133, "dateTime": 1664464202703, "trialdata": {"rt": 661, "stimulus": "<p id='stroop-text' class='stroop-green'>GREEN</p>", "response": "g", "stimulus-type": "congruent", "word": "green", "color": "green", "correct_response": "g", "trial_id": "stroop-trial-1-congruent-23", "trial_type": "html-keyboard-response", "trial_index": 133, "time_elapsed": 259588, "internal_node_id": "0.0-6.0-38.0"}}, {"uniqueid": "w99982439:a80915835", "current_trial": 134, "dateTime": 1664464203703, "trialdata": {"rt": 486, "stimulus": "<p id='stroop-text' class='stroop-green'>STONE</p>", "response": "g", "stimulus-type": "unrelated", "word": "STONE", "color": "green", "correct_response": "g", "trial_id": "stroop-trial-1-unrelated-16", "trial_type": "html-keyboard-response", "trial_index": 134, "time_elapsed": 260588, "internal_node_id": "0.0-6.0-39.0"}}, {"uniqueid": "w99982439:a80915835", "current_trial": 135, "dateTime": 1664464204767, "trialdata": {"rt": 561, "stimulus": "<p id='stroop-text' class='stroop-red'>SHIP</p>", "response": "r", "stimulus-type": "unrelated", "word": "SHIP", "color": "red", "correct_response": "r", "trial_id": "stroop-trial-1-unrelated-2", "trial_type": "html-keyboard-response", "trial_index": 135, "time_elapsed": 261652, "internal_node_id": "0.0-6.0-40.0"}}, {"uniqueid": "w99982439:a80915835", "current_trial": 136, "dateTime": 1664464205759, "trialdata": {"rt": 479, "stimulus": "<p id='stroop-text' class='stroop-red'>GREEN</p>", "response": "r", "stimulus-type": "incongruent", "word": "green", "color": "red", "correct_response": "r", "trial_id": "stroop-trial-1-incongruent-3", "trial_type": "html-keyboard-response", "trial_index": 136, "time_elapsed": 262643, "internal_node_id": "0.0-6.0-41.0"}}, {"uniqueid": "w99982439:a80915835", "current_trial": 137, "dateTime": 1664464206895, "trialdata": {"rt": 629, "stimulus": "<p id='stroop-text' class='stroop-yellow'>FORK</p>", "response": "y", "stimulus-type": "unrelated", "word": "FORK", "color": "yellow", "correct_response": "y", "trial_id": "stroop-trial-1-unrelated-28", "trial_type": "html-keyboard-response", "trial_index": 137, "time_elapsed": 263780, "internal_node_id": "0.0-6.0-42.0"}}, {"uniqueid": "w99982439:a80915835", "current_trial": 138, "dateTime": 1664464208279, "trialdata": {"rt": 881, "stimulus": "<p id='stroop-text' class='stroop-blue'>BLUE</p>", "response": "b", "stimulus-type": "congruent", "word": "blue", "color": "blue", "correct_response": "b", "trial_id": "stroop-trial-1-congruent-4", "trial_type": "html-keyboard-response", "trial_index": 138, "time_elapsed": 265164, "internal_node_id": "0.0-6.0-43.0"}}, {"uniqueid": "w99982439:a80915835", "current_trial": 139, "dateTime": 1664464209246, "trialdata": {"rt": 457, "stimulus": "<p id='stroop-text' class='stroop-blue'>BLUE</p>", "response": "b", "stimulus-type": "congruent", "word": "blue", "color": "blue", "correct_response": "b", "trial_id": "stroop-trial-1-congruent-20", "trial_type": "html-keyboard-response", "trial_index": 139, "time_elapsed": 266131, "internal_node_id": "0.0-6.0-44.0"}}, {"uniqueid": "w99982439:a80915835", "current_trial": 140, "dateTime": 1664464210455, "trialdata": {"rt": 706, "stimulus": "<p id='stroop-text' class='stroop-red'>CHAIR</p>", "response": "r", "stimulus-type": "unrelated", "word": "CHAIR", "color": "red", "correct_response": "r", "trial_id": "stroop-trial-1-unrelated-23", "trial_type": "html-keyboard-response", "trial_index": 140, "time_elapsed": 267340, "internal_node_id": "0.0-6.0-45.0"}}, {"uniqueid": "w99982439:a80915835", "current_trial": 141, "dateTime": 1664464211415, "trialdata": {"rt": 447, "stimulus": "<p id='stroop-text' class='stroop-blue'>BOTTLE</p>", "response": "b", "stimulus-type": "unrelated", "word": "BOTTLE", "color": "blue", "correct_response": "b", "trial_id": "stroop-trial-1-unrelated-21", "trial_type": "html-keyboard-response", "trial_index": 141, "time_elapsed": 268300, "internal_node_id": "0.0-6.0-46.0"}}, {"uniqueid": "w99982439:a80915835", "current_trial": 142, "dateTime": 1664464212447, "trialdata": {"rt": 521, "stimulus": "<p id='stroop-text' class='stroop-red'>FORK</p>", "response": "r", "stimulus-type": "unrelated", "word": "FORK", "color": "red", "correct_response": "r", "trial_id": "stroop-trial-1-unrelated-11", "trial_type": "html-keyboard-response", "trial_index": 142, "time_elapsed": 269332, "internal_node_id": "0.0-6.0-47.0"}}, {"uniqueid": "w99982439:a80915835", "current_trial": 143, "dateTime": 1664464213599, "trialdata": {"rt": 650, "stimulus": "<p id='stroop-text' class='stroop-green'>CHAIR</p>", "response": "g", "stimulus-type": "unrelated", "word": "CHAIR", "color": "green", "correct_response": "g", "trial_id": "stroop-trial-1-unrelated-30", "trial_type": "html-keyboard-response", "trial_index": 143, "time_elapsed": 270483, "internal_node_id": "0.0-6.0-48.0"}}, {"uniqueid": "w99982439:a80915835", "current_trial": 144, "dateTime": 1664464214551, "trialdata": {"rt": 438, "stimulus": "<p id='stroop-text' class='stroop-green'>STONE</p>", "response": "g", "stimulus-type": "unrelated", "word": "STONE", "color": "green", "correct_response": "g", "trial_id": "stroop-trial-1-unrelated-15", "trial_type": "html-keyboard-response", "trial_index": 144, "time_elapsed": 271436, "internal_node_id": "0.0-6.0-49.0"}}, {"uniqueid": "w99982439:a80915835", "current_trial": 145, "dateTime": 1664464215599, "trialdata": {"rt": 542, "stimulus": "<p id='stroop-text' class='stroop-red'>RED</p>", "response": "r", "stimulus-type": "congruent", "word": "red", "color": "red", "correct_response": "r", "trial_id": "stroop-trial-1-congruent-21", "trial_type": "html-keyboard-response", "trial_index": 145, "time_elapsed": 272484, "internal_node_id": "0.0-6.0-50.0"}}, {"uniqueid": "w99982439:a80915835", "current_trial": 146, "dateTime": 1664464216839, "trialdata": {"rt": 731, "stimulus": "<p id='stroop-text' class='stroop-yellow'>YELLOW</p>", "response": "y", "stimulus-type": "congruent", "word": "yellow", "color": "yellow", "correct_response": "y", "trial_id": "stroop-trial-1-congruent-7", "trial_type": "html-keyboard-response", "trial_index": 146, "time_elapsed": 273724, "internal_node_id": "0.0-6.0-51.0"}}, {"uniqueid": "w99982439:a80915835", "current_trial": 147, "dateTime": 1664464218039, "trialdata": {"rt": 694, "stimulus": "<p id='stroop-text' class='stroop-red'>DOG</p>", "response": "r", "stimulus-type": "unrelated", "word": "DOG", "color": "red", "correct_response": "r", "trial_id": "stroop-trial-1-unrelated-10", "trial_type": "html-keyboard-response", "trial_index": 147, "time_elapsed": 274924, "internal_node_id": "0.0-6.0-52.0"}}, {"uniqueid": "w99982439:a80915835", "current_trial": 148, "dateTime": 1664464219711, "trialdata": {"rt": 1157, "stimulus": "<p id='stroop-text' class='stroop-yellow'>STONE</p>", "response": "y", "stimulus-type": "unrelated", "word": "STONE", "color": "yellow", "correct_response": "y", "trial_id": "stroop-trial-1-unrelated-18", "trial_type": "html-keyboard-response", "trial_index": 148, "time_elapsed": 276596, "internal_node_id": "0.0-6.0-53.0"}}, {"uniqueid": "w99982439:a80915835", "current_trial": 149, "dateTime": 1664464220911, "trialdata": {"rt": 688, "stimulus": "<p id='stroop-text' class='stroop-red'>BLUE</p>", "response": "r", "stimulus-type": "incongruent", "word": "blue", "color": "red", "correct_response": "r", "trial_id": "stroop-trial-1-incongruent-9", "trial_type": "html-keyboard-response", "trial_index": 149, "time_elapsed": 277796, "internal_node_id": "0.0-6.0-54.0"}}, {"uniqueid": "w99982439:a80915835", "current_trial": 150, "dateTime": 1664464221975, "trialdata": {"rt": 560, "stimulus": "<p id='stroop-text' class='stroop-blue'>BLUE</p>", "response": "g", "stimulus-type": "congruent", "word": "blue", "color": "blue", "correct_response": "b", "trial_id": "stroop-trial-1-congruent-8", "trial_type": "html-keyboard-response", "trial_index": 150, "time_elapsed": 278860, "internal_node_id": "0.0-6.0-55.0"}}, {"uniqueid": "w99982439:a80915835", "current_trial": 151, "dateTime": 1664464223031, "trialdata": {"rt": 550, "stimulus": "<p id='stroop-text' class='stroop-red'>RED</p>", "response": "r", "stimulus-type": "congruent", "word": "red", "color": "red", "correct_response": "r", "trial_id": "stroop-trial-1-congruent-30", "trial_type": "html-keyboard-response", "trial_index": 151, "time_elapsed": 279916, "internal_node_id": "0.0-6.0-56.0"}}, {"uniqueid": "w99982439:a80915835", "current_trial": 152, "dateTime": 1664464224279, "trialdata": {"rt": 742, "stimulus": "<p id='stroop-text' class='stroop-green'>BLUE</p>", "response": "g", "stimulus-type": "incongruent", "word": "blue", "color": "green", "correct_response": "g", "trial_id": "stroop-trial-1-incongruent-2", "trial_type": "html-keyboard-response", "trial_index": 152, "time_elapsed": 281164, "internal_node_id": "0.0-6.0-57.0"}}, {"uniqueid": "w99982439:a80915835", "current_trial": 153, "dateTime": 1664464225375, "trialdata": {"rt": 587, "stimulus": "<p id='stroop-text' class='stroop-yellow'>GREEN</p>", "response": "y", "stimulus-type": "incongruent", "word": "green", "color": "yellow", "correct_response": "y", "trial_id": "stroop-trial-1-incongruent-8", "trial_type": "html-keyboard-response", "trial_index": 153, "time_elapsed": 282260, "internal_node_id": "0.0-6.0-58.0"}}, {"uniqueid": "w99982439:a80915835", "current_trial": 154, "dateTime": 1664464226472, "trialdata": {"rt": 590, "stimulus": "<p id='stroop-text' class='stroop-red'>BOTTLE</p>", "response": "r", "stimulus-type": "unrelated", "word": "BOTTLE", "color": "red", "correct_response": "r", "trial_id": "stroop-trial-1-unrelated-6", "trial_type": "html-keyboard-response", "trial_index": 154, "time_elapsed": 283357, "internal_node_id": "0.0-6.0-59.0"}}, {"uniqueid": "w99982439:a80915835", "current_trial": 155, "dateTime": 1664464227631, "trialdata": {"rt": 659, "stimulus": "<p id='stroop-text' class='stroop-yellow'>BLUE</p>", "response": "y", "stimulus-type": "incongruent", "word": "blue", "color": "yellow", "correct_response": "y", "trial_id": "stroop-trial-1-incongruent-4", "trial_type": "html-keyboard-response", "trial_index": 155, "time_elapsed": 284516, "internal_node_id": "0.0-6.0-60.0"}}, {"uniqueid": "w99982439:a80915835", "current_trial": 156, "dateTime": 1664464228576, "trialdata": {"rt": 435, "stimulus": "<p id='stroop-text' class='stroop-yellow'>DOG</p>", "response": "y", "stimulus-type": "unrelated", "word": "DOG", "color": "yellow", "correct_response": "y", "trial_id": "stroop-trial-1-unrelated-20", "trial_type": "html-keyboard-response", "trial_index": 156, "time_elapsed": 285460, "internal_node_id": "0.0-6.0-61.0"}}, {"uniqueid": "w99982439:a80915835", "current_trial": 157, "dateTime": 1664464229615, "trialdata": {"rt": 527, "stimulus": "<p id='stroop-text' class='stroop-green'>SHIP</p>", "response": "g", "stimulus-type": "unrelated", "word": "SHIP", "color": "green", "correct_response": "g", "trial_id": "stroop-trial-1-unrelated-7", "trial_type": "html-keyboard-response", "trial_index": 157, "time_elapsed": 286500, "internal_node_id": "0.0-6.0-62.0"}}, {"uniqueid": "w99982439:a80915835", "current_trial": 158, "dateTime": 1664464230552, "trialdata": {"rt": 423, "stimulus": "<p id='stroop-text' class='stroop-green'>RED</p>", "response": "g", "stimulus-type": "incongruent", "word": "red", "color": "green", "correct_response": "g", "trial_id": "stroop-trial-1-incongruent-7", "trial_type": "html-keyboard-response", "trial_index": 158, "time_elapsed": 287436, "internal_node_id": "0.0-6.0-63.0"}}, {"uniqueid": "w99982439:a80915835", "current_trial": 159, "dateTime": 1664464231632, "trialdata": {"rt": 565, "stimulus": "<p id='stroop-text' class='stroop-blue'>BLUE</p>", "response": "b", "stimulus-type": "congruent", "word": "blue", "color": "blue", "correct_response": "b", "trial_id": "stroop-trial-1-congruent-28", "trial_type": "html-keyboard-response", "trial_index": 159, "time_elapsed": 288516, "internal_node_id": "0.0-6.0-64.0"}}, {"uniqueid": "w99982439:a80915835", "current_trial": 160, "dateTime": 1664464232536, "trialdata": {"rt": 389, "stimulus": "<p id='stroop-text' class='stroop-blue'>RED</p>", "response": "b", "stimulus-type": "incongruent", "word": "red", "color": "blue", "correct_response": "b", "trial_id": "stroop-trial-1-incongruent-15", "trial_type": "html-keyboard-response", "trial_index": 160, "time_elapsed": 289420, "internal_node_id": "0.0-6.0-65.0"}}, {"uniqueid": "w99982439:a80915835", "current_trial": 161, "dateTime": 1664464233519, "trialdata": {"rt": 475, "stimulus": "<p id='stroop-text' class='stroop-red'>MONKEY</p>", "response": "r", "stimulus-type": "unrelated", "word": "MONKEY", "color": "red", "correct_response": "r", "trial_id": "stroop-trial-1-unrelated-24", "trial_type": "html-keyboard-response", "trial_index": 161, "time_elapsed": 290404, "internal_node_id": "0.0-6.0-66.0"}}, {"uniqueid": "w99982439:a80915835", "current_trial": 162, "dateTime": 1664464234519, "trialdata": {"rt": 498, "stimulus": "<p id='stroop-text' class='stroop-red'>STONE</p>", "response": "r", "stimulus-type": "unrelated", "word": "STONE", "color": "red", "correct_response": "r", "trial_id": "stroop-trial-1-unrelated-4", "trial_type": "html-keyboard-response", "trial_index": 162, "time_elapsed": 291404, "internal_node_id": "0.0-6.0-67.0"}}, {"uniqueid": "w99982439:a80915835", "current_trial": 163, "dateTime": 1664464235576, "trialdata": {"rt": 550, "stimulus": "<p id='stroop-text' class='stroop-blue'>CHAIR</p>", "response": "b", "stimulus-type": "unrelated", "word": "CHAIR", "color": "blue", "correct_response": "b", "trial_id": "stroop-trial-1-unrelated-9", "trial_type": "html-keyboard-response", "trial_index": 163, "time_elapsed": 292460, "internal_node_id": "0.0-6.0-68.0"}}, {"uniqueid": "w99982439:a80915835", "current_trial": 164, "dateTime": 1664464236928, "trialdata": {"rt": 851, "stimulus": "<p id='stroop-text' class='stroop-red'>YELLOW</p>", "response": "r", "stimulus-type": "incongruent", "word": "yellow", "color": "red", "correct_response": "r", "trial_id": "stroop-trial-1-incongruent-10", "trial_type": "html-keyboard-response", "trial_index": 164, "time_elapsed": 293812, "internal_node_id": "0.0-6.0-69.0"}}, {"uniqueid": "w99982439:a80915835", "current_trial": 165, "dateTime": 1664464238007, "trialdata": {"rt": 565, "stimulus": "<p id='stroop-text' class='stroop-green'>GREEN</p>", "response": "g", "stimulus-type": "congruent", "word": "green", "color": "green", "correct_response": "g", "trial_id": "stroop-trial-1-congruent-1", "trial_type": "html-keyboard-response", "trial_index": 165, "time_elapsed": 294892, "internal_node_id": "0.0-6.0-70.0"}}, {"uniqueid": "w99982439:a80915835", "current_trial": 166, "dateTime": 1664464239032, "trialdata": {"rt": 516, "stimulus": "<p id='stroop-text' class='stroop-yellow'>BRIDGE</p>", "response": "y", "stimulus-type": "unrelated", "word": "BRIDGE", "color": "yellow", "correct_response": "y", "trial_id": "stroop-trial-1-unrelated-5", "trial_type": "html-keyboard-response", "trial_index": 166, "time_elapsed": 295916, "internal_node_id": "0.0-6.0-71.0"}}, {"uniqueid": "w99982439:a80915835", "current_trial": 167, "dateTime": 1664464239960, "trialdata": {"rt": 416, "stimulus": "<p id='stroop-text' class='stroop-yellow'>GREEN</p>", "response": "y", "stimulus-type": "incongruent", "word": "green", "color": "yellow", "correct_response": "y", "trial_id": "stroop-trial-1-incongruent-5", "trial_type": "html-keyboard-response", "trial_index": 167, "time_elapsed": 296844, "internal_node_id": "0.0-6.0-72.0"}}, {"uniqueid": "w99982439:a80915835", "current_trial": 168, "dateTime": 1664464240920, "trialdata": {"rt": 450, "stimulus": "<p id='stroop-text' class='stroop-yellow'>RED</p>", "response": "y", "stimulus-type": "incongruent", "word": "red", "color": "yellow", "correct_response": "y", "trial_id": "stroop-trial-1-incongruent-30", "trial_type": "html-keyboard-response", "trial_index": 168, "time_elapsed": 297805, "internal_node_id": "0.0-6.0-73.0"}}, {"uniqueid": "w99982439:a80915835", "current_trial": 169, "dateTime": 1664464241799, "trialdata": {"rt": 369, "stimulus": "<p id='stroop-text' class='stroop-yellow'>YELLOW</p>", "response": "y", "stimulus-type": "congruent", "word": "yellow", "color": "yellow", "correct_response": "y", "trial_id": "stroop-trial-1-congruent-5", "trial_type": "html-keyboard-response", "trial_index": 169, "time_elapsed": 298684, "internal_node_id": "0.0-6.0-74.0"}}, {"uniqueid": "w99982439:a80915835", "current_trial": 170, "dateTime": 1664464242768, "trialdata": {"rt": 455, "stimulus": "<p id='stroop-text' class='stroop-yellow'>BLUE</p>", "response": "y", "stimulus-type": "incongruent", "word": "blue", "color": "yellow", "correct_response": "y", "trial_id": "stroop-trial-1-incongruent-21", "trial_type": "html-keyboard-response", "trial_index": 170, "time_elapsed": 299652, "internal_node_id": "0.0-6.0-75.0"}}, {"uniqueid": "w99982439:a80915835", "current_trial": 171, "dateTime": 1664464243807, "trialdata": {"rt": 531, "stimulus": "<p id='stroop-text' class='stroop-red'>RED</p>", "response": "r", "stimulus-type": "congruent", "word": "red", "color": "red", "correct_response": "r", "trial_id": "stroop-trial-1-congruent-22", "trial_type": "html-keyboard-response", "trial_index": 171, "time_elapsed": 300692, "internal_node_id": "0.0-6.0-76.0"}}, {"uniqueid": "w99982439:a80915835", "current_trial": 172, "dateTime": 1664464245255, "trialdata": {"rt": 943, "stimulus": "<p id='stroop-text' class='stroop-blue'>MONKEY</p>", "response": "b", "stimulus-type": "unrelated", "word": "MONKEY", "color": "blue", "correct_response": "b", "trial_id": "stroop-trial-1-unrelated-3", "trial_type": "html-keyboard-response", "trial_index": 172, "time_elapsed": 302140, "internal_node_id": "0.0-6.0-77.0"}}, {"uniqueid": "w99982439:a80915835", "current_trial": 173, "dateTime": 1664464246384, "trialdata": {"rt": 619, "stimulus": "<p id='stroop-text' class='stroop-green'>YELLOW</p>", "response": "g", "stimulus-type": "incongruent", "word": "yellow", "color": "green", "correct_response": "g", "trial_id": "stroop-trial-1-incongruent-13", "trial_type": "html-keyboard-response", "trial_index": 173, "time_elapsed": 303269, "internal_node_id": "0.0-6.0-78.0"}}, {"uniqueid": "w99982439:a80915835", "current_trial": 174, "dateTime": 1664464247352, "trialdata": {"rt": 459, "stimulus": "<p id='stroop-text' class='stroop-green'>MONKEY</p>", "response": "g", "stimulus-type": "unrelated", "word": "MONKEY", "color": "green", "correct_response": "g", "trial_id": "stroop-trial-1-unrelated-27", "trial_type": "html-keyboard-response", "trial_index": 174, "time_elapsed": 304236, "internal_node_id": "0.0-6.0-79.0"}}, {"uniqueid": "w99982439:a80915835", "current_trial": 175, "dateTime": 1664464248719, "trialdata": {"rt": 855, "stimulus": "<p id='stroop-text' class='stroop-yellow'>YELLOW</p>", "response": "y", "stimulus-type": "congruent", "word": "yellow", "color": "yellow", "correct_response": "y", "trial_id": "stroop-trial-1-congruent-9", "trial_type": "html-keyboard-response", "trial_index": 175, "time_elapsed": 305604, "internal_node_id": "0.0-6.0-80.0"}}, {"uniqueid": "w99982439:a80915835", "current_trial": 176, "dateTime": 1664464250367, "trialdata": {"rt": 1138, "stimulus": "<p id='stroop-text' class='stroop-green'>BLUE</p>", "response": "g", "stimulus-type": "incongruent", "word": "blue", "color": "green", "correct_response": "g", "trial_id": "stroop-trial-1-incongruent-16", "trial_type": "html-keyboard-response", "trial_index": 176, "time_elapsed": 307252, "internal_node_id": "0.0-6.0-81.0"}}, {"uniqueid": "w99982439:a80915835", "current_trial": 177, "dateTime": 1664464251399, "trialdata": {"rt": 516, "stimulus": "<p id='stroop-text' class='stroop-red'>RED</p>", "response": "r", "stimulus-type": "congruent", "word": "red", "color": "red", "correct_response": "r", "trial_id": "stroop-trial-1-congruent-24", "trial_type": "html-keyboard-response", "trial_index": 177, "time_elapsed": 308284, "internal_node_id": "0.0-6.0-82.0"}}, {"uniqueid": "w99982439:a80915835", "current_trial": 178, "dateTime": 1664464252560, "trialdata": {"rt": 656, "stimulus": "<p id='stroop-text' class='stroop-yellow'>BRAIN</p>", "response": "y", "stimulus-type": "unrelated", "word": "BRAIN", "color": "yellow", "correct_response": "y", "trial_id": "stroop-trial-1-unrelated-14", "trial_type": "html-keyboard-response", "trial_index": 178, "time_elapsed": 309445, "internal_node_id": "0.0-6.0-83.0"}}, {"uniqueid": "w99982439:a80915835", "current_trial": 179, "dateTime": 1664464253584, "trialdata": {"rt": 518, "stimulus": "<p id='stroop-text' class='stroop-yellow'>YELLOW</p>", "response": "y", "stimulus-type": "congruent", "word": "yellow", "color": "yellow", "correct_response": "y", "trial_id": "stroop-trial-1-congruent-27", "trial_type": "html-keyboard-response", "trial_index": 179, "time_elapsed": 310469, "internal_node_id": "0.0-6.0-84.0"}}, {"uniqueid": "w99982439:a80915835", "current_trial": 180, "dateTime": 1664464254792, "trialdata": {"rt": 704, "stimulus": "<p id='stroop-text' class='stroop-green'>SHIP</p>", "response": "g", "stimulus-type": "unrelated", "word": "SHIP", "color": "green", "correct_response": "g", "trial_id": "stroop-trial-1-unrelated-12", "trial_type": "html-keyboard-response", "trial_index": 180, "time_elapsed": 311676, "internal_node_id": "0.0-6.0-85.0"}}, {"uniqueid": "w99982439:a80915835", "current_trial": 181, "dateTime": 1664464255840, "trialdata": {"rt": 541, "stimulus": "<p id='stroop-text' class='stroop-blue'>BLUE</p>", "response": "b", "stimulus-type": "congruent", "word": "blue", "color": "blue", "correct_response": "b", "trial_id": "stroop-trial-1-congruent-19", "trial_type": "html-keyboard-response", "trial_index": 181, "time_elapsed": 312725, "internal_node_id": "0.0-6.0-86.0"}}, {"uniqueid": "w99982439:a80915835", "current_trial": 182, "dateTime": 1664464257288, "trialdata": {"rt": 936, "stimulus": "<p id='stroop-text' class='stroop-yellow'>BOTTLE</p>", "response": "y", "stimulus-type": "unrelated", "word": "BOTTLE", "color": "yellow", "correct_response": "y", "trial_id": "stroop-trial-1-unrelated-8", "trial_type": "html-keyboard-response", "trial_index": 182, "time_elapsed": 314172, "internal_node_id": "0.0-6.0-87.0"}}, {"uniqueid": "w99982439:a80915835", "current_trial": 183, "dateTime": 1664464258624, "trialdata": {"rt": 829, "stimulus": "<p id='stroop-text' class='stroop-green'>BLUE</p>", "response": "g", "stimulus-type": "incongruent", "word": "blue", "color": "green", "correct_response": "g", "trial_id": "stroop-trial-1-incongruent-19", "trial_type": "html-keyboard-response", "trial_index": 183, "time_elapsed": 315508, "internal_node_id": "0.0-6.0-88.0"}}, {"uniqueid": "w99982439:a80915835", "current_trial": 184, "dateTime": 1664464259640, "trialdata": {"rt": 514, "stimulus": "<p id='stroop-text' class='stroop-green'>BLUE</p>", "response": "g", "stimulus-type": "incongruent", "word": "blue", "color": "green", "correct_response": "g", "trial_id": "stroop-trial-1-incongruent-14", "trial_type": "html-keyboard-response", "trial_index": 184, "time_elapsed": 316525, "internal_node_id": "0.0-6.0-89.0"}}, {"uniqueid": "w99982439:a80915835", "current_trial": 185, "dateTime": 1664464262191, "trialdata": {"rt": 2045, "stimulus": "  <h1> End of block! </h1>\n\n  You have reached the end of the block 2/5. If you need a short break, feel free to take one now before moving on.\n\n  <br><br>\n  In the next block, you will complete another 90 rounds of this game.\n\n  <br><br>\n  <div style='text-align: center;'>Press <code>space</code> to begin.</div>\n  <br><br>\n<div style='text-align: center;'>(If the experiment doesn't continue, try clicking on the text and then pressing <code>space</code>.)</div>", "response": " ", "trial_id": "stroop_1_ready_3", "trial_type": "html-keyboard-response", "trial_index": 185, "time_elapsed": 319076, "internal_node_id": "0.0-7.0"}}, {"uniqueid": "w99982439:a80915835", "current_trial": 186, "dateTime": 1664464263183, "trialdata": {"rt": 991, "stimulus": "<p id='stroop-text' class='stroop-green'>BOAT</p>", "response": "g", "stimulus-type": "unrelated", "word": "BOAT", "color": "green", "correct_response": "g", "trial_id": "stroop-trial-1-unrelated-26", "trial_type": "html-keyboard-response", "trial_index": 186, "time_elapsed": 320068, "internal_node_id": "0.0-8.0-0.0"}}, {"uniqueid": "w99982439:a80915835", "current_trial": 187, "dateTime": 1664464264335, "trialdata": {"rt": 644, "stimulus": "<p id='stroop-text' class='stroop-red'>BRAIN</p>", "response": "r", "stimulus-type": "unrelated", "word": "BRAIN", "color": "red", "correct_response": "r", "trial_id": "stroop-trial-1-unrelated-11", "trial_type": "html-keyboard-response", "trial_index": 187, "time_elapsed": 321220, "internal_node_id": "0.0-8.0-1.0"}}, {"uniqueid": "w99982439:a80915835", "current_trial": 188, "dateTime": 1664464265472, "trialdata": {"rt": 620, "stimulus": "<p id='stroop-text' class='stroop-blue'>BLUE</p>", "response": "b", "stimulus-type": "congruent", "word": "blue", "color": "blue", "correct_response": "b", "trial_id": "stroop-trial-1-congruent-2", "trial_type": "html-keyboard-response", "trial_index": 188, "time_elapsed": 322356, "internal_node_id": "0.0-8.0-2.0"}}, {"uniqueid": "w99982439:a80915835", "current_trial": 189, "dateTime": 1664464266808, "trialdata": {"rt": 834, "stimulus": "<p id='stroop-text' class='stroop-yellow'>SHIP</p>", "response": "y", "stimulus-type": "unrelated", "word": "SHIP", "color": "yellow", "correct_response": "y", "trial_id": "stroop-trial-1-unrelated-8", "trial_type": "html-keyboard-response", "trial_index": 189, "time_elapsed": 323693, "internal_node_id": "0.0-8.0-3.0"}}, {"uniqueid": "w99982439:a80915835", "current_trial": 190, "dateTime": 1664464270688, "trialdata": {"rt": 3371, "stimulus": "<p id='stroop-text' class='stroop-yellow'>GREEN</p>", "response": "y", "stimulus-type": "incongruent", "word": "green", "color": "yellow", "correct_response": "y", "trial_id": "stroop-trial-1-incongruent-21", "trial_type": "html-keyboard-response", "trial_index": 190, "time_elapsed": 327573, "internal_node_id": "0.0-8.0-4.0"}}, {"uniqueid": "w99982439:a80915835", "current_trial": 191, "dateTime": 1664464271800, "trialdata": {"rt": 607, "stimulus": "<p id='stroop-text' class='stroop-green'>BOAT</p>", "response": "g", "stimulus-type": "unrelated", "word": "BOAT", "color": "green", "correct_response": "g", "trial_id": "stroop-trial-1-unrelated-1", "trial_type": "html-keyboard-response", "trial_index": 191, "time_elapsed": 328684, "internal_node_id": "0.0-8.0-5.0"}}, {"uniqueid": "w99982439:a80915835", "current_trial": 192, "dateTime": 1664464272992, "trialdata": {"rt": 686, "stimulus": "<p id='stroop-text' class='stroop-blue'>BLUE</p>", "response": "b", "stimulus-type": "congruent", "word": "blue", "color": "blue", "correct_response": "b", "trial_id": "stroop-trial-1-congruent-9", "trial_type": "html-keyboard-response", "trial_index": 192, "time_elapsed": 329877, "internal_node_id": "0.0-8.0-6.0"}}, {"uniqueid": "w99982439:a80915835", "current_trial": 193, "dateTime": 1664464273896, "trialdata": {"rt": 397, "stimulus": "<p id='stroop-text' class='stroop-blue'>BLUE</p>", "response": "b", "stimulus-type": "congruent", "word": "blue", "color": "blue", "correct_response": "b", "trial_id": "stroop-trial-1-congruent-6", "trial_type": "html-keyboard-response", "trial_index": 193, "time_elapsed": 330781, "internal_node_id": "0.0-8.0-7.0"}}, {"uniqueid": "w99982439:a80915835", "current_trial": 194, "dateTime": 1664464275256, "trialdata": {"rt": 855, "stimulus": "<p id='stroop-text' class='stroop-yellow'>DOG</p>", "response": "y", "stimulus-type": "unrelated", "word": "DOG", "color": "yellow", "correct_response": "y", "trial_id": "stroop-trial-1-unrelated-19", "trial_type": "html-keyboard-response", "trial_index": 194, "time_elapsed": 332141, "internal_node_id": "0.0-8.0-8.0"}}, {"uniqueid": "w99982439:a80915835", "current_trial": 195, "dateTime": 1664464276392, "trialdata": {"rt": 627, "stimulus": "<p id='stroop-text' class='stroop-red'>RED</p>", "response": "r", "stimulus-type": "congruent", "word": "red", "color": "red", "correct_response": "r", "trial_id": "stroop-trial-1-congruent-18", "trial_type": "html-keyboard-response", "trial_index": 195, "time_elapsed": 333276, "internal_node_id": "0.0-8.0-9.0"}}, {"uniqueid": "w99982439:a80915835", "current_trial": 196, "dateTime": 1664464277680, "trialdata": {"rt": 783, "stimulus": "<p id='stroop-text' class='stroop-blue'>BLUE</p>", "response": "b", "stimulus-type": "congruent", "word": "blue", "color": "blue", "correct_response": "b", "trial_id": "stroop-trial-1-congruent-17", "trial_type": "html-keyboard-response", "trial_index": 196, "time_elapsed": 334564, "internal_node_id": "0.0-8.0-10.0"}}, {"uniqueid": "w99982439:a80915835", "current_trial": 197, "dateTime": 1664464279080, "trialdata": {"rt": 893, "stimulus": "<p id='stroop-text' class='stroop-blue'>MONKEY</p>", "response": "b", "stimulus-type": "unrelated", "word": "MONKEY", "color": "blue", "correct_response": "b", "trial_id": "stroop-trial-1-unrelated-24", "trial_type": "html-keyboard-response", "trial_index": 197, "time_elapsed": 335965, "internal_node_id": "0.0-8.0-11.0"}}, {"uniqueid": "w99982439:a80915835", "current_trial": 198, "dateTime": 1664464280232, "trialdata": {"rt": 647, "stimulus": "<p id='stroop-text' class='stroop-red'>SHIP</p>", "response": "r", "stimulus-type": "unrelated", "word": "SHIP", "color": "red", "correct_response": "r", "trial_id": "stroop-trial-1-unrelated-15", "trial_type": "html-keyboard-response", "trial_index": 198, "time_elapsed": 337117, "internal_node_id": "0.0-8.0-12.0"}}, {"uniqueid": "w99982439:a80915835", "current_trial": 199, "dateTime": 1664464281240, "trialdata": {"rt": 504, "stimulus": "<p id='stroop-text' class='stroop-red'>BLUE</p>", "response": "r", "stimulus-type": "incongruent", "word": "blue", "color": "red", "correct_response": "r", "trial_id": "stroop-trial-1-incongruent-17", "trial_type": "html-keyboard-response", "trial_index": 199, "time_elapsed": 338124, "internal_node_id": "0.0-8.0-13.0"}}, {"uniqueid": "w99982439:a80915835", "current_trial": 200, "dateTime": 1664464282191, "trialdata": {"rt": 447, "stimulus": "<p id='stroop-text' class='stroop-red'>GREEN</p>", "response": "r", "stimulus-type": "incongruent", "word": "green", "color": "red", "correct_response": "r", "trial_id": "stroop-trial-1-incongruent-3", "trial_type": "html-keyboard-response", "trial_index": 200, "time_elapsed": 339076, "internal_node_id": "0.0-8.0-14.0"}}, {"uniqueid": "w99982439:a80915835", "current_trial": 201, "dateTime": 1664464283351, "trialdata": {"rt": 650, "stimulus": "<p id='stroop-text' class='stroop-green'>BLUE</p>", "response": "g", "stimulus-type": "incongruent", "word": "blue", "color": "green", "correct_response": "g", "trial_id": "stroop-trial-1-incongruent-5", "trial_type": "html-keyboard-response", "trial_index": 201, "time_elapsed": 340236, "internal_node_id": "0.0-8.0-15.0"}}, {"uniqueid": "w99982439:a80915835", "current_trial": 202, "dateTime": 1664464284312, "trialdata": {"rt": 445, "stimulus": "<p id='stroop-text' class='stroop-red'>YELLOW</p>", "response": "r", "stimulus-type": "incongruent", "word": "yellow", "color": "red", "correct_response": "r", "trial_id": "stroop-trial-1-incongruent-14", "trial_type": "html-keyboard-response", "trial_index": 202, "time_elapsed": 341197, "internal_node_id": "0.0-8.0-16.0"}}, {"uniqueid": "w99982439:a80915835", "current_trial": 203, "dateTime": 1664464285384, "trialdata": {"rt": 563, "stimulus": "<p id='stroop-text' class='stroop-red'>CHAIR</p>", "response": "r", "stimulus-type": "unrelated", "word": "CHAIR", "color": "red", "correct_response": "r", "trial_id": "stroop-trial-1-unrelated-9", "trial_type": "html-keyboard-response", "trial_index": 203, "time_elapsed": 342269, "internal_node_id": "0.0-8.0-17.0"}}, {"uniqueid": "w99982439:a80915835", "current_trial": 204, "dateTime": 1664464286520, "trialdata": {"rt": 632, "stimulus": "<p id='stroop-text' class='stroop-yellow'>SHIP</p>", "response": "y", "stimulus-type": "unrelated", "word": "SHIP", "color": "yellow", "correct_response": "y", "trial_id": "stroop-trial-1-unrelated-27", "trial_type": "html-keyboard-response", "trial_index": 204, "time_elapsed": 343405, "internal_node_id": "0.0-8.0-18.0"}}, {"uniqueid": "w99982439:a80915835", "current_trial": 205, "dateTime": 1664464287568, "trialdata": {"rt": 543, "stimulus": "<p id='stroop-text' class='stroop-yellow'>WINDOW</p>", "response": "y", "stimulus-type": "unrelated", "word": "WINDOW", "color": "yellow", "correct_response": "y", "trial_id": "stroop-trial-1-unrelated-10", "trial_type": "html-keyboard-response", "trial_index": 205, "time_elapsed": 344453, "internal_node_id": "0.0-8.0-19.0"}}, {"uniqueid": "w99982439:a80915835", "current_trial": 206, "dateTime": 1664464288744, "trialdata": {"rt": 665, "stimulus": "<p id='stroop-text' class='stroop-green'>YELLOW</p>", "response": "g", "stimulus-type": "incongruent", "word": "yellow", "color": "green", "correct_response": "g", "trial_id": "stroop-trial-1-incongruent-26", "trial_type": "html-keyboard-response", "trial_index": 206, "time_elapsed": 345629, "internal_node_id": "0.0-8.0-20.0"}}, {"uniqueid": "w99982439:a80915835", "current_trial": 207, "dateTime": 1664464290048, "trialdata": {"rt": 799, "stimulus": "<p id='stroop-text' class='stroop-green'>YELLOW</p>", "response": "g", "stimulus-type": "incongruent", "word": "yellow", "color": "green", "correct_response": "g", "trial_id": "stroop-trial-1-incongruent-20", "trial_type": "html-keyboard-response", "trial_index": 207, "time_elapsed": 346933, "internal_node_id": "0.0-8.0-21.0"}}, {"uniqueid": "w99982439:a80915835", "current_trial": 208, "dateTime": 1664464290960, "trialdata": {"rt": 402, "stimulus": "<p id='stroop-text' class='stroop-green'>GREEN</p>", "response": "g", "stimulus-type": "congruent", "word": "green", "color": "green", "correct_response": "g", "trial_id": "stroop-trial-1-congruent-10", "trial_type": "html-keyboard-response", "trial_index": 208, "time_elapsed": 347845, "internal_node_id": "0.0-8.0-22.0"}}, {"uniqueid": "w99982439:a80915835", "current_trial": 209, "dateTime": 1664464291976, "trialdata": {"rt": 500, "stimulus": "<p id='stroop-text' class='stroop-blue'>RED</p>", "response": "b", "stimulus-type": "incongruent", "word": "red", "color": "blue", "correct_response": "b", "trial_id": "stroop-trial-1-incongruent-11", "trial_type": "html-keyboard-response", "trial_index": 209, "time_elapsed": 348861, "internal_node_id": "0.0-8.0-23.0"}}, {"uniqueid": "w99982439:a80915835", "current_trial": 210, "dateTime": 1664464293096, "trialdata": {"rt": 611, "stimulus": "<p id='stroop-text' class='stroop-yellow'>RED</p>", "response": "y", "stimulus-type": "incongruent", "word": "red", "color": "yellow", "correct_response": "y", "trial_id": "stroop-trial-1-incongruent-27", "trial_type": "html-keyboard-response", "trial_index": 210, "time_elapsed": 349981, "internal_node_id": "0.0-8.0-24.0"}}, {"uniqueid": "w99982439:a80915835", "current_trial": 211, "dateTime": 1664464294184, "trialdata": {"rt": 571, "stimulus": "<p id='stroop-text' class='stroop-blue'>MONKEY</p>", "response": "y", "stimulus-type": "unrelated", "word": "MONKEY", "color": "blue", "correct_response": "b", "trial_id": "stroop-trial-1-unrelated-13", "trial_type": "html-keyboard-response", "trial_index": 211, "time_elapsed": 351069, "internal_node_id": "0.0-8.0-25.0"}}, {"uniqueid": "w99982439:a80915835", "current_trial": 212, "dateTime": 1664464295689, "trialdata": {"rt": 992, "stimulus": "<p id='stroop-text' class='stroop-green'>BLUE</p>", "response": "g", "stimulus-type": "incongruent", "word": "blue", "color": "green", "correct_response": "g", "trial_id": "stroop-trial-1-incongruent-23", "trial_type": "html-keyboard-response", "trial_index": 212, "time_elapsed": 352572, "internal_node_id": "0.0-8.0-26.0"}}, {"uniqueid": "w99982439:a80915835", "current_trial": 213, "dateTime": 1664464297400, "trialdata": {"rt": 1196, "stimulus": "<p id='stroop-text' class='stroop-yellow'>BLUE</p>", "response": "y", "stimulus-type": "incongruent", "word": "blue", "color": "yellow", "correct_response": "y", "trial_id": "stroop-trial-1-incongruent-13", "trial_type": "html-keyboard-response", "trial_index": 213, "time_elapsed": 354285, "internal_node_id": "0.0-8.0-27.0"}}, {"uniqueid": "w99982439:a80915835", "current_trial": 214, "dateTime": 1664464298632, "trialdata": {"rt": 727, "stimulus": "<p id='stroop-text' class='stroop-red'>YELLOW</p>", "response": "r", "stimulus-type": "incongruent", "word": "yellow", "color": "red", "correct_response": "r", "trial_id": "stroop-trial-1-incongruent-29", "trial_type": "html-keyboard-response", "trial_index": 214, "time_elapsed": 355517, "internal_node_id": "0.0-8.0-28.0"}}, {"uniqueid": "w99982439:a80915835", "current_trial": 215, "dateTime": 1664464299968, "trialdata": {"rt": 833, "stimulus": "<p id='stroop-text' class='stroop-yellow'>YELLOW</p>", "response": "y", "stimulus-type": "congruent", "word": "yellow", "color": "yellow", "correct_response": "y", "trial_id": "stroop-trial-1-congruent-24", "trial_type": "html-keyboard-response", "trial_index": 215, "time_elapsed": 356853, "internal_node_id": "0.0-8.0-29.0"}}, {"uniqueid": "w99982439:a80915835", "current_trial": 216, "dateTime": 1664464300944, "trialdata": {"rt": 471, "stimulus": "<p id='stroop-text' class='stroop-yellow'>YELLOW</p>", "response": "y", "stimulus-type": "congruent", "word": "yellow", "color": "yellow", "correct_response": "y", "trial_id": "stroop-trial-1-congruent-28", "trial_type": "html-keyboard-response", "trial_index": 216, "time_elapsed": 357829, "internal_node_id": "0.0-8.0-30.0"}}, {"uniqueid": "w99982439:a80915835", "current_trial": 217, "dateTime": 1664464302048, "trialdata": {"rt": 589, "stimulus": "<p id='stroop-text' class='stroop-blue'>BLUE</p>", "response": "b", "stimulus-type": "congruent", "word": "blue", "color": "blue", "correct_response": "b", "trial_id": "stroop-trial-1-congruent-7", "trial_type": "html-keyboard-response", "trial_index": 217, "time_elapsed": 358933, "internal_node_id": "0.0-8.0-31.0"}}, {"uniqueid": "w99982439:a80915835", "current_trial": 218, "dateTime": 1664464303120, "trialdata": {"rt": 564, "stimulus": "<p id='stroop-text' class='stroop-red'>BRIDGE</p>", "response": "r", "stimulus-type": "unrelated", "word": "BRIDGE", "color": "red", "correct_response": "r", "trial_id": "stroop-trial-1-unrelated-18", "trial_type": "html-keyboard-response", "trial_index": 218, "time_elapsed": 360005, "internal_node_id": "0.0-8.0-32.0"}}, {"uniqueid": "w99982439:a80915835", "current_trial": 219, "dateTime": 1664464305144, "trialdata": {"rt": 1514, "stimulus": "<p id='stroop-text' class='stroop-red'>BOTTLE</p>", "response": "r", "stimulus-type": "unrelated", "word": "BOTTLE", "color": "red", "correct_response": "r", "trial_id": "stroop-trial-1-unrelated-2", "trial_type": "html-keyboard-response", "trial_index": 219, "time_elapsed": 362029, "internal_node_id": "0.0-8.0-33.0"}}, {"uniqueid": "w99982439:a80915835", "current_trial": 220, "dateTime": 1664464306592, "trialdata": {"rt": 939, "stimulus": "<p id='stroop-text' class='stroop-yellow'>GREEN</p>", "response": "y", "stimulus-type": "incongruent", "word": "green", "color": "yellow", "correct_response": "y", "trial_id": "stroop-trial-1-incongruent-7", "trial_type": "html-keyboard-response", "trial_index": 220, "time_elapsed": 363477, "internal_node_id": "0.0-8.0-34.0"}}, {"uniqueid": "w99982439:a80915835", "current_trial": 221, "dateTime": 1664464307584, "trialdata": {"rt": 486, "stimulus": "<p id='stroop-text' class='stroop-yellow'>BRIDGE</p>", "response": "y", "stimulus-type": "unrelated", "word": "BRIDGE", "color": "yellow", "correct_response": "y", "trial_id": "stroop-trial-1-unrelated-14", "trial_type": "html-keyboard-response", "trial_index": 221, "time_elapsed": 364469, "internal_node_id": "0.0-8.0-35.0"}}, {"uniqueid": "w99982439:a80915835", "current_trial": 222, "dateTime": 1664464308736, "trialdata": {"rt": 643, "stimulus": "<p id='stroop-text' class='stroop-red'>RED</p>", "response": "r", "stimulus-type": "congruent", "word": "red", "color": "red", "correct_response": "r", "trial_id": "stroop-trial-1-congruent-21", "trial_type": "html-keyboard-response", "trial_index": 222, "time_elapsed":