{"condition": 0, "counterbalance": 0, "assignmentId": "a54296137", "workerId": "w25785962", "hitId": "h58242754", "currenttrial": 964, "bonus": 0, "data": [{"uniqueid": "w25785962:a54296137", "current_trial": 0, "dateTime": 1664555823183, "trialdata": {"success": true, "trial_type": "fullscreen", "trial_index": 0, "time_elapsed": 8407, "internal_node_id": "0.0-0.0"}}, {"uniqueid": "w25785962:a54296137", "current_trial": 1, "dateTime": 1664555836957, "trialdata": {"view_history": [{"page_index": 0, "viewing_time": 13770}], "rt": 13771, "trial_id": "exp_instructions_distractor", "trial_type": "instructions", "trial_index": 1, "time_elapsed": 22181, "internal_node_id": "0.0-1.0"}}, {"uniqueid": "w25785962:a54296137", "current_trial": 2, "dateTime": 1664555855595, "trialdata": {"view_history": [{"page_index": 0, "viewing_time": 18637}], "rt": 18637, "trial_id": "color_game_instructions", "trial_type": "instructions", "trial_index": 2, "time_elapsed": 40819, "internal_node_id": "0.0-2.0"}}, {"uniqueid": "w25785962:a54296137", "current_trial": 3, "dateTime": 1664555861494, "trialdata": {"rt": 5898, "stimulus": "<h1> Get ready to start the game! </h1>\n\nThank you for reading the instructions. Get ready start with the first of 5 block(s) of this game.\n<br><br>\nIn this first block, you will complete 90 rounds of this game before moving on.\n<br><br>\nRemember, the better you perform, the bigger your bonus will be!\n<br><br>\n<div style='text-align: center;'>Press <code>space</code> to begin.</div>", "response": " ", "trial_id": "stroop_1_ready_1", "trial_type": "html-keyboard-response", "trial_index": 3, "time_elapsed": 46718, "internal_node_id": "0.0-3.0"}}, {"uniqueid": "w25785962:a54296137", "current_trial": 4, "dateTime": 1664555862157, "trialdata": {"rt": 661, "stimulus": "<p id='stroop-text' class='stroop-blue'>BLUE</p>", "response": "r", "stimulus-type": "congruent", "word": "blue", "color": "blue", "correct_response": "b", "trial_id": "stroop-trial-1-congruent-16", "trial_type": "html-keyboard-response", "trial_index": 4, "time_elapsed": 47381, "internal_node_id": "0.0-4.0-0.0"}}, {"uniqueid": "w25785962:a54296137", "current_trial": 5, "dateTime": 1664555863318, "trialdata": {"rt": 657, "stimulus": "<p id='stroop-text' class='stroop-green'>RED</p>", "response": "r", "stimulus-type": "incongruent", "word": "red", "color": "green", "correct_response": "g", "trial_id": "stroop-trial-1-incongruent-11", "trial_type": "html-keyboard-response", "trial_index": 5, "time_elapsed": 48541, "internal_node_id": "0.0-4.0-1.0"}}, {"uniqueid": "w25785962:a54296137", "current_trial": 6, "dateTime": 1664555864358, "trialdata": {"rt": 529, "stimulus": "<p id='stroop-text' class='stroop-yellow'>YELLOW</p>", "response": "y", "stimulus-type": "congruent", "word": "yellow", "color": "yellow", "correct_response": "y", "trial_id": "stroop-trial-1-congruent-7", "trial_type": "html-keyboard-response", "trial_index": 6, "time_elapsed": 49582, "internal_node_id": "0.0-4.0-2.0"}}, {"uniqueid": "w25785962:a54296137", "current_trial": 7, "dateTime": 1664555866782, "trialdata": {"rt": 1912, "stimulus": "<p id='stroop-text' class='stroop-green'>DOG</p>", "response": "g", "stimulus-type": "unrelated", "word": "DOG", "color": "green", "correct_response": "g", "trial_id": "stroop-trial-1-unrelated-12", "trial_type": "html-keyboard-response", "trial_index": 7, "time_elapsed": 52006, "internal_node_id": "0.0-4.0-3.0"}}, {"uniqueid": "w25785962:a54296137", "current_trial": 8, "dateTime": 1664555868086, "trialdata": {"rt": 792, "stimulus": "<p id='stroop-text' class='stroop-green'>BLUE</p>", "response": "b", "stimulus-type": "incongruent", "word": "blue", "color": "green", "correct_response": "g", "trial_id": "stroop-trial-1-incongruent-15", "trial_type": "html-keyboard-response", "trial_index": 8, "time_elapsed": 53310, "internal_node_id": "0.0-4.0-4.0"}}, {"uniqueid": "w25785962:a54296137", "current_trial": 9, "dateTime": 1664555869438, "trialdata": {"rt": 849, "stimulus": "<p id='stroop-text' class='stroop-blue'>BLUE</p>", "response": "b", "stimulus-type": "congruent", "word": "blue", "color": "blue", "correct_response": "b", "trial_id": "stroop-trial-1-congruent-10", "trial_type": "html-keyboard-response", "trial_index": 9, "time_elapsed": 54662, "internal_node_id": "0.0-4.0-5.0"}}, {"uniqueid": "w25785962:a54296137", "current_trial": 10, "dateTime": 1664555870695, "trialdata": {"rt": 750, "stimulus": "<p id='stroop-text' class='stroop-green'>YELLOW</p>", "response": "g", "stimulus-type": "incongruent", "word": "yellow", "color": "green", "correct_response": "g", "trial_id": "stroop-trial-1-incongruent-25", "trial_type": "html-keyboard-response", "trial_index": 10, "time_elapsed": 55918, "internal_node_id": "0.0-4.0-6.0"}}, {"uniqueid": "w25785962:a54296137", "current_trial": 11, "dateTime": 1664555871864, "trialdata": {"rt": 660, "stimulus": "<p id='stroop-text' class='stroop-yellow'>GREEN</p>", "response": "y", "stimulus-type": "incongruent", "word": "green", "color": "yellow", "correct_response": "y", "trial_id": "stroop-trial-1-incongruent-26", "trial_type": "html-keyboard-response", "trial_index": 11, "time_elapsed": 57088, "internal_node_id": "0.0-4.0-7.0"}}, {"uniqueid": "w25785962:a54296137", "current_trial": 12, "dateTime": 1664555873231, "trialdata": {"rt": 853, "stimulus": "<p id='stroop-text' class='stroop-green'>RED</p>", "response": "g", "stimulus-type": "incongruent", "word": "red", "color": "green", "correct_response": "g", "trial_id": "stroop-trial-1-incongruent-19", "trial_type": "html-keyboard-response", "trial_index": 12, "time_elapsed": 58455, "internal_node_id": "0.0-4.0-8.0"}}, {"uniqueid": "w25785962:a54296137", "current_trial": 13, "dateTime": 1664555874383, "trialdata": {"rt": 648, "stimulus": "<p id='stroop-text' class='stroop-green'>YELLOW</p>", "response": "g", "stimulus-type": "incongruent", "word": "yellow", "color": "green", "correct_response": "g", "trial_id": "stroop-trial-1-incongruent-29", "trial_type": "html-keyboard-response", "trial_index": 13, "time_elapsed": 59607, "internal_node_id": "0.0-4.0-9.0"}}, {"uniqueid": "w25785962:a54296137", "current_trial": 14, "dateTime": 1664555875479, "trialdata": {"rt": 589, "stimulus": "<p id='stroop-text' class='stroop-red'>RED</p>", "response": "r", "stimulus-type": "congruent", "word": "red", "color": "red", "correct_response": "r", "trial_id": "stroop-trial-1-congruent-4", "trial_type": "html-keyboard-response", "trial_index": 14, "time_elapsed": 60703, "internal_node_id": "0.0-4.0-10.0"}}, {"uniqueid": "w25785962:a54296137", "current_trial": 15, "dateTime": 1664555876896, "trialdata": {"rt": 905, "stimulus": "<p id='stroop-text' class='stroop-green'>YELLOW</p>", "response": "g", "stimulus-type": "incongruent", "word": "yellow", "color": "green", "correct_response": "g", "trial_id": "stroop-trial-1-incongruent-7", "trial_type": "html-keyboard-response", "trial_index": 15, "time_elapsed": 62119, "internal_node_id": "0.0-4.0-11.0"}}, {"uniqueid": "w25785962:a54296137", "current_trial": 16, "dateTime": 1664555877887, "trialdata": {"rt": 479, "stimulus": "<p id='stroop-text' class='stroop-green'>BRIDGE</p>", "response": "g", "stimulus-type": "unrelated", "word": "BRIDGE", "color": "green", "correct_response": "g", "trial_id": "stroop-trial-1-unrelated-10", "trial_type": "html-keyboard-response", "trial_index": 16, "time_elapsed": 63111, "internal_node_id": "0.0-4.0-12.0"}}, {"uniqueid": "w25785962:a54296137", "current_trial": 17, "dateTime": 1664555879104, "trialdata": {"rt": 712, "stimulus": "<p id='stroop-text' class='stroop-blue'>BRAIN</p>", "response": "b", "stimulus-type": "unrelated", "word": "BRAIN", "color": "blue", "correct_response": "b", "trial_id": "stroop-trial-1-unrelated-2", "trial_type": "html-keyboard-response", "trial_index": 17, "time_elapsed": 64327, "internal_node_id": "0.0-4.0-13.0"}}, {"uniqueid": "w25785962:a54296137", "current_trial": 18, "dateTime": 1664555880184, "trialdata": {"rt": 572, "stimulus": "<p id='stroop-text' class='stroop-blue'>SHIP</p>", "response": "b", "stimulus-type": "unrelated", "word": "SHIP", "color": "blue", "correct_response": "b", "trial_id": "stroop-trial-1-unrelated-16", "trial_type": "html-keyboard-response", "trial_index": 18, "time_elapsed": 65407, "internal_node_id": "0.0-4.0-14.0"}}, {"uniqueid": "w25785962:a54296137", "current_trial": 19, "dateTime": 1664555881344, "trialdata": {"rt": 653, "stimulus": "<p id='stroop-text' class='stroop-red'>STONE</p>", "response": "r", "stimulus-type": "unrelated", "word": "STONE", "color": "red", "correct_response": "r", "trial_id": "stroop-trial-1-unrelated-3", "trial_type": "html-keyboard-response", "trial_index": 19, "time_elapsed": 66568, "internal_node_id": "0.0-4.0-15.0"}}, {"uniqueid": "w25785962:a54296137", "current_trial": 20, "dateTime": 1664555882704, "trialdata": {"rt": 846, "stimulus": "<p id='stroop-text' class='stroop-blue'>BLUE</p>", "response": "g", "stimulus-type": "congruent", "word": "blue", "color": "blue", "correct_response": "b", "trial_id": "stroop-trial-1-congruent-25", "trial_type": "html-keyboard-response", "trial_index": 20, "time_elapsed": 67928, "internal_node_id": "0.0-4.0-16.0"}}, {"uniqueid": "w25785962:a54296137", "current_trial": 21, "dateTime": 1664555884081, "trialdata": {"rt": 874, "stimulus": "<p id='stroop-text' class='stroop-green'>BRIDGE</p>", "response": "b", "stimulus-type": "unrelated", "word": "BRIDGE", "color": "green", "correct_response": "g", "trial_id": "stroop-trial-1-unrelated-6", "trial_type": "html-keyboard-response", "trial_index": 21, "time_elapsed": 69304, "internal_node_id": "0.0-4.0-17.0"}}, {"uniqueid": "w25785962:a54296137", "current_trial": 22, "dateTime": 1664555885760, "trialdata": {"rt": 1164, "stimulus": "<p id='stroop-text' class='stroop-red'>BLUE</p>", "response": "r", "stimulus-type": "incongruent", "word": "blue", "color": "red", "correct_response": "r", "trial_id": "stroop-trial-1-incongruent-28", "trial_type": "html-keyboard-response", "trial_index": 22, "time_elapsed": 70984, "internal_node_id": "0.0-4.0-18.0"}}, {"uniqueid": "w25785962:a54296137", "current_trial": 23, "dateTime": 1664555886897, "trialdata": {"rt": 631, "stimulus": "<p id='stroop-text' class='stroop-red'>YELLOW</p>", "response": "y", "stimulus-type": "incongruent", "word": "yellow", "color": "red", "correct_response": "r", "trial_id": "stroop-trial-1-incongruent-18", "trial_type": "html-keyboard-response", "trial_index": 23, "time_elapsed": 72121, "internal_node_id": "0.0-4.0-19.0"}}, {"uniqueid": "w25785962:a54296137", "current_trial": 24, "dateTime": 1664555888065, "trialdata": {"rt": 665, "stimulus": "<p id='stroop-text' class='stroop-yellow'>BRIDGE</p>", "response": "y", "stimulus-type": "unrelated", "word": "BRIDGE", "color": "yellow", "correct_response": "y", "trial_id": "stroop-trial-1-unrelated-13", "trial_type": "html-keyboard-response", "trial_index": 24, "time_elapsed": 73288, "internal_node_id": "0.0-4.0-20.0"}}, {"uniqueid": "w25785962:a54296137", "current_trial": 25, "dateTime": 1664555889329, "trialdata": {"rt": 755, "stimulus": "<p id='stroop-text' class='stroop-blue'>FORK</p>", "response": "b", "stimulus-type": "unrelated", "word": "FORK", "color": "blue", "correct_response": "b", "trial_id": "stroop-trial-1-unrelated-1", "trial_type": "html-keyboard-response", "trial_index": 25, "time_elapsed": 74553, "internal_node_id": "0.0-4.0-21.0"}}, {"uniqueid": "w25785962:a54296137", "current_trial": 26, "dateTime": 1664555890440, "trialdata": {"rt": 608, "stimulus": "<p id='stroop-text' class='stroop-blue'>BRIDGE</p>", "response": "b", "stimulus-type": "unrelated", "word": "BRIDGE", "color": "blue", "correct_response": "b", "trial_id": "stroop-trial-1-unrelated-8", "trial_type": "html-keyboard-response", "trial_index": 26, "time_elapsed": 75664, "internal_node_id": "0.0-4.0-22.0"}}, {"uniqueid": "w25785962:a54296137", "current_trial": 27, "dateTime": 1664555892185, "trialdata": {"rt": 1230, "stimulus": "<p id='stroop-text' class='stroop-red'>RED</p>", "response": "r", "stimulus-type": "congruent", "word": "red", "color": "red", "correct_response": "r", "trial_id": "stroop-trial-1-congruent-22", "trial_type": "html-keyboard-response", "trial_index": 27, "time_elapsed": 77409, "internal_node_id": "0.0-4.0-23.0"}}, {"uniqueid": "w25785962:a54296137", "current_trial": 28, "dateTime": 1664555893922, "trialdata": {"rt": 1226, "stimulus": "<p id='stroop-text' class='stroop-yellow'>GREEN</p>", "response": "y", "stimulus-type": "incongruent", "word": "green", "color": "yellow", "correct_response": "y", "trial_id": "stroop-trial-1-incongruent-16", "trial_type": "html-keyboard-response", "trial_index": 28, "time_elapsed": 79145, "internal_node_id": "0.0-4.0-24.0"}}, {"uniqueid": "w25785962:a54296137", "current_trial": 29, "dateTime": 1664555895450, "trialdata": {"rt": 1026, "stimulus": "<p id='stroop-text' class='stroop-green'>BRIDGE</p>", "response": "b", "stimulus-type": "unrelated", "word": "BRIDGE", "color": "green", "correct_response": "g", "trial_id": "stroop-trial-1-unrelated-11", "trial_type": "html-keyboard-response", "trial_index": 29, "time_elapsed": 80674, "internal_node_id": "0.0-4.0-25.0"}}, {"uniqueid": "w25785962:a54296137", "current_trial": 30, "dateTime": 1664555896993, "trialdata": {"rt": 1027, "stimulus": "<p id='stroop-text' class='stroop-red'>BRAIN</p>", "response": "r", "stimulus-type": "unrelated", "word": "BRAIN", "color": "red", "correct_response": "r", "trial_id": "stroop-trial-1-unrelated-5", "trial_type": "html-keyboard-response", "trial_index": 30, "time_elapsed": 82217, "internal_node_id": "0.0-4.0-26.0"}}, {"uniqueid": "w25785962:a54296137", "current_trial": 31, "dateTime": 1664555898234, "trialdata": {"rt": 724, "stimulus": "<p id='stroop-text' class='stroop-yellow'>BOAT</p>", "response": "y", "stimulus-type": "unrelated", "word": "BOAT", "color": "yellow", "correct_response": "y", "trial_id": "stroop-trial-1-unrelated-27", "trial_type": "html-keyboard-response", "trial_index": 31, "time_elapsed": 83457, "internal_node_id": "0.0-4.0-27.0"}}, {"uniqueid": "w25785962:a54296137", "current_trial": 32, "dateTime": 1664555899417, "trialdata": {"rt": 676, "stimulus": "<p id='stroop-text' class='stroop-red'>GREEN</p>", "response": "r", "stimulus-type": "incongruent", "word": "green", "color": "red", "correct_response": "r", "trial_id": "stroop-trial-1-incongruent-17", "trial_type": "html-keyboard-response", "trial_index": 32, "time_elapsed": 84641, "internal_node_id": "0.0-4.0-28.0"}}, {"uniqueid": "w25785962:a54296137", "current_trial": 33, "dateTime": 1664555900450, "trialdata": {"rt": 524, "stimulus": "<p id='stroop-text' class='stroop-yellow'>BRIDGE</p>", "response": "y", "stimulus-type": "unrelated", "word": "BRIDGE", "color": "yellow", "correct_response": "y", "trial_id": "stroop-trial-1-unrelated-23", "trial_type": "html-keyboard-response", "trial_index": 33, "time_elapsed": 85674, "internal_node_id": "0.0-4.0-29.0"}}, {"uniqueid": "w25785962:a54296137", "current_trial": 34, "dateTime": 1664555901546, "trialdata": {"rt": 591, "stimulus": "<p id='stroop-text' class='stroop-yellow'>DOG</p>", "response": "y", "stimulus-type": "unrelated", "word": "DOG", "color": "yellow", "correct_response": "y", "trial_id": "stroop-trial-1-unrelated-30", "trial_type": "html-keyboard-response", "trial_index": 34, "time_elapsed": 86770, "internal_node_id": "0.0-4.0-30.0"}}, {"uniqueid": "w25785962:a54296137", "current_trial": 35, "dateTime": 1664555902763, "trialdata": {"rt": 712, "stimulus": "<p id='stroop-text' class='stroop-red'>BRAIN</p>", "response": "r", "stimulus-type": "unrelated", "word": "BRAIN", "color": "red", "correct_response": "r", "trial_id": "stroop-trial-1-unrelated-18", "trial_type": "html-keyboard-response", "trial_index": 35, "time_elapsed": 87986, "internal_node_id": "0.0-4.0-31.0"}}, {"uniqueid": "w25785962:a54296137", "current_trial": 36, "dateTime": 1664555903755, "trialdata": {"rt": 481, "stimulus": "<p id='stroop-text' class='stroop-yellow'>YELLOW</p>", "response": "y", "stimulus-type": "congruent", "word": "yellow", "color": "yellow", "correct_response": "y", "trial_id": "stroop-trial-1-congruent-12", "trial_type": "html-keyboard-response", "trial_index": 36, "time_elapsed": 88978, "internal_node_id": "0.0-4.0-32.0"}}, {"uniqueid": "w25785962:a54296137", "current_trial": 37, "dateTime": 1664555904835, "trialdata": {"rt": 568, "stimulus": "<p id='stroop-text' class='stroop-green'>YELLOW</p>", "response": "g", "stimulus-type": "incongruent", "word": "yellow", "color": "green", "correct_response": "g", "trial_id": "stroop-trial-1-incongruent-30", "trial_type": "html-keyboard-response", "trial_index": 37, "time_elapsed": 90059, "internal_node_id": "0.0-4.0-33.0"}}, {"uniqueid": "w25785962:a54296137", "current_trial": 38, "dateTime": 1664555905907, "trialdata": {"rt": 568, "stimulus": "<p id='stroop-text' class='stroop-yellow'>YELLOW</p>", "response": "y", "stimulus-type": "congruent", "word": "yellow", "color": "yellow", "correct_response": "y", "trial_id": "stroop-trial-1-congruent-13", "trial_type": "html-keyboard-response", "trial_index": 38, "time_elapsed": 91131, "internal_node_id": "0.0-4.0-34.0"}}, {"uniqueid": "w25785962:a54296137", "current_trial": 39, "dateTime": 1664555907003, "trialdata": {"rt": 580, "stimulus": "<p id='stroop-text' class='stroop-red'>STONE</p>", "response": "r", "stimulus-type": "unrelated", "word": "STONE", "color": "red", "correct_response": "r", "trial_id": "stroop-trial-1-unrelated-24", "trial_type": "html-keyboard-response", "trial_index": 39, "time_elapsed": 92227, "internal_node_id": "0.0-4.0-35.0"}}, {"uniqueid": "w25785962:a54296137", "current_trial": 40, "dateTime": 1664555908083, "trialdata": {"rt": 571, "stimulus": "<p id='stroop-text' class='stroop-blue'>BLUE</p>", "response": "b", "stimulus-type": "congruent", "word": "blue", "color": "blue", "correct_response": "b", "trial_id": "stroop-trial-1-congruent-20", "trial_type": "html-keyboard-response", "trial_index": 40, "time_elapsed": 93307, "internal_node_id": "0.0-4.0-36.0"}}, {"uniqueid": "w25785962:a54296137", "current_trial": 41, "dateTime": 1664555909131, "trialdata": {"rt": 534, "stimulus": "<p id='stroop-text' class='stroop-red'>BRIDGE</p>", "response": "r", "stimulus-type": "unrelated", "word": "BRIDGE", "color": "red", "correct_response": "r", "trial_id": "stroop-trial-1-unrelated-15", "trial_type": "html-keyboard-response", "trial_index": 41, "time_elapsed": 94355, "internal_node_id": "0.0-4.0-37.0"}}, {"uniqueid": "w25785962:a54296137", "current_trial": 42, "dateTime": 1664555910167, "trialdata": {"rt": 526, "stimulus": "<p id='stroop-text' class='stroop-red'>RED</p>", "response": "r", "stimulus-type": "congruent", "word": "red", "color": "red", "correct_response": "r", "trial_id": "stroop-trial-1-congruent-21", "trial_type": "html-keyboard-response", "trial_index": 42, "time_elapsed": 95391, "internal_node_id": "0.0-4.0-38.0"}}, {"uniqueid": "w25785962:a54296137", "current_trial": 43, "dateTime": 1664555911196, "trialdata": {"rt": 515, "stimulus": "<p id='stroop-text' class='stroop-yellow'>YELLOW</p>", "response": "y", "stimulus-type": "congruent", "word": "yellow", "color": "yellow", "correct_response": "y", "trial_id": "stroop-trial-1-congruent-30", "trial_type": "html-keyboard-response", "trial_index": 43, "time_elapsed": 96419, "internal_node_id": "0.0-4.0-39.0"}}, {"uniqueid": "w25785962:a54296137", "current_trial": 44, "dateTime": 1664555912251, "trialdata": {"rt": 549, "stimulus": "<p id='stroop-text' class='stroop-red'>RED</p>", "response": "r", "stimulus-type": "congruent", "word": "red", "color": "red", "correct_response": "r", "trial_id": "stroop-trial-1-congruent-27", "trial_type": "html-keyboard-response", "trial_index": 44, "time_elapsed": 97475, "internal_node_id": "0.0-4.0-40.0"}}, {"uniqueid": "w25785962:a54296137", "current_trial": 45, "dateTime": 1664555913324, "trialdata": {"rt": 567, "stimulus": "<p id='stroop-text' class='stroop-green'>GREEN</p>", "response": "g", "stimulus-type": "congruent", "word": "green", "color": "green", "correct_response": "g", "trial_id": "stroop-trial-1-congruent-19", "trial_type": "html-keyboard-response", "trial_index": 45, "time_elapsed": 98548, "internal_node_id": "0.0-4.0-41.0"}}, {"uniqueid": "w25785962:a54296137", "current_trial": 46, "dateTime": 1664555914252, "trialdata": {"rt": 425, "stimulus": "<p id='stroop-text' class='stroop-green'>GREEN</p>", "response": "g", "stimulus-type": "congruent", "word": "green", "color": "green", "correct_response": "g", "trial_id": "stroop-trial-1-congruent-5", "trial_type": "html-keyboard-response", "trial_index": 46, "time_elapsed": 99476, "internal_node_id": "0.0-4.0-42.0"}}, {"uniqueid": "w25785962:a54296137", "current_trial": 47, "dateTime": 1664555915284, "trialdata": {"rt": 526, "stimulus": "<p id='stroop-text' class='stroop-red'>RED</p>", "response": "r", "stimulus-type": "congruent", "word": "red", "color": "red", "correct_response": "r", "trial_id": "stroop-trial-1-congruent-28", "trial_type": "html-keyboard-response", "trial_index": 47, "time_elapsed": 100508, "internal_node_id": "0.0-4.0-43.0"}}, {"uniqueid": "w25785962:a54296137", "current_trial": 48, "dateTime": 1664555916348, "trialdata": {"rt": 551, "stimulus": "<p id='stroop-text' class='stroop-yellow'>BOAT</p>", "response": "y", "stimulus-type": "unrelated", "word": "BOAT", "color": "yellow", "correct_response": "y", "trial_id": "stroop-trial-1-unrelated-22", "trial_type": "html-keyboard-response", "trial_index": 48, "time_elapsed": 101572, "internal_node_id": "0.0-4.0-44.0"}}, {"uniqueid": "w25785962:a54296137", "current_trial": 49, "dateTime": 1664555917380, "trialdata": {"rt": 530, "stimulus": "<p id='stroop-text' class='stroop-yellow'>CHAIR</p>", "response": "y", "stimulus-type": "unrelated", "word": "CHAIR", "color": "yellow", "correct_response": "y", "trial_id": "stroop-trial-1-unrelated-9", "trial_type": "html-keyboard-response", "trial_index": 49, "time_elapsed": 102604, "internal_node_id": "0.0-4.0-45.0"}}, {"uniqueid": "w25785962:a54296137", "current_trial": 50, "dateTime": 1664555918765, "trialdata": {"rt": 873, "stimulus": "<p id='stroop-text' class='stroop-green'>GREEN</p>", "response": "g", "stimulus-type": "congruent", "word": "green", "color": "green", "correct_response": "g", "trial_id": "stroop-trial-1-congruent-8", "trial_type": "html-keyboard-response", "trial_index": 50, "time_elapsed": 103989, "internal_node_id": "0.0-4.0-46.0"}}, {"uniqueid": "w25785962:a54296137", "current_trial": 51, "dateTime": 1664555919973, "trialdata": {"rt": 697, "stimulus": "<p id='stroop-text' class='stroop-blue'>RED</p>", "response": "b", "stimulus-type": "incongruent", "word": "red", "color": "blue", "correct_response": "b", "trial_id": "stroop-trial-1-incongruent-4", "trial_type": "html-keyboard-response", "trial_index": 51, "time_elapsed": 105197, "internal_node_id": "0.0-4.0-47.0"}}, {"uniqueid": "w25785962:a54296137", "current_trial": 52, "dateTime": 1664555920996, "trialdata": {"rt": 521, "stimulus": "<p id='stroop-text' class='stroop-yellow'>YELLOW</p>", "response": "y", "stimulus-type": "congruent", "word": "yellow", "color": "yellow", "correct_response": "y", "trial_id": "stroop-trial-1-congruent-23", "trial_type": "html-keyboard-response", "trial_index": 52, "time_elapsed": 106220, "internal_node_id": "0.0-4.0-48.0"}}, {"uniqueid": "w25785962:a54296137", "current_trial": 53, "dateTime": 1664555922077, "trialdata": {"rt": 572, "stimulus": "<p id='stroop-text' class='stroop-red'>RED</p>", "response": "r", "stimulus-type": "congruent", "word": "red", "color": "red", "correct_response": "r", "trial_id": "stroop-trial-1-congruent-2", "trial_type": "html-keyboard-response", "trial_index": 53, "time_elapsed": 107301, "internal_node_id": "0.0-4.0-49.0"}}, {"uniqueid": "w25785962:a54296137", "current_trial": 54, "dateTime": 1664555923341, "trialdata": {"rt": 761, "stimulus": "<p id='stroop-text' class='stroop-red'>STONE</p>", "response": "r", "stimulus-type": "unrelated", "word": "STONE", "color": "red", "correct_response": "r", "trial_id": "stroop-trial-1-unrelated-7", "trial_type": "html-keyboard-response", "trial_index": 54, "time_elapsed": 108565, "internal_node_id": "0.0-4.0-50.0"}}, {"uniqueid": "w25785962:a54296137", "current_trial": 55, "dateTime": 1664555924493, "trialdata": {"rt": 647, "stimulus": "<p id='stroop-text' class='stroop-yellow'>RED</p>", "response": "y", "stimulus-type": "incongruent", "word": "red", "color": "yellow", "correct_response": "y", "trial_id": "stroop-trial-1-incongruent-22", "trial_type": "html-keyboard-response", "trial_index": 55, "time_elapsed": 109717, "internal_node_id": "0.0-4.0-51.0"}}, {"uniqueid": "w25785962:a54296137", "current_trial": 56, "dateTime": 1664555925614, "trialdata": {"rt": 607, "stimulus": "<p id='stroop-text' class='stroop-blue'>SHIP</p>", "response": "b", "stimulus-type": "unrelated", "word": "SHIP", "color": "blue", "correct_response": "b", "trial_id": "stroop-trial-1-unrelated-4", "trial_type": "html-keyboard-response", "trial_index": 56, "time_elapsed": 110838, "internal_node_id": "0.0-4.0-52.0"}}, {"uniqueid": "w25785962:a54296137", "current_trial": 57, "dateTime": 1664555926734, "trialdata": {"rt": 615, "stimulus": "<p id='stroop-text' class='stroop-green'>BLUE</p>", "response": "g", "stimulus-type": "incongruent", "word": "blue", "color": "green", "correct_response": "g", "trial_id": "stroop-trial-1-incongruent-9", "trial_type": "html-keyboard-response", "trial_index": 57, "time_elapsed": 111958, "internal_node_id": "0.0-4.0-53.0"}}, {"uniqueid": "w25785962:a54296137", "current_trial": 58, "dateTime": 1664555927765, "trialdata": {"rt": 524, "stimulus": "<p id='stroop-text' class='stroop-yellow'>BRIDGE</p>", "response": "y", "stimulus-type": "unrelated", "word": "BRIDGE", "color": "yellow", "correct_response": "y", "trial_id": "stroop-trial-1-unrelated-19", "trial_type": "html-keyboard-response", "trial_index": 58, "time_elapsed": 112989, "internal_node_id": "0.0-4.0-54.0"}}, {"uniqueid": "w25785962:a54296137", "current_trial": 59, "dateTime": 1664555928710, "trialdata": {"rt": 437, "stimulus": "<p id='stroop-text' class='stroop-yellow'>YELLOW</p>", "response": "y", "stimulus-type": "congruent", "word": "yellow", "color": "yellow", "correct_response": "y", "trial_id": "stroop-trial-1-congruent-6", "trial_type": "html-keyboard-response", "trial_index": 59, "time_elapsed": 113934, "internal_node_id": "0.0-4.0-55.0"}}, {"uniqueid": "w25785962:a54296137", "current_trial": 60, "dateTime": 1664555929726, "trialdata": {"rt": 505, "stimulus": "<p id='stroop-text' class='stroop-green'>GREEN</p>", "response": "g", "stimulus-type": "congruent", "word": "green", "color": "green", "correct_response": "g", "trial_id": "stroop-trial-1-congruent-26", "trial_type": "html-keyboard-response", "trial_index": 60, "time_elapsed": 114949, "internal_node_id": "0.0-4.0-56.0"}}, {"uniqueid": "w25785962:a54296137", "current_trial": 61, "dateTime": 1664555930758, "trialdata": {"rt": 520, "stimulus": "<p id='stroop-text' class='stroop-blue'>SHIP</p>", "response": "b", "stimulus-type": "unrelated", "word": "SHIP", "color": "blue", "correct_response": "b", "trial_id": "stroop-trial-1-unrelated-25", "trial_type": "html-keyboard-response", "trial_index": 61, "time_elapsed": 115982, "internal_node_id": "0.0-4.0-57.0"}}, {"uniqueid": "w25785962:a54296137", "current_trial": 62, "dateTime": 1664555931726, "trialdata": {"rt": 459, "stimulus": "<p id='stroop-text' class='stroop-red'>GREEN</p>", "response": "r", "stimulus-type": "incongruent", "word": "green", "color": "red", "correct_response": "r", "trial_id": "stroop-trial-1-incongruent-13", "trial_type": "html-keyboard-response", "trial_index": 62, "time_elapsed": 116950, "internal_node_id": "0.0-4.0-58.0"}}, {"uniqueid": "w25785962:a54296137", "current_trial": 63, "dateTime": 1664555932742, "trialdata": {"rt": 507, "stimulus": "<p id='stroop-text' class='stroop-red'>RED</p>", "response": "r", "stimulus-type": "congruent", "word": "red", "color": "red", "correct_response": "r", "trial_id": "stroop-trial-1-congruent-11", "trial_type": "html-keyboard-response", "trial_index": 63, "time_elapsed": 117966, "internal_node_id": "0.0-4.0-59.0"}}, {"uniqueid": "w25785962:a54296137", "current_trial": 64, "dateTime": 1664555933662, "trialdata": {"rt": 403, "stimulus": "<p id='stroop-text' class='stroop-red'>GREEN</p>", "response": "r", "stimulus-type": "incongruent", "word": "green", "color": "red", "correct_response": "r", "trial_id": "stroop-trial-1-incongruent-27", "trial_type": "html-keyboard-response", "trial_index": 64, "time_elapsed": 118886, "internal_node_id": "0.0-4.0-60.0"}}, {"uniqueid": "w25785962:a54296137", "current_trial": 65, "dateTime": 1664555934654, "trialdata": {"rt": 487, "stimulus": "<p id='stroop-text' class='stroop-yellow'>RED</p>", "response": "y", "stimulus-type": "incongruent", "word": "red", "color": "yellow", "correct_response": "y", "trial_id": "stroop-trial-1-incongruent-2", "trial_type": "html-keyboard-response", "trial_index": 65, "time_elapsed": 119878, "internal_node_id": "0.0-4.0-61.0"}}, {"uniqueid": "w25785962:a54296137", "current_trial": 66, "dateTime": 1664555935774, "trialdata": {"rt": 614, "stimulus": "<p id='stroop-text' class='stroop-red'>GREEN</p>", "response": "r", "stimulus-type": "incongruent", "word": "green", "color": "red", "correct_response": "r", "trial_id": "stroop-trial-1-incongruent-20", "trial_type": "html-keyboard-response", "trial_index": 66, "time_elapsed": 120998, "internal_node_id": "0.0-4.0-62.0"}}, {"uniqueid": "w25785962:a54296137", "current_trial": 67, "dateTime": 1664555936935, "trialdata": {"rt": 653, "stimulus": "<p id='stroop-text' class='stroop-green'>FORK</p>", "response": "g", "stimulus-type": "unrelated", "word": "FORK", "color": "green", "correct_response": "g", "trial_id": "stroop-trial-1-unrelated-28", "trial_type": "html-keyboard-response", "trial_index": 67, "time_elapsed": 122159, "internal_node_id": "0.0-4.0-63.0"}}, {"uniqueid": "w25785962:a54296137", "current_trial": 68, "dateTime": 1664555938231, "trialdata": {"rt": 789, "stimulus": "<p id='stroop-text' class='stroop-red'>BLUE</p>", "response": "r", "stimulus-type": "incongruent", "word": "blue", "color": "red", "correct_response": "r", "trial_id": "stroop-trial-1-incongruent-10", "trial_type": "html-keyboard-response", "trial_index": 68, "time_elapsed": 123454, "internal_node_id": "0.0-4.0-64.0"}}, {"uniqueid": "w25785962:a54296137", "current_trial": 69, "dateTime": 1664555939119, "trialdata": {"rt": 385, "stimulus": "<p id='stroop-text' class='stroop-red'>RED</p>", "response": "r", "stimulus-type": "congruent", "word": "red", "color": "red", "correct_response": "r", "trial_id": "stroop-trial-1-congruent-18", "trial_type": "html-keyboard-response", "trial_index": 69, "time_elapsed": 124342, "internal_node_id": "0.0-4.0-65.0"}}, {"uniqueid": "w25785962:a54296137", "current_trial": 70, "dateTime": 1664555940151, "trialdata": {"rt": 521, "stimulus": "<p id='stroop-text' class='stroop-yellow'>RED</p>", "response": "y", "stimulus-type": "incongruent", "word": "red", "color": "yellow", "correct_response": "y", "trial_id": "stroop-trial-1-incongruent-1", "trial_type": "html-keyboard-response", "trial_index": 70, "time_elapsed": 125375, "internal_node_id": "0.0-4.0-66.0"}}, {"uniqueid": "w25785962:a54296137", "current_trial": 71, "dateTime": 1664555941375, "trialdata": {"rt": 717, "stimulus": "<p id='stroop-text' class='stroop-green'>BOAT</p>", "response": "g", "stimulus-type": "unrelated", "word": "BOAT", "color": "green", "correct_response": "g", "trial_id": "stroop-trial-1-unrelated-17", "trial_type": "html-keyboard-response", "trial_index": 71, "time_elapsed": 126599, "internal_node_id": "0.0-4.0-67.0"}}, {"uniqueid": "w25785962:a54296137", "current_trial": 72, "dateTime": 1664555942855, "trialdata": {"rt": 968, "stimulus": "<p id='stroop-text' class='stroop-yellow'>BLUE</p>", "response": "y", "stimulus-type": "incongruent", "word": "blue", "color": "yellow", "correct_response": "y", "trial_id": "stroop-trial-1-incongruent-23", "trial_type": "html-keyboard-response", "trial_index": 72, "time_elapsed": 128079, "internal_node_id": "0.0-4.0-68.0"}}, {"uniqueid": "w25785962:a54296137", "current_trial": 73, "dateTime": 1664555943808, "trialdata": {"rt": 438, "stimulus": "<p id='stroop-text' class='stroop-yellow'>YELLOW</p>", "response": "y", "stimulus-type": "congruent", "word": "yellow", "color": "yellow", "correct_response": "y", "trial_id": "stroop-trial-1-congruent-9", "trial_type": "html-keyboard-response", "trial_index": 73, "time_elapsed": 129031, "internal_node_id": "0.0-4.0-69.0"}}, {"uniqueid": "w25785962:a54296137", "current_trial": 74, "dateTime": 1664555944919, "trialdata": {"rt": 600, "stimulus": "<p id='stroop-text' class='stroop-red'>RED</p>", "response": "r", "stimulus-type": "congruent", "word": "red", "color": "red", "correct_response": "r", "trial_id": "stroop-trial-1-congruent-14", "trial_type": "html-keyboard-response", "trial_index": 74, "time_elapsed": 130143, "internal_node_id": "0.0-4.0-70.0"}}, {"uniqueid": "w25785962:a54296137", "current_trial": 75, "dateTime": 1664555946328, "trialdata": {"rt": 894, "stimulus": "<p id='stroop-text' class='stroop-blue'>GREEN</p>", "response": "b", "stimulus-type": "incongruent", "word": "green", "color": "blue", "correct_response": "b", "trial_id": "stroop-trial-1-incongruent-6", "trial_type": "html-keyboard-response", "trial_index": 75, "time_elapsed": 131552, "internal_node_id": "0.0-4.0-71.0"}}, {"uniqueid": "w25785962:a54296137", "current_trial": 76, "dateTime": 1664555947296, "trialdata": {"rt": 454, "stimulus": "<p id='stroop-text' class='stroop-yellow'>SHIP</p>", "response": "y", "stimulus-type": "unrelated", "word": "SHIP", "color": "yellow", "correct_response": "y", "trial_id": "stroop-trial-1-unrelated-29", "trial_type": "html-keyboard-response", "trial_index": 76, "time_elapsed": 132520, "internal_node_id": "0.0-4.0-72.0"}}, {"uniqueid": "w25785962:a54296137", "current_trial": 77, "dateTime": 1664555948376, "trialdata": {"rt": 567, "stimulus": "<p id='stroop-text' class='stroop-blue'>SHIP</p>", "response": "b", "stimulus-type": "unrelated", "word": "SHIP", "color": "blue", "correct_response": "b", "trial_id": "stroop-trial-1-unrelated-26", "trial_type": "html-keyboard-response", "trial_index": 77, "time_elapsed": 133600, "internal_node_id": "0.0-4.0-73.0"}}, {"uniqueid": "w25785962:a54296137", "current_trial": 78, "dateTime": 1664555949296, "trialdata": {"rt": 408, "stimulus": "<p id='stroop-text' class='stroop-blue'>BRIDGE</p>", "response": "b", "stimulus-type": "unrelated", "word": "BRIDGE", "color": "blue", "correct_response": "b", "trial_id": "stroop-trial-1-unrelated-21", "trial_type": "html-keyboard-response", "trial_index": 78, "time_elapsed": 134520, "internal_node_id": "0.0-4.0-74.0"}}, {"uniqueid": "w25785962:a54296137", "current_trial": 79, "dateTime": 1664555950209, "trialdata": {"rt": 399, "stimulus": "<p id='stroop-text' class='stroop-blue'>BLUE</p>", "response": "b", "stimulus-type": "congruent", "word": "blue", "color": "blue", "correct_response": "b", "trial_id": "stroop-trial-1-congruent-1", "trial_type": "html-keyboard-response", "trial_index": 79, "time_elapsed": 135432, "internal_node_id": "0.0-4.0-75.0"}}, {"uniqueid": "w25785962:a54296137", "current_trial": 80, "dateTime": 1664555951320, "trialdata": {"rt": 607, "stimulus": "<p id='stroop-text' class='stroop-red'>YELLOW</p>", "response": "r", "stimulus-type": "incongruent", "word": "yellow", "color": "red", "correct_response": "r", "trial_id": "stroop-trial-1-incongruent-5", "trial_type": "html-keyboard-response", "trial_index": 80, "time_elapsed": 136544, "internal_node_id": "0.0-4.0-76.0"}}, {"uniqueid": "w25785962:a54296137", "current_trial": 81, "dateTime": 1664555952463, "trialdata": {"rt": 631, "stimulus": "<p id='stroop-text' class='stroop-green'>GREEN</p>", "response": "g", "stimulus-type": "congruent", "word": "green", "color": "green", "correct_response": "g", "trial_id": "stroop-trial-1-congruent-29", "trial_type": "html-keyboard-response", "trial_index": 81, "time_elapsed": 137687, "internal_node_id": "0.0-4.0-77.0"}}, {"uniqueid": "w25785962:a54296137", "current_trial": 82, "dateTime": 1664555953681, "trialdata": {"rt": 709, "stimulus": "<p id='stroop-text' class='stroop-blue'>DOG</p>", "response": "b", "stimulus-type": "unrelated", "word": "DOG", "color": "blue", "correct_response": "b", "trial_id": "stroop-trial-1-unrelated-20", "trial_type": "html-keyboard-response", "trial_index": 82, "time_elapsed": 138905, "internal_node_id": "0.0-4.0-78.0"}}, {"uniqueid": "w25785962:a54296137", "current_trial": 83, "dateTime": 1664555954633, "trialdata": {"rt": 435, "stimulus": "<p id='stroop-text' class='stroop-red'>BRIDGE</p>", "response": "r", "stimulus-type": "unrelated", "word": "BRIDGE", "color": "red", "correct_response": "r", "trial_id": "stroop-trial-1-unrelated-14", "trial_type": "html-keyboard-response", "trial_index": 83, "time_elapsed": 139857, "internal_node_id": "0.0-4.0-79.0"}}, {"uniqueid": "w25785962:a54296137", "current_trial": 84, "dateTime": 1664555955649, "trialdata": {"rt": 506, "stimulus": "<p id='stroop-text' class='stroop-yellow'>GREEN</p>", "response": "y", "stimulus-type": "incongruent", "word": "green", "color": "yellow", "correct_response": "y", "trial_id": "stroop-trial-1-incongruent-24", "trial_type": "html-keyboard-response", "trial_index": 84, "time_elapsed": 140873, "internal_node_id": "0.0-4.0-80.0"}}, {"uniqueid": "w25785962:a54296137", "current_trial": 85, "dateTime": 1664555956778, "trialdata": {"rt": 615, "stimulus": "<p id='stroop-text' class='stroop-red'>GREEN</p>", "response": "r", "stimulus-type": "incongruent", "word": "green", "color": "red", "correct_response": "r", "trial_id": "stroop-trial-1-incongruent-14", "trial_type": "html-keyboard-response", "trial_index": 85, "time_elapsed": 142002, "internal_node_id": "0.0-4.0-81.0"}}, {"uniqueid": "w25785962:a54296137", "current_trial": 86, "dateTime": 1664555957809, "trialdata": {"rt": 517, "stimulus": "<p id='stroop-text' class='stroop-green'>GREEN</p>", "response": "g", "stimulus-type": "congruent", "word": "green", "color": "green", "correct_response": "g", "trial_id": "stroop-trial-1-congruent-24", "trial_type": "html-keyboard-response", "trial_index": 86, "time_elapsed": 143032, "internal_node_id": "0.0-4.0-82.0"}}, {"uniqueid": "w25785962:a54296137", "current_trial": 87, "dateTime": 1664555958946, "trialdata": {"rt": 626, "stimulus": "<p id='stroop-text' class='stroop-red'>YELLOW</p>", "response": "r", "stimulus-type": "incongruent", "word": "yellow", "color": "red", "correct_response": "r", "trial_id": "stroop-trial-1-incongruent-3", "trial_type": "html-keyboard-response", "trial_index": 87, "time_elapsed": 144169, "internal_node_id": "0.0-4.0-83.0"}}, {"uniqueid": "w25785962:a54296137", "current_trial": 88, "dateTime": 1664555960089, "trialdata": {"rt": 639, "stimulus": "<p id='stroop-text' class='stroop-blue'>YELLOW</p>", "response": "b", "stimulus-type": "incongruent", "word": "yellow", "color": "blue", "correct_response": "b", "trial_id": "stroop-trial-1-incongruent-21", "trial_type": "html-keyboard-response", "trial_index": 88, "time_elapsed": 145313, "internal_node_id": "0.0-4.0-84.0"}}, {"uniqueid": "w25785962:a54296137", "current_trial": 89, "dateTime": 1664555961081, "trialdata": {"rt": 487, "stimulus": "<p id='stroop-text' class='stroop-yellow'>YELLOW</p>", "response": "y", "stimulus-type": "congruent", "word": "yellow", "color": "yellow", "correct_response": "y", "trial_id": "stroop-trial-1-congruent-17", "trial_type": "html-keyboard-response", "trial_index": 89, "time_elapsed": 146305, "internal_node_id": "0.0-4.0-85.0"}}, {"uniqueid": "w25785962:a54296137", "current_trial": 90, "dateTime": 1664555962282, "trialdata": {"rt": 692, "stimulus": "<p id='stroop-text' class='stroop-green'>RED</p>", "response": "g", "stimulus-type": "incongruent", "word": "red", "color": "green", "correct_response": "g", "trial_id": "stroop-trial-1-incongruent-12", "trial_type": "html-keyboard-response", "trial_index": 90, "time_elapsed": 147506, "internal_node_id": "0.0-4.0-86.0"}}, {"uniqueid": "w25785962:a54296137", "current_trial": 91, "dateTime": 1664555963330, "trialdata": {"rt": 539, "stimulus": "<p id='stroop-text' class='stroop-blue'>BLUE</p>", "response": "b", "stimulus-type": "congruent", "word": "blue", "color": "blue", "correct_response": "b", "trial_id": "stroop-trial-1-congruent-3", "trial_type": "html-keyboard-response", "trial_index": 91, "time_elapsed": 148554, "internal_node_id": "0.0-4.0-87.0"}}, {"uniqueid": "w25785962:a54296137", "current_trial": 92, "dateTime": 1664555964554, "trialdata": {"rt": 720, "stimulus": "<p id='stroop-text' class='stroop-blue'>YELLOW</p>", "response": "b", "stimulus-type": "incongruent", "word": "yellow", "color": "blue", "correct_response": "b", "trial_id": "stroop-trial-1-incongruent-8", "trial_type": "html-keyboard-response", "trial_index": 92, "time_elapsed": 149778, "internal_node_id": "0.0-4.0-88.0"}}, {"uniqueid": "w25785962:a54296137", "current_trial": 93, "dateTime": 1664555965570, "trialdata": {"rt": 515, "stimulus": "<p id='stroop-text' class='stroop-yellow'>YELLOW</p>", "response": "y", "stimulus-type": "congruent", "word": "yellow", "color": "yellow", "correct_response": "y", "trial_id": "stroop-trial-1-congruent-15", "trial_type": "html-keyboard-response", "trial_index": 93, "time_elapsed": 150794, "internal_node_id": "0.0-4.0-89.0"}}, {"uniqueid": "w25785962:a54296137", "current_trial": 94, "dateTime": 1664555996358, "trialdata": {"rt": 30277, "stimulus": "  <h1> End of block! </h1>\n\n  You have reached the end of the block 1/5. If you need a short break, feel free to take one now before moving on.\n\n  <br><br>\n  In the next block, you will complete another 90 rounds of this game.\n\n  <br><br>\n  <div style='text-align: center;'>Press <code>space</code> to begin.</div>\n  <br><br>\n<div style='text-align: center;'>(If the experiment doesn't continue, try clicking on the text and then pressing <code>space</code>.)</div>", "response": " ", "trial_id": "stroop_1_ready_2", "trial_type": "html-keyboard-response", "trial_index": 94, "time_elapsed": 181582, "internal_node_id": "0.0-5.0"}}, {"uniqueid": "w25785962:a54296137", "current_trial": 95, "dateTime": 1664555997006, "trialdata": {"rt": 646, "stimulus": "<p id='stroop-text' class='stroop-blue'>BLUE</p>", "response": "b", "stimulus-type": "congruent", "word": "blue", "color": "blue", "correct_response": "b", "trial_id": "stroop-trial-1-congruent-2", "trial_type": "html-keyboard-response", "trial_index": 95, "time_elapsed": 182230, "internal_node_id": "0.0-6.0-0.0"}}, {"uniqueid": "w25785962:a54296137", "current_trial": 96, "dateTime": 1664555998311, "trialdata": {"rt": 787, "stimulus": "<p id='stroop-text' class='stroop-red'>GREEN</p>", "response": "r", "stimulus-type": "incongruent", "word": "green", "color": "red", "correct_response": "r", "trial_id": "stroop-trial-1-incongruent-12", "trial_type": "html-keyboard-response", "trial_index": 96, "time_elapsed": 183534, "internal_node_id": "0.0-6.0-1.0"}}, {"uniqueid": "w25785962:a54296137", "current_trial": 97, "dateTime": 1664555999367, "trialdata": {"rt": 549, "stimulus": "<p id='stroop-text' class='stroop-green'>GREEN</p>", "response": "g", "stimulus-type": "congruent", "word": "green", "color": "green", "correct_response": "g", "trial_id": "stroop-trial-1-congruent-15", "trial_type": "html-keyboard-response", "trial_index": 97, "time_elapsed": 184590, "internal_node_id": "0.0-6.0-2.0"}}, {"uniqueid": "w25785962:a54296137", "current_trial": 98, "dateTime": 1664556000358, "trialdata": {"rt": 489, "stimulus": "<p id='stroop-text' class='stroop-yellow'>BRIDGE</p>", "response": "y", "stimulus-type": "unrelated", "word": "BRIDGE", "color": "yellow", "correct_response": "y", "trial_id": "stroop-trial-1-unrelated-27", "trial_type": "html-keyboard-response", "trial_index": 98, "time_elapsed": 185582, "internal_node_id": "0.0-6.0-3.0"}}, {"uniqueid": "w25785962:a54296137", "current_trial": 99, "dateTime": 1664556001367, "trialdata": {"rt": 502, "stimulus": "<p id='stroop-text' class='stroop-blue'>YELLOW</p>", "response": "b", "stimulus-type": "incongruent", "word": "yellow", "color": "blue", "correct_response": "b", "trial_id": "stroop-trial-1-incongruent-21", "trial_type": "html-keyboard-response", "trial_index": 99, "time_elapsed": 186591, "internal_node_id": "0.0-6.0-4.0"}}, {"uniqueid": "w25785962:a54296137", "current_trial": 100, "dateTime": 1664556002311, "trialdata": {"rt": 440, "stimulus": "<p id='stroop-text' class='stroop-blue'>BLUE</p>", "response": "b", "stimulus-type": "congruent", "word": "blue", "color": "blue", "correct_response": "b", "trial_id": "stroop-trial-1-congruent-21", "trial_type": "html-keyboard-response", "trial_index": 100, "time_elapsed": 187535, "internal_node_id": "0.0-6.0-5.0"}}, {"uniqueid": "w25785962:a54296137", "current_trial": 101, "dateTime": 1664556003286, "trialdata": {"rt": 472, "stimulus": "<p id='stroop-text' class='stroop-green'>CHAIR</p>", "response": "g", "stimulus-type": "unrelated", "word": "CHAIR", "color": "green", "correct_response": "g", "trial_id": "stroop-trial-1-unrelated-4", "trial_type": "html-keyboard-response", "trial_index": 101, "time_elapsed": 188510, "internal_node_id": "0.0-6.0-6.0"}}, {"uniqueid": "w25785962:a54296137", "current_trial": 102, "dateTime": 1664556004343, "trialdata": {"rt": 551, "stimulus": "<p id='stroop-text' class='stroop-blue'>BLUE</p>", "response": "b", "stimulus-type": "congruent", "word": "blue", "color": "blue", "correct_response": "b", "trial_id": "stroop-trial-1-congruent-30", "trial_type": "html-keyboard-response", "trial_index": 102, "time_elapsed": 189566, "internal_node_id": "0.0-6.0-7.0"}}, {"uniqueid": "w25785962:a54296137", "current_trial": 103, "dateTime": 1664556005311, "trialdata": {"rt": 460, "stimulus": "<p id='stroop-text' class='stroop-yellow'>YELLOW</p>", "response": "y", "stimulus-type": "congruent", "word": "yellow", "color": "yellow", "correct_response": "y", "trial_id": "stroop-trial-1-congruent-17", "trial_type": "html-keyboard-response", "trial_index": 103, "time_elapsed": 190535, "internal_node_id": "0.0-6.0-8.0"}}, {"uniqueid": "w25785962:a54296137", "current_trial": 104, "dateTime": 1664556006640, "trialdata": {"rt": 820, "stimulus": "<p id='stroop-text' class='stroop-blue'>BLUE</p>", "response": "b", "stimulus-type": "congruent", "word": "blue", "color": "blue", "correct_response": "b", "trial_id": "stroop-trial-1-congruent-8", "trial_type": "html-keyboard-response", "trial_index": 104, "time_elapsed": 191863, "internal_node_id": "0.0-6.0-9.0"}}, {"uniqueid": "w25785962:a54296137", "current_trial": 105, "dateTime": 1664556007623, "trialdata": {"rt": 477, "stimulus": "<p id='stroop-text' class='stroop-green'>GREEN</p>", "response": "g", "stimulus-type": "congruent", "word": "green", "color": "green", "correct_response": "g", "trial_id": "stroop-trial-1-congruent-27", "trial_type": "html-keyboard-response", "trial_index": 105, "time_elapsed": 192847, "internal_node_id": "0.0-6.0-10.0"}}, {"uniqueid": "w25785962:a54296137", "current_trial": 106, "dateTime": 1664556008616, "trialdata": {"rt": 478, "stimulus": "<p id='stroop-text' class='stroop-red'>GREEN</p>", "response": "r", "stimulus-type": "incongruent", "word": "green", "color": "red", "correct_response": "r", "trial_id": "stroop-trial-1-incongruent-3", "trial_type": "html-keyboard-response", "trial_index": 106, "time_elapsed": 193839, "internal_node_id": "0.0-6.0-11.0"}}, {"uniqueid": "w25785962:a54296137", "current_trial": 107, "dateTime": 1664556009608, "trialdata": {"rt": 477, "stimulus": "<p id='stroop-text' class='stroop-yellow'>BOTTLE</p>", "response": "y", "stimulus-type": "unrelated", "word": "BOTTLE", "color": "yellow", "correct_response": "y", "trial_id": "stroop-trial-1-unrelated-15", "trial_type": "html-keyboard-response", "trial_index": 107, "time_elapsed": 194832, "internal_node_id": "0.0-6.0-12.0"}}, {"uniqueid": "w25785962:a54296137", "current_trial": 108, "dateTime": 1664556010680, "trialdata": {"rt": 568, "stimulus": "<p id='stroop-text' class='stroop-blue'>STONE</p>", "response": "b", "stimulus-type": "unrelated", "word": "STONE", "color": "blue", "correct_response": "b", "trial_id": "stroop-trial-1-unrelated-9", "trial_type": "html-keyboard-response", "trial_index": 108, "time_elapsed": 195904, "internal_node_id": "0.0-6.0-13.0"}}, {"uniqueid": "w25785962:a54296137", "current_trial": 109, "dateTime": 1664556011960, "trialdata": {"rt": 777, "stimulus": "<p id='stroop-text' class='stroop-yellow'>BLUE</p>", "response": "y", "stimulus-type": "incongruent", "word": "blue", "color": "yellow", "correct_response": "y", "trial_id": "stroop-trial-1-incongruent-15", "trial_type": "html-keyboard-response", "trial_index": 109, "time_elapsed": 197183, "internal_node_id": "0.0-6.0-14.0"}}, {"uniqueid": "w25785962:a54296137", "current_trial": 110, "dateTime": 1664556013208, "trialdata": {"rt": 737, "stimulus": "<p id='stroop-text' class='stroop-red'>GREEN</p>", "response": "r", "stimulus-type": "incongruent", "word": "green", "color": "red", "correct_response": "r", "trial_id": "stroop-trial-1-incongruent-26", "trial_type": "html-keyboard-response", "trial_index": 110, "time_elapsed": 198432, "internal_node_id": "0.0-6.0-15.0"}}, {"uniqueid": "w25785962:a54296137", "current_trial": 111, "dateTime": 1664556014408, "trialdata": {"rt": 692, "stimulus": "<p id='stroop-text' class='stroop-green'>WINDOW</p>", "response": "g", "stimulus-type": "unrelated", "word": "WINDOW", "color": "green", "correct_response": "g", "trial_id": "stroop-trial-1-unrelated-2", "trial_type": "html-keyboard-response", "trial_index": 111, "time_elapsed": 199631, "internal_node_id": "0.0-6.0-16.0"}}, {"uniqueid": "w25785962:a54296137", "current_trial": 112, "dateTime": 1664556015448, "trialdata": {"rt": 533, "stimulus": "<p id='stroop-text' class='stroop-blue'>FORK</p>", "response": "b", "stimulus-type": "unrelated", "word": "FORK", "color": "blue", "correct_response": "b", "trial_id": "stroop-trial-1-unrelated-17", "trial_type": "html-keyboard-response", "trial_index": 112, "time_elapsed": 200672, "internal_node_id": "0.0-6.0-17.0"}}, {"uniqueid": "w25785962:a54296137", "current_trial": 113, "dateTime": 1664556016753, "trialdata": {"rt": 794, "stimulus": "<p id='stroop-text' class='stroop-green'>BLUE</p>", "response": "g", "stimulus-type": "incongruent", "word": "blue", "color": "green", "correct_response": "g", "trial_id": "stroop-trial-1-incongruent-6", "trial_type": "html-keyboard-response", "trial_index": 113, "time_elapsed": 201977, "internal_node_id": "0.0-6.0-18.0"}}, {"uniqueid": "w25785962:a54296137", "current_trial": 114, "dateTime": 1664556017785, "trialdata": {"rt": 526, "stimulus": "<p id='stroop-text' class='stroop-blue'>BLUE</p>", "response": "b", "stimulus-type": "congruent", "word": "blue", "color": "blue", "correct_response": "b", "trial_id": "stroop-trial-1-congruent-4", "trial_type": "html-keyboard-response", "trial_index": 114, "time_elapsed": 203009, "internal_node_id": "0.0-6.0-19.0"}}, {"uniqueid": "w25785962:a54296137", "current_trial": 115, "dateTime": 1664556018728, "trialdata": {"rt": 439, "stimulus": "<p id='stroop-text' class='stroop-blue'>BRIDGE</p>", "response": "b", "stimulus-type": "unrelated", "word": "BRIDGE", "color": "blue", "correct_response": "b", "trial_id": "stroop-trial-1-unrelated-19", "trial_type": "html-keyboard-response", "trial_index": 115, "time_elapsed": 203952, "internal_node_id": "0.0-6.0-20.0"}}, {"uniqueid": "w25785962:a54296137", "current_trial": 116, "dateTime": 1664556019601, "trialdata": {"rt": 361, "stimulus": "<p id='stroop-text' class='stroop-blue'>BOTTLE</p>", "response": "b", "stimulus-type": "unrelated", "word": "BOTTLE", "color": "blue", "correct_response": "b", "trial_id": "stroop-trial-1-unrelated-30", "trial_type": "html-keyboard-response", "trial_index": 116, "time_elapsed": 204824, "internal_node_id": "0.0-6.0-21.0"}}, {"uniqueid": "w25785962:a54296137", "current_trial": 117, "dateTime": 1664556020689, "trialdata": {"rt": 575, "stimulus": "<p id='stroop-text' class='stroop-red'>YELLOW</p>", "response": "r", "stimulus-type": "incongruent", "word": "yellow", "color": "red", "correct_response": "r", "trial_id": "stroop-trial-1-incongruent-5", "trial_type": "html-keyboard-response", "trial_index": 117, "time_elapsed": 205913, "internal_node_id": "0.0-6.0-22.0"}}, {"uniqueid": "w25785962:a54296137", "current_trial": 118, "dateTime": 1664556021889, "trialdata": {"rt": 682, "stimulus": "<p id='stroop-text' class='stroop-blue'>BRIDGE</p>", "response": "b", "stimulus-type": "unrelated", "word": "BRIDGE", "color": "blue", "correct_response": "b", "trial_id": "stroop-trial-1-unrelated-25", "trial_type": "html-keyboard-response", "trial_index": 118, "time_elapsed": 207112, "internal_node_id": "0.0-6.0-23.0"}}, {"uniqueid": "w25785962:a54296137", "current_trial": 119, "dateTime": 1664556022889, "trialdata": {"rt": 488, "stimulus": "<p id='stroop-text' class='stroop-yellow'>YELLOW</p>", "response": "y", "stimulus-type": "congruent", "word": "yellow", "color": "yellow", "correct_response": "y", "trial_id": "stroop-trial-1-congruent-1", "trial_type": "html-keyboard-response", "trial_index": 119, "time_elapsed": 208113, "internal_node_id": "0.0-6.0-24.0"}}, {"uniqueid": "w25785962:a54296137", "current_trial": 120, "dateTime": 1664556024090, "trialdata": {"rt": 687, "stimulus": "<p id='stroop-text' class='stroop-green'>YELLOW</p>", "response": "g", "stimulus-type": "incongruent", "word": "yellow", "color": "green", "correct_response": "g", "trial_id": "stroop-trial-1-incongruent-16", "trial_type": "html-keyboard-response", "trial_index": 120, "time_elapsed": 209313, "internal_node_id": "0.0-6.0-25.0"}}, {"uniqueid": "w25785962:a54296137", "current_trial": 121, "dateTime": 1664556025098, "trialdata": {"rt": 494, "stimulus": "<p id='stroop-text' class='stroop-red'>BRIDGE</p>", "response": "r", "stimulus-type": "unrelated", "word": "BRIDGE", "color": "red", "correct_response": "r", "trial_id": "stroop-trial-1-unrelated-11", "trial_type": "html-keyboard-response", "trial_index": 121, "time_elapsed": 210322, "internal_node_id": "0.0-6.0-26.0"}}, {"uniqueid": "w25785962:a54296137", "current_trial": 122, "dateTime": 1664556026345, "trialdata": {"rt": 731, "stimulus": "<p id='stroop-text' class='stroop-green'>BLUE</p>", "response": "g", "stimulus-type": "incongruent", "word": "blue", "color": "green", "correct_response": "g", "trial_id": "stroop-trial-1-incongruent-4", "trial_type": "html-keyboard-response", "trial_index": 122, "time_elapsed": 211569, "internal_node_id": "0.0-6.0-27.0"}}, {"uniqueid": "w25785962:a54296137", "current_trial": 123, "dateTime": 1664556027346, "trialdata": {"rt": 495, "stimulus": "<p id='stroop-text' class='stroop-green'>GREEN</p>", "response": "g", "stimulus-type": "congruent", "word": "green", "color": "green", "correct_response": "g", "trial_id": "stroop-trial-1-congruent-9", "trial_type": "html-keyboard-response", "trial_index": 123, "time_elapsed": 212570, "internal_node_id": "0.0-6.0-28.0"}}, {"uniqueid": "w25785962:a54296137", "current_trial": 124, "dateTime": 1664556028618, "trialdata": {"rt": 758, "stimulus": "<p id='stroop-text' class='stroop-blue'>CHAIR</p>", "response": "b", "stimulus-type": "unrelated", "word": "CHAIR", "color": "blue", "correct_response": "b", "trial_id": "stroop-trial-1-unrelated-22", "trial_type": "html-keyboard-response", "trial_index": 124, "time_elapsed": 213841, "internal_node_id": "0.0-6.0-29.0"}}, {"uniqueid": "w25785962:a54296137", "current_trial": 125, "dateTime": 1664556029738, "trialdata": {"rt": 614, "stimulus": "<p id='stroop-text' class='stroop-green'>YELLOW</p>", "response": "g", "stimulus-type": "incongruent", "word": "yellow", "color": "green", "correct_response": "g", "trial_id": "stroop-trial-1-incongruent-19", "trial_type": "html-keyboard-response", "trial_index": 125, "time_elapsed": 214962, "internal_node_id": "0.0-6.0-30.0"}}, {"uniqueid": "w25785962:a54296137", "current_trial": 126, "dateTime": 1664556030730, "trialdata": {"rt": 476, "stimulus": "<p id='stroop-text' class='stroop-blue'>BLUE</p>", "response": "b", "stimulus-type": "congruent", "word": "blue", "color": "blue", "correct_response": "b", "trial_id": "stroop-trial-1-congruent-12", "trial_type": "html-keyboard-response", "trial_index": 126, "time_elapsed": 215954, "internal_node_id": "0.0-6.0-31.0"}}, {"uniqueid": "w25785962:a54296137", "current_trial": 127, "dateTime": 1664556031698, "trialdata": {"rt": 459, "stimulus": "<p id='stroop-text' class='stroop-yellow'>YELLOW</p>", "response": "y", "stimulus-type": "congruent", "word": "yellow", "color": "yellow", "correct_response": "y", "trial_id": "stroop-trial-1-congruent-16", "trial_type": "html-keyboard-response", "trial_index": 127, "time_elapsed": 216922, "internal_node_id": "0.0-6.0-32.0"}}, {"uniqueid": "w25785962:a54296137", "current_trial": 128, "dateTime": 1664556032835, "trialdata": {"rt": 628, "stimulus": "<p id='stroop-text' class='stroop-blue'>BLUE</p>", "response": "b", "stimulus-type": "congruent", "word": "blue", "color": "blue", "correct_response": "b", "trial_id": "stroop-trial-1-congruent-19", "trial_type": "html-keyboard-response", "trial_index": 128, "time_elapsed": 218058, "internal_node_id": "0.0-6.0-33.0"}}, {"uniqueid": "w25785962:a54296137", "current_trial": 129, "dateTime": 1664556033843, "trialdata": {"rt": 496, "stimulus": "<p id='stroop-text' class='stroop-green'>GREEN</p>", "response": "g", "stimulus-type": "congruent", "word": "green", "color": "green", "correct_response": "g", "trial_id": "stroop-trial-1-congruent-10", "trial_type": "html-keyboard-response", "trial_index": 129, "time_elapsed": 219066, "internal_node_id": "0.0-6.0-34.0"}}, {"uniqueid": "w25785962:a54296137", "current_trial": 130, "dateTime": 1664556034810, "trialdata": {"rt": 453, "stimulus": "<p id='stroop-text' class='stroop-green'>GREEN</p>", "response": "g", "stimulus-type": "congruent", "word": "green", "color": "green", "correct_response": "g", "trial_id": "stroop-trial-1-congruent-22", "trial_type": "html-keyboard-response", "trial_index": 130, "time_elapsed": 220034, "internal_node_id": "0.0-6.0-35.0"}}, {"uniqueid": "w25785962:a54296137", "current_trial": 131, "dateTime": 1664556035851, "trialdata": {"rt": 536, "stimulus": "<p id='stroop-text' class='stroop-blue'>GREEN</p>", "response": "b", "stimulus-type": "incongruent", "word": "green", "color": "blue", "correct_response": "b", "trial_id": "stroop-trial-1-incongruent-10", "trial_type": "html-keyboard-response", "trial_index": 131, "time_elapsed": 221075, "internal_node_id": "0.0-6.0-36.0"}}, {"uniqueid": "w25785962:a54296137", "current_trial": 132, "dateTime": 1664556037531, "trialdata": {"rt": 1165, "stimulus": "<p id='stroop-text' class='stroop-blue'>RED</p>", "response": "b", "stimulus-type": "incongruent", "word": "red", "color": "blue", "correct_response": "b", "trial_id": "stroop-trial-1-incongruent-9", "trial_type": "html-keyboard-response", "trial_index": 132, "time_elapsed": 222754, "internal_node_id": "0.0-6.0-37.0"}}, {"uniqueid": "w25785962:a54296137", "current_trial": 133, "dateTime": 1664556038507, "trialdata": {"rt": 473, "stimulus": "<p id='stroop-text' class='stroop-blue'>BLUE</p>", "response": "b", "stimulus-type": "congruent", "word": "blue", "color": "blue", "correct_response": "b", "trial_id": "stroop-trial-1-congruent-18", "trial_type": "html-keyboard-response", "trial_index": 133, "time_elapsed": 223731, "internal_node_id": "0.0-6.0-38.0"}}, {"uniqueid": "w25785962:a54296137", "current_trial": 134, "dateTime": 1664556039604, "trialdata": {"rt": 591, "stimulus": "<p id='stroop-text' class='stroop-red'>WINDOW</p>", "response": "r", "stimulus-type": "unrelated", "word": "WINDOW", "color": "red", "correct_response": "r", "trial_id": "stroop-trial-1-unrelated-12", "trial_type": "html-keyboard-response", "trial_index": 134, "time_elapsed": 224827, "internal_node_id": "0.0-6.0-39.0"}}, {"uniqueid": "w25785962:a54296137", "current_trial": 135, "dateTime": 1664556040732, "trialdata": {"rt": 618, "stimulus": "<p id='stroop-text' class='stroop-blue'>YELLOW</p>", "response": "b", "stimulus-type": "incongruent", "word": "yellow", "color": "blue", "correct_response": "b", "trial_id": "stroop-trial-1-incongruent-24", "trial_type": "html-keyboard-response", "trial_index": 135, "time_elapsed": 225956, "internal_node_id": "0.0-6.0-40.0"}}, {"uniqueid": "w25785962:a54296137", "current_trial": 136, "dateTime": 1664556041916, "trialdata": {"rt": 670, "stimulus": "<p id='stroop-text' class='stroop-red'>GREEN</p>", "response": "r", "stimulus-type": "incongruent", "word": "green", "color": "red", "correct_response": "r", "trial_id": "stroop-trial-1-incongruent-25", "trial_type": "html-keyboard-response", "trial_index": 136, "time_elapsed": 227139, "internal_node_id": "0.0-6.0-41.0"}}, {"uniqueid": "w25785962:a54296137", "current_trial": 137, "dateTime": 1664556042908, "trialdata": {"rt": 479, "stimulus": "<p id='stroop-text' class='stroop-yellow'>YELLOW</p>", "response": "y", "stimulus-type": "congruent", "word": "yellow", "color": "yellow", "correct_response": "y", "trial_id": "stroop-trial-1-congruent-14", "trial_type": "html-keyboard-response", "trial_index": 137, "time_elapsed": 228131, "internal_node_id": "0.0-6.0-42.0"}}, {"uniqueid": "w25785962:a54296137", "current_trial": 138, "dateTime": 1664556044068, "trialdata": {"rt": 645, "stimulus": "<p id='stroop-text' class='stroop-green'>BOAT</p>", "response": "g", "stimulus-type": "unrelated", "word": "BOAT", "color": "green", "correct_response": "g", "trial_id": "stroop-trial-1-unrelated-16", "trial_type": "html-keyboard-response", "trial_index": 138, "time_elapsed": 229292, "internal_node_id": "0.0-6.0-43.0"}}, {"uniqueid": "w25785962:a54296137", "current_trial": 139, "dateTime": 1664556045100, "trialdata": {"rt": 518, "stimulus": "<p id='stroop-text' class='stroop-blue'>YELLOW</p>", "response": "b", "stimulus-type": "incongruent", "word": "yellow", "color": "blue", "correct_response": "b", "trial_id": "stroop-trial-1-incongruent-7", "trial_type": "html-keyboard-response", "trial_index": 139, "time_elapsed": 230324, "internal_node_id": "0.0-6.0-44.0"}}, {"uniqueid": "w25785962:a54296137", "current_trial": 140, "dateTime": 1664556046156, "trialdata": {"rt": 543, "stimulus": "<p id='stroop-text' class='stroop-yellow'>MONKEY</p>", "response": "y", "stimulus-type": "unrelated", "word": "MONKEY", "color": "yellow", "correct_response": "y", "trial_id": "stroop-trial-1-unrelated-23", "trial_type": "html-keyboard-response", "trial_index": 140, "time_elapsed": 231380, "internal_node_id": "0.0-6.0-45.0"}}, {"uniqueid": "w25785962:a54296137", "current_trial": 141, "dateTime": 1664556047140, "trialdata": {"rt": 472, "stimulus": "<p id='stroop-text' class='stroop-yellow'>WINDOW</p>", "response": "y", "stimulus-type": "unrelated", "word": "WINDOW", "color": "yellow", "correct_response": "y", "trial_id": "stroop-trial-1-unrelated-24", "trial_type": "html-keyboard-response", "trial_index": 141, "time_elapsed": 232363, "internal_node_id": "0.0-6.0-46.0"}}, {"uniqueid": "w25785962:a54296137", "current_trial": 142, "dateTime": 1664556048052, "trialdata": {"rt": 395, "stimulus": "<p id='stroop-text' class='stroop-yellow'>RED</p>", "response": "y", "stimulus-type": "incongruent", "word": "red", "color": "yellow", "correct_response": "y", "trial_id": "stroop-trial-1-incongruent-23", "trial_type": "html-keyboard-response", "trial_index": 142, "time_elapsed": 233276, "internal_node_id": "0.0-6.0-47.0"}}, {"uniqueid": "w25785962:a54296137", "current_trial": 143, "dateTime": 1664556049076, "trialdata": {"rt": 521, "stimulus": "<p id='stroop-text' class='stroop-blue'>BLUE</p>", "response": "b", "stimulus-type": "congruent", "word": "blue", "color": "blue", "correct_response": "b", "trial_id": "stroop-trial-1-congruent-5", "trial_type": "html-keyboard-response", "trial_index": 143, "time_elapsed": 234300, "internal_node_id": "0.0-6.0-48.0"}}, {"uniqueid": "w25785962:a54296137", "current_trial": 144, "dateTime": 1664556050020, "trialdata": {"rt": 430, "stimulus": "<p id='stroop-text' class='stroop-blue'>BRAIN</p>", "response": "b", "stimulus-type": "unrelated", "word": "BRAIN", "color": "blue", "correct_response": "b", "trial_id": "stroop-trial-1-unrelated-21", "trial_type": "html-keyboard-response", "trial_index": 144, "time_elapsed": 235244, "internal_node_id": "0.0-6.0-49.0"}}, {"uniqueid": "w25785962:a54296137", "current_trial": 145, "dateTime": 1664556050916, "trialdata": {"rt": 383, "stimulus": "<p id='stroop-text' class='stroop-blue'>MONKEY</p>", "response": "b", "stimulus-type": "unrelated", "word": "MONKEY", "color": "blue", "correct_response": "b", "trial_id": "stroop-trial-1-unrelated-1", "trial_type": "html-keyboard-response", "trial_index": 145, "time_elapsed": 236140, "internal_node_id": "0.0-6.0-50.0"}}, {"uniqueid": "w25785962:a54296137", "current_trial": 146, "dateTime": 1664556052053, "trialdata": {"rt": 629, "stimulus": "<p id='stroop-text' class='stroop-red'>GREEN</p>", "response": "r", "stimulus-type": "incongruent", "word": "green", "color": "red", "correct_response": "r", "trial_id": "stroop-trial-1-incongruent-29", "trial_type": "html-keyboard-response", "trial_index": 146, "time_elapsed": 237276, "internal_node_id": "0.0-6.0-51.0"}}, {"uniqueid": "w25785962:a54296137", "current_trial": 147, "dateTime": 1664556053021, "trialdata": {"rt": 455, "stimulus": "<p id='stroop-text' class='stroop-yellow'>GREEN</p>", "response": "y", "stimulus-type": "incongruent", "word": "green", "color": "yellow", "correct_response": "y", "trial_id": "stroop-trial-1-incongruent-30", "trial_type": "html-keyboard-response", "trial_index": 147, "time_elapsed": 238245, "internal_node_id": "0.0-6.0-52.0"}}, {"uniqueid": "w25785962:a54296137", "current_trial": 148, "dateTime": 1664556054077, "trialdata": {"rt": 552, "stimulus": "<p id='stroop-text' class='stroop-red'>RED</p>", "response": "r", "stimulus-type": "congruent", "word": "red", "color": "red", "correct_response": "r", "trial_id": "stroop-trial-1-congruent-20", "trial_type": "html-keyboard-response", "trial_index": 148, "time_elapsed": 239301, "internal_node_id": "0.0-6.0-53.0"}}, {"uniqueid": "w25785962:a54296137", "current_trial": 149, "dateTime": 1664556055086, "trialdata": {"rt": 500, "stimulus": "<p id='stroop-text' class='stroop-blue'>BLUE</p>", "response": "b", "stimulus-type": "congruent", "word": "blue", "color": "blue", "correct_response": "b", "trial_id": "stroop-trial-1-congruent-24", "trial_type": "html-keyboard-response", "trial_index": 149, "time_elapsed": 240309, "internal_node_id": "0.0-6.0-54.0"}}, {"uniqueid": "w25785962:a54296137", "current_trial": 150, "dateTime": 1664556056093, "trialdata": {"rt": 499, "stimulus": "<p id='stroop-text' class='stroop-green'>GREEN</p>", "response": "g", "stimulus-type": "congruent", "word": "green", "color": "green", "correct_response": "g", "trial_id": "stroop-trial-1-congruent-3", "trial_type": "html-keyboard-response", "trial_index": 150, "time_elapsed": 241317, "internal_node_id": "0.0-6.0-55.0"}}, {"uniqueid": "w25785962:a54296137", "current_trial": 151, "dateTime": 1664556057101, "trialdata": {"rt": 504, "stimulus": "<p id='stroop-text' class='stroop-red'>RED</p>", "response": "r", "stimulus-type": "congruent", "word": "red", "color": "red", "correct_response": "r", "trial_id": "stroop-trial-1-congruent-13", "trial_type": "html-keyboard-response", "trial_index": 151, "time_elapsed": 242325, "internal_node_id": "0.0-6.0-56.0"}}, {"uniqueid": "w25785962:a54296137", "current_trial": 152, "dateTime": 1664556058606, "trialdata": {"rt": 997, "stimulus": "<p id='stroop-text' class='stroop-red'>BLUE</p>", "response": "r", "stimulus-type": "incongruent", "word": "blue", "color": "red", "correct_response": "r", "trial_id": "stroop-trial-1-incongruent-28", "trial_type": "html-keyboard-response", "trial_index": 152, "time_elapsed": 243829, "internal_node_id": "0.0-6.0-57.0"}}, {"uniqueid": "w25785962:a54296137", "current_trial": 153, "dateTime": 1664556059534, "trialdata": {"rt": 426, "stimulus": "<p id='stroop-text' class='stroop-blue'>BOTTLE</p>", "response": "b", "stimulus-type": "unrelated", "word": "BOTTLE", "color": "blue", "correct_response": "b", "trial_id": "stroop-trial-1-unrelated-26", "trial_type": "html-keyboard-response", "trial_index": 153, "time_elapsed": 244757, "internal_node_id": "0.0-6.0-58.0"}}, {"uniqueid": "w25785962:a54296137", "current_trial": 154, "dateTime": 1664556060670, "trialdata": {"rt": 627, "stimulus": "<p id='stroop-text' class='stroop-red'>BLUE</p>", "response": "r", "stimulus-type": "incongruent", "word": "blue", "color": "red", "correct_response": "r", "trial_id": "stroop-trial-1-incongruent-2", "trial_type": "html-keyboard-response", "trial_index": 154, "time_elapsed": 245894, "internal_node_id": "0.0-6.0-59.0"}}, {"uniqueid": "w25785962:a54296137", "current_trial": 155, "dateTime": 1664556061790, "trialdata": {"rt": 615, "stimulus": "<p id='stroop-text' class='stroop-green'>GREEN</p>", "response": "g", "stimulus-type": "congruent", "word": "green", "color": "green", "correct_response": "g", "trial_id": "stroop-trial-1-congruent-28", "trial_type": "html-keyboard-response", "trial_index": 155, "time_elapsed": 247014, "internal_node_id": "0.0-6.0-60.0"}}, {"uniqueid": "w25785962:a54296137", "current_trial": 156, "dateTime": 1664556063014, "trialdata": {"rt": 714, "stimulus": "<p id='stroop-text' class='stroop-blue'>YELLOW</p>", "response": "b", "stimulus-type": "incongruent", "word": "yellow", "color": "blue", "correct_response": "b", "trial_id": "stroop-trial-1-incongruent-11", "trial_type": "html-keyboard-response", "trial_index": 156, "time_elapsed": 248238, "internal_node_id": "0.0-6.0-61.0"}}, {"uniqueid": "w25785962:a54296137", "current_trial": 157, "dateTime": 1664556064110, "trialdata": {"rt": 582, "stimulus": "<p id='stroop-text' class='stroop-red'>RED</p>", "response": "r", "stimulus-type": "congruent", "word": "red", "color": "red", "correct_response": "r", "trial_id": "stroop-trial-1-congruent-25", "trial_type": "html-keyboard-response", "trial_index": 157, "time_elapsed": 249334, "internal_node_id": "0.0-6.0-62.0"}}, {"uniqueid": "w25785962:a54296137", "current_trial": 158, "dateTime": 1664556065262, "trialdata": {"rt": 649, "stimulus": "<p id='stroop-text' class='stroop-red'>GREEN</p>", "response": "r", "stimulus-type": "incongruent", "word": "green", "color": "red", "correct_response": "r", "trial_id": "stroop-trial-1-incongruent-13", "trial_type": "html-keyboard-response", "trial_index": 158, "time_elapsed": 250486, "internal_node_id": "0.0-6.0-63.0"}}, {"uniqueid": "w25785962:a54296137", "current_trial": 159, "dateTime": 1664556066271, "trialdata": {"rt": 505, "stimulus": "<p id='stroop-text' class='stroop-blue'>BOTTLE</p>", "response": "b", "stimulus-type": "unrelated", "word": "BOTTLE", "color": "blue", "correct_response": "b", "trial_id": "stroop-trial-1-unrelated-14", "trial_type": "html-keyboard-response", "trial_index": 159, "time_elapsed": 251495, "internal_node_id": "0.0-6.0-64.0"}}, {"uniqueid": "w25785962:a54296137", "current_trial": 160, "dateTime": 1664556067895, "trialdata": {"rt": 1118, "stimulus": "<p id='stroop-text' class='stroop-blue'>GREEN</p>", "response": "b", "stimulus-type": "incongruent", "word": "green", "color": "blue", "correct_response": "b", "trial_id": "stroop-trial-1-incongruent-22", "trial_type": "html-keyboard-response", "trial_index": 160, "time_elapsed": 253119, "internal_node_id": "0.0-6.0-65.0"}}, {"uniqueid": "w25785962:a54296137", "current_trial": 161, "dateTime": 1664556069039, "trialdata": {"rt": 628, "stimulus": "<p id='stroop-text' class='stroop-green'>GREEN</p>", "response": "g", "stimulus-type": "congruent", "word": "green", "color": "green", "correct_response": "g", "trial_id": "stroop-trial-1-congruent-7", "trial_type": "html-keyboard-response", "trial_index": 161, "time_elapsed": 254262, "internal_node_id": "0.0-6.0-66.0"}}, {"uniqueid": "w25785962:a54296137", "current_trial": 162, "dateTime": 1664556070335, "trialdata": {"rt": 786, "stimulus": "<p id='stroop-text' class='stroop-green'>YELLOW</p>", "response": "g", "stimulus-type": "incongruent", "word": "yellow", "color": "green", "correct_response": "g", "trial_id": "stroop-trial-1-incongruent-17", "trial_type": "html-keyboard-response", "trial_index": 162, "time_elapsed": 255558, "internal_node_id": "0.0-6.0-67.0"}}, {"uniqueid": "w25785962:a54296137", "current_trial": 163, "dateTime": 1664556071495, "trialdata": {"rt": 650, "stimulus": "<p id='stroop-text' class='stroop-blue'>GREEN</p>", "response": "b", "stimulus-type": "incongruent", "word": "green", "color": "blue", "correct_response": "b", "trial_id": "stroop-trial-1-incongruent-8", "trial_type": "html-keyboard-response", "trial_index": 163, "time_elapsed": 256718, "internal_node_id": "0.0-6.0-68.0"}}, {"uniqueid": "w25785962:a54296137", "current_trial": 164, "dateTime": 1664556072576, "trialdata": {"rt": 563, "stimulus": "<p id='stroop-text' class='stroop-yellow'>CHAIR</p>", "response": "y", "stimulus-type": "unrelated", "word": "CHAIR", "color": "yellow", "correct_response": "y", "trial_id": "stroop-trial-1-unrelated-28", "trial_type": "html-keyboard-response", "trial_index": 164, "time_elapsed": 257800, "internal_node_id": "0.0-6.0-69.0"}}, {"uniqueid": "w25785962:a54296137", "current_trial": 165, "dateTime": 1664556074031, "trialdata": {"rt": 949, "stimulus": "<p id='stroop-text' class='stroop-green'>STONE</p>", "response": "g", "stimulus-type": "unrelated", "word": "STONE", "color": "green", "correct_response": "g", "trial_id": "stroop-trial-1-unrelated-7", "trial_type": "html-keyboard-response", "trial_index": 165, "time_elapsed": 259255, "internal_node_id": "0.0-6.0-70.0"}}, {"uniqueid": "w25785962:a54296137", "current_trial": 166, "dateTime": 1664556075104, "trialdata": {"rt": 563, "stimulus": "<p id='stroop-text' class='stroop-yellow'>YELLOW</p>", "response": "y", "stimulus-type": "congruent", "word": "yellow", "color": "yellow", "correct_response": "y", "trial_id": "stroop-trial-1-congruent-6", "trial_type": "html-keyboard-response", "trial_index": 166, "time_elapsed": 260327, "internal_node_id": "0.0-6.0-71.0"}}, {"uniqueid": "w25785962:a54296137", "current_trial": 167, "dateTime": 1664556076480, "trialdata": {"rt": 863, "stimulus": "<p id='stroop-text' class='stroop-blue'>GREEN</p>", "response": "b", "stimulus-type": "incongruent", "word": "green", "color": "blue", "correct_response": "b", "trial_id": "stroop-trial-1-incongruent-18", "trial_type": "html-keyboard-response", "trial_index": 167, "time_elapsed": 261703, "internal_node_id": "0.0-6.0-72.0"}}, {"uniqueid": "w25785962:a54296137", "current_trial": 168, "dateTime": 1664556077648, "trialdata": {"rt": 659, "stimulus": "<p id='stroop-text' class='stroop-yellow'>GREEN</p>", "response": "y", "stimulus-type": "incongruent", "word": "green", "color": "yellow", "correct_response": "y", "trial_id": "stroop-trial-1-incongruent-27", "trial_type": "html-keyboard-response", "trial_index": 168, "time_elapsed": 262872, "internal_node_id": "0.0-6.0-73.0"}}, {"uniqueid": "w25785962:a54296137", "current_trial": 169, "dateTime": 1664556078728, "trialdata": {"rt": 564, "stimulus": "<p id='stroop-text' class='stroop-red'>RED</p>", "response": "r", "stimulus-type": "congruent", "word": "red", "color": "red", "correct_response": "r", "trial_id": "stroop-trial-1-congruent-29", "trial_type": "html-keyboard-response", "trial_index": 169, "time_elapsed": 263952, "internal_node_id": "0.0-6.0-74.0"}}, {"uniqueid": "w25785962:a54296137", "current_trial": 170, "dateTime": 1664556079808, "trialdata": {"rt": 564, "stimulus": "<p id='stroop-text' class='stroop-yellow'>YELLOW</p>", "response": "y", "stimulus-type": "congruent", "word": "yellow", "color": "yellow", "correct_response": "y", "trial_id": "stroop-trial-1-congruent-23", "trial_type": "html-keyboard-response", "trial_index": 170, "time_elapsed": 265032, "internal_node_id": "0.0-6.0-75.0"}}, {"uniqueid": "w25785962:a54296137", "current_trial": 171, "dateTime": 1664556080920, "trialdata": {"rt": 602, "stimulus": "<p id='stroop-text' class='stroop-blue'>STONE</p>", "response": "b", "stimulus-type": "unrelated", "word": "STONE", "color": "blue", "correct_response": "b", "trial_id": "stroop-trial-1-unrelated-18", "trial_type": "html-keyboard-response", "trial_index": 171, "time_elapsed": 266144, "internal_node_id": "0.0-6.0-76.0"}}, {"uniqueid": "w25785962:a54296137", "current_trial": 172, "dateTime": 1664556081824, "trialdata": {"rt": 393, "stimulus": "<p id='stroop-text' class='stroop-blue'>BRIDGE</p>", "response": "b", "stimulus-type": "unrelated", "word": "BRIDGE", "color": "blue", "correct_response": "b", "trial_id": "stroop-trial-1-unrelated-8", "trial_type": "html-keyboard-response", "trial_index": 172, "time_elapsed": 267048, "internal_node_id": "0.0-6.0-77.0"}}, {"uniqueid": "w25785962:a54296137", "current_trial": 173, "dateTime": 1664556082969, "trialdata": {"rt": 639, "stimulus": "<p id='stroop-text' class='stroop-green'>BLUE</p>", "response": "g", "stimulus-type": "incongruent", "word": "blue", "color": "green", "correct_response": "g", "trial_id": "stroop-trial-1-incongruent-1", "trial_type": "html-keyboard-response", "trial_index": 173, "time_elapsed": 268193, "internal_node_id": "0.0-6.0-78.0"}}, {"uniqueid": "w25785962:a54296137", "current_trial": 174, "dateTime": 1664556084121, "trialdata": {"rt": 651, "stimulus": "<p id='stroop-text' class='stroop-blue'>SHIP</p>", "response": "b", "stimulus-type": "unrelated", "word": "SHIP", "color": "blue", "correct_response": "b", "trial_id": "stroop-trial-1-unrelated-10", "trial_type": "html-keyboard-response", "trial_index": 174, "time_elapsed": 269344, "internal_node_id": "0.0-6.0-79.0"}}, {"uniqueid": "w25785962:a54296137", "current_trial": 175, "dateTime": 1664556085113, "trialdata": {"rt": 488, "stimulus": "<p id='stroop-text' class='stroop-red'>RED</p>", "response": "r", "stimulus-type": "congruent", "word": "red", "color": "red", "correct_response": "r", "trial_id": "stroop-trial-1-congruent-26", "trial_type": "html-keyboard-response", "trial_index": 175, "time_elapsed": 270337, "internal_node_id": "0.0-6.0-80.0"}}, {"uniqueid": "w25785962:a54296137", "current_trial": 176, "dateTime": 1664556086361, "trialdata": {"rt": 735, "stimulus": "<p id='stroop-text' class='stroop-red'>YELLOW</p>", "response": "r", "stimulus-type": "incongruent", "word": "yellow", "color": "red", "correct_response": "r", "trial_id": "stroop-trial-1-incongruent-20", "trial_type": "html-keyboard-response", "trial_index": 176, "time_elapsed": 271585, "internal_node_id": "0.0-6.0-81.0"}}, {"uniqueid": "w25785962:a54296137", "current_trial": 177, "dateTime": 1664556087474, "trialdata": {"rt": 600, "stimulus": "<p id='stroop-text' class='stroop-blue'>WINDOW</p>", "response": "b", "stimulus-type": "unrelated", "word": "WINDOW", "color": "blue", "correct_response": "b", "trial_id": "stroop-trial-1-unrelated-5", "trial_type": "html-keyboard-response", "trial_index": 177, "time_elapsed": 272697, "internal_node_id": "0.0-6.0-82.0"}}, {"uniqueid": "w25785962:a54296137", "current_trial": 178, "dateTime": 1664556088649, "trialdata": {"rt": 668, "stimulus": "<p id='stroop-text' class='stroop-yellow'>MONKEY</p>", "response": "y", "stimulus-type": "unrelated", "word": "MONKEY", "color": "yellow", "correct_response": "y", "trial_id": "stroop-trial-1-unrelated-3", "trial_type": "html-keyboard-response", "trial_index": 178, "time_elapsed": 273873, "internal_node_id": "0.0-6.0-83.0"}}, {"uniqueid": "w25785962:a54296137", "current_trial": 179, "dateTime": 1664556089986, "trialdata": {"rt": 826, "stimulus": "<p id='stroop-text' class='stroop-green'>BLUE</p>", "response": "g", "stimulus-type": "incongruent", "word": "blue", "color": "green", "correct_response": "g", "trial_id": "stroop-trial-1-incongruent-14", "trial_type": "html-keyboard-response", "trial_index": 179, "time_elapsed": 275209, "internal_node_id": "0.0-6.0-84.0"}}, {"uniqueid": "w25785962:a54296137", "current_trial": 180, "dateTime": 1664556091114, "trialdata": {"rt": 614, "stimulus": "<p id='stroop-text' class='stroop-blue'>BOAT</p>", "response": "b", "stimulus-type": "unrelated", "word": "BOAT", "color": "blue", "correct_response": "b", "trial_id": "stroop-trial-1-unrelated-20", "trial_type": "html-keyboard-response", "trial_index": 180, "time_elapsed": 276338, "internal_node_id": "0.0-6.0-85.0"}}, {"uniqueid": "w25785962:a54296137", "current_trial": 181, "dateTime": 1664556092257, "trialdata": {"rt": 636, "stimulus": "<p id='stroop-text' class='stroop-green'>FORK</p>", "response": "g", "stimulus-type": "unrelated", "word": "FORK", "color": "green", "correct_response": "g", "trial_id": "stroop-trial-1-unrelated-6", "trial_type": "html-keyboard-response", "trial_index": 181, "time_elapsed": 277481, "internal_node_id": "0.0-6.0-86.0"}}, {"uniqueid": "w25785962:a54296137", "current_trial": 182, "dateTime": 1664556093266, "trialdata": {"rt": 491, "stimulus": "<p id='stroop-text' class='stroop-blue'>BRAIN</p>", "response": "b", "stimulus-type": "unrelated", "word": "BRAIN", "color": "blue", "correct_response": "b", "trial_id": "stroop-trial-1-unrelated-29", "trial_type": "html-keyboard-response", "trial_index": 182, "time_elapsed": 278490, "internal_node_id": "0.0-6.0-87.0"}}, {"uniqueid": "w25785962:a54296137", "current_trial": 183, "dateTime": 1664556094362, "trialdata": {"rt": 592, "stimulus": "<p id='stroop-text' class='stroop-blue'>FORK</p>", "response": "b", "stimulus-type": "unrelated", "word": "FORK", "color": "blue", "correct_response": "b", "trial_id": "stroop-trial-1-unrelated-13", "trial_type": "html-keyboard-response", "trial_index": 183, "time_elapsed": 279585, "internal_node_id": "0.0-6.0-88.0"}}, {"uniqueid": "w25785962:a54296137", "current_trial": 184, "dateTime": 1664556095842, "trialdata": {"rt": 964, "stimulus": "<p id='stroop-text' class='stroop-yellow'>YELLOW</p>", "response": "y", "stimulus-type": "congruent", "word": "yellow", "color": "yellow", "correct_response": "y", "trial_id": "stroop-trial-1-congruent-11", "trial_type": "html-keyboard-response", "trial_index": 184, "time_elapsed": 281066, "internal_node_id": "0.0-6.0-89.0"}}, {"uniqueid": "w25785962:a54296137", "current_trial": 185, "dateTime": 1664556110700, "trialdata": {"rt": 14342, "stimulus": "  <h1> End of block! </h1>\n\n  You have reached the end of the block 2/5. If you need a short break, feel free to take one now before moving on.\n\n  <br><br>\n  In the next block, you will complete another 90 rounds of this game.\n\n  <br><br>\n  <div style='text-align: center;'>Press <code>space</code> to begin.</div>\n  <br><br>\n<div style='text-align: center;'>(If the experiment doesn't continue, try clicking on the text and then pressing <code>space</code>.)</div>", "response": " ", "trial_id": "stroop_1_ready_3", "trial_type": "html-keyboard-response", "trial_index": 185, "time_elapsed": 295924, "internal_node_id": "0.0-7.0"}}, {"uniqueid": "w25785962:a54296137", "current_trial": 186, "dateTime": 1664556111292, "trialdata": {"rt": 590, "stimulus": "<p id='stroop-text' class='stroop-red'>RED</p>", "response": "r", "stimulus-type": "congruent", "word": "red", "color": "red", "correct_response": "r", "trial_id": "stroop-trial-1-congruent-18", "trial_type": "html-keyboard-response", "trial_index": 186, "time_elapsed": 296515, "internal_node_id": "0.0-8.0-0.0"}}, {"uniqueid": "w25785962:a54296137", "current_trial": 187, "dateTime": 1664556112188, "trialdata": {"rt": 392, "stimulus": "<p id='stroop-text' class='stroop-blue'>BLUE</p>", "response": "b", "stimulus-type": "congruent", "word": "blue", "color": "blue", "correct_response": "b", "trial_id": "stroop-trial-1-congruent-22", "trial_type": "html-keyboard-response", "trial_index": 187, "time_elapsed": 297412, "internal_node_id": "0.0-8.0-1.0"}}, {"uniqueid": "w25785962:a54296137", "current_trial": 188, "dateTime": 1664556113100, "trialdata": {"rt": 403, "stimulus": "<p id='stroop-text' class='stroop-blue'>BLUE</p>", "response": "b", "stimulus-type": "congruent", "word": "blue", "color": "blue", "correct_response": "b", "trial_id": "stroop-trial-1-congruent-5", "trial_type": "html-keyboard-response", "trial_index": 188, "time_elapsed": 298324, "internal_node_id": "0.0-8.0-2.0"}}, {"uniqueid": "w25785962:a54296137", "current_trial": 189, "dateTime": 1664556114021, "trialdata": {"rt": 417, "stimulus": "<p id='stroop-text' class='stroop-blue'>MONKEY</p>", "response": "b", "stimulus-type": "unrelated", "word": "MONKEY", "color": "blue", "correct_response": "b", "trial_id": "stroop-trial-1-unrelated-5", "trial_type": "html-keyboard-response", "trial_index": 189, "time_elapsed": 299245, "internal_node_id": "0.0-8.0-3.0"}}, {"uniqueid": "w25785962:a54296137", "current_trial": 190, "dateTime": 1664556115036, "trialdata": {"rt": 499, "stimulus": "<p id='stroop-text' class='stroop-red'>YELLOW</p>", "response": "r", "stimulus-type": "incongruent", "word": "yellow", "color": "red", "correct_response": "r", "trial_id": "stroop-trial-1-incongruent-26", "trial_type": "html-keyboard-response", "trial_index": 190, "time_elapsed": 300260, "internal_node_id": "0.0-8.0-4.0"}}, {"uniqueid": "w25785962:a54296137", "current_trial": 191, "dateTime": 1664556116093, "trialdata": {"rt": 542, "stimulus": "<p id='stroop-text' class='stroop-yellow'>GREEN</p>", "response": "y", "stimulus-type": "incongruent", "word": "green", "color": "yellow", "correct_response": "y", "trial_id": "stroop-trial-1-incongruent-28", "trial_type": "html-keyboard-response", "trial_index": 191, "time_elapsed": 301317, "internal_node_id": "0.0-8.0-5.0"}}, {"uniqueid": "w25785962:a54296137", "current_trial": 192, "dateTime": 1664556117141, "trialdata": {"rt": 539, "stimulus": "<p id='stroop-text' class='stroop-green'>BLUE</p>", "response": "g", "stimulus-type": "incongruent", "word": "blue", "color": "green", "correct_response": "g", "trial_id": "stroop-trial-1-incongruent-19", "trial_type": "html-keyboard-response", "trial_index": 192, "time_elapsed": 302365, "internal_node_id": "0.0-8.0-6.0"}}, {"uniqueid": "w25785962:a54296137", "current_trial": 193, "dateTime": 1664556118093, "trialdata": {"rt": 445, "stimulus": "<p id='stroop-text' class='stroop-green'>BOAT</p>", "response": "g", "stimulus-type": "unrelated", "word": "BOAT", "color": "green", "correct_response": "g", "trial_id": "stroop-trial-1-unrelated-27", "trial_type": "html-keyboard-response", "trial_index": 193, "time_elapsed": 303316, "internal_node_id": "0.0-8.0-7.0"}}, {"uniqueid": "w25785962:a54296137", "current_trial": 194, "dateTime": 1664556119061, "trialdata": {"rt": 455, "stimulus": "<p id='stroop-text' class='stroop-yellow'>YELLOW</p>", "response": "y", "stimulus-type": "congruent", "word": "yellow", "color": "yellow", "correct_response": "y", "trial_id": "stroop-trial-1-congruent-4", "trial_type": "html-keyboard-response", "trial_index": 194, "time_elapsed": 304284, "internal_node_id": "0.0-8.0-8.0"}}, {"uniqueid": "w25785962:a54296137", "current_trial": 195, "dateTime": 1664556120053, "trialdata": {"rt": 481, "stimulus": "<p id='stroop-text' class='stroop-red'>GREEN</p>", "response": "r", "stimulus-type": "incongruent", "word": "green", "color": "red", "correct_response": "r", "trial_id": "stroop-trial-1-incongruent-22", "trial_type": "html-keyboard-response", "trial_index": 195, "time_elapsed": 305277, "internal_node_id": "0.0-8.0-9.0"}}, {"uniqueid": "w25785962:a54296137", "current_trial": 196, "dateTime": 1664556121061, "trialdata": {"rt": 494, "stimulus": "<p id='stroop-text' class='stroop-yellow'>YELLOW</p>", "response": "y", "stimulus-type": "congruent", "word": "yellow", "color": "yellow", "correct_response": "y", "trial_id": "stroop-trial-1-congruent-24", "trial_type": "html-keyboard-response", "trial_index": 196, "time_elapsed": 306285, "internal_node_id": "0.0-8.0-10.0"}}, {"uniqueid": "w25785962:a54296137", "current_trial": 197, "dateTime": 1664556122053, "trialdata": {"rt": 483, "stimulus": "<p id='stroop-text' class='stroop-yellow'>DOG</p>", "response": "y", "stimulus-type": "unrelated", "word": "DOG", "color": "yellow", "correct_response": "y", "trial_id": "stroop-trial-1-unrelated-16", "trial_type": "html-keyboard-response", "trial_index": 197, "time_elapsed": 307277, "internal_node_id": "0.0-8.0-11.0"}}, {"uniqueid": "w25785962:a54296137", "current_trial": 198, "dateTime": 1664556123133, "trialdata": {"rt": 575, "stimulus": "<p id='stroop-text' class='stroop-red'>BOAT</p>", "response": "r", "stimulus-type": "unrelated", "word": "BOAT", "color": "red", "correct_response": "r", "trial_id": "stroop-trial-1-unrelated-28", "trial_type": "html-keyboard-response", "trial_index": 198, "time_elapsed": 308357, "internal_node_id": "0.0-8.0-12.0"}}, {"uniqueid": "w25785962:a54296137", "current_trial": 199, "dateTime": 1664556124198, "trialdata": {"rt": 548, "stimulus": "<p id='stroop-text' class='stroop-blue'>SHIP</p>", "response": "b", "stimulus-type": "unrelated", "word": "SHIP", "color": "blue", "correct_response": "b", "trial_id": "stroop-trial-1-unrelated-21", "trial_type": "html-keyboard-response", "trial_index": 199, "time_elapsed": 309422, "internal_node_id": "0.0-8.0-13.0"}}, {"uniqueid": "w25785962:a54296137", "current_trial": 200, "dateTime": 1664556125382, "trialdata": {"rt": 670, "stimulus": "<p id='stroop-text' class='stroop-red'>YELLOW</p>", "response": "r", "stimulus-type": "incongruent", "word": "yellow", "color": "red", "correct_response": "r", "trial_id": "stroop-trial-1-incongruent-30", "trial_type": "html-keyboard-response", "trial_index": 200, "time_elapsed": 310606, "internal_node_id": "0.0-8.0-14.0"}}, {"uniqueid": "w25785962:a54296137", "current_trial": 201, "dateTime": 1664556126398, "trialdata": {"rt": 504, "stimulus": "<p id='stroop-text' class='stroop-green'>YELLOW</p>", "response": "g", "stimulus-type": "incongruent", "word": "yellow", "color": "green", "correct_response": "g", "trial_id": "stroop-trial-1-incongruent-8", "trial_type": "html-keyboard-response", "trial_index": 201, "time_elapsed": 311622, "internal_node_id": "0.0-8.0-15.0"}}, {"uniqueid": "w25785962:a54296137", "current_trial": 202, "dateTime": 1664556127446, "trialdata": {"rt": 543, "stimulus": "<p id='stroop-text' class='stroop-green'>BRAIN</p>", "response": "g", "stimulus-type": "unrelated", "word": "BRAIN", "color": "green", "correct_response": "g", "trial_id": "stroop-trial-1-unrelated-12", "trial_type": "html-keyboard-response", "trial_index": 202, "time_elapsed": 312669, "internal_node_id": "0.0-8.0-16.0"}}, {"uniqueid": "w25785962:a54296137", "current_trial": 203, "dateTime": 1664556128630, "trialdata": {"rt": 681, "stimulus": "<p id='stroop-text' class='stroop-red'>YELLOW</p>", "response": "r", "stimulus-type": "incongruent", "word": "yellow", "color": "red", "correct_response": "r", "trial_id": "stroop-trial-1-incongruent-24", "trial_type": "html-keyboard-response", "trial_index": 203, "time_elapsed": 313853, "internal_node_id": "0.0-8.0-17.0"}}, {"uniqueid": "w25785962:a54296137", "current_trial": 204, "dateTime": 1664556129655, "trialdata": {"rt": 515, "stimulus": "<p id='stroop-text' class='stroop-blue'>BLUE</p>", "response": "b", "stimulus-type": "congruent", "word": "blue", "color": "blue", "correct_response": "b", "trial_id": "stroop-trial-1-congruent-9", "trial_type": "html-keyboard-response", "trial_index": 204, "time_elapsed": 314878, "internal_node_id": "0.0-8.0-18.0"}}, {"uniqueid": "w25785962:a54296137", "current_trial": 205, "dateTime": 1664556130815, "trialdata": {"rt": 643, "stimulus": "<p id='stroop-text' class='stroop-red'>RED</p>", "response": "r", "stimulus-type": "congruent", "word": "red", "color": "red", "correct_response": "r", "trial_id": "stroop-trial-1-congruent-12", "trial_type": "html-keyboard-response", "trial_index": 205, "time_elapsed": 316038, "internal_node_id": "0.0-8.0-19.0"}}, {"uniqueid": "w25785962:a54296137", "current_trial": 206, "dateTime": 1664556131854, "trialdata": {"rt": 523, "stimulus": "<p id='stroop-text' class='stroop-yellow'>YELLOW</p>", "response": "y", "stimulus-type": "congruent", "word": "yellow", "color": "yellow", "correct_response": "y", "trial_id": "stroop-trial-1-congruent-20", "trial_type": "html-keyboard-response", "trial_index": 206, "time_elapsed": 317078, "internal_node_id": "0.0-8.0-20.0"}}, {"uniqueid": "w25785962:a54296137", "current_trial": 207, "dateTime": 1664556133055, "trialdata": {"rt": 686, "stimulus": "<p id='stroop-text' class='stroop-blue'>RED</p>", "response": "b", "stimulus-type": "incongruent", "word": "red", "color": "blue", "correct_response": "b", "trial_id": "stroop-trial-1-incongruent-27", "trial_type": "html-keyboard-response", "trial_index": 207, "time_elapsed": 318279, "internal_node_id": "0.0-8.0-21.0"}}, {"uniqueid": "w25785962:a54296137", "current_trial": 208, "dateTime": 1664556133982, "trialdata": {"rt": 424, "stimulus": "<p id='stroop-text' class='stroop-blue'>BLUE</p>", "response": "b", "stimulus-type": "congruent", "word": "blue", "color": "blue", "correct_response": "b", "trial_id": "stroop-trial-1-congruent-8", "trial_type": "html-keyboard-response", "trial_index": 208, "time_elapsed": 319206, "internal_node_id": "0.0-8.0-22.0"}}, {"uniqueid": "w25785962:a54296137", "current_trial": 209, "dateTime": 1664556134967, "trialdata": {"rt": 483, "stimulus": "<p id='stroop-text' class='stroop-red'>RED</p>", "response": "r", "stimulus-type": "congruent", "word": "red", "color": "red", "correct_response": "r", "trial_id": "stroop-trial-1-congruent-27", "trial_type": "html-keyboard-response", "trial_index": 209, "time_elapsed": 320190, "internal_node_id": "0.0-8.0-23.0"}}, {"uniqueid": "w25785962:a54296137", "current_trial": 210, "dateTime": 1664556136039, "trialdata": {"rt": 568, "stimulus": "<p id='stroop-text' class='stroop-red'>BRIDGE</p>", "response": "r", "stimulus-type": "unrelated", "word": "BRIDGE", "color": "red", "correct_response": "r", "trial_id": "stroop-trial-1-unrelated-29", "trial_type": "html-keyboard-response", "trial_index": 210, "time_elapsed": 321263, "internal_node_id": "0.0-8.0-24.0"}}, {"uniqueid": "w25785962:a54296137", "current_trial": 211, "dateTime": 1664556137071, "trialdata": {"rt": 525, "stimulus": "<p id='stroop-text' class='stroop-blue'>SHIP</p>", "response": "b", "stimulus-type": "unrelated", "word": "SHIP", "color": "blue", "correct_response": "b", "trial_id": "stroop-trial-1-unrelated-26", "trial_type": "html-keyboard-response", "trial_index": 211, "time_elapsed": 322295, "internal_node_id": "0.0-8.0-25.0"}}, {"uniqueid": "w25785962:a54296137", "current_trial": 212, "dateTime": 1664556138136, "trialdata": {"rt": 555, "stimulus": "<p id='stroop-text' class='stroop-yellow'>RED</p>", "response": "y", "stimulus-type": "incongruent", "word": "red", "color": "yellow", "correct_response": "y", "trial_id": "stroop-trial-1-incongruent-7", "trial_type": "html-keyboard-response", "trial_index": 212, "time_elapsed": 323359, "internal_node_id": "0.0-8.0-26.0"}}, {"uniqueid": "w25785962:a54296137", "current_trial": 213, "dateTime": 1664556139183, "trialdata": {"rt": 533, "stimulus": "<p id='stroop-text' class='stroop-blue'>BLUE</p>", "response": "b", "stimulus-type": "congruent", "word": "blue", "color": "blue", "correct_response": "b", "trial_id": "stroop-trial-1-congruent-1", "trial_type": "html-keyboard-response", "trial_index": 213, "time_elapsed": 324407, "internal_node_id": "0.0-8.0-27.0"}}, {"uniqueid": "w25785962:a54296137", "current_trial": 214, "dateTime": 1664556140304, "trialdata": {"rt": 619, "stimulus": "<p id='stroop-text' class='stroop-blue'>YELLOW</p>", "response": "b", "stimulus-type": "incongruent", "word": "yellow", "color": "blue", "correct_response": "b", "trial_id": "stroop-trial-1-incongruent-1", "trial_type": "html-keyboard-response", "trial_index": 214, "time_elapsed": 325528, "internal_node_id": "0.0-8.0-28.0"}}, {"uniqueid": "w25785962:a54296137", "current_trial": 215, "dateTime": 1664556141400, "trialdata": {"rt": 580, "stimulus": "<p id='stroop-text' class='stroop-green'>BOAT</p>", "response": "g", "stimulus-type": "unrelated", "word": "BOAT", "color": "green", "correct_response": "g", "trial_id": "stroop-trial-1-unrelated-23", "trial_type": "html-keyboard-response", "trial_index": 215, "time_elapsed": 326623, "internal_node_id": "0.0-8.0-29.0"}}, {"uniqueid": "w25785962:a54296137", "current_trial": 216, "dateTime": 1664556142696, "trialdata": {"rt": 787, "stimulus": "<p id='stroop-text' class='stroop-green'>YELLOW</p>", "response": "g", "stimulus-type": "incongruent", "word": "yellow", "color": "green", "correct_response": "g", "trial_id": "stroop-trial-1-incongruent-16", "trial_type": "html-keyboard-response", "trial_index": 216, "time_elapsed": 327920, "internal_node_id": "0.0-8.0-30.0"}}, {"uniqueid": "w25785962:a54296137", "current_trial": 217, "dateTime": 1664556144328, "trialdata": {"rt": 1129, "stimulus": "<p id='stroop-text' class='stroop-yellow'>BRAIN</p>", "response": "y", "stimulus-type": "unrelated", "word": "BRAIN", "color": "yellow", "correct_response": "y", "trial_id": "stroop-trial-1-unrelated-11", "trial_type": "html-keyboard-response", "trial_index": 217, "time_elapsed": 329551, "internal_node_id": "0.0-8.0-31.0"}}, {"uniqueid": "w25785962:a54296137", "current_trial": 218, "dateTime": 1664556145385, "trialdata": {"rt": 548, "stimulus": "<p id='stroop-text' class='stroop-blue'>BLUE</p>", "response": "b", "stimulus-type": "congruent", "word": "blue", "color": "blue", "correct_response": "b", "trial_id": "stroop-trial-1-congruent-7", "trial_type": "html-keyboard-response", "trial_index": 218, "time_elapsed": 330609, "internal_node_id": "0.0-8.0-32.0"}}, {"uniqueid": "w25785962:a54296137", "current_trial": 219, "dateTime": 1664556146384, "trialdata": {"rt": 486, "stimulus": "<p id='stroop-text' class='stroop-green'>GREEN</p>", "response": "g", "stimulus-type": "congruent", "word": "green", "color": "green", "correct_response": "g", "trial_id": "stroop-trial-1-congruent-11", "trial_type": "html-keyboard-response", "trial_index": 219, "time_elapsed": 331608, "internal_node_id": "0.0-8.0-33.0"}}, {"uniqueid": "w25785962:a54296137", "current_trial": 220, "dateTime": 1664556147488, "trialdata": {"rt": 597, "stimulus": "<p id='stroop-text' class='stroop-blue'>GREEN</p>", "response": "b", "stimulus-type": "incongruent", "word": "green", "color": "blue", "correct_response": "b", "trial_id": "stroop-trial-1-incongruent-21", "trial_type": "html-keyboard-response", "trial_index": 220, "time_elapsed": 332712, "internal_node_id": "0.0-8.0-34.0"}}, {"uniqueid": "w25785962:a54296137", "current_trial": 221, "dateTime": 1664556148617, "trialdata": {"rt": 612, "stimulus": "<p id='stroop-text' class='stroop-blue'>RED</p>", "response": "b", "stimulus-type": "incongruent", "word": "red", "color": "blue", "correct_response": "b", "trial_id": "stroop-trial-1-incongruent-18", "trial_type": "html-keyboard-response", "trial_index": 221, "time_elapsed": 333841, "internal_node_id": "0.0-8.0-35.0"}}, {"uniqueid": "w25785962:a54296137", "current_trial": 222, "dateTime": 1664556149489, "trialdata": {"rt": 359, "stimulus": "<p id='stroop-text' class='stroop-blue'>BLUE</p>", "response": "b", "stimulus-type": "congruent", "word": "blue", "color": "blue", "correct_response": "b", "trial_id": "stroop-trial-1-congruent-13", "trial_type": "html-keyboard-response", "trial_index": 222, "time_elapsed": 3347